'Start Wavelength	183.907
'End Wavelength	1046.922
'Gate Delay	5.000
'Gate Width (ms)	1.050
'Laser Output Level	0.000
'X Position	0.000
'Y Position	0.000
'Z Position	0.000
'Grid Point Number	1.000
'Shot Number	100.000
183.907	685.000
183.977	-84.000
184.047	447
184.116	1085
184.186	-176
184.256	-383
184.325	-236
184.395	-641
184.465	827
184.534	-2
184.604	-929
184.674	-199
184.743	-678
184.813	667
184.883	175
184.952	38
185.022	-466
185.092	19
185.161	130
185.231	168
185.301	-347
185.370	808
185.440	95
185.509	7
185.579	-230
185.649	939
185.718	486
185.788	1025
185.857	221
185.927	-658
185.996	-1110
186.066	321
186.136	-108
186.205	-553
186.275	758
186.344	601
186.414	-72
186.483	-71
186.553	811
186.622	755
186.692	228
186.761	-5
186.831	-18
186.900	131
186.970	487
187.039	427
187.109	-142
187.178	-337
187.248	193
187.317	36
187.387	-274
187.456	71
187.526	141
187.595	367
187.664	232
187.734	778
187.803	-499
187.873	-138
187.942	349
188.012	860
188.081	-290
188.150	-306
188.220	579
188.289	409
188.358	-217
188.428	494
188.497	250
188.567	242
188.636	-739
188.705	669
188.775	-424
188.844	-491
188.913	315
188.983	335
189.052	109
189.121	-450
189.191	-543
189.260	696
189.329	-152
189.399	-103
189.468	-301
189.537	-110
189.606	256
189.676	-766
189.745	-101
189.814	378
189.883	-263
189.953	-608
190.022	-323
190.091	36
190.161	37
190.230	1024
190.299	-90
190.368	335
190.437	-730
190.507	222
190.576	-726
190.645	-78
190.714	218
190.783	-212
190.853	234
190.922	-369
190.991	387
191.060	973
191.129	-857
191.198	382
191.268	-275
191.337	-119
191.406	-341
191.475	542
191.544	-641
191.613	702
191.682	269
191.752	404
191.821	460
191.890	-241
191.959	-350
192.028	111
192.097	-541
192.166	1227
192.235	-904
192.304	353
192.373	-344
192.442	-324
192.511	-543
192.580	606
192.650	100
192.719	204
192.788	-112
192.857	-47
192.926	-151
192.995	-574
193.064	528
193.133	402
193.202	-31
193.271	650
193.340	108
193.409	-469
193.478	516
193.547	-128
193.615	-478
193.684	792
193.753	121
193.822	1125
193.891	-953
193.960	189
194.029	-182
194.098	631
194.167	290
194.236	178
194.305	280
194.374	-38
194.443	-627
194.512	-293
194.580	71
194.649	810
194.718	-143
194.787	-21
194.856	-654
194.925	261
194.994	-780
195.062	45
195.131	317
195.200	-241
195.269	-601
195.338	408
195.407	-143
195.475	467
195.544	665
195.613	137
195.682	393
195.751	339
195.819	-463
195.888	425
195.957	239
196.026	-136
196.094	269
196.163	-222
196.232	-376
196.301	251
196.369	-368
196.438	81
196.507	-361
196.576	-276
196.644	-272
196.713	-126
196.782	-294
196.850	-6
196.919	-202
196.988	229
197.056	-187
197.125	83
197.194	-34
197.262	413
197.331	-206
197.400	-223
197.468	-902
197.537	-752
197.606	242
197.674	704
197.743	568
197.812	45
197.880	-524
197.949	168
198.017	-378
198.086	421
198.155	53
198.223	84
198.292	-560
198.360	-871
198.429	-328
198.497	870
198.566	-963
198.635	346
198.703	449
198.772	-87
198.840	501
198.909	152
198.977	-71
199.046	129
199.114	47
199.183	-497
199.251	-368
199.320	260
199.388	-690
199.457	-139
199.525	-531
199.594	-50
199.662	-105
199.731	367
199.799	47
199.867	-197
199.936	30
200.004	407
200.073	564
200.141	317
200.210	-215
200.278	-721
200.346	541
200.415	462
200.483	-172
200.552	285
200.620	-257
200.688	-7
200.757	-47
200.825	322
200.893	-477
200.962	900
201.030	-331
201.098	-97
201.167	-424
201.235	-279
201.303	-83
201.372	477
201.440	-25
201.508	17
201.577	143
201.645	18
201.713	-340
201.781	236
201.850	760
201.918	150
201.986	-589
202.055	-103
202.123	-297
202.191	90
202.259	-42
202.327	616
202.396	-794
202.464	-248
202.532	-307
202.600	99
202.669	-408
202.737	-273
202.805	-700
202.873	-146
202.941	102
203.009	189
203.078	-424
203.146	0
203.214	-485
203.282	188
203.350	-424
203.418	619
203.487	-235
203.555	-224
203.623	-415
203.691	12
203.759	-625
203.827	-62
203.895	-664
203.963	-739
204.031	-425
204.099	462
204.168	200
204.236	397
204.304	175
204.372	631
204.440	-875
204.508	-476
204.576	-618
204.644	391
204.712	-300
204.780	-421
204.848	-222
204.916	-323
204.984	71
205.052	275
205.120	-582
205.188	-240
205.256	-169
205.324	-202
205.392	-1066
205.460	-421
205.528	-1137
205.596	-313
205.664	-1183
205.732	-573
205.799	-917
205.867	362
205.935	-1138
206.003	496
206.071	-1221
206.139	343
206.207	-228
206.275	204
206.343	-313
206.411	-188
206.478	-236
206.546	230
206.614	115
206.682	-366
206.750	-442
206.818	87
206.885	750
206.953	-631
207.021	915
207.089	182
207.157	-372
207.225	211
207.292	-344
207.360	62
207.428	-1123
207.496	-466
207.563	183
207.631	-124
207.699	-1052
207.767	-574
207.834	-280
207.902	-7
207.970	-694
208.038	252
208.105	367
208.173	-245
208.241	294
208.309	819
208.376	-166
208.444	-298
208.512	-1028
208.579	-275
208.647	-285
208.715	151
208.782	-122
208.850	827
208.918	-524
208.985	93
209.053	-129
209.120	658
209.188	-626
209.256	186
209.323	-768
209.391	148
209.459	736
209.526	515
209.594	-784
209.661	-34
209.729	-280
209.796	179
209.864	125
209.932	-1137
209.999	753
210.067	-182
210.134	-729
210.202	376
210.269	-333
210.337	1045
210.404	-423
210.472	310
210.539	-686
210.607	-101
210.674	-741
210.742	512
210.809	-630
210.877	477
210.944	-310
211.012	-952
211.079	1352
211.146	-517
211.214	-541
211.281	660
211.349	501
211.416	822
211.484	222
211.551	-690
211.618	-842
211.686	-68
211.753	-763
211.821	693
211.888	-543
211.955	100
212.023	55
212.090	-625
212.157	-731
212.225	329
212.292	-599
212.359	-191
212.427	512
212.494	647
212.561	-295
212.629	-472
212.696	-559
212.763	69
212.831	-868
212.898	24
212.965	-302
213.032	154
213.100	-856
213.167	-255
213.234	-279
213.301	-638
213.369	-209
213.436	-600
213.503	-932
213.570	89
213.638	187
213.705	-341
213.772	-744
213.839	-393
213.906	455
213.973	-517
214.041	-736
214.108	-587
214.175	170
214.242	-197
214.309	-308
214.376	-94
214.444	403
214.511	139
214.578	-1324
214.645	556
214.712	119
214.779	-25
214.846	-1100
214.913	-56
214.980	112
215.048	-115
215.115	421
215.182	556
215.249	-237
215.316	-499
215.383	-266
215.450	-92
215.517	-409
215.584	-77
215.651	-529
215.718	-312
215.785	-333
215.852	-865
215.919	-274
215.986	-40
216.053	-1042
216.120	-94
216.187	-4
216.254	-106
216.321	-1158
216.388	-358
216.455	-1253
216.522	-162
216.589	-543
216.656	645
216.722	-466
216.789	853
216.856	-178
216.923	-406
216.990	-1066
217.057	-274
217.124	-465
217.191	-276
217.258	-176
217.324	-325
217.391	-12
217.458	-656
217.525	-849
217.592	-301
217.659	-1680
217.725	235
217.792	-458
217.859	291
217.926	-963
217.993	151
218.059	675
218.126	341
218.193	-310
218.260	23
218.327	-325
218.393	-429
218.460	-739
218.527	-97
218.594	-565
218.660	-183
218.727	-124
218.794	-491
218.860	6
218.927	-329
218.994	-880
219.061	-844
219.127	-826
219.194	-197
219.261	-159
219.327	-256
219.394	-1058
219.461	-974
219.527	-852
219.594	-823
219.661	-269
219.727	-873
219.794	784
219.860	336
219.927	-302
219.994	1341
220.060	1298
220.127	1531
220.193	317
220.260	-137
220.326	129
220.393	-118
220.460	-1125
220.526	-501
220.593	-1083
220.659	936
220.726	-753
220.792	659
220.859	-477
220.925	120
220.992	-1022
221.058	836
221.125	519
221.191	-150
221.258	-331
221.324	540
221.391	-1179
221.457	-1114
221.524	-696
221.590	-222
221.657	-86
221.723	-590
221.789	-188
221.856	522
221.922	-1238
221.989	411
222.055	-321
222.121	-970
222.188	642
222.254	-189
222.321	135
222.387	-498
222.453	-951
222.520	-184
222.586	-461
222.652	-497
222.719	-1013
222.785	870
222.851	-439
222.918	-546
222.984	-564
223.050	-520
223.116	-2082
223.183	237
223.249	-1380
223.315	-799
223.382	-626
223.448	-720
223.514	-1067
223.580	-457
223.647	-563
223.713	-727
223.779	-529
223.845	-325
223.911	-172
223.978	-808
224.044	-575
224.110	-1043
224.176	-1053
224.242	-46
224.309	-1444
224.375	-430
224.441	-478
224.507	-298
224.573	-1666
224.639	220
224.705	-930
224.772	316
224.838	-1185
224.904	-261
224.970	-620
225.036	-774
225.102	-2009
225.168	-385
225.234	-2
225.300	-789
225.366	-669
225.432	-328
225.499	-402
225.565	-542
225.631	-1179
225.697	-84
225.763	-395
225.829	-656
225.895	-642
225.961	131
226.027	18
226.093	-233
226.159	2
226.225	521
226.291	-95
226.357	1542
226.423	-154
226.489	276
226.554	-864
226.620	-324
226.686	-182
226.752	-721
226.818	124
226.884	871
226.950	1411
227.016	302
227.082	325
227.148	267
227.214	101
227.279	-280
227.345	-474
227.411	1203
227.477	1658
227.543	2684
227.609	2485
227.674	3012
227.740	596
227.806	857
227.872	1
227.938	-166
228.003	-162
228.069	-213
228.135	-390
228.201	10
228.267	-178
228.332	104
228.398	-2356
228.464	-109
228.530	-330
228.595	-453
228.661	-739
228.727	-1298
228.792	-135
228.858	-775
228.924	-2084
228.990	1175
229.055	-1150
229.121	-431
229.187	-448
229.252	-391
229.318	-473
229.384	459
229.449	-695
229.515	-1647
229.581	-1408
229.646	1165
229.712	-545
229.777	-535
229.843	-522
229.909	394
229.974	318
230.040	108
230.105	-536
230.171	-615
230.236	-668
230.302	-39
230.368	-452
230.433	-577
230.499	-149
230.564	432
230.630	-1065
230.695	-232
230.761	96
230.826	-1218
230.892	966
230.957	-597
231.023	-1013
231.088	-603
231.154	-984
231.219	190
231.284	-1023
231.350	-6
231.415	-1783
231.481	677
231.546	-596
231.612	-276
231.677	-742
231.742	-1472
231.808	377
231.873	270
231.939	-1608
232.004	899
232.069	262
232.135	-610
232.200	-1730
232.265	696
232.331	-1362
232.396	-582
232.461	-939
232.527	-1262
232.592	-1277
232.657	-256
232.723	-482
232.788	-269
232.853	-919
232.918	-673
232.984	-808
233.049	-178
233.114	-919
233.179	-271
233.245	585
233.310	181
233.375	-1558
233.440	-325
233.506	-1072
233.571	-953
233.636	-733
233.701	683
233.766	-650
233.832	-389
233.897	-1121
233.962	-1579
234.027	-121
234.092	194
234.157	-770
234.222	-815
234.288	-735
234.353	-312
234.418	-91
234.483	-198
234.548	-804
234.613	-556
234.678	-275
234.743	-503
234.808	195
234.873	-1457
234.938	641
235.004	-702
235.069	-284
235.134	-828
235.199	-207
235.264	113
235.329	-2168
235.394	-260
235.459	-90
235.524	-1426
235.589	-555
235.654	-401
235.719	-1531
235.784	183
235.849	-938
235.913	-346
235.978	-1210
236.043	-52
236.108	-375
236.173	-1090
236.238	-585
236.303	-1459
236.368	-1324
236.433	668
236.498	-1027
236.563	-698
236.627	-383
236.692	2074
236.757	1068
236.822	170
236.887	-1533
236.952	417
237.017	-845
237.081	288
237.146	-1657
237.211	1421
237.276	1595
237.341	4214
237.405	79
237.470	-525
237.535	-41
237.600	-119
237.664	-671
237.729	-1057
237.794	-1502
237.859	336
237.923	-82
237.988	-219
238.053	-171
238.118	18
238.182	-420
238.247	1060
238.312	-1633
238.376	328
238.441	-1951
238.506	1038
238.570	-938
238.635	333
238.700	-539
238.764	-480
238.829	-622
238.893	-1087
238.958	573
239.023	-543
239.087	-766
239.152	101
239.216	-1987
239.281	-204
239.346	-661
239.410	-216
239.475	-1029
239.539	697
239.604	-1093
239.668	1222
239.733	1445
239.797	4629
239.862	5851
239.926	5996
239.991	2830
240.055	1491
240.120	-315
240.184	639
240.249	-823
240.313	-399
240.378	-645
240.442	520
240.507	-261
240.571	-167
240.635	-392
240.700	237
240.764	-226
240.829	484
240.893	-2109
240.957	-75
241.022	141
241.086	-234
241.151	-1412
241.215	-733
241.279	-319
241.344	-730
241.408	-235
241.472	-909
241.537	35
241.601	-286
241.665	-1052
241.730	-1301
241.794	-92
241.858	-706
241.922	-318
241.987	-323
242.051	-580
242.115	-705
242.179	-795
242.244	-963
242.308	282
242.372	540
242.436	-1183
242.501	-380
242.565	-1363
242.629	-1273
242.693	-721
242.757	-517
242.822	-942
242.886	-537
242.950	65
243.014	-840
243.078	-565
243.142	-301
243.206	-962
243.271	-115
243.335	-975
243.399	128
243.463	238
243.527	2182
243.591	-244
243.655	60
243.719	-1513
243.783	108
243.847	-694
243.911	-329
243.975	-1079
244.040	-1063
244.104	607
244.168	-1005
244.232	-1093
244.296	-1241
244.360	-832
244.424	-581
244.488	-956
244.552	-85
244.615	-1628
244.679	-163
244.743	-1596
244.807	-1019
244.871	-545
244.935	50
244.999	-2572
245.063	-141
245.127	605
245.191	-647
245.255	-1360
245.319	167
245.383	-1977
245.446	476
245.510	-1222
245.574	-567
245.638	-646
245.702	-1293
245.766	-1289
245.829	729
245.893	-1101
245.957	-686
246.021	675
246.085	-584
246.149	-919
246.212	624
246.276	-1304
246.340	-529
246.404	-211
246.467	749
246.531	-2249
246.595	628
246.659	-97
246.722	-1223
246.786	-326
246.850	81
246.913	-1031
246.977	-2231
247.041	-336
247.104	-486
247.168	-90
247.232	-706
247.295	592
247.359	966
247.423	-1392
247.486	-390
247.550	-495
247.614	-376
247.677	-188
247.741	-1001
247.804	-431
247.868	1254
247.932	-1046
247.995	1120
248.059	-1342
248.122	-1585
248.186	148
248.249	49
248.313	1370
248.376	2248
248.440	57
248.503	-1334
248.567	93
248.630	-1113
248.694	-822
248.757	567
248.821	866
248.884	2305
248.948	-111
249.011	947
249.075	1546
249.138	1889
249.202	-487
249.265	-263
249.328	-305
249.392	-1024
249.455	784
249.519	302
249.582	-876
249.645	608
249.709	-859
249.772	-519
249.835	-394
249.899	-667
249.962	-841
250.025	-669
250.089	670
250.152	413
250.215	-1123
250.279	-116
250.342	38
250.405	270
250.468	-1009
250.532	-189
250.595	240
250.658	2484
250.721	6600
250.785	844
250.848	447
250.911	-546
250.974	488
251.038	-533
251.101	1323
251.164	-280
251.227	-404
251.290	535
251.354	668
251.417	4932
251.480	3977
251.543	2497
251.606	10066
251.669	6227
251.732	1453
251.795	1166
251.859	2033
251.922	5110
251.985	3180
252.048	1102
252.111	-507
252.174	-953
252.237	795
252.300	1685
252.363	1322
252.426	8161
252.489	1405
252.552	837
252.615	-775
252.678	727
252.741	1144
252.804	2277
252.867	8426
252.930	3572
252.993	28
253.056	649
253.119	-1014
253.182	-739
253.245	-902
253.308	948
253.371	-1020
253.434	-44
253.497	203
253.559	1292
253.622	-683
253.685	-19
253.748	-345
253.811	-323
253.874	-42
253.937	-1036
254.000	94
254.062	-149
254.125	-45
254.188	1075
254.251	-991
254.314	-361
254.376	-1051
254.439	862
254.502	-384
254.565	-316
254.628	867
254.690	215
254.753	-815
254.816	-695
254.878	-473
254.941	599
255.004	-981
255.067	131
255.129	-1455
255.192	-115
255.255	-1671
255.317	-414
255.380	-961
255.443	-708
255.505	-585
255.568	-684
255.631	-824
255.693	213
255.756	-992
255.819	1014
255.881	-371
255.944	-522
256.006	-1249
256.069	-428
256.132	185
256.194	-329
256.257	-274
256.319	303
256.382	246
256.444	1745
256.507	398
256.569	-403
256.632	-760
256.694	-820
256.757	392
256.819	3912
256.882	-839
256.944	-78
257.007	726
257.069	-167
257.132	-1126
257.194	151
257.257	-1094
257.319	-693
257.381	-853
257.444	1544
257.506	4277
257.569	4241
257.631	530
257.693	673
257.756	-151
257.818	-264
257.880	-995
257.943	410
258.005	-1383
258.067	-757
258.130	-441
258.192	-807
258.254	-1521
258.317	591
258.379	-280
258.441	-689
258.503	284
258.566	-302
258.628	877
258.690	-974
258.753	-622
258.815	-95
258.877	-1238
258.939	363
259.001	502
259.064	-183
259.126	-1580
259.188	-481
259.250	-54
259.312	170
259.375	39
259.437	-291
259.499	-1095
259.561	-587
259.623	-106
259.685	-723
259.747	-919
259.809	357
259.872	-321
259.934	1869
259.996	888
260.058	69
260.120	-890
260.182	219
260.244	-652
260.306	-1122
260.368	-147
260.430	-830
260.492	-145
260.554	736
260.616	-1341
260.678	253
260.740	50
260.802	-1352
260.864	33
260.926	-873
260.988	583
261.050	-289
261.112	-424
261.174	1712
261.236	-522
261.298	-657
261.359	207
261.421	567
261.483	-1201
261.545	-22
261.607	-1139
261.669	65
261.731	-960
261.793	53
261.854	-2157
261.916	336
261.978	-649
262.040	149
262.102	-58
262.164	-744
262.225	-330
262.287	-466
262.349	-141
262.411	-25
262.472	-487
262.534	-1572
262.596	-775
262.658	854
262.719	-935
262.781	50
262.843	-972
262.904	78
262.966	388
263.028	-347
263.090	868
263.151	2093
263.213	524
263.275	-287
263.336	-766
263.398	1559
263.459	-1256
263.521	-264
263.583	99
263.644	473
263.706	-795
263.767	-1056
263.829	685
263.891	-274
263.952	-910
264.014	-542
264.075	-269
264.137	786
264.198	-196
264.260	-968
264.321	-178
264.383	-20
264.444	-52
264.506	-424
264.567	519
264.629	1030
264.690	-641
264.752	554
264.813	263
264.875	-491
264.936	-156
264.998	-536
265.059	-999
265.120	326
265.182	-1202
265.243	446
265.305	418
265.366	-150
265.427	-449
265.489	1521
265.550	-830
265.611	-266
265.673	-276
265.734	-151
265.795	244
265.857	-741
265.918	-443
265.979	737
266.040	2539
266.102	1684
266.163	185
266.224	-943
266.286	246
266.347	-432
266.408	-934
266.469	45
266.530	-916
266.592	-414
266.653	-614
266.714	-635
266.775	-301
266.836	-6
266.898	-326
266.959	-150
267.020	-223
267.081	834
267.142	-344
267.203	62
267.264	-1148
267.326	618
267.387	-68
267.448	-558
267.509	-124
267.570	-563
267.631	-1160
267.692	-234
267.753	155
267.814	-1294
267.875	52
267.936	75
267.997	-891
268.058	-200
268.119	-677
268.180	-1099
268.241	-1045
268.302	-798
268.363	-387
268.424	-275
268.485	-530
268.546	-504
268.607	-1292
268.668	-41
268.729	-738
268.790	-189
268.851	126
268.912	-308
268.972	-912
269.033	-637
269.094	-1602
269.155	171
269.216	-722
269.277	73
269.338	-903
269.398	7
269.459	-1220
269.520	-59
269.581	-371
269.642	-520
269.702	-1162
269.763	287
269.824	-944
269.885	-166
269.945	-159
270.006	506
270.067	-822
270.128	-264
270.188	-609
270.249	-245
270.310	-1607
270.370	956
270.431	-856
270.492	-1012
270.553	-567
270.613	-150
270.674	-284
270.734	-384
270.795	-727
270.856	187
270.916	-1012
270.977	-521
271.038	17
271.098	-385
271.159	-1228
271.219	-627
271.280	-150
271.340	-77
271.401	-1926
271.462	304
271.522	105
271.583	-132
271.643	-695
271.704	-694
271.764	-293
271.825	206
271.885	1963
271.946	2843
272.006	-382
272.066	614
272.127	2365
272.187	5444
272.248	1244
272.308	31
272.369	1368
272.429	320
272.489	-261
272.550	5
272.610	-399
272.671	-266
272.731	47
272.791	-383
272.852	-858
272.912	201
272.972	-251
273.033	64
273.093	-479
273.153	-456
273.214	-595
273.274	-963
273.334	558
273.394	1386
273.455	340
273.515	929
273.575	232
273.635	513
273.696	618
273.756	1621
273.816	350
273.876	246
273.936	585
273.997	276
274.057	-332
274.117	-683
274.177	-236
274.237	2137
274.297	1122
274.358	441
274.418	576
274.478	134
274.538	-917
274.598	-125
274.658	-342
274.718	358
274.778	283
274.838	-68
274.898	-700
274.958	732
275.018	1849
275.078	932
275.138	-605
275.198	483
275.258	-814
275.318	93
275.378	414
275.438	75
275.498	-572
275.558	508
275.618	1153
275.678	1036
275.738	45
275.798	-901
275.858	-254
275.918	-680
275.978	-68
276.038	170
276.098	-318
276.157	399
276.217	1132
276.277	94
276.337	-989
276.397	389
276.457	105
276.517	641
276.576	-382
276.636	-487
276.696	-695
276.756	948
276.815	-269
276.875	333
276.935	6
276.995	141
277.055	107
277.114	1367
277.174	-298
277.234	1044
277.293	-1051
277.353	409
277.413	-128
277.472	506
277.532	-212
277.592	219
277.651	1764
277.711	3472
277.771	559
277.830	4419
277.890	2561
277.950	2739
278.009	8716
278.069	3125
278.128	3172
278.188	3979
278.248	1454
278.307	5167
278.367	3556
278.426	238
278.486	-17
278.545	-268
278.605	74
278.664	962
278.724	-6
278.783	1332
278.843	2283
278.902	806
278.962	198
279.021	937
279.081	924
279.140	686
279.199	343
279.259	737
279.318	289
279.378	1857
279.437	1885
279.496	7488
279.556	35145
279.615	24826
279.675	5453
279.734	3521
279.793	2796
279.853	4457
279.912	1838
279.971	2440
280.031	458
280.090	2033
280.149	3533
280.208	3495
280.268	22778
280.327	21919
280.386	3454
280.445	2463
280.505	1098
280.564	786
280.623	-61
280.682	603
280.742	694
280.801	564
280.860	-164
280.919	782
280.978	475
281.037	-197
281.097	44
281.156	577
281.215	-63
281.274	615
281.333	1323
281.392	538
281.451	-371
281.510	714
281.569	645
281.628	65
281.688	-511
281.747	122
281.806	-351
281.865	369
281.924	-400
281.983	-594
282.042	-328
282.101	190
282.160	373
282.219	-7
282.278	-211
282.337	626
282.396	-494
282.454	183
282.513	-138
282.572	1082
282.631	438
282.690	474
282.749	-480
282.808	1216
282.867	113
282.926	623
282.985	-277
283.043	566
283.102	-1176
283.161	99
283.220	-632
283.279	1074
283.338	595
283.396	-99
283.455	25
283.514	220
283.573	199
283.631	-82
283.690	-741
283.749	583
283.808	-136
283.866	-1
283.925	-9
283.984	1245
284.043	302
284.101	-147
284.160	-259
284.219	816
284.277	847
284.336	82
284.395	321
284.453	885
284.512	378
284.570	1037
284.629	386
284.688	-180
284.746	611
284.805	868
284.863	1134
284.922	2178
284.981	2865
285.039	4747
285.098	8234
285.156	19685
285.215	33784
285.273	33852
285.332	20829
285.390	10795
285.449	5870
285.507	4565
285.566	2342
285.624	2530
285.683	1395
285.741	845
285.799	1484
285.858	953
285.916	-429
285.975	1035
286.033	690
286.091	987
286.150	244
286.208	1518
286.267	317
286.325	470
286.383	686
286.442	859
286.500	291
286.558	521
286.616	-78
286.675	22
286.733	-556
286.791	695
286.850	59
286.908	-179
286.966	-438
287.024	382
287.083	-578
287.141	113
287.199	514
287.257	348
287.315	913
287.374	211
287.432	-59
287.490	793
287.548	282
287.606	123
287.664	182
287.723	1181
287.781	847
287.839	562
287.897	169
287.955	810
288.013	897
288.071	1256
288.129	7311
288.187	23826
288.245	8405
288.303	2270
288.361	1265
288.419	1132
288.477	1204
288.535	639
288.593	474
288.651	600
288.709	787
288.767	-39
288.825	-781
288.883	249
288.941	45
288.999	72
289.057	312
289.115	451
289.173	-234
289.231	1004
289.289	163
289.346	542
289.404	-453
289.462	360
289.520	-587
289.578	396
289.636	209
289.694	84
289.751	-112
289.809	75
289.867	548
289.925	1073
289.983	518
290.040	710
290.098	-277
290.156	41
290.214	356
290.271	-12
290.329	79
290.387	559
290.444	556
290.502	385
290.560	534
290.617	1175
290.675	-519
290.733	882
290.790	-75
290.848	1296
290.906	249
290.963	-148
291.021	228
291.078	-83
291.136	-770
291.194	1452
291.251	1017
291.309	827
291.366	-306
291.424	466
291.481	462
291.539	-78
291.596	-162
291.654	194
291.711	-60
291.769	221
291.826	705
291.884	-142
291.941	-42
291.999	509
292.056	50
292.114	388
292.171	637
292.228	942
292.286	656
292.343	-57
292.401	-370
292.458	671
292.515	868
292.573	764
292.630	744
292.687	924
292.745	-25
292.802	-175
292.859	276
292.917	1795
292.974	22
293.031	346
293.089	-239
293.146	-115
293.203	-65
293.260	53
293.318	150
293.375	233
293.432	354
293.489	383
293.546	44
293.604	-365
293.661	572
293.718	3554
293.775	1037
293.832	1021
293.889	303
293.947	879
294.004	-435
294.061	-20
294.118	-188
294.175	1495
294.232	1487
294.289	819
294.346	-10
294.403	620
294.460	161
294.517	193
294.574	321
294.631	21
294.688	643
294.745	1382
294.802	3185
294.859	2776
294.916	249
294.973	513
295.030	188
295.087	-60
295.144	-375
295.201	1297
295.258	372
295.315	276
295.372	1031
295.429	2959
295.486	75
295.542	1016
295.599	-187
295.656	1958
295.713	360
295.770	1970
295.827	613
295.883	389
295.940	-72
295.997	414
296.054	340
296.111	-54
296.167	653
296.224	1117
296.281	-516
296.338	810
296.394	302
296.451	332
296.508	770
296.564	1478
296.621	276
296.678	2942
296.734	3461
296.791	886
296.848	-114
296.904	652
296.961	324
297.018	3010
297.074	1455
297.131	796
297.187	202
297.244	178
297.301	2715
297.357	4513
297.414	909
297.470	1066
297.527	8
297.583	566
297.640	165
297.696	439
297.753	-304
297.809	61
297.866	-24
297.922	827
297.979	-543
298.035	-375
298.092	206
298.148	1400
298.204	1030
298.261	431
298.317	1659
298.374	2947
298.430	1464
298.486	1622
298.543	-397
298.599	776
298.656	189
298.712	870
298.768	911
298.824	958
298.881	169
298.937	1216
298.993	80
299.050	1043
299.106	-123
299.162	390
299.218	582
299.275	742
299.331	191
299.387	1842
299.443	4691
299.500	10952
299.556	8625
299.612	3894
299.668	2523
299.724	8158
299.780	11126
299.837	3533
299.893	2711
299.949	7562
300.005	10743
300.061	9290
300.117	14005
300.173	6140
300.229	2294
300.285	1467
300.341	1153
300.397	1811
300.453	947
300.510	1510
300.566	2239
300.622	4483
300.678	14917
300.734	19220
300.790	8081
300.845	6392
300.901	7965
300.957	12494
301.013	5380
301.069	2977
301.125	2013
301.181	1109
301.237	1258
301.293	490
301.349	905
301.405	958
301.461	410
301.516	955
301.572	413
301.628	-658
301.684	-98
301.740	560
301.796	1362
301.851	647
301.907	349
301.963	1500
302.019	2472
302.074	8640
302.130	9363
302.186	3470
302.242	1376
302.297	159
302.353	609
302.409	780
302.464	505
302.520	580
302.576	1804
302.631	2931
302.687	1096
302.743	637
302.798	-291
302.854	303
302.910	183
302.965	306
303.021	76
303.076	168
303.132	-133
303.187	511
303.243	535
303.299	1076
303.354	-453
303.410	639
303.465	-192
303.521	107
303.576	-59
303.632	117
303.687	60
303.743	2664
303.798	1946
303.853	891
303.909	348
303.964	156
304.020	194
304.075	652
304.130	-498
304.186	874
304.241	657
304.297	104
304.352	697
304.358	700
304.407	719
304.449	357
304.463	237
304.518	1417
304.539	906
304.573	61
304.629	453
304.630	451
304.684	405
304.720	1618
304.739	2205
304.794	2541
304.811	2515
304.850	2459
304.902	3
304.905	-162
304.960	699
304.992	858
305.015	1011
305.071	387
305.083	414
305.126	384
305.173	389
305.181	414
305.236	571
305.264	667
305.292	684
305.347	60
305.354	59
305.402	199
305.445	913
305.457	1069
305.512	925
305.535	614
305.567	307
305.622	-44
305.626	18
305.678	1092
305.716	2114
305.733	2489
305.788	2563
305.807	2379
305.843	2169
305.897	2691
305.898	2693
305.953	3295
305.988	2102
306.008	1457
306.063	667
306.078	534
306.118	371
306.168	509
306.173	512
306.228	517
306.259	340
306.283	297
306.338	502
306.349	750
306.393	1519
306.440	515
306.448	360
306.503	713
306.530	635
306.558	616
306.613	1437
306.620	1389
306.668	1158
306.711	2231
306.723	2371
306.778	1245
306.801	1019
306.833	1127
306.888	884
306.892	904
306.943	912
306.982	671
306.997	665
307.052	804
307.072	841
307.107	828
307.162	911
307.163	904
307.217	701
307.253	1114
307.272	1274
307.327	748
307.343	784
307.381	1060
307.434	894
307.436	901
307.491	1265
307.524	1387
307.546	1265
307.600	2203
307.614	1940
307.655	1189
307.704	1185
307.710	1221
307.765	993
307.795	1245
307.819	1458
307.874	1742
307.885	1708
307.929	1616
307.975	2360
307.984	2552
308.038	3086
308.065	3389
308.093	6821
308.148	15369
308.156	17292
308.202	25219
308.246	29414
308.257	28123
308.312	12906
308.336	7624
308.366	5498
308.421	2646
308.426	2488
308.475	2603
308.517	2324
308.530	2106
308.585	1832
308.607	1472
308.639	1175
308.694	1441
308.697	1441
308.748	1822
308.787	2034
308.803	2035
308.857	2468
308.877	2355
308.912	2411
308.967	2937
308.967	2934
309.021	3951
309.058	4632
309.076	5532
309.130	9168
309.148	10339
309.185	23546
309.238	46238
309.239	46312
309.293	45689
309.328	38256
309.348	32079
309.402	14100
309.418	9739
309.457	7131
309.508	4408
309.511	4404
309.566	5199
309.598	5714
309.620	6410
309.674	8761
309.688	9337
309.729	8823
309.778	7335
309.783	7197
309.837	5466
309.868	4455
309.892	4365
309.946	4294
309.959	4387
310.001	4788
310.049	4658
310.055	4506
310.109	3605
310.139	2726
310.163	2423
310.218	2075
310.229	1998
310.272	2157
310.319	2588
310.326	2592
310.381	2149
310.409	2024
310.435	2221
310.489	2515
310.499	2562
310.543	2207
310.589	1876
310.598	1952
310.652	2402
310.679	2421
310.706	2237
310.760	2260
310.769	2255
310.814	2665
310.859	2875
310.868	2885
310.923	2903
310.948	2869
310.977	2775
311.031	2677
311.038	2661
311.085	2727
311.128	2532
311.139	2440
311.193	2205
311.218	2003
311.247	2262
311.301	2930
311.308	2974
311.356	2796
311.398	2658
311.410	2731
311.464	3062
311.488	3202
311.518	3074
311.572	2773
311.578	2735
311.626	2548
311.668	2295
311.680	2477
311.734	3361
311.758	3661
311.788	3088
311.842	2107
311.847	1996
311.896	2905
311.937	3677
311.950	3578
312.004	3090
312.027	2861
312.058	2888
312.112	2914
312.117	2907
312.165	3060
312.207	3170
312.297	4018
312.386	2713
312.476	3122
312.566	3797
312.656	2893
312.745	3494
312.835	3066
312.925	3171
313.015	4021
313.104	3858
313.194	4375
313.284	4208
313.374	4173
313.463	4288
313.553	4693
313.643	4245
313.732	5418
313.822	4775
313.912	6201
314.001	6238
314.091	7029
314.180	6024
314.270	6711
314.360	5918
314.449	6897
314.539	4858
314.628	5857
314.718	6329
314.808	7328
314.897	7113
314.987	8056
315.076	8153
315.166	7373
315.255	7116
315.345	7138
315.434	5834
315.524	7026
315.613	8039
315.703	10323
315.792	27425
315.881	86013
315.971	23867
316.060	9497
316.150	7012
316.239	7090
316.328	6492
316.418	7784
316.507	6732
316.597	9412
316.686	7931
316.775	8283
316.865	8217
316.954	7386
317.043	5924
317.133	5893
317.222	5403
317.311	5782
317.400	3908
317.490	6565
317.579	5962
317.668	8170
317.757	12988
317.847	46995
317.936	123239
318.025	35537
318.114	34954
318.203	14368
318.293	6716
318.382	11703
318.471	12161
318.560	10561
318.649	10970
318.738	6332
318.828	4700
318.917	4232
319.006	4494
319.095	5287
319.184	8102
319.273	6231
319.362	4498
319.451	4279
319.540	4263
319.629	4741
319.718	4038
319.807	5110
319.896	4808
319.985	11294
320.074	6054
320.163	4808
320.252	4628
320.341	5894
320.430	4950
320.519	6484
320.608	6166
320.697	8228
320.786	8168
320.875	9769
320.964	11111
321.053	11488
321.142	12181
321.230	13620
321.319	14932
321.408	17086
321.497	15707
321.586	13890
321.675	10856
321.764	11820
321.852	11564
321.941	11999
322.030	12243
322.119	14007
322.207	16201
322.296	18269
322.385	18955
322.474	21769
322.562	23381
322.651	17261
322.740	14075
322.829	12722
322.917	10584
323.006	9619
323.095	9233
323.183	8650
323.272	8707
323.361	7962
323.449	9764
323.538	7003
323.626	6937
323.715	6824
323.804	6085
323.892	7288
323.981	6176
324.069	5720
324.158	5403
324.246	6519
324.335	5501
324.424	5687
324.512	4899
324.601	6377
324.689	4671
324.778	6976
324.866	5302
324.954	5237
325.043	3858
325.131	4333
325.220	5659
325.308	5162
325.397	4463
325.485	5225
325.574	3900
325.662	4831
325.750	3857
325.839	4624
325.927	4477
326.015	4790
326.104	4716
326.192	4744
326.280	3860
326.369	4001
326.457	4279
326.545	4619
326.634	4487
326.722	4972
326.810	4800
326.898	6775
326.987	5167
327.075	5056
327.163	5371
327.251	5029
327.340	6131
327.428	9003
327.516	9737
327.604	6797
327.692	5539
327.781	5061
327.869	4855
327.957	4332
328.045	4217
328.133	4778
328.221	3687
328.309	4532
328.397	4186
328.485	5080
328.574	8937
328.662	13046
328.750	7950
328.838	5893
328.926	4268
329.014	4477
329.102	4575
329.190	4871
329.278	3724
329.366	4883
329.454	3667
329.542	4397
329.630	3941
329.718	5041
329.806	3605
329.893	5346
329.981	2899
330.069	5174
330.157	5142
330.245	11782
330.333	6479
330.421	4794
330.509	3908
330.597	5201
330.684	4329
330.772	4087
330.860	3837
330.948	4614
331.036	3135
331.123	3374
331.211	3714
331.299	4493
331.387	4511
331.475	4154
331.562	3897
331.650	4571
331.738	3515
331.825	4586
331.913	3529
332.001	4134
332.089	3489
332.176	4732
332.264	4940
332.352	4459
332.439	3997
332.527	5179
332.614	3194
332.702	4586
332.790	3653
332.877	5332
332.965	5511
333.052	5604
333.140	4733
333.228	8321
333.315	4858
333.403	5821
333.490	5645
333.578	6107
333.665	9026
333.753	7116
333.840	5443
333.928	8142
334.015	8444
334.103	11522
334.190	18051
334.278	18837
334.365	25484
334.452	25684
334.540	17282
334.627	17334
334.715	22713
334.802	31321
334.889	48838
334.977	59682
335.064	37372
335.151	19627
335.239	14871
335.326	13491
335.413	15161
335.501	15834
335.588	13206
335.675	15882
335.762	19113
335.850	26777
335.937	36279
336.024	58202
336.111	84206
336.199	70956
336.286	35889
336.373	21400
336.460	13968
336.547	12235
336.635	9634
336.722	9616
336.809	7889
336.896	8010
336.983	7952
337.070	10496
337.157	12896
337.245	10020
337.332	7527
337.419	6858
337.506	6178
337.593	7096
337.680	6366
337.767	8848
337.854	6220
337.941	5378
338.028	6398
338.115	6202
338.202	6000
338.289	6349
338.376	6733
338.463	5529
338.550	6407
338.637	6863
338.724	4989
338.811	6033
338.898	4233
338.984	4818
339.071	4521
339.158	5417
339.245	4652
339.332	4757
339.419	5271
339.506	5446
339.593	3813
339.679	5889
339.766	3909
339.853	4537
339.940	4575
340.027	5197
340.113	3877
340.200	4882
340.287	4490
340.374	3774
340.460	3895
340.547	4015
340.634	4799
340.720	6493
340.807	4281
340.894	4774
340.980	3835
341.067	4327
341.154	4827
341.240	4969
341.327	5241
341.414	6019
341.500	4087
341.587	5395
341.674	5108
341.760	5181
341.847	5027
341.933	5071
342.020	4409
342.106	4934
342.193	4162
342.279	4644
342.366	4340
342.452	4878
342.539	4200
342.625	5233
342.712	4595
342.798	5162
342.885	3505
342.971	3985
343.058	3556
343.144	4339
343.230	4015
343.317	4795
343.403	3873
343.490	4297
343.576	3814
343.662	4439
343.749	4407
343.835	4716
343.921	4665
344.008	11982
344.094	17844
344.180	6812
344.267	4161
344.353	6517
344.439	5869
344.525	4480
344.612	4024
344.698	4515
344.784	3223
344.870	3967
344.957	3851
345.043	5189
345.129	3821
345.215	5092
345.301	3651
345.387	3875
345.474	4220
345.560	4169
345.646	2981
345.732	4425
345.818	3225
345.904	4906
345.990	3487
346.076	4790
346.162	2862
346.249	5142
346.335	3146
346.421	4960
346.507	5024
346.593	8327
346.679	3780
346.765	6588
346.851	8741
346.937	6861
347.023	5553
347.108	4570
347.194	4775
347.280	5995
347.366	6781
347.452	19281
347.538	22823
347.624	12426
347.710	7561
347.796	5096
347.882	4169
347.967	5174
348.053	4299
348.139	5036
348.225	4307
348.311	4695
348.397	5007
348.482	4850
348.568	4703
348.654	8417
348.740	25821
348.825	25298
348.911	11130
348.997	9246
349.083	9439
349.168	5269
349.254	4626
349.340	5095
349.425	3827
349.511	5742
349.597	5307
349.682	5142
349.768	7188
349.854	6158
349.939	4724
350.025	5122
350.110	4582
350.196	6199
350.282	3592
350.367	4748
350.453	5161
350.538	4161
350.624	4108
350.709	5604
350.795	3628
350.880	4272
350.966	4850
351.051	5050
351.137	4461
351.222	4849
351.308	5295
351.393	5641
351.479	3521
351.564	4496
351.649	4689
351.735	4524
351.820	4629
351.906	5201
351.991	4399
352.076	5046
352.162	4753
352.247	4861
352.332	3635
352.418	4226
352.503	4267
352.588	5942
352.673	4940
352.759	4227
352.844	3097
352.929	4793
353.014	3450
353.100	4556
353.185	4956
353.270	3977
353.355	4989
353.441	4664
353.526	4149
353.611	5048
353.696	3748
353.781	5063
353.866	3088
353.952	5458
354.037	3953
354.122	5129
354.207	4128
354.292	4422
354.377	3551
354.462	4086
354.547	3845
354.632	5023
354.717	4690
354.802	4564
354.887	3712
354.972	3962
355.057	3354
355.142	4148
355.227	4616
355.312	4423
355.397	4255
355.482	5612
355.567	4141
355.652	5233
355.737	5055
355.822	7211
355.907	5409
355.991	5544
356.076	4045
356.161	5038
356.246	4573
356.331	5489
356.416	4996
356.501	12187
356.585	10081
356.670	4654
356.755	6964
356.840	6125
356.924	9591
357.009	19623
357.094	9163
357.179	4636
357.263	4814
357.348	5271
357.433	5257
357.517	4891
357.602	5298
357.687	4837
357.771	5321
357.856	6580
357.941	5435
358.025	9612
358.110	23368
358.195	11637
358.279	4933
358.364	5707
358.448	6767
358.533	10213
358.617	7226
358.702	8317
358.787	5948
358.871	5164
358.956	5057
359.040	5988
359.125	4374
359.209	5661
359.294	6604
359.378	10132
359.462	8156
359.547	6095
359.631	5093
359.716	4661
359.800	3553
359.885	5752
359.969	4597
360.053	6311
360.138	4364
360.222	4710
360.306	5597
360.391	5441
360.475	5554
360.559	6481
360.644	5886
360.728	5321
360.812	9609
360.896	14717
360.981	7617
361.065	6399
361.149	6193
361.233	6255
361.318	4874
361.402	6214
361.486	6824
361.570	7012
361.654	6301
361.739	8038
361.823	13995
361.907	17589
361.991	10601
362.075	12174
362.159	15227
362.243	31264
362.327	68345
362.411	88583
362.495	37338
362.580	20266
362.664	18649
362.748	22536
362.832	33701
362.916	69813
363.000	157257
363.084	184593
363.168	82182
363.252	31160
363.336	18950
363.420	16219
363.503	16656
363.587	16195
363.671	12392
363.755	12431
363.839	14828
363.923	15606
364.007	20547
364.091	27732
364.175	42868
364.258	90819
364.342	181041
364.426	251710
364.510	140551
364.594	56357
364.677	28940
364.761	24545
364.845	17910
364.929	11795
365.013	9300
365.096	9220
365.180	7562
365.264	9608
365.347	14967
365.431	9006
365.515	6216
365.598	6706
365.682	7748
365.766	6791
365.849	7287
365.933	6537
366.017	7919
366.100	6449
366.184	6192
366.267	8147
366.351	6243
366.435	6975
366.518	5973
366.602	6389
366.685	6088
366.769	6824
366.852	6698
366.936	7581
367.019	6504
367.103	6173
367.186	7552
367.270	6811
367.353	6347
367.436	8904
367.520	7161
367.603	8782
367.687	6492
367.770	6950
367.853	8299
367.937	9235
368.020	9812
368.104	6261
368.187	7057
368.270	6914
368.353	5551
368.437	6505
368.520	6102
368.603	6070
368.687	5294
368.770	8700
368.853	4481
368.936	5882
369.020	5946
369.103	5826
369.186	4521
369.269	5349
369.352	5771
369.436	5052
369.519	4581
369.602	3970
369.685	6950
369.768	4206
369.851	5761
369.934	4661
370.018	4247
370.101	4385
370.184	6507
370.267	5477
370.350	5849
370.433	6920
370.516	18816
370.599	45373
370.682	19940
370.765	9251
370.848	8467
370.931	8912
371.014	7100
371.097	4436
371.180	5136
371.263	6418
371.346	3909
371.429	5770
371.511	3983
371.594	4956
371.677	5392
371.760	7052
371.843	6226
371.926	12755
372.009	19203
372.091	11515
372.174	6327
372.257	11100
372.340	6618
372.423	6221
372.505	7379
372.588	5856
372.671	6505
372.754	8013
372.836	7068
372.919	8154
373.002	8735
373.085	5513
373.167	6892
373.250	7153
373.332	11210
373.415	17120
373.498	25603
373.580	23810
373.663	65317
373.746	59130
373.828	13272
373.911	9102
373.993	7169
374.076	10560
374.159	8730
374.241	8453
374.324	10068
374.406	10059
374.489	11783
374.571	22805
374.654	11195
374.736	10564
374.819	15349
374.901	22572
374.983	20055
375.066	10757
375.148	8794
375.231	12115
375.313	14647
375.395	9651
375.478	9148
375.560	10190
375.643	8533
375.725	10730
375.807	17704
375.890	15491
375.972	7501
376.054	8273
376.136	8203
376.219	7262
376.301	9411
376.383	13796
376.465	8237
376.548	6306
376.630	7195
376.712	12644
376.794	6838
376.877	5365
376.959	5277
377.041	5799
377.123	4687
377.205	6406
377.287	4472
377.369	5768
377.452	5061
377.534	6423
377.616	5945
377.698	6441
377.780	5128
377.862	5656
377.944	6899
378.026	4824
378.108	5899
378.190	5226
378.272	5764
378.354	5680
378.436	5038
378.518	5080
378.600	5405
378.682	6481
378.764	6138
378.846	7372
378.928	5295
379.010	5140
379.091	5234
379.173	5888
379.255	5108
379.337	5462
379.419	5486
379.501	9605
379.583	5592
379.664	5240
379.746	4313
379.828	8133
379.910	6558
379.991	8596
380.073	4849
380.155	5154
380.237	4899
380.318	4655
380.400	5218
380.482	6140
380.564	5095
380.645	5632
380.727	4409
380.809	6149
380.890	4433
380.972	4204
381.053	5489
381.135	6439
381.217	4997
381.298	8240
381.380	5783
381.461	6293
381.543	11055
381.624	12964
381.706	5939
381.787	5854
381.869	5649
381.951	10051
382.032	19278
382.113	15811
382.195	4513
382.276	8240
382.358	7097
382.439	11339
382.521	14138
382.602	19247
382.684	12144
382.765	15696
382.846	24319
382.928	42489
383.009	24740
383.090	23674
383.172	69247
383.253	85317
383.334	29494
383.416	19848
383.497	14433
383.578	12638
383.659	21374
383.741	66387
383.822	132641
383.903	65337
383.984	19923
384.066	19501
384.147	14287
384.228	11467
384.309	11201
384.390	11373
384.471	11038
384.553	9937
384.634	8719
384.715	9008
384.796	7485
384.877	7964
384.958	9645
385.039	9970
385.120	7957
385.201	8484
385.282	7349
385.363	9911
385.444	9075
385.525	11661
385.606	13936
385.687	13872
385.768	10739
385.849	10941
385.930	17203
386.011	22667
386.092	12649
386.173	12297
386.254	9694
386.335	11051
386.416	9301
386.496	11567
386.577	11923
386.658	10988
386.739	9696
386.820	11414
386.901	9922
386.981	13218
387.062	14438
387.143	15531
387.224	17828
387.304	20025
387.385	18468
387.466	16534
387.547	19407
387.627	19114
387.708	20586
387.789	22679
387.869	21229
387.950	17341
388.031	13288
388.111	12123
388.192	14043
388.273	15480
388.353	13085
388.434	9898
388.514	9948
388.595	15602
388.676	15133
388.756	10887
388.837	10173
388.917	8768
388.998	7063
389.078	10078
389.159	8350
389.239	7717
389.320	9567
389.400	7087
389.480	8871
389.561	11563
389.641	9216
389.722	9132
389.802	7154
389.883	9217
389.963	12325
390.043	10155
390.124	7621
390.204	8826
390.284	9885
390.365	8656
390.445	10232
390.525	13088
390.605	12576
390.686	8192
390.766	9561
390.846	9308
390.927	7935
391.007	8457
391.087	10186
391.167	8548
391.247	8503
391.328	10095
391.408	11046
391.488	10710
391.568	8314
391.648	9728
391.728	10900
391.808	12546
391.888	10863
391.969	13460
392.049	14527
392.129	15264
392.209	16453
392.289	20568
392.369	18919
392.449	20827
392.529	20436
392.609	25021
392.689	27982
392.769	34445
392.849	41135
392.929	52170
393.009	71127
393.089	105592
393.169	181693
393.248	347962
393.328	533426
393.408	517301
393.488	315671
393.568	164245
393.648	93588
393.728	61281
393.807	42878
393.887	35858
393.967	29180
394.047	24696
394.127	20740
394.206	20385
394.286	29709
394.366	78331
394.446	77352
394.525	24228
394.605	14017
394.685	14641
394.764	17331
394.844	29472
394.924	36316
395.003	17712
395.083	11763
395.163	11913
395.242	10204
395.322	11912
395.402	10610
395.481	13985
395.561	15844
395.640	45113
395.720	76998
395.799	43975
395.879	20453
395.958	17612
396.038	33228
396.117	98056
396.197	101324
396.276	37620
396.356	28265
396.435	34552
396.515	45664
396.594	69662
396.673	140554
396.753	313674
396.832	491374
396.912	383336
396.991	173781
397.070	84222
397.150	49966
397.229	43944
397.308	71981
397.388	112930
397.467	59840
397.546	24050
397.625	15631
397.705	16587
397.784	13998
397.863	12392
397.942	11975
398.022	10271
398.101	10158
398.180	12995
398.259	10951
398.338	9384
398.417	8045
398.497	8159
398.576	8787
398.655	7305
398.734	8304
398.813	7497
398.892	8773
398.971	11582
399.050	8724
399.129	6929
399.208	6703
399.287	7194
399.366	5450
399.445	6982
399.524	6705
399.603	5100
399.682	5985
399.761	6488
399.840	11243
399.919	10011
399.998	6117
400.077	5055
400.156	4631
400.235	8315
400.313	4798
400.392	4193
400.471	5810
400.550	6271
400.629	3797
400.708	6279
400.786	4164
400.865	5611
400.944	4610
401.023	7255
401.102	4202
401.180	5768
401.259	3794
401.338	5091
401.416	4880
401.495	4474
401.574	4832
401.652	4007
401.731	5680
401.810	4241
401.888	3769
401.967	4085
402.046	3188
402.124	4595
402.203	3266
402.281	4484
402.360	3567
402.438	5052
402.517	3252
402.596	4403
402.674	3408
402.753	4342
402.831	3702
402.910	5507
402.988	3888
403.066	8450
403.145	6557
403.223	6393
403.302	7304
403.380	7436
403.459	6997
403.537	5714
403.615	5397
403.694	4788
403.772	5432
403.850	5407
403.929	4446
404.007	4741
404.085	5939
404.164	4763
404.242	4687
404.320	7291
404.398	9405
404.477	9021
404.555	13950
404.633	13050
404.711	8079
404.789	6913
404.868	4541
404.946	3992
405.024	4343
405.102	4502
405.180	2929
405.258	2733
405.336	4328
405.415	2878
405.493	3989
405.571	4487
405.649	2851
405.727	3848
405.805	5527
405.883	5320
405.961	4469
406.039	4469
406.117	2309
406.195	3869
406.273	3790
406.351	9750
406.429	7461
406.507	3790
406.585	3314
406.663	4020
406.740	3787
406.818	2876
406.896	2700
406.974	4625
407.052	2763
407.130	7594
407.208	8249
407.285	5634
407.363	3178
407.441	3616
407.519	3665
407.596	5454
407.674	12398
407.752	35993
407.830	26862
407.907	6891
407.985	3512
408.063	3746
408.141	3107
408.218	5241
408.296	3069
408.373	4168
408.451	5372
408.529	5723
408.606	5409
408.684	5189
408.762	6526
408.839	6647
408.917	6353
408.994	7308
409.072	7003
409.149	10874
409.227	16402
409.304	23865
409.382	24897
409.459	30029
409.537	37165
409.614	33714
409.692	27720
409.769	27889
409.846	37857
409.924	44590
410.001	33098
410.079	24894
410.156	18340
410.233	14929
410.311	11090
410.388	10204
410.465	9214
410.543	8703
410.620	9575
410.697	9121
410.775	8605
410.852	8634
410.929	9649
411.006	10423
411.083	7492
411.161	8846
411.238	7811
411.315	7614
411.392	6868
411.469	7093
411.547	6076
411.624	5027
411.701	4554
411.778	5940
411.855	4713
411.932	4676
412.009	5107
412.086	5875
412.163	5050
412.240	4606
412.317	4674
412.394	5004
412.471	4383
412.548	4680
412.625	4595
412.702	4905
412.779	4415
412.856	5092
412.933	3449
413.010	5383
413.087	4035
413.164	5211
413.241	4939
413.318	3628
413.395	4512
413.471	3913
413.548	3277
413.625	5169
413.702	3350
413.779	4869
413.855	3389
413.932	3378
414.009	2552
414.086	3795
414.162	3900
414.239	4613
414.316	4044
414.393	6417
414.469	2908
414.546	2680
414.623	3319
414.699	3683
414.776	2960
414.853	3567
414.929	3951
415.006	3432
415.082	3274
415.159	3955
415.236	4048
415.312	4180
415.389	3520
415.465	3361
415.542	2789
415.618	2407
415.695	3696
415.771	2559
415.848	2811
415.924	3756
416.000	3176
416.077	4188
416.153	2408
416.230	2743
416.306	2857
416.383	2644
416.459	3863
416.535	2751
416.612	3407
416.688	2549
416.764	2650
416.841	2655
416.917	2959
416.993	3293
417.069	3000
417.146	3028
417.222	3420
417.298	2990
417.374	2790
417.451	3575
417.527	3017
417.603	2585
417.679	2502
417.755	3736
417.831	2875
417.908	3680
417.984	3512
418.060	3191
418.136	3197
418.212	4363
418.288	3666
418.364	4267
418.440	2736
418.516	4095
418.592	3287
418.668	4004
418.744	2942
418.820	3476
418.896	3380
418.972	3877
419.048	3121
419.124	5408
419.200	3574
419.276	4042
419.352	3430
419.428	5382
419.504	4111
419.579	4199
419.655	5167
419.731	5489
419.807	4776
419.883	6142
419.959	4998
420.034	6269
420.110	5398
420.186	6692
420.262	6053
420.337	6435
420.413	6944
420.489	8260
420.565	8547
420.640	7498
420.716	9306
420.792	8659
420.867	10514
420.943	9236
421.019	10067
421.094	11671
421.170	11836
421.245	12962
421.321	14260
421.397	15477
421.472	23878
421.548	36850
421.623	29444
421.699	24490
421.774	27113
421.850	29233
421.925	35751
422.001	41858
422.076	49775
422.152	62426
422.227	79967
422.302	104267
422.378	137133
422.453	180191
422.529	195391
422.604	155627
422.679	115823
422.755	155020
422.830	196135
422.905	178016
422.981	141258
423.056	108900
423.131	86175
423.207	67243
423.282	53238
423.357	46873
423.432	37980
423.508	34360
423.583	28078
423.658	26646
423.733	22595
423.808	21094
423.883	20708
423.959	22847
424.034	24990
424.109	23643
424.184	16687
424.259	13973
424.334	13153
424.409	11616
424.484	10765
424.559	10342
424.634	8229
424.709	8708
424.784	8670
424.859	8074
424.934	7053
425.009	9165
425.084	8232
425.159	7785
425.234	7688
425.309	6595
425.384	6344
425.459	6727
425.534	6095
425.609	5617
425.683	5251
425.758	5458
425.833	4859
425.908	6318
425.983	5421
426.058	7192
426.132	5973
426.207	5686
426.282	5612
426.357	4768
426.431	4627
426.506	5176
426.581	4128
426.655	4960
426.730	3719
426.805	4039
426.879	4696
426.954	4060
427.029	4008
427.103	6100
427.178	8535
427.253	5684
427.327	4303
427.402	3596
427.476	4089
427.551	3630
427.625	4042
427.700	4870
427.774	3120
427.849	5000
427.923	4863
427.998	5572
428.072	5934
428.147	13147
428.221	46413
428.296	107126
428.370	62512
428.444	13464
428.519	5949
428.593	6312
428.667	6370
428.742	8323
428.816	20550
428.890	73757
428.965	96132
429.039	30126
429.113	7654
429.188	4660
429.262	4399
429.336	4648
429.410	4629
429.485	5255
429.559	5068
429.633	5891
429.707	7199
429.781	17995
429.855	68588
429.930	86975
430.004	30266
430.078	23680
430.152	59766
430.226	144939
430.300	134415
430.374	41341
430.448	14403
430.522	10432
430.596	12860
430.670	29369
430.744	86692
430.818	86035
430.892	21410
430.966	6721
431.040	5112
431.114	3443
431.188	2619
431.262	3569
431.336	3299
431.410	4516
431.484	3174
431.557	3949
431.631	3240
431.705	10255
431.779	38948
431.853	103808
431.927	69586
432.000	14774
432.074	4697
432.148	3702
432.222	2478
432.295	3351
432.369	2035
432.443	1976
432.516	3308
432.590	6572
432.664	3260
432.737	1528
432.811	553
432.885	1852
432.958	2003
433.032	1778
433.106	1896
433.179	2273
433.253	1715
433.326	1440
433.400	1270
433.473	2745
433.547	1030
433.620	1565
433.694	762
433.767	2775
433.841	1149
433.914	2103
433.988	1790
434.061	2597
434.134	1614
434.208	1856
434.281	701
434.355	2159
434.428	1824
434.501	1925
434.575	1662
434.648	2186
434.721	1555
434.795	2105
434.868	1632
434.941	2709
435.014	1878
435.088	3163
435.161	3215
435.234	3972
435.307	4516
435.381	6852
435.454	10031
435.527	17360
435.600	18958
435.673	15883
435.746	11752
435.819	9251
435.892	7743
435.966	5634
436.039	3765
436.112	5127
436.185	2856
436.258	2535
436.331	1807
436.404	2828
436.477	1939
436.550	2649
436.623	2244
436.696	2280
436.769	2071
436.842	2581
436.915	1688
436.987	1764
437.060	1192
437.133	2215
437.206	1105
437.279	2453
437.352	1293
437.425	1580
437.498	1695
437.570	2125
437.643	1489
437.716	1553
437.789	2031
437.861	1591
437.934	2065
438.007	1823
438.080	1729
438.152	1267
438.225	1553
438.298	4640
438.370	10575
438.443	5056
438.516	2117
438.588	1838
438.661	1236
438.734	2286
438.806	710
438.879	2266
438.951	1619
439.024	2058
439.096	695
439.169	1371
439.241	972
439.314	1463
439.386	1289
439.459	1311
439.531	1323
439.604	933
439.676	861
439.749	2157
439.821	213
439.893	2428
439.966	1435
440.038	1524
440.110	1092
440.183	1938
440.255	1041
440.327	2676
440.400	2557
440.472	5149
440.544	3894
440.617	2543
440.689	2088
440.761	2703
440.833	1483
440.905	2855
440.978	1309
441.050	2462
441.122	2157
441.194	1293
441.266	2081
441.338	2415
441.411	1801
441.483	2860
441.555	3481
441.627	2314
441.699	2219
441.771	1872
441.843	2526
441.915	2593
441.987	2768
442.059	3255
442.131	4071
442.203	4873
442.275	6312
442.347	12778
442.419	29487
442.491	98040
442.563	162489
442.635	72944
442.706	19409
442.778	10817
442.850	6754
442.922	6013
442.994	5769
443.066	6914
443.137	8771
443.209	12030
443.281	20116
443.353	41696
443.425	116647
443.496	233073
443.568	233981
443.640	110834
443.711	34195
443.783	15726
443.855	10544
443.926	8100
443.998	5503
444.070	5729
444.141	3992
444.213	4262
444.285	4422
444.356	4295
444.428	3799
444.499	4187
444.571	4387
444.642	4351
444.714	3775
444.785	4838
444.857	5645
444.928	6786
445.000	7498
445.071	10222
445.143	12664
445.214	19382
445.285	33725
445.357	79640
445.428	185709
445.500	256862
445.571	236234
445.642	161712
445.714	67603
445.785	25338
445.856	12428
445.928	8658
445.999	5950
446.070	5544
446.141	4703
446.213	4125
446.284	3113
446.355	3264
446.426	1897
446.497	2598
446.569	2153
446.640	2294
446.711	1521
446.782	1817
446.853	1678
446.924	1995
446.995	470
447.066	2508
447.138	1209
447.209	1030
447.280	950
447.351	1045
447.422	409
447.493	1374
447.564	1083
447.635	679
447.706	-80
447.777	1080
447.847	548
447.918	-258
447.989	241
448.060	1192
448.131	872
448.202	950
448.273	468
448.344	1217
448.414	381
448.485	1243
448.556	650
448.627	897
448.698	1477
448.768	409
448.839	75
448.910	311
448.981	712
449.051	815
449.122	239
449.193	521
449.263	715
449.334	832
449.405	830
449.475	725
449.546	1392
449.616	1773
449.687	1583
449.758	1292
449.828	65
449.899	468
449.969	-528
450.040	868
450.110	732
450.181	1257
450.251	425
450.322	-28
450.392	1349
450.463	627
450.533	-280
450.604	1167
450.674	941
450.744	2308
450.815	1249
450.885	1942
450.955	2472
451.026	2137
451.096	1185
451.166	1706
451.237	1953
451.307	4013
451.377	2427
451.447	2060
451.518	1657
451.588	868
451.658	653
451.728	1518
451.799	1244
451.869	1665
451.939	601
452.009	525
452.079	35
452.149	2137
452.219	869
452.289	1859
452.360	2279
452.430	1702
452.500	2325
452.570	7105
452.640	15186
452.710	35989
452.780	37447
452.850	19973
452.920	8618
452.990	5826
453.060	2893
453.129	2920
453.199	2126
453.269	2522
453.339	3658
453.409	4805
453.479	4028
453.549	5468
453.619	5011
453.688	2605
453.758	441
453.828	1205
453.898	653
453.968	988
454.037	1465
454.087	935
454.107	712
454.168	33
454.177	-74
454.247	1112
454.249	1078
454.316	-50
454.330	16
454.386	263
454.411	308
454.456	300
454.492	715
454.525	1103
454.574	831
454.595	690
454.655	718
454.665	710
454.734	668
454.736	689
454.804	1058
454.817	1214
454.873	1953
454.898	1801
454.943	1374
454.979	1125
455.013	966
455.060	1058
455.082	1046
455.141	1102
455.152	1122
455.221	1999
455.222	2007
455.291	1661
455.303	1883
455.360	2789
455.384	3428
455.430	4381
455.465	3164
455.499	2101
455.546	1608
455.569	1331
455.627	1560
455.638	1618
455.707	356
455.708	369
455.777	746
455.789	732
455.846	711
455.869	839
455.916	935
455.950	909
455.985	930
456.031	1354
456.054	1521
456.112	701
456.124	556
456.193	1239
456.193	1230
456.262	741
456.274	873
456.332	1541
456.355	1403
456.401	986
456.436	1263
456.470	1535
456.516	1682
456.540	1750
456.597	1657
456.609	1658
456.678	2020
456.678	2008
456.747	2079
456.759	1813
456.817	820
456.840	982
456.886	1196
456.920	1318
456.955	1489
457.001	2256
457.024	2469
457.082	1744
457.093	1649
457.162	2042
457.163	2051
457.232	1584
457.243	1744
457.301	2549
457.324	2547
457.370	2395
457.405	2762
457.439	3148
457.485	2962
457.508	2992
457.566	4236
457.577	4703
457.646	7275
457.647	7329
457.715	15123
457.727	17300
457.784	28013
457.808	38649
457.853	53051
457.889	61023
457.922	65347
457.969	45343
457.991	41140
458.050	44555
458.060	45227
458.129	82321
458.130	83175
458.198	90653
458.211	81056
458.267	45643
458.292	33526
458.336	20845
458.372	20319
458.405	25796
458.453	37551
458.474	43598
458.533	74956
458.543	77435
458.611	126329
458.614	126282
458.680	87028
458.694	71270
458.749	30661
458.775	22633
458.818	12866
458.855	9944
458.887	8064
458.936	6581
458.955	6026
459.016	4838
459.024	4741
459.093	4854
459.097	4805
459.162	3386
459.177	3329
459.230	3523
459.257	3480
459.299	3146
459.338	3179
459.368	3441
459.418	3631
459.437	3425
459.499	2776
459.505	2799
459.574	2852
459.579	2887
459.643	2725
459.659	2465
459.711	2446
459.740	3115
459.780	3355
459.820	3056
459.849	2969
459.900	3241
459.917	3263
459.981	2584
459.986	2549
460.054	2618
460.061	2630
460.123	2600
460.141	2647
460.191	2893
460.222	3057
460.260	3029
460.302	2911
460.328	3139
460.382	3093
460.397	3028
460.462	3497
460.465	3662
460.534	7604
460.543	8105
460.602	15733
460.623	19118
460.671	28139
460.703	38322
460.739	35929
460.783	24914
460.808	21471
460.864	7002
460.876	5241
460.944	2871
460.945	2839
461.013	2718
461.024	2622
461.081	2407
461.104	2625
461.150	3213
461.184	3137
461.218	2805
461.264	2893
461.286	2956
461.345	2545
461.355	2487
461.423	2856
461.425	2845
461.491	2707
461.505	2882
461.559	3552
461.585	3458
461.628	3181
461.665	3559
461.696	3456
461.745	2837
461.764	2922
461.825	3252
461.832	3249
461.901	2691
461.905	2697
461.969	2487
461.985	2437
462.037	3161
462.065	3591
462.105	3284
462.145	2650
462.173	2658
462.225	3146
462.241	3237
462.305	3528
462.310	3521
462.378	2997
462.385	2941
462.446	3057
462.465	3255
462.514	3388
462.545	3161
462.582	2866
462.625	2859
462.650	3008
462.705	2990
462.718	2915
462.785	2725
462.786	2718
462.854	2155
462.865	2108
462.922	3076
462.945	3392
462.990	3304
463.025	3221
463.058	3068
463.104	2628
463.126	2481
463.184	2560
463.194	2601
463.262	2433
463.264	2440
463.330	2570
463.344	2544
463.398	3357
463.424	3718
463.466	3385
463.504	3288
463.533	3416
463.583	3222
463.601	3131
463.663	3030
463.669	3027
463.737	3076
463.743	3052
463.805	2993
463.823	3055
463.873	3526
463.903	3791
463.940	3625
463.982	3418
464.008	3506
464.062	3527
464.076	3459
464.142	3270
464.144	3272
464.211	2905
464.221	2882
464.279	2808
464.301	2747
464.347	3104
464.381	3493
464.414	3192
464.461	2741
464.482	2880
464.540	3149
464.550	3129
464.617	2777
464.620	2770
464.685	3466
464.699	3582
464.753	3125
464.779	2893
464.820	3383
464.859	3816
464.888	3499
464.938	3072
464.956	3312
465.018	3976
465.023	3924
465.091	3280
465.098	3195
465.158	3659
465.177	3832
465.226	3502
465.257	3234
465.293	3209
465.336	3311
465.361	3365
465.416	3192
465.428	3331
465.495	4427
465.496	4432
465.563	3803
465.575	3749
465.631	3971
465.654	4043
465.698	3699
465.734	3377
465.765	3596
465.813	3769
465.833	3846
465.893	4253
465.900	4181
465.968	3438
465.972	3379
466.035	3472
466.052	3496
466.102	3763
466.131	3929
466.170	3556
466.210	3059
466.237	3184
466.290	3536
466.304	3731
466.369	4448
466.372	4428
466.439	3654
466.449	3526
466.506	3850
466.528	4003
466.573	4196
466.607	4259
466.641	4220
466.687	4236
466.708	4514
466.766	5183
466.775	5078
466.842	4274
466.845	4227
466.909	3916
466.925	3852
466.977	4375
467.004	4619
467.044	4781
467.083	4956
467.111	4840
467.163	4591
467.178	4561
467.242	4415
467.245	4408
467.312	4165
467.321	4129
467.379	4202
467.400	4220
467.446	4698
467.480	5032
467.559	4808
467.638	4141
467.717	4350
467.796	4873
467.875	5473
467.955	4975
468.034	7217
468.113	7668
468.192	10488
468.271	9985
468.350	15067
468.429	20580
468.508	21140
468.588	12786
468.667	9036
468.746	6824
468.825	6339
468.904	5532
468.983	4780
469.062	4442
469.141	5965
469.220	3929
469.299	4660
469.378	4091
469.456	5409
469.535	5381
469.614	4391
469.693	4339
469.772	6049
469.851	4631
469.930	4768
470.009	4668
470.088	5022
470.166	4930
470.245	6072
470.324	4999
470.403	5773
470.482	4808
470.560	5028
470.639	3606
470.718	4301
470.797	3937
470.875	5318
470.954	4361
471.033	5237
471.111	4636
471.190	4637
471.269	4393
471.347	4735
471.426	5092
471.505	4723
471.583	4032
471.662	5662
471.740	4671
471.819	4586
471.898	3842
471.976	5163
472.055	4831
472.133	5690
472.212	5470
472.290	5270
472.369	4127
472.447	5186
472.526	4529
472.604	5259
472.683	4366
472.761	4859
472.839	4744
472.918	5173
472.996	4558
473.075	5444
473.153	5531
473.231	5305
473.310	4331
473.388	5419
473.466	4344
473.545	6213
473.623	4822
473.701	5227
473.780	5283
473.858	4319
473.936	6567
474.014	6078
474.093	5251
474.171	6759
474.249	5019
474.327	5593
474.405	4644
474.484	5933
474.562	5379
474.640	5784
474.718	4335
474.796	5533
474.874	5020
474.952	5402
475.030	4695
475.108	4959
475.187	4397
475.265	5815
475.343	4959
475.421	5798
475.499	5388
475.577	5454
475.655	5958
475.733	5432
475.811	5338
475.889	6257
475.966	5099
476.044	5007
476.122	4799
476.200	4749
476.278	3770
476.356	4441
476.434	4826
476.512	5743
476.590	4566
476.667	5088
476.745	5074
476.823	4882
476.901	4613
476.979	4715
477.056	4856
477.134	4392
477.212	4373
477.290	5850
477.367	3592
477.445	5515
477.523	4358
477.601	4550
477.678	4953
477.756	5196
477.834	4272
477.911	4471
477.989	4427
478.066	4763
478.144	4419
478.222	5446
478.299	4783
478.377	6115
478.454	4415
478.532	4733
478.609	4773
478.687	4638
478.764	4056
478.842	5016
478.919	3844
478.997	4731
479.074	4548
479.152	4873
479.229	4808
479.307	4629
479.384	4272
479.461	5309
479.539	3816
479.616	4873
479.694	4137
479.771	4552
479.848	4562
479.926	3752
480.003	5654
480.080	5699
480.157	5273
480.235	4579
480.312	4652
480.389	5242
480.467	4473
480.544	5290
480.621	5704
480.698	5926
480.775	6344
480.853	5792
480.930	4599
481.007	5888
481.084	6367
481.161	8360
481.238	6051
481.315	4996
481.392	5182
481.470	5901
481.547	4981
481.624	6352
481.701	5078
481.778	5544
481.855	4625
481.932	6210
482.009	6557
482.086	6990
482.163	7822
482.240	8293
482.317	7636
482.393	7654
482.470	6992
482.547	6881
482.624	5437
482.701	5765
482.778	5657
482.855	6180
482.932	6225
483.009	7874
483.085	8638
483.162	9951
483.239	9825
483.316	8291
483.393	8391
483.469	8340
483.546	6959
483.623	6335
483.699	5543
483.776	5128
483.853	5792
483.930	6111
484.006	5684
484.083	7667
484.160	6725
484.236	8594
484.313	7195
484.389	6994
484.466	9360
484.543	10382
484.619	12362
484.696	14318
484.772	8708
484.849	8097
484.925	6625
485.002	6556
485.078	5800
485.155	6072
485.231	5934
485.308	5579
485.384	5619
485.461	6184
485.537	5689
485.614	6527
485.690	6138
485.766	5578
485.843	4638
485.919	5663
485.995	5590
486.072	5516
486.148	5750
486.224	5398
486.301	5148
486.377	6023
486.453	5114
486.530	6820
486.606	6471
486.682	6201
486.758	7343
486.835	6832
486.911	6362
486.987	7938
487.063	7983
487.139	9401
487.215	10454
487.292	11643
487.368	12162
487.444	15582
487.520	22133
487.596	36648
487.672	100926
487.748	259907
487.824	353039
487.900	125113
487.976	38944
488.052	21522
488.128	14458
488.204	10277
488.280	10594
488.356	8976
488.432	8709
488.508	8578
488.584	6765
488.660	6442
488.736	6005
488.812	5768
488.888	6686
488.964	6571
489.039	6893
489.115	6943
489.191	6156
489.267	6217
489.343	5412
489.418	5105
489.494	5461
489.570	3728
489.646	5769
489.722	5226
489.797	5423
489.873	6830
489.949	7122
490.024	6625
490.100	5286
490.176	5521
490.251	5421
490.327	6474
490.403	5539
490.478	7100
490.554	5184
490.629	5495
490.705	5487
490.781	5398
490.856	5285
490.932	4977
491.007	5095
491.083	5102
491.158	4014
491.234	5465
491.309	6508
491.385	4158
491.460	4095
491.536	6104
491.611	4424
491.686	5401
491.762	4464
491.837	5690
491.913	5168
491.988	7207
492.063	6118
492.139	5114
492.214	4194
492.289	5595
492.365	3997
492.440	4997
492.515	4036
492.590	4459
492.666	4151
492.741	5594
492.816	4403
492.891	5057
492.967	5638
493.042	5199
493.117	4368
493.192	4979
493.267	5800
493.342	9855
493.418	10032
493.493	4877
493.568	4549
493.643	4168
493.718	4346
493.793	3971
493.868	3969
493.943	4598
494.018	4699
494.093	4724
494.168	4809
494.243	4351
494.318	3488
494.393	5461
494.468	4044
494.543	4123
494.618	3638
494.693	4287
494.768	3759
494.842	5148
494.917	4065
494.992	4428
495.067	3615
495.142	4428
495.217	4278
495.292	5003
495.366	3575
495.441	4025
495.516	4765
495.591	4311
495.665	5766
495.740	7694
495.815	5167
495.890	4515
495.964	2642
496.039	5939
496.114	5313
496.188	6886
496.263	5937
496.338	4246
496.412	3256
496.487	4611
496.561	4468
496.636	3566
496.710	4347
496.785	4406
496.860	4100
496.934	3729
497.009	4617
497.083	4126
497.158	2872
497.232	4115
497.307	3891
497.381	4136
497.455	4656
497.530	5164
497.604	3178
497.679	4949
497.753	4176
497.827	4103
497.902	3814
497.976	5002
498.050	7642
498.125	17539
498.199	14804
498.273	4567
498.348	4488
498.422	4889
498.496	4276
498.570	4867
498.645	4113
498.719	3151
498.793	5205
498.867	4717
498.941	5317
499.016	9611
499.090	15263
499.164	7746
499.238	4704
499.312	3924
499.386	4428
499.460	5014
499.534	4727
499.609	5079
499.683	4135
499.757	5454
499.831	5630
499.905	11096
499.979	9653
500.053	5332
500.127	4051
500.201	3780
500.275	4298
500.349	4122
500.422	3590
500.496	4745
500.570	6012
500.644	9429
500.718	11084
500.792	6566
500.866	4685
500.940	3894
501.013	4278
501.087	4129
501.161	4715
501.235	3598
501.309	7299
501.382	10096
501.456	9601
501.530	5208
501.603	4933
501.677	4509
501.751	3071
501.825	5382
501.898	4576
501.972	5696
502.046	5012
502.119	3986
502.193	4718
502.266	5440
502.340	4309
502.413	4785
502.487	6020
502.561	4405
502.634	4268
502.708	5125
502.781	3361
502.855	4953
502.928	3560
503.002	5092
503.075	3189
503.149	4832
503.222	4419
503.295	4999
503.369	5219
503.442	5998
503.516	8219
503.589	11038
503.662	10112
503.736	10323
503.809	14306
503.882	17401
503.956	29349
504.029	65948
504.102	166152
504.175	216237
504.249	86653
504.322	34694
504.395	18550
504.468	12710
504.542	8443
504.615	6198
504.688	7258
504.761	4317
504.834	5521
504.907	5051
504.980	4569
505.053	4288
505.127	2018
505.200	7410
505.273	3294
505.346	3427
505.419	2398
505.492	4920
505.565	2732
505.638	3569
505.711	3151
505.784	2919
505.857	3065
505.930	4473
506.003	2555
506.076	4576
506.149	2771
506.221	1769
506.294	3874
506.367	3685
506.440	5449
506.513	4980
506.586	3206
506.659	2944
506.731	3581
506.804	2928
506.877	2670
506.950	3412
507.022	3934
507.095	2199
507.168	3179
507.241	4374
507.313	2803
507.386	2692
507.459	3876
507.531	2273
507.604	1314
507.677	3266
507.749	2362
507.822	3693
507.894	2884
507.967	3653
508.040	3050
508.112	3485
508.185	2709
508.257	2592
508.330	4601
508.402	3359
508.475	2624
508.547	3754
508.620	2632
508.692	4168
508.765	3287
508.837	1939
508.909	3734
508.982	3284
509.054	3060
509.127	3351
509.199	2768
509.271	3269
509.344	3485
509.416	3436
509.488	3364
509.560	4386
509.633	2865
509.705	3272
509.777	2628
509.849	4001
509.922	1754
509.994	3015
510.066	4068
510.138	1520
510.210	4833
510.283	2897
510.355	3939
510.427	3546
510.499	4078
510.571	3334
510.643	2901
510.715	4238
510.787	1192
510.859	4614
510.931	2946
511.003	3875
511.076	4293
511.148	2750
511.219	2203
511.291	3819
511.363	3692
511.435	3211
511.507	2146
511.579	4244
511.651	3159
511.723	3103
511.795	3314
511.867	3312
511.939	2931
512.010	3560
512.082	4073
512.154	2642
512.226	2865
512.298	4177
512.369	2828
512.441	4370
512.513	3950
512.585	2314
512.656	2905
512.728	3017
512.800	3756
512.871	4577
512.943	3438
513.015	2015
513.086	3307
513.158	4037
513.230	2608
513.301	3248
513.373	4724
513.444	3320
513.516	2228
513.588	3545
513.659	3363
513.731	3126
513.802	1037
513.874	5229
513.945	3062
514.016	2940
514.088	3045
514.159	2469
514.231	3847
514.302	2618
514.374	3584
514.445	2105
514.516	5349
514.588	3500
514.659	2914
514.730	3290
514.802	3739
514.873	850
514.944	5477
515.016	3513
515.087	2738
515.158	3422
515.229	4171
515.301	2581
515.372	3814
515.443	3003
515.514	3374
515.585	2414
515.656	3544
515.728	4072
515.799	2341
515.870	3544
515.941	3403
516.012	3149
516.083	4499
516.154	4101
516.225	3973
516.296	5270
516.367	3885
516.438	4431
516.509	4605
516.580	6857
516.651	18780
516.722	42298
516.793	18148
516.864	5618
516.935	5552
517.006	6657
517.077	7133
517.148	18481
517.219	67505
517.289	87531
517.360	15533
517.431	7283
517.502	3723
517.573	5441
517.643	4741
517.714	4981
517.785	5500
517.856	5936
517.926	7884
517.997	9135
518.068	7553
518.138	12457
518.209	17345
518.280	60342
518.350	156241
518.421	61909
518.492	21814
518.562	23606
518.633	32555
518.703	57556
518.774	138900
518.845	307663
518.915	250304
518.986	78955
519.056	33292
519.127	20977
519.197	15338
519.268	14045
519.338	11171
519.408	8432
519.479	6933
519.549	6062
519.620	6739
519.690	6116
519.760	4646
519.831	4736
519.901	2984
519.971	3951
520.042	3740
520.112	3796
520.182	3934
520.253	5425
520.323	3042
520.393	3109
520.463	5996
520.534	2224
520.604	5995
520.674	5114
520.744	2465
520.814	3350
520.885	4240
520.955	5443
521.025	7576
521.095	4516
521.165	4339
521.235	3856
521.305	2302
521.375	4034
521.445	4874
521.515	3600
521.585	4682
521.655	2261
521.725	4773
521.795	5404
521.865	1780
521.935	6172
522.005	2947
522.075	3617
522.145	4926
522.215	2953
522.285	4463
522.355	4518
522.424	4192
522.494	3155
522.564	4328
522.634	4045
522.704	6982
522.774	4471
522.843	4258
522.913	5036
522.983	3572
523.053	4047
523.122	4672
523.192	4326
523.262	4243
523.331	4495
523.401	4455
523.471	4212
523.540	4863
523.610	3704
523.680	5206
523.749	6495
523.819	5158
523.888	4499
523.958	3867
524.027	5661
524.097	5218
524.166	4920
524.236	4011
524.305	5904
524.375	4781
524.444	4099
524.514	6297
524.583	4562
524.653	3974
524.722	5731
524.791	3116
524.861	7158
524.930	5173
524.999	5134
525.069	5802
525.138	5332
525.207	5666
525.277	7787
525.346	6780
525.415	8658
525.484	10010
525.554	10330
525.623	13267
525.692	16608
525.761	18366
525.830	22099
525.900	28645
525.969	49637
526.038	98353
526.107	224248
526.176	512965
526.245	349617
526.314	128352
526.383	283093
526.452	344628
526.522	477257
526.591	346702
526.660	73226
526.729	42354
526.797	46830
526.867	75582
526.935	239371
527.004	628786
527.073	338695
527.142	66031
527.211	29939
527.280	20160
527.349	14683
527.418	10749
527.487	11520
527.555	7388
527.624	7472
527.693	5828
527.762	9149
527.831	6082
527.899	7779
527.968	5587
528.037	5224
528.106	5067
528.174	5753
528.243	5567
528.312	5399
528.380	5070
528.449	3904
528.518	7181
528.586	4020
528.655	6044
528.723	6149
528.792	4631
528.861	5733
528.929	3088
528.998	5949
529.066	5549
529.135	6938
529.203	4924
529.272	5632
529.340	7260
529.409	8078
529.477	4788
529.545	5747
529.614	7812
529.682	6749
529.751	7207
529.819	10993
529.887	8325
529.956	7764
530.024	7964
530.092	8019
530.161	8534
530.229	8755
530.297	7463
530.365	9856
530.434	9447
530.502	7827
530.570	8628
530.638	6257
530.707	8101
530.775	9672
530.843	6476
530.911	8579
530.979	8032
531.047	8496
531.115	9014
531.183	8318
531.252	8606
531.320	8306
531.388	6928
531.456	9490
531.524	7825
531.592	11119
531.660	10634
531.728	8394
531.796	9198
531.864	9431
531.932	9150
532.000	8443
532.067	9330
532.135	9691
532.203	11130
532.271	10859
532.339	12691
532.407	12167
532.475	11064
532.542	11361
532.610	11199
532.678	10433
532.746	14308
532.814	17183
532.881	12078
532.949	12133
533.017	10249
533.084	10488
533.152	10254
533.220	10664
533.287	8657
533.355	11412
533.423	11656
533.490	10432
533.558	10623
533.625	11528
533.693	9793
533.761	11138
533.828	11516
533.896	9990
533.963	12193
534.031	12445
534.098	15910
534.166	16482
534.233	14653
534.300	18095
534.368	17367
534.435	16672
534.503	16740
534.570	18973
534.637	19737
534.705	22932
534.772	29603
534.840	66345
534.907	255392
534.974	238756
535.041	38545
535.109	19827
535.176	16649
535.243	16690
535.310	15374
535.378	14194
535.445	14879
535.512	15922
535.579	14392
535.646	14086
535.714	15330
535.781	15734
535.848	16061
535.915	16110
535.982	14589
536.049	14415
536.116	15769
536.183	14111
536.250	13936
536.317	14793
536.384	15332
536.451	16336
536.518	15612
536.585	13330
536.652	16809
536.719	17518
536.786	13487
536.853	14928
536.920	16407
536.987	15897
537.053	14238
537.120	19448
537.187	17864
537.254	15951
537.321	15321
537.388	17845
537.454	15809
537.521	15849
537.588	15521
537.654	17515
537.721	17183
537.788	17935
537.855	16753
537.921	16987
537.988	15669
538.055	16621
538.121	14313
538.188	14539
538.254	14541
538.321	14220
538.388	16271
538.454	18749
538.521	19028
538.587	18348
538.654	16747
538.720	17592
538.787	16947
538.853	17522
538.920	15386
538.986	15095
539.053	13640
539.119	15807
539.185	15048
539.252	17173
539.318	17262
539.385	19567
539.451	16448
539.517	16971
539.583	17108
539.650	17397
539.716	17596
539.782	15594
539.849	15146
539.915	17251
539.981	15460
540.047	16568
540.114	15778
540.180	17521
540.246	16677
540.312	19208
540.378	16874
540.444	19189
540.510	18380
540.576	20374
540.643	17081
540.709	15732
540.775	16127
540.841	16388
540.907	16611
540.973	17350
541.039	16955
541.105	16934
541.171	17681
541.237	18247
541.303	19373
541.369	20124
541.435	18490
541.500	17649
541.566	15097
541.632	15764
541.698	16939
541.764	18013
541.830	16369
541.896	16815
541.961	17506
542.027	17045
542.093	17956
542.159	19953
542.224	16459
542.290	19076
542.356	15965
542.421	17558
542.487	16091
542.553	15640
542.618	15657
542.684	16823
542.750	17247
542.815	18756
542.881	16839
542.947	20303
543.012	20245
543.078	16679
543.143	16292
543.209	17113
543.274	16259
543.340	16239
543.405	17403
543.471	18757
543.536	17681
543.602	18260
543.667	16194
543.732	18899
543.798	17600
543.863	19338
543.928	17891
543.994	17786
544.059	18561
544.124	19447
544.190	18393
544.255	19766
544.320	20066
544.386	19155
544.451	20815
544.516	19929
544.581	19675
544.646	21917
544.712	22530
544.777	21272
544.842	20920
544.907	20011
544.972	21508
545.037	22118
545.102	21645
545.168	22251
545.233	23006
545.298	23573
545.363	23130
545.428	25483
545.493	25493
545.558	24929
545.623	24535
545.688	24214
545.753	25765
545.818	26111
545.883	28195
545.947	27822
546.012	28890
546.077	30501
546.142	33727
546.207	32852
546.272	34611
546.337	35986
546.401	37336
546.466	38507
546.531	39344
546.596	43626
546.661	45656
546.725	47479
546.790	49695
546.855	55218
546.919	58646
546.984	66918
547.049	72290
547.113	82074
547.178	89230
547.243	102351
547.307	118171
547.372	129168
547.436	129059
547.501	137579
547.565	147699
547.630	132867
547.695	130078
547.759	130564
547.823	131068
547.888	135911
547.952	138608
548.017	145341
548.081	146137
548.146	146290
548.210	148551
548.274	163683
548.339	155513
548.403	142322
548.468	132438
548.532	134139
548.596	137490
548.660	139672
548.725	151955
548.789	161823
548.853	154914
548.917	150251
548.982	143399
549.046	129525
549.110	117917
549.174	127036
549.238	146287
549.303	158412
549.367	161988
549.431	152248
549.495	142488
549.559	145277
549.623	169528
549.687	178587
549.751	179847
549.815	211998
549.879	210223
549.943	206491
550.007	215188
550.071	209025
550.135	187234
550.199	182340
550.263	177156
550.327	169145
550.391	173840
550.455	193038
550.519	202628
550.582	216418
550.646	238370
550.710	241250
550.774	236190
550.838	241880
550.901	247690
550.965	261678
551.029	269194
551.093	289284
551.156	309852
551.220	336109
551.284	346886
551.347	284435
551.411	254740
551.475	247231
551.538	255663
551.602	237743
551.666	229403
551.729	214700
551.793	211760
551.856	207781
551.920	203383
551.983	204681
552.047	200830
552.110	203423
552.174	204330
552.237	207911
552.301	192820
552.364	187825
552.428	183054
552.491	189483
552.554	190026
552.618	190612
552.681	192738
552.745	185732
552.808	194193
552.871	202252
552.934	194984
552.998	189406
553.061	186554
553.124	180420
553.187	178807
553.251	185855
553.314	186027
553.377	187474
553.440	199145
553.503	208011
553.567	205887
553.630	202068
553.693	200125
553.756	201546
553.819	195449
553.882	189196
553.945	190201
554.008	188823
554.071	192067
554.134	193699
554.197	182167
554.260	179269
554.323	180962
554.386	184704
554.449	192014
554.512	190451
554.575	184059
554.638	181690
554.701	181423
554.764	178594
554.827	172780
554.889	166437
554.952	156559
555.015	153670
555.078	157590
555.141	158528
555.203	156343
555.266	156764
555.329	154769
555.391	147801
555.454	145523
555.517	142391
555.580	137096
555.642	132847
555.705	128989
555.768	129778
555.830	125391
555.893	118656
555.955	116733
556.018	114857
556.080	115738
556.143	119500
556.206	116746
556.268	114191
556.330	110499
556.393	108453
556.455	106187
556.518	103168
556.580	100323
556.643	96721
556.705	95023
556.767	92307
556.830	90661
556.892	91001
556.955	88795
557.017	87485
557.079	86536
557.142	85113
557.204	82404
557.266	81410
557.328	76975
557.391	73377
557.453	71048
557.515	72442
557.577	73663
557.639	73044
557.701	71829
557.764	71192
557.826	70168
557.888	73570
557.950	73840
558.012	80071
558.074	102709
558.136	224155
558.198	372296
558.260	135955
558.322	77074
558.384	74893
558.446	76625
558.508	79213
558.570	84557
558.632	97023
558.694	123534
558.756	216494
558.818	546718
558.880	771233
558.942	392480
559.003	411861
559.065	179973
559.127	93078
559.189	85066
559.251	95026
559.312	139548
559.374	329258
559.436	654839
559.498	293112
559.559	103385
559.621	85359
559.683	98437
559.744	164822
559.806	446204
559.868	453384
559.929	128488
559.991	98391
560.052	172945
560.114	380924
560.176	216625
560.237	265177
560.299	303866
560.360	75862
560.422	42627
560.483	38493
560.545	34587
560.606	34372
560.667	32248
560.729	32009
560.790	30383
560.852	28767
560.913	28499
560.974	28953
561.036	27971
561.097	28200
561.158	26995
561.220	27752
561.281	26090
561.342	24986
561.403	25873
561.465	25359
561.526	25918
561.587	26093
561.648	23172
561.709	23872
561.771	23540
561.832	23450
561.893	22631
561.954	23370
562.015	21513
562.076	21779
562.137	20429
562.198	22404
562.259	21536
562.320	22271
562.381	21392
562.442	21884
562.503	20302
562.564	20414
562.625	20796
562.686	20088
562.747	19149
562.808	20314
562.869	19392
562.930	19655
562.991	18527
563.051	18785
563.112	18613
563.173	19225
563.234	18079
563.294	18697
563.355	16747
563.416	18387
563.477	17681
563.537	17982
563.598	17723
563.659	18369
563.720	17570
563.780	17731
563.841	17755
563.901	18109
563.962	17028
564.023	16655
564.083	16559
564.144	17285
564.204	17314
564.265	16821
564.325	16991
564.386	17582
564.446	17112
564.507	16473
564.567	16484
564.628	15923
564.688	15902
564.749	15935
564.809	16504
564.869	16024
564.930	15378
564.990	17049
565.050	15530
565.111	16217
565.171	15068
565.231	15572
565.292	17193
565.352	15209
565.412	16804
565.472	16804
565.532	15189
565.593	15863
565.653	15730
565.713	16199
565.773	16429
565.833	16469
565.893	16834
565.953	14830
566.013	14497
566.074	15488
566.134	15379
566.194	14489
566.254	15633
566.314	15054
566.374	12630
566.434	15740
566.494	15315
566.554	14575
566.614	14734
566.673	15718
566.733	15474
566.793	15722
566.853	15898
566.913	16276
566.973	15716
567.033	16311
567.092	14780
567.152	16174
567.212	15849
567.272	16374
567.331	17070
567.391	16765
567.451	17037
567.511	17507
567.570	17207
567.630	16960
567.690	14629
567.749	15934
567.809	16379
567.868	16356
567.928	15894
567.988	16170
568.047	16209
568.107	16595
568.166	16016
568.226	17457
568.285	18128
568.345	17918
568.404	16914
568.464	17281
568.523	16766
568.582	17163
568.642	16830
568.701	16327
568.761	16505
568.820	18218
568.879	17558
568.939	18398
568.998	17604
569.057	16860
569.116	15343
569.176	16362
569.235	15564
569.294	16888
569.353	15033
569.413	15814
569.472	14712
569.531	14731
569.590	15249
569.649	14885
569.708	14181
569.767	15702
569.827	14992
569.886	15352
569.945	14529
570.004	15874
570.063	14862
570.122	15783
570.181	15615
570.240	16804
570.299	15286
570.358	16325
570.417	16087
570.475	15557
570.534	16570
570.593	16904
570.652	15925
570.711	16607
570.770	15424
570.829	16583
570.887	15287
570.946	16722
571.005	15728
571.064	16088
571.122	15329
571.181	15514
571.240	15689
571.299	15141
571.357	14848
571.416	14985
571.475	14737
571.533	16081
571.592	16391
571.650	17203
571.709	16281
571.768	19216
571.826	19007
571.885	18504
571.943	16470
572.002	14958
572.060	15184
572.119	15961
572.177	14772
572.236	15713
572.294	14923
572.352	18032
572.411	16487
572.469	17135
572.528	15095
572.586	15493
572.644	15316
572.703	14807
572.761	13728
572.819	14048
572.877	13610
572.936	13651
572.994	13664
573.052	13946
573.110	13280
573.169	15742
573.227	14390
573.285	15064
573.343	13982
573.401	15186
573.459	14660
573.517	15008
573.576	14694
573.634	14387
573.692	15228
573.750	15861
573.808	14609
573.866	13513
573.924	14087
573.982	14429
574.040	13805
574.098	14001
574.155	12319
574.213	14592
574.271	14084
574.329	15603
574.387	12741
574.445	13373
574.503	12578
574.560	12373
574.618	12650
574.676	13897
574.734	12842
574.792	13373
574.849	12792
574.907	11288
574.965	9646
575.022	11142
575.080	10124
575.138	10784
575.195	9962
575.253	10255
575.311	10918
575.368	11461
575.426	9922
575.483	11996
575.541	11409
575.598	10929
575.656	11091
575.713	11684
575.771	11605
575.828	12201
575.886	10663
575.943	11454
576.001	9841
576.058	10074
576.115	10561
576.173	10291
576.230	11057
576.287	11651
576.345	10272
576.402	11547
576.459	10528
576.517	10814
576.574	10600
576.631	10156
576.688	9493
576.746	10413
576.803	10120
576.860	9368
576.917	9697
576.974	11584
577.031	10196
577.089	10695
577.146	9509
577.203	8720
577.260	9054
577.317	9210
577.374	8941
577.431	9695
577.488	9553
577.545	9823
577.602	9979
577.659	8841
577.716	9477
577.773	9647
577.830	9177
577.886	9397
577.943	8707
578.000	8812
578.057	8936
578.114	9360
578.171	8974
578.227	9785
578.284	8498
578.341	10585
578.398	9685
578.454	10503
578.511	9123
578.568	9610
578.625	8583
578.681	10468
578.738	9897
578.794	9393
578.851	9608
578.908	8935
578.964	9560
579.021	10901
579.077	10060
579.134	9905
579.190	9718
579.247	10510
579.303	9611
579.360	9760
579.416	9382
579.473	9058
579.529	8370
579.586	9634
579.642	9906
579.698	9898
579.755	9310
579.811	10182
579.867	8790
579.924	9978
579.980	9535
580.036	11275
580.093	9978
580.149	10977
580.205	11013
580.261	11024
580.317	9777
580.374	10080
580.430	11021
580.486	10927
580.542	8772
580.598	10945
580.619	10918
580.654	10878
580.692	10454
580.710	10257
580.765	10711
580.767	10730
580.823	11132
580.838	11018
580.879	10739
580.911	11057
580.935	11293
580.984	11090
580.991	11077
581.047	11363
581.057	11254
581.103	10735
581.130	10838
581.159	10960
581.203	10730
581.215	10680
581.270	11138
581.276	10998
581.326	9697
581.349	10098
581.382	10675
581.422	10206
581.438	10030
581.494	11452
581.494	11430
581.550	9250
581.567	9684
581.606	10699
581.640	10728
581.661	10727
581.713	11819
581.717	11906
581.773	11306
581.786	11125
581.829	10548
581.859	10849
581.885	11167
581.932	11333
581.940	11340
581.996	10869
582.004	10944
582.052	11349
582.077	11043
582.107	10692
582.150	11237
582.163	11414
582.219	10386
582.223	10449
582.274	11254
582.296	10922
582.330	10376
582.368	11103
582.386	11468
582.441	10718
582.441	10716
582.497	11707
582.514	11390
582.552	10783
582.587	11419
582.608	11806
582.659	11262
582.663	11207
582.719	12321
582.732	12020
582.774	11201
582.805	11620
582.830	11973
582.877	12487
582.885	12558
582.941	12002
582.950	12012
582.996	12083
583.023	12278
583.052	12607
583.095	12653
583.107	12624
583.162	13174
583.168	13079
583.218	12062
583.240	12266
583.273	12512
583.313	11836
583.328	11677
583.384	12901
583.385	12857
583.439	11347
583.458	11658
583.494	12247
583.531	12186
583.549	12259
583.603	12858
583.605	12867
583.660	11879
583.676	12032
583.715	12458
583.748	12437
583.770	12518
583.820	12377
583.825	12343
583.881	12520
583.893	12510
583.936	12590
583.965	12511
583.991	12533
584.038	13711
584.046	13885
584.101	13139
584.110	13210
584.156	13541
584.183	13471
584.211	13477
584.255	13492
584.266	13472
584.321	13940
584.328	13901
584.376	13834
584.400	14192
584.431	14624
584.472	14695
584.486	14702
584.541	15231
584.545	15311
584.596	16852
584.617	16525
584.651	16258
584.689	17061
584.706	17096
584.761	16963
584.762	16958
584.816	17859
584.834	18184
584.871	18890
584.906	19617
584.926	19944
584.978	19819
584.980	19837
585.035	22235
585.051	22593
585.090	23703
585.123	25222
585.145	26377
585.195	27841
585.200	28084
585.254	32588
585.267	33717
585.309	37604
585.340	41167
585.364	44551
585.412	51573
585.419	52870
585.473	66150
585.484	70012
585.528	92830
585.556	116300
585.583	156163
585.628	249182
585.637	279960
585.692	539084
585.700	567537
585.747	645906
585.772	575165
585.801	393170
585.845	192543
585.856	163735
585.910	84992
585.917	76861
585.965	57036
585.989	49347
586.019	44508
586.061	38188
586.074	37081
586.128	34519
586.133	34214
586.183	32247
586.205	31524
586.237	30730
586.277	29895
586.292	29680
586.346	28572
586.349	28537
586.401	28729
586.421	28377
586.455	27977
586.493	27724
586.509	27900
586.564	28454
586.565	28471
586.618	31825
586.637	32933
586.672	35902
586.709	39254
586.727	41075
586.781	45092
586.781	45131
586.835	37676
586.853	35878
586.889	32896
586.925	30296
586.944	29915
586.996	30033
586.998	30066
587.052	28766
587.068	28528
587.106	29051
587.140	29346
587.161	29492
587.212	30458
587.215	30534
587.269	30203
587.284	30419
587.323	31428
587.356	31547
587.377	31789
587.427	32863
587.431	32962
587.485	33259
587.499	33321
587.539	33863
587.571	34284
587.593	35074
587.643	37487
587.648	37759
587.702	38744
587.715	39153
587.755	39532
587.786	39238
587.810	39284
587.858	39561
587.864	39707
587.917	40640
587.930	40719
587.971	40885
588.001	41030
588.025	41050
588.073	40771
588.079	41059
588.133	42779
588.145	43279
588.187	44058
588.217	44288
588.241	45075
588.288	46863
588.295	47223
588.348	49042
588.360	49301
588.402	51666
588.431	53490
588.456	54945
588.503	57690
588.510	58346
588.564	63168
588.575	64188
588.617	69694
588.646	73416
588.671	78908
588.718	90702
588.725	94068
588.778	122001
588.789	128851
588.832	190860
588.861	238384
588.886	310163
588.932	454439
588.939	463852
588.993	493158
589.004	490215
589.047	340515
589.075	246183
589.100	196675
589.147	116893
589.154	113886
589.207	92592
589.218	88340
589.261	86387
589.290	85522
589.314	88734
589.361	96431
589.368	100364
589.421	134508
589.433	142861
589.475	225637
589.504	289524
589.528	350164
589.576	453910
589.582	442651
589.635	292231
589.647	261590
589.689	162645
589.718	98844
589.742	88063
589.790	67803
589.795	67182
589.849	60511
589.861	58921
589.902	57228
589.932	55703
589.955	54344
590.004	51437
590.009	51472
590.062	50423
590.075	50027
590.115	49340
590.146	48790
590.168	48816
590.218	48472
590.222	48550
590.275	48303
590.289	48055
590.328	49532
590.360	50567
590.381	50866
590.431	51238
590.435	51371
590.488	51414
590.503	51333
590.541	51585
590.574	51484
590.594	51904
590.645	52949
590.647	53169
590.700	55481
590.716	56046
590.753	57265
590.787	58071
590.806	58578
590.859	59737
590.859	59920
590.912	61903
590.930	62534
590.965	62336
591.001	61650
591.018	61568
591.071	60997
591.072	60836
591.124	59883
591.143	59487
591.177	60354
591.214	61059
591.230	61694
591.283	63050
591.285	62937
591.336	61177
591.356	60353
591.389	60922
591.427	61087
591.442	61256
591.495	61476
591.498	61318
591.547	62007
591.569	62223
591.600	62928
591.640	63299
591.653	63757
591.706	65000
591.711	64959
591.759	66289
591.782	66805
591.811	68378
591.853	70024
591.864	70191
591.917	70146
591.924	69929
591.969	70688
591.995	70938
592.022	71222
592.066	71108
592.075	71794
592.127	74875
592.137	75231
592.180	75612
592.208	75542
592.233	76269
592.279	77123
592.285	77718
592.338	80962
592.350	81470
592.390	80645
592.421	79677
592.443	80857
592.491	82717
592.495	83110
592.548	85324
592.562	85690
592.600	85077
592.633	84121
592.653	84593
592.704	84746
592.705	85274
592.775	87317
592.846	89236
592.916	88948
592.987	91826
593.058	90569
593.128	93841
593.199	95388
593.270	95323
593.341	96053
593.411	98464
593.482	103254
593.553	106495
593.623	105620
593.694	110484
593.764	112612
593.835	110908
593.906	112966
593.976	115903
594.047	117640
594.117	123632
594.188	127808
594.258	125954
594.329	126443
594.399	129496
594.470	134348
594.540	139207
594.611	141191
594.681	139541
594.751	139506
594.822	146636
594.892	150796
594.963	155674
595.033	159605
595.103	163840
595.174	165864
595.244	170618
595.314	174521
595.384	179062
595.455	183486
595.525	189187
595.595	196098
595.665	195996
595.736	190285
595.806	195672
595.876	198247
595.946	197922
596.016	207190
596.087	214646
596.157	216335
596.227	215819
596.297	226657
596.367	242805
596.437	254541
596.507	254468
596.577	254221
596.647	261082
596.717	275506
596.787	277163
596.857	276329
596.927	279016
596.997	281400
597.067	284026
597.137	288792
597.207	289154
597.277	291106
597.347	279868
597.417	273381
597.487	273389
597.557	279468
597.626	285147
597.696	291285
597.766	288933
597.836	273117
597.906	259758
597.975	254512
598.045	258603
598.115	267686
598.185	289029
598.254	321264
598.324	347450
598.394	353583
598.464	341408
598.533	333745
598.603	314611
598.672	304780
598.742	310856
598.812	312930
598.881	322128
598.951	319673
599.020	326465
599.090	338500
599.159	340296
599.229	329478
599.299	321861
599.368	330446
599.437	327843
599.507	301133
599.576	291270
599.646	285998
599.715	283155
599.785	280335
599.854	272974
599.924	266914
599.993	270936
600.062	273879
600.132	282706
600.201	297378
600.270	341955
600.340	358459
600.409	352672
600.478	347449
600.547	358847
600.617	325264
600.686	262719
600.755	239737
600.824	227387
600.894	221410
600.963	223347
601.032	221098
601.101	213304
601.170	202257
601.239	197232
601.308	198023
601.378	198148
601.447	198209
601.516	199057
601.585	203537
601.654	204008
601.723	205812
601.792	212034
601.861	218475
601.930	226948
601.999	229162
602.068	226234
602.137	232048
602.206	234540
602.275	237718
602.343	242147
602.412	240931
602.481	244742
602.550	248253
602.619	253374
602.688	252334
602.756	256720
602.825	258559
602.894	266983
602.963	271829
603.032	273328
603.100	277143
603.169	276599
603.238	278693
603.307	278453
603.375	281453
603.444	289672
603.513	290034
603.581	295887
603.650	301556
603.719	292652
603.787	301180
603.856	307495
603.924	315247
603.993	325254
604.061	336194
604.130	348829
604.198	356978
604.267	365057
604.335	369843
604.404	373827
604.472	379319
604.541	381557
604.609	385974
604.678	388426
604.746	389511
604.815	401822
604.883	404716
604.951	404767
605.020	411147
605.088	417702
605.156	426236
605.225	428154
605.293	429223
605.361	430231
605.429	433801
605.498	443288
605.566	449225
605.634	468586
605.702	486076
605.771	500471
605.839	501480
605.907	492067
605.975	475130
606.043	469958
606.111	470339
606.180	470785
606.248	462732
606.316	457172
606.384	459402
606.452	458370
606.520	466141
606.588	483438
606.656	485527
606.724	476549
606.792	453611
606.860	414207
606.928	379149
606.996	365217
607.064	358320
607.132	367201
607.200	390696
607.267	400278
607.335	408564
607.403	415741
607.471	402805
607.539	388834
607.607	391970
607.674	349637
607.742	343920
607.810	345011
607.878	343771
607.946	350240
608.013	368969
608.081	375262
608.149	376839
608.216	392860
608.284	404703
608.352	403038
608.419	396346
608.487	392892
608.555	383489
608.622	398692
608.690	419931
608.757	459380
608.825	468101
608.893	453189
608.960	429533
609.028	415204
609.095	415437
609.163	412730
609.230	371122
609.298	340811
609.365	364200
609.432	388666
609.500	419966
609.567	473853
609.635	531527
609.702	555033
609.769	526899
609.837	418277
609.904	367330
609.971	375373
610.039	399285
610.106	459460
610.173	665333
610.241	1086286
610.308	826397
610.375	475306
610.442	406899
610.509	386243
610.577	384172
610.644	390143
610.711	398722
610.778	411806
610.845	425504
610.912	449268
610.980	465311
611.047	463945
611.114	454269
611.181	442287
611.248	441028
611.315	463208
611.382	476157
611.449	490662
611.516	499002
611.583	490782
611.650	494820
611.717	499756
611.784	505481
611.851	522979
611.918	536074
611.984	585836
612.051	692200
612.118	953807
612.185	1407519
612.252	1207688
612.319	753713
612.386	642750
612.452	589641
612.519	557183
612.586	546481
612.653	553044
612.719	569641
612.786	551499
612.853	517468
612.919	512236
612.986	515082
613.053	488947
613.120	461572
613.186	446024
613.253	449213
613.319	449149
613.386	452908
613.453	457563
613.519	462281
613.586	450212
613.652	457359
613.719	450898
613.785	458909
613.852	462255
613.918	460043
613.985	461990
614.051	484569
614.118	475857
614.184	460590
614.250	459630
614.317	469972
614.383	461085
614.449	471055
614.516	470713
614.582	474240
614.648	464960
614.715	458998
614.781	451099
614.847	451938
614.914	448392
614.980	439690
615.046	439606
615.112	451850
615.179	451755
615.245	457889
615.311	453550
615.377	457863
615.443	465295
615.509	466368
615.575	474986
615.642	475156
615.708	486729
615.774	503173
615.840	524259
615.906	540969
615.972	598699
616.038	741591
616.104	1076999
616.170	1500273
616.236	1401038
616.302	919955
616.368	772960
616.434	622009
616.500	569708
616.565	594342
616.631	698417
616.697	634029
616.763	618614
616.829	778352
616.895	1125773
616.961	1110604
617.026	705861
617.092	535563
617.158	495565
617.224	480641
617.289	443759
617.355	423716
617.421	418364
617.487	416052
617.552	396338
617.618	391244
617.684	392888
617.749	396567
617.815	378009
617.880	369902
617.946	372224
618.012	378438
618.077	386582
618.143	370877
618.208	368154
618.274	397669
618.339	400595
618.405	334782
618.470	335163
618.536	334709
618.601	328519
618.667	303670
618.732	291766
618.798	289235
618.863	288113
618.928	283659
618.994	288150
619.059	284796
619.124	287922
619.190	285457
619.255	283175
619.320	281962
619.386	287739
619.451	283875
619.516	274760
619.581	278947
619.647	289174
619.712	288869
619.777	275188
619.842	278418
619.907	283152
619.972	288376
620.038	284797
620.103	276343
620.168	277545
620.233	282054
620.298	282041
620.363	288403
620.428	293507
620.493	301413
620.558	301609
620.623	308449
620.688	307389
620.753	308464
620.818	311922
620.883	311692
620.948	311796
621.013	309826
621.078	304507
621.143	308989
621.207	311987
621.272	305672
621.337	297571
621.402	294086
621.467	290743
621.532	288593
621.596	293203
621.661	282137
621.726	279612
621.791	284872
621.855	284931
621.920	280414
621.985	286740
622.049	291542
622.114	292274
622.179	297289
622.243	301151
622.308	313999
622.373	322858
622.437	316636
622.502	302573
622.566	299149
622.631	298279
622.695	304085
622.760	301138
622.824	301003
622.889	301731
622.953	302538
623.018	319249
623.082	325294
623.147	320685
623.211	312345
623.276	312946
623.340	303344
623.404	295128
623.469	294333
623.533	298234
623.597	290379
623.662	288683
623.726	269915
623.790	254789
623.854	247571
623.919	250728
623.983	257483
624.047	261819
624.111	261936
624.176	270235
624.240	268792
624.304	274598
624.368	268624
624.432	268312
624.496	273143
624.560	289687
624.625	290288
624.689	287140
624.753	302137
624.817	287343
624.881	284011
624.945	254862
625.009	248221
625.073	253010
625.137	261795
625.201	271012
625.265	273430
625.329	262173
625.393	263456
625.456	268892
625.520	275302
625.584	278224
625.648	286419
625.712	291630
625.776	291033
625.839	273258
625.903	235297
625.967	217833
626.031	234848
626.095	276941
626.158	256110
626.222	206719
626.286	191677
626.349	183981
626.413	171228
626.477	171857
626.540	175935
626.604	172085
626.668	169794
626.731	167832
626.795	168140
626.858	169438
626.922	166641
626.986	164834
627.049	166363
627.113	173980
627.176	167483
627.240	161125
627.303	163301
627.366	160582
627.430	164972
627.493	162206
627.557	156747
627.620	161533
627.684	168374
627.747	167697
627.810	155627
627.874	140266
627.937	134826
628.000	139501
628.064	135061
628.127	121909
628.190	119477
628.253	117626
628.317	112225
628.380	107642
628.443	103841
628.506	103077
628.569	101209
628.632	94458
628.696	96277
628.759	95351
628.822	90865
628.885	89079
628.948	87619
629.011	85793
629.074	83078
629.137	80454
629.200	78576
629.263	80228
629.326	76667
629.389	79188
629.452	77219
629.515	75589
629.578	75346
629.641	76289
629.704	76366
629.767	75275
629.830	73757
629.892	72644
629.955	70317
630.018	74745
630.081	71704
630.144	72192
630.207	69771
630.269	71420
630.332	68272
630.395	69744
630.458	66943
630.520	65117
630.583	66849
630.646	66830
630.708	67595
630.771	67782
630.834	72591
630.896	71806
630.959	69214
631.021	68712
631.084	68625
631.146	69017
631.209	69478
631.272	69668
631.334	69490
631.397	70986
631.459	70904
631.522	74633
631.584	76232
631.646	79940
631.709	80734
631.771	81993
631.834	79487
631.896	75959
631.958	72057
632.021	71917
632.083	67690
632.145	66559
632.208	65943
632.270	67745
632.332	64912
632.395	65431
632.457	67459
632.519	63541
632.581	65222
632.643	64077
632.706	64803
632.768	62950
632.830	64514
632.892	66275
632.954	66712
633.016	68624
633.078	64787
633.141	66969
633.203	65591
633.265	64843
633.327	65356
633.389	65460
633.451	65057
633.513	65514
633.575	66904
633.637	66995
633.698	67707
633.760	70308
633.822	74434
633.884	75815
633.946	77195
634.008	78302
634.070	79812
634.132	82752
634.193	87241
634.255	94236
634.317	95478
634.379	95024
634.441	85944
634.502	80563
634.564	74417
634.626	68756
634.687	65801
634.749	64691
634.811	64890
634.873	63938
634.934	64568
634.996	65284
635.057	63629
635.119	64680
635.181	66233
635.242	65962
635.304	65727
635.365	68882
635.427	65087
635.488	66527
635.550	64743
635.611	66770
635.673	65094
635.734	70779
635.796	72700
635.857	78609
635.918	82379
635.980	90112
636.041	94366
636.102	100030
636.164	99184
636.225	95655
636.286	84461
636.348	77594
636.409	69819
636.470	67666
636.531	64879
636.593	63867
636.654	61907
636.715	60021
636.776	59507
636.838	57544
636.899	57627
636.960	56329
637.021	55029
637.082	54568
637.143	53532
637.204	51063
637.265	51784
637.326	51784
637.387	55089
637.448	53429
637.509	52564
637.570	53327
637.631	52847
637.692	50370
637.753	48936
637.814	50791
637.875	49759
637.936	50096
637.997	48809
638.058	48620
638.119	48968
638.179	50269
638.240	49442
638.301	49016
638.362	47317
638.423	47295
638.483	46821
638.544	44452
638.605	45388
638.666	45356
638.726	45492
638.787	47017
638.848	46704
638.908	45734
638.969	44428
639.030	41960
639.090	42181
639.151	43320
639.211	44675
639.272	45012
639.332	44820
639.393	46265
639.453	47258
639.514	48972
639.574	44034
639.635	41850
639.695	41472
639.756	38865
639.816	40963
639.877	39413
639.937	40647
639.997	40631
640.058	39126
640.118	39721
640.178	42538
640.239	40114
640.299	40981
640.359	41328
640.420	43599
640.480	47934
640.540	52549
640.600	54153
640.661	50172
640.721	47802
640.781	48572
640.841	44750
640.901	41993
640.961	42436
641.021	42974
641.082	45665
641.142	41693
641.202	40507
641.262	37314
641.322	39838
641.382	37903
641.442	39012
641.502	38509
641.562	39682
641.622	40392
641.682	42426
641.742	47589
641.802	44209
641.861	40655
641.921	37866
641.981	37362
642.041	35735
642.101	35153
642.161	34500
642.221	35051
642.280	35926
642.340	35372
642.400	35528
642.460	37369
642.519	38453
642.579	36895
642.639	38789
642.698	36158
642.758	40514
642.818	38271
642.877	37547
642.937	37830
642.997	38129
643.056	37203
643.116	36905
643.175	39087
643.235	39413
643.294	40379
643.354	41836
643.414	43745
643.473	49486
643.532	57724
643.592	71285
643.651	98392
643.711	148283
643.770	255181
643.830	520259
643.889	809953
643.948	354304
644.008	117913
644.067	71425
644.126	55822
644.186	47491
644.245	42658
644.304	39114
644.363	40968
644.423	36543
644.482	37554
644.541	39146
644.600	40006
644.659	48503
644.719	55756
644.778	76427
644.837	117820
644.896	219878
644.955	432924
645.014	179509
645.073	60876
645.132	47547
645.191	43500
645.250	41235
645.309	42700
645.368	46606
645.427	59582
645.486	96882
645.545	161657
645.604	58228
645.663	39619
645.722	38039
645.781	41238
645.840	43198
645.898	49687
645.957	63655
646.016	85838
646.075	138383
646.134	241135
646.192	520660
646.251	660073
646.310	210425
646.369	84126
646.427	67505
646.486	51511
646.545	42291
646.603	37589
646.662	36110
646.721	34649
646.779	34292
646.838	34195
646.896	41008
646.955	52165
647.014	75388
647.072	133838
647.131	320185
647.189	172100
647.248	42991
647.306	34750
647.365	31476
647.423	26650
647.481	28722
647.540	27458
647.598	28266
647.657	27130
647.715	28244
647.773	25452
647.832	25721
647.890	23520
647.948	24389
648.007	23378
648.065	21727
648.123	21497
648.181	23173
648.240	22683
648.298	22609
648.356	22020
648.414	23138
648.472	22216
648.531	21665
648.589	20701
648.647	21632
648.705	21333
648.763	20830
648.821	21616
648.879	23356
648.937	25422
648.995	28044
649.053	34156
649.111	45541
649.169	66178
649.227	111655
649.285	216635
649.343	494227
649.401	279570
649.459	64185
649.516	38864
649.574	30136
649.632	31403
649.690	34491
649.748	40357
649.806	55081
649.863	96065
649.921	246476
649.979	170856
650.037	34749
650.094	21426
650.152	21661
650.210	18372
650.268	19230
650.325	19366
650.383	19639
650.440	16332
650.498	16485
650.556	15744
650.613	16079
650.671	16747
650.728	16534
650.786	17793
650.843	24378
650.901	19594
650.958	16255
651.016	15085
651.073	14736
651.131	14754
651.188	13247
651.246	13755
651.303	12896
651.360	13872
651.418	13781
651.475	13899
651.532	12838
651.590	14045
651.647	12201
651.704	12624
651.762	12841
651.819	12207
651.876	13001
651.933	12114
651.990	12678
652.048	11766
652.105	11381
652.162	12818
652.219	12326
652.276	11713
652.333	12836
652.390	10437
652.448	12418
652.505	12405
652.562	12374
652.619	11069
652.676	11052
652.733	12997
652.790	10942
652.847	10448
652.904	11526
652.961	9882
653.017	10778
653.074	11200
653.131	11063
653.188	10999
653.245	10509
653.302	10593
653.359	11423
653.415	10996
653.472	10186
653.529	10548
653.586	10270
653.642	10299
653.699	10943
653.756	10387
653.813	11095
653.869	11115
653.926	10583
653.983	10601
654.039	10967
654.096	9538
654.152	11831
654.209	8790
654.266	10704
654.322	9002
654.379	11199
654.435	10787
654.492	10727
654.548	10222
654.605	10366
654.661	10663
654.717	9567
654.774	10573
654.830	9974
654.887	9415
654.943	10369
655.000	11489
655.056	10688
655.112	10086
655.168	9530
655.225	10436
655.281	11242
655.337	10095
655.394	9806
655.450	9485
655.506	10662
655.562	9153
655.618	10711
655.675	8307
655.731	9839
655.787	9285
655.843	11237
655.899	9728
655.955	10507
656.011	10235
656.067	9423
656.123	8806
656.179	9348
656.235	10943
656.291	8825
656.347	11185
656.403	9535
656.459	9068
656.515	10246
656.571	8713
656.627	10084
656.683	9777
656.739	9633
656.795	9929
656.850	9612
656.906	10167
656.962	10602
657.018	10508
657.074	13626
657.129	16783
657.185	25146
657.241	54934
657.297	32731
657.352	11929
657.408	8965
657.464	9680
657.519	9437
657.575	7747
657.630	8592
657.686	8899
657.742	8669
657.797	8622
657.853	8724
657.908	10353
657.964	7534
658.019	8197
658.075	9071
658.130	8242
658.186	6741
658.241	8660
658.297	7783
658.352	7597
658.407	8504
658.463	7400
658.518	8466
658.573	7589
658.629	7361
658.684	7725
658.739	8792
658.795	7574
658.850	8998
658.905	6684
658.960	8046
659.016	7246
659.071	7461
659.126	7446
659.181	7504
659.236	8017
659.291	8894
659.346	7068
659.401	8810
659.457	8507
659.512	7527
659.567	8724
659.622	7958
659.677	6403
659.732	7021
659.787	7319
659.842	7323
659.897	6699
659.952	7957
660.007	7379
660.061	7313
660.116	6130
660.171	7582
660.226	7284
660.281	7693
660.336	7362
660.391	7972
660.445	7502
660.500	7110
660.555	6800
660.610	7089
660.664	7767
660.719	7489
660.774	6978
660.828	7067
660.883	6498
660.938	7767
660.992	5457
661.047	7178
661.101	6804
661.156	7728
661.211	6120
661.265	6504
661.320	7569
661.374	7887
661.429	5819
661.483	7229
661.538	6280
661.592	6656
661.647	7947
661.701	8540
661.755	7188
661.810	7503
661.864	5963
661.919	6265
661.973	6865
662.027	6138
662.081	6295
662.136	6873
662.190	6864
662.244	7198
662.299	6647
662.353	6697
662.407	5616
662.461	6536
662.515	6941
662.569	6059
662.624	6553
662.678	6374
662.732	5873
662.786	6523
662.840	7196
662.894	6882
662.948	5608
663.002	7150
663.056	6543
663.110	6971
663.164	6758
663.218	6503
663.272	6664
663.326	7338
663.380	5976
663.434	6835
663.488	5576
663.542	6655
663.595	6998
663.649	6547
663.703	6764
663.757	6317
663.811	6223
663.864	6459
663.918	5418
663.972	6554
664.026	6280
664.079	6961
664.133	6465
664.187	7822
664.240	6723
664.294	6851
664.348	7432
664.401	6884
664.455	6249
664.508	6362
664.562	6235
664.615	6215
664.669	6000
664.722	6333
664.776	6091
664.829	5957
664.883	6921
664.936	5883
664.990	6024
665.043	7419
665.097	6417
665.150	7269
665.203	6073
665.257	7747
665.310	6357
665.363	6196
665.417	7314
665.470	7200
665.523	6854
665.576	7871
665.630	6460
665.683	6266
665.736	7109
665.789	6746
665.842	6288
665.895	6292
665.949	6260
666.002	7833
666.055	6968
666.108	7816
666.161	7151
666.214	7896
666.267	7800
666.320	7071
666.373	6880
666.426	7764
666.479	6608
666.532	7489
666.585	8237
666.638	7701
666.691	6546
666.744	8569
666.796	6662
666.849	7854
666.902	7762
666.955	6466
667.008	6952
667.060	6545
667.113	7714
667.166	7815
667.219	7974
667.271	8684
667.324	7674
667.377	8046
667.430	7672
667.482	7934
667.535	7140
667.587	7814
667.640	7545
667.693	7659
667.745	6811
667.798	7073
667.850	6763
667.903	7690
667.955	7689
668.008	7872
668.060	8151
668.113	7468
668.165	6724
668.218	6945
668.270	7774
668.322	7521
668.375	6689
668.427	7734
668.479	6235
668.532	8732
668.584	7538
668.636	7466
668.689	6724
668.741	6548
668.793	7003
668.845	6935
668.898	6283
668.950	6888
669.002	7250
669.054	7691
669.106	6550
669.158	8733
669.211	7175
669.263	6779
669.315	7638
669.367	6782
669.419	6142
669.471	7337
669.523	6412
669.575	7214
669.627	6218
669.679	6125
669.731	6224
669.783	6997
669.835	6460
669.886	6280
669.938	7183
669.990	7175
670.042	6445
670.094	6109
670.146	6277
670.197	7312
670.249	7302
670.301	7025
670.353	8310
670.404	8831
670.456	8751
670.508	11775
670.560	16401
670.611	22157
670.663	35944
670.715	80402
670.766	122759
670.818	37389
670.869	10664
670.921	9997
670.972	8523
671.024	7868
671.075	7186
671.127	7909
671.178	7591
671.230	8456
671.281	8478
671.333	10677
671.384	11953
671.436	15410
671.487	20928
671.538	29059
671.590	43562
671.641	68745
671.692	114496
671.744	199826
671.795	159367
671.846	70505
671.897	35754
671.949	23989
672.000	17174
672.051	13374
672.102	11438
672.153	9912
672.204	9259
672.256	8738
672.307	7499
672.358	7840
672.409	5563
672.460	6882
672.511	5803
672.562	5344
672.613	5303
672.664	5076
672.715	6358
672.766	5285
672.817	5161
672.868	5750
672.919	4684
672.970	5395
673.021	4358
673.071	5488
673.122	4453
673.173	4414
673.224	4651
673.275	5256
673.326	4951
673.376	4934
673.427	4653
673.478	4327
673.528	5237
673.579	5839
673.630	5193
673.680	5267
673.731	5257
673.782	4599
673.832	4290
673.883	4656
673.934	4581
673.984	4444
674.035	4937
674.085	4956
674.136	5146
674.186	4962
674.237	5268
674.287	4500
674.338	5125
674.388	4731
674.438	5087
674.489	5567
674.539	5805
674.589	4770
674.640	5379
674.690	5554
674.740	5282
674.791	5252
674.841	4612
674.891	5124
674.942	3719
674.992	4143
675.042	4132
675.092	3734
675.142	3815
675.193	3807
675.243	3902
675.293	4393
675.343	4400
675.393	5778
675.443	5007
675.493	4795
675.543	2985
675.593	4528
675.643	4206
675.693	4465
675.743	3980
675.793	3811
675.843	3784
675.893	3585
675.943	3404
675.993	3118
676.043	2985
676.093	3735
676.142	2546
676.192	4689
676.242	3528
676.292	3243
676.341	3128
676.391	4368
676.441	2599
676.491	4078
676.540	3146
676.590	3445
676.640	3401
676.689	2903
676.739	2151
676.789	2966
676.838	3882
676.888	3205
676.937	2729
676.987	3185
677.037	3771
677.086	3486
677.136	2824
677.185	3057
677.235	2538
677.284	3828
677.333	2871
677.383	2931
677.432	3039
677.482	3036
677.531	3020
677.580	2486
677.630	2412
677.679	3470
677.728	3253
677.778	3047
677.827	2916
677.876	3329
677.925	2939
677.975	3762
678.024	3045
678.073	3047
678.122	3186
678.171	4147
678.220	3807
678.269	4950
678.319	3844
678.368	5410
678.417	4498
678.466	4183
678.515	2805
678.564	2751
678.613	2061
678.662	2581
678.711	2856
678.760	2538
678.809	3273
678.857	3655
678.906	2292
678.955	3310
679.004	2924
679.053	2446
679.102	1990
679.151	2102
679.199	2524
679.248	2562
679.297	2274
679.346	3044
679.394	1735
679.443	3023
679.492	2242
679.540	2889
679.589	2565
679.638	2555
679.686	3536
679.735	3498
679.784	4355
679.832	5075
679.881	3072
679.929	3305
679.978	2314
680.026	2769
680.075	2457
680.123	2580
680.172	1682
680.220	3436
680.268	2402
680.317	2362
680.365	1722
680.414	1482
680.462	1859
680.510	2545
680.559	2554
680.607	2802
680.655	2378
680.703	2393
680.752	2027
680.800	1839
680.848	2556
680.896	2617
680.945	2084
680.993	1774
681.041	1585
681.089	2815
681.137	1832
681.185	2356
681.233	1923
681.258	2176
681.281	2391
681.329	1801
681.377	1935
681.380	1977
681.425	2340
681.473	3123
681.502	2813
681.521	2556
681.569	3685
681.617	2483
681.624	2516
681.665	2501
681.713	2180
681.745	2735
681.761	2968
681.809	2204
681.857	2809
681.867	2887
681.904	3069
681.952	3900
681.989	3165
682.000	2910
682.048	2496
682.096	3761
682.111	3571
682.143	3069
682.191	3463
682.233	4347
682.239	4465
682.286	2864
682.334	3329
682.354	3180
682.382	2892
682.430	3279
682.476	3528
682.477	3509
682.525	3819
682.572	3987
682.598	3659
682.620	3341
682.667	3878
682.715	3278
682.720	3321
682.763	3550
682.810	3815
682.841	3663
682.857	3542
682.905	2980
682.952	3894
682.963	3829
683.000	3478
683.047	3726
683.085	4785
683.095	5067
683.142	3845
683.190	4053
683.206	4006
683.237	3834
683.284	4557
683.328	4057
683.332	3989
683.379	4163
683.426	3640
683.449	4298
683.473	5046
683.521	4257
683.568	4654
683.571	4668
683.615	4379
683.662	4604
683.693	4266
683.709	4086
683.757	4310
683.804	4239
683.814	4309
683.851	4487
683.898	5224
683.936	4553
683.945	4366
683.992	4777
684.039	5203
684.057	4978
684.086	4600
684.133	4454
684.179	4772
684.180	4764
684.227	4495
684.274	4479
684.300	4417
684.321	4411
684.368	4479
684.415	4991
684.422	5036
684.462	5108
684.509	4481
684.543	5036
684.556	5276
684.603	5474
684.649	5209
684.665	5309
684.696	5352
684.743	5523
684.786	6112
684.790	6143
684.837	5472
684.883	5460
684.908	5390
684.930	5388
684.977	6188
685.023	5584
685.029	5685
685.070	6332
685.117	6144
685.150	6408
685.164	6468
685.210	6037
685.257	6170
685.272	6259
685.303	6454
685.350	6644
685.393	5703
685.396	5609
685.443	5962
685.490	5674
685.514	5746
685.536	5858
685.583	5769
685.629	6020
685.636	5962
685.675	5592
685.722	6107
685.757	6224
685.768	6237
685.815	5763
685.861	5651
685.878	5955
685.908	6530
685.954	5940
686.000	6189
686.000	6187
686.047	6621
686.093	6781
686.121	6748
686.139	6695
686.185	6820
686.232	6934
686.242	6984
686.278	7006
686.324	6586
686.363	7151
686.370	7272
686.416	6622
686.463	7458
686.484	7316
686.509	7134
686.555	7401
686.601	6635
686.606	6737
686.647	7549
686.693	6528
686.727	6827
686.739	6967
686.785	7042
686.831	6945
686.848	7161
686.877	7438
686.923	7023
686.969	6598
686.969	6596
687.015	7319
687.061	7622
687.090	7850
687.107	7950
687.153	7677
687.199	8125
687.211	7974
687.245	7420
687.291	7832
687.332	7764
687.336	7773
687.382	8005
687.428	7874
687.453	8037
687.474	8211
687.520	8352
687.565	8370
687.574	8368
687.611	8322
687.657	8782
687.695	8880
687.702	8969
687.748	10376
687.794	11462
687.816	11287
687.839	10568
687.885	9959
687.931	9355
687.937	9227
687.976	8942
688.022	8918
688.058	8568
688.067	8488
688.113	8976
688.158	8725
688.179	8909
688.204	9080
688.249	8406
688.295	8811
688.300	8798
688.340	8960
688.386	9295
688.421	8530
688.431	8319
688.477	9421
688.522	9054
688.542	9379
688.567	9877
688.613	9612
688.658	9783
688.663	9843
688.703	9994
688.749	9461
688.784	8776
688.794	8673
688.839	9661
688.884	9613
688.905	9726
688.930	9722
688.975	9272
689.020	9568
689.026	9492
689.065	9163
689.110	9577
689.146	9151
689.155	9100
689.201	10049
689.246	9694
689.267	9994
689.291	10081
689.336	9812
689.381	9860
689.388	9716
689.426	9471
689.471	10000
689.509	10180
689.516	10172
689.561	10101
689.606	10022
689.630	10006
689.651	10068
689.696	9843
689.741	10452
689.750	10312
689.785	9940
689.830	10490
689.871	10443
689.875	10426
689.920	10706
689.965	10023
689.992	10242
690.010	10403
690.054	9786
690.099	9890
690.112	9690
690.144	9392
690.189	9874
690.233	9359
690.233	9371
690.278	10238
690.323	10195
690.354	10506
690.367	10645
690.412	10853
690.457	10504
690.474	10604
690.501	10583
690.546	10521
690.590	9928
690.595	9861
690.635	9666
690.680	9845
690.716	9785
690.724	9823
690.769	10187
690.813	10801
690.836	10638
690.857	10633
690.902	11403
690.946	11740
690.957	11870
690.991	12635
691.035	13139
691.077	14298
691.080	14326
691.124	13592
691.168	13575
691.198	13134
691.213	12798
691.257	12204
691.301	11511
691.318	11302
691.346	11448
691.390	10858
691.434	11083
691.439	11019
691.478	10733
691.522	11117
691.559	10925
691.567	10965
691.611	11578
691.655	11803
691.680	12006
691.699	11931
691.743	11695
691.787	11402
691.800	11200
691.831	10936
691.875	11210
691.919	11050
691.921	11029
691.964	11312
692.008	11655
692.041	11665
692.052	11608
692.096	11478
692.139	11584
692.162	11627
692.183	11743
692.227	11616
692.271	11499
692.282	11412
692.315	11238
692.359	11083
692.402	11101
692.403	11122
692.447	11012
692.490	11208
692.523	10877
692.534	10877
692.578	11445
692.622	11394
692.643	11492
692.666	11569
692.709	11542
692.753	11637
692.763	11634
692.797	11805
692.840	11874
692.884	12233
692.884	12257
692.928	12220
692.971	11680
693.004	11490
693.015	11536
693.059	11673
693.102	11877
693.124	11948
693.146	11952
693.189	11747
693.233	11524
693.245	11527
693.276	12019
693.320	12282
693.363	12680
693.365	12660
693.407	12367
693.450	12426
693.485	12377
693.493	12468
693.537	12847
693.580	12786
693.605	13099
693.624	13386
693.667	13515
693.710	13986
693.725	14106
693.753	15569
693.797	17694
693.840	20012
693.845	20203
693.883	19120
693.926	18021
693.966	17021
693.970	16924
694.013	15659
694.056	14063
694.086	13009
694.099	12888
694.142	12705
694.185	12298
694.206	12125
694.229	12394
694.272	12785
694.315	13289
694.326	13300
694.358	12873
694.401	12600
694.444	12297
694.446	12246
694.487	12480
694.530	12961
694.566	13295
694.573	13327
694.616	12968
694.659	13091
694.686	12712
694.702	12612
694.745	13236
694.787	12924
694.806	12966
694.830	12996
694.873	12969
694.916	12862
694.926	12830
694.959	13216
695.002	13651
695.044	14134
695.046	14117
695.087	14353
695.130	14381
695.166	14852
695.172	14920
695.215	14416
695.258	14602
695.286	14488
695.301	14707
695.343	15300
695.386	15792
695.406	15992
695.428	16565
695.471	17671
695.514	19105
695.526	19375
695.556	20480
695.599	22183
695.641	23359
695.646	23477
695.684	22461
695.726	21144
695.766	20022
695.769	20034
695.811	19442
695.854	18942
695.886	18392
695.896	18528
695.938	18967
695.981	19489
696.005	19695
696.023	20224
696.065	21477
696.108	22805
696.125	23241
696.150	23620
696.192	24220
696.235	24630
696.245	24754
696.277	24909
696.319	24851
696.361	24835
696.365	24775
696.404	24450
696.446	24050
696.485	23593
696.488	23657
696.530	23640
696.572	23831
696.604	23901
696.614	23895
696.656	23589
696.698	23275
696.724	22998
696.740	23223
696.783	23776
696.825	24333
696.844	24499
696.867	24481
696.909	24244
696.951	24100
696.964	24017
696.992	24267
697.034	24519
697.076	24686
697.083	24668
697.118	25421
697.160	26246
697.202	27013
697.203	26972
697.244	26742
697.286	26389
697.323	25880
697.327	25957
697.369	26178
697.411	26373
697.442	26536
697.453	26576
697.494	26385
697.536	26187
697.562	26007
697.578	26044
697.620	25977
697.661	25940
697.682	25861
697.703	26548
697.744	27755
697.786	29020
697.801	29350
697.828	29201
697.869	28952
697.911	28768
697.921	28639
697.952	28393
697.994	27945
698.035	27593
698.040	27466
698.077	28207
698.118	29097
698.160	29917
698.160	29847
698.201	30329
698.243	30691
698.279	30986
698.284	31171
698.325	32149
698.367	33132
698.399	33820
698.408	33945
698.449	34134
698.491	34321
698.518	34360
698.532	34519
698.573	34749
698.614	34989
698.638	35046
698.656	34956
698.697	34518
698.738	34069
698.757	33786
698.779	33837
698.820	33760
698.862	33688
698.877	33577
698.903	33860
698.944	34175
698.985	34495
698.996	34498
699.026	34312
699.067	33938
699.116	33410
699.235	33997
699.354	33049
699.474	31684
699.593	30786
699.713	30569
699.832	31962
699.951	33351
700.070	31568
700.190	30462
700.309	29476
700.428	27985
700.547	28630
700.667	27539
700.786	28849
700.905	25703
701.024	27369
701.143	26584
701.262	28978
701.381	29549
701.500	28968
701.619	28141
701.738	28558
701.857	28204
701.976	27654
702.095	27041
702.214	29460
702.333	27587
702.452	28877
702.571	28442
702.690	28364
702.809	29219
702.928	26334
703.047	25766
703.165	27869
703.284	26646
703.403	25853
703.522	26266
703.640	25449
703.759	25146
703.878	23420
703.997	24795
704.115	25961
704.234	24894
704.353	25932
704.471	23127
704.590	24008
704.708	23778
704.827	22853
704.946	22848
705.064	22789
705.183	22273
705.301	23224
705.420	22059
705.538	21943
705.656	20641
705.775	20379
705.893	21805
706.012	21298
706.130	19516
706.249	21392
706.367	19752
706.485	20337
706.604	19219
706.722	20092
706.840	22399
706.958	26006
707.077	22399
707.195	18959
707.313	19309
707.431	18739
707.549	18495
707.668	17474
707.786	19759
707.904	17705
708.022	19827
708.140	18285
708.258	17602
708.376	18701
708.494	17265
708.612	19536
708.730	18526
708.848	18410
708.966	18811
709.084	19074
709.202	18320
709.320	16889
709.438	16969
709.556	17802
709.674	15568
709.791	16307
709.909	16290
710.027	16243
710.145	15407
710.263	16694
710.380	15693
710.498	15795
710.616	15742
710.733	14433
710.851	15584
710.969	15367
711.086	14633
711.204	14797
711.322	15584
711.439	14960
711.557	13884
711.674	15259
711.792	14945
711.909	14395
712.027	14042
712.144	14265
712.262	14620
712.379	14955
712.497	14217
712.614	14056
712.732	14481
712.849	13191
712.966	14689
713.084	15035
713.201	12599
713.318	14497
713.436	15774
713.553	14148
713.670	15577
713.787	15448
713.905	14290
714.022	14784
714.139	16494
714.256	19762
714.373	28214
714.490	51656
714.608	131078
714.725	488907
714.842	467454
714.959	58730
715.076	24613
715.193	18987
715.310	18087
715.427	14173
715.544	14594
715.661	14555
715.778	13837
715.895	12653
716.011	12930
716.128	12760
716.245	12469
716.362	13707
716.479	10639
716.596	12740
716.713	11947
716.829	11573
716.946	10543
717.063	11357
717.180	10075
717.296	10548
717.413	10805
717.530	11459
717.646	10585
717.763	9918
717.880	10258
717.996	9137
718.113	9850
718.229	10225
718.346	9543
718.462	8874
718.579	10862
718.695	10470
718.812	8957
718.928	10650
719.045	9598
719.161	9740
719.277	10969
719.394	11343
719.510	11262
719.626	12235
719.743	13879
719.859	23950
719.975	48745
720.092	188737
720.208	384132
720.324	54024
720.440	16158
720.557	12401
720.673	11499
720.789	10820
720.905	10013
721.021	10307
721.137	8904
721.253	9476
721.369	7964
721.486	9693
721.602	8265
721.718	8922
721.834	8752
721.950	8940
722.066	8573
722.181	8289
722.297	8659
722.413	8463
722.529	8233
722.645	9263
722.761	8177
722.877	8082
722.993	8910
723.108	12704
723.224	9986
723.340	8709
723.456	7763
723.571	7775
723.687	6879
723.803	7286
723.918	7714
724.034	7410
724.150	7832
724.265	7635
724.381	6958
724.497	7842
724.612	6892
724.728	7668
724.843	6716
724.959	8339
725.074	8473
725.190	8135
725.305	7139
725.421	7050
725.536	8020
725.651	8260
725.767	7305
725.882	8038
725.997	7160
726.113	8556
726.228	6949
726.343	6908
726.459	6672
726.574	7330
726.689	6657
726.804	7306
726.920	7643
727.035	7097
727.150	7870
727.265	6653
727.380	7133
727.495	7844
727.610	7016
727.725	7130
727.841	7305
727.956	7454
728.071	6832
728.186	5988
728.301	6054
728.416	7683
728.531	6923
728.645	6560
728.760	6882
728.875	7199
728.990	6605
729.105	6492
729.220	6934
729.335	7265
729.449	7220
729.564	7285
729.679	6101
729.794	7419
729.908	7783
730.023	6551
730.138	7598
730.253	7104
730.367	7054
730.482	6377
730.596	6599
730.711	8672
730.826	12705
730.940	12484
731.055	9886
731.169	10359
731.284	10082
731.398	10951
731.513	11324
731.627	12367
731.742	16496
731.856	19357
731.970	20619
732.085	25100
732.199	34365
732.313	59920
732.428	149575
732.542	402013
732.656	233386
732.771	50200
732.885	29594
732.999	28210
733.113	28908
733.227	27129
733.342	25403
733.456	25638
733.570	23439
733.684	22175
733.798	21763
733.912	23042
734.026	23352
734.140	22302
734.254	21384
734.368	21292
734.482	21143
734.596	21209
734.710	20611
734.824	20246
734.938	19522
735.052	21177
735.166	20207
735.280	20384
735.393	18384
735.507	19551
735.621	19275
735.735	18798
735.849	18744
735.962	18953
736.076	19771
736.190	18389
736.303	17826
736.417	18110
736.531	17078
736.644	17494
736.758	17815
736.872	17869
736.985	17816
737.099	16368
737.212	16520
737.326	16042
737.439	17692
737.553	15791
737.666	16822
737.780	15961
737.893	16482
738.007	16463
738.120	17354
738.233	14665
738.347	16272
738.460	15755
738.573	17176
738.687	15210
738.800	15982
738.913	15986
739.026	15542
739.140	14259
739.253	15274
739.366	14478
739.479	14847
739.592	14994
739.705	13260
739.818	16441
739.932	13549
740.045	15228
740.158	14085
740.271	14464
740.384	14620
740.497	13010
740.610	15112
740.723	12662
740.836	12896
740.949	14208
741.062	14622
741.174	13235
741.287	13036
741.400	14481
741.513	11155
741.626	14264
741.739	12111
741.851	12513
741.964	13259
742.077	12071
742.189	11499
742.302	13593
742.415	13242
742.527	12661
742.640	12823
742.753	11160
742.865	11875
742.978	12282
743.090	11129
743.203	12371
743.316	11127
743.428	11535
743.541	12013
743.653	10610
743.766	11383
743.878	11788
743.990	9797
744.103	12965
744.215	10991
744.327	9147
744.440	12188
744.552	10555
744.664	9265
744.777	11973
744.889	10486
745.001	11635
745.113	11549
745.226	10223
745.338	9823
745.450	12062
745.562	10270
745.674	9265
745.786	11620
745.898	10183
746.010	9459
746.122	10852
746.234	10397
746.347	10120
746.459	9548
746.570	7933
746.682	10750
746.794	11253
746.906	9010
747.018	9485
747.130	10657
747.242	8388
747.354	8434
747.466	10057
747.577	8457
747.689	9312
747.801	10359
747.913	8122
748.024	8500
748.136	8823
748.248	8099
748.359	9102
748.471	9135
748.583	7911
748.694	7591
748.806	10186
748.918	7995
749.029	8303
749.141	9555
749.252	8944
749.364	7310
749.475	7554
749.587	7369
749.698	7317
749.809	8062
749.921	8767
750.032	8180
750.144	7773
750.255	7815
750.366	7584
750.478	6769
750.589	6757
750.700	6642
750.811	7867
750.923	6929
751.034	7063
751.145	8696
751.256	7386
751.367	7305
751.479	7311
751.590	6646
751.701	6490
751.812	6028
751.923	7124
752.034	8814
752.145	7730
752.256	7313
752.367	6941
752.478	7202
752.589	7694
752.700	6683
752.811	6601
752.922	6695
753.032	8713
753.143	6825
753.254	6543
753.365	8321
753.476	7784
753.586	7528
753.697	6670
753.808	6463
753.919	6298
754.029	5741
754.140	6514
754.251	6472
754.361	7139
754.472	7831
754.582	6577
754.693	6964
754.804	7084
754.914	7311
755.025	5846
755.135	6581
755.246	7884
755.356	5870
755.466	6089
755.577	6459
755.687	6077
755.798	5771
755.908	5752
756.018	6688
756.129	7700
756.239	5436
756.349	7429
756.460	6260
756.570	7226
756.680	5821
756.790	6623
756.900	6208
757.011	5520
757.121	5084
757.231	6644
757.341	6399
757.451	6113
757.561	5616
757.671	6324
757.781	6149
757.891	6445
758.001	5532
758.111	6674
758.221	7413
758.331	7486
758.441	6896
758.551	6100
758.661	6075
758.771	6890
758.880	6885
758.990	6681
759.100	6487
759.210	6436
759.320	6853
759.429	7108
759.539	7196
759.649	7195
759.758	8380
759.868	8976
759.978	8951
760.087	9598
760.197	9379
760.307	8650
760.416	8431
760.526	7954
760.635	9001
760.745	9185
760.854	9977
760.964	11016
761.073	9466
761.182	10353
761.292	9002
761.401	8001
761.511	7066
761.620	6582
761.729	6679
761.839	5820
761.948	6495
762.057	5459
762.166	5431
762.276	5619
762.385	6287
762.494	5773
762.603	6000
762.712	5310
762.822	5272
762.931	5730
763.040	3978
763.149	6105
763.258	5828
763.367	5886
763.476	5552
763.585	5795
763.694	5307
763.803	5680
763.912	6490
764.021	5371
764.130	5155
764.238	6317
764.347	6202
764.456	7183
764.565	6338
764.674	6795
764.783	6049
764.891	6943
765.000	7492
765.109	7090
765.217	6698
765.326	8673
765.435	9229
765.543	11486
765.652	11667
765.761	14633
765.869	19786
765.978	29512
766.086	51784
766.195	99063
766.303	222996
766.412	394855
766.520	327586
766.629	151744
766.737	67010
766.846	38929
766.954	26170
767.062	21138
767.171	15751
767.279	14080
767.387	11436
767.496	10276
767.604	9542
767.712	8598
767.820	7458
767.928	7189
768.037	6651
768.145	8125
768.253	6467
768.361	7004
768.469	7042
768.577	6178
768.685	6993
768.793	7264
768.901	8174
769.009	8811
769.117	9318
769.225	11912
769.333	14991
769.441	23855
769.549	40457
769.657	89527
769.765	231571
769.873	328212
769.981	160513
770.088	52899
770.196	27635
770.304	20640
770.412	15610
770.519	11998
770.627	11249
770.735	9680
770.842	9562
770.950	9632
771.058	9782
771.165	11737
771.273	11163
771.380	12423
771.488	16035
771.595	17727
771.703	14887
771.810	14136
771.918	14192
772.025	18303
772.133	20543
772.240	18476
772.348	21651
772.455	19841
772.562	18654
772.670	17292
772.777	18980
772.884	18418
772.991	16300
773.099	17829
773.206	16767
773.313	17044
773.420	17221
773.528	17756
773.635	16442
773.742	18754
773.849	16411
773.956	17619
774.063	15673
774.170	16626
774.277	17192
774.384	15469
774.491	15436
774.598	15943
774.705	14857
774.812	15473
774.919	14427
775.026	14642
775.133	16098
775.239	15403
775.346	14123
775.453	14428
775.560	14056
775.667	15349
775.773	13281
775.880	14140
775.987	13831
776.093	14280
776.200	15220
776.307	10444
776.413	13088
776.520	15980
776.627	12676
776.733	11983
776.840	10313
776.946	17630
777.053	13059
777.159	14380
777.266	11619
777.372	12622
777.478	14416
777.585	12805
777.691	10728
777.798	13183
777.904	11490
778.010	11335
778.117	12622
778.223	11487
778.329	11819
778.435	9636
778.542	12567
778.648	11428
778.754	10805
778.860	12075
778.966	11311
779.072	10568
779.178	10732
779.284	9743
779.391	10965
779.497	12068
779.603	12492
779.708	10476
779.815	10987
779.920	21101
780.026	25361
780.132	11506
780.238	10250
780.344	10420
780.450	12842
780.556	8350
780.661	8749
780.767	12677
780.873	7329
780.979	8876
781.085	10638
781.190	8789
781.296	9514
781.402	9868
781.507	10056
781.613	7339
781.719	9418
781.824	10765
781.930	9092
782.035	9596
782.141	10564
782.246	8166
782.352	6882
782.457	9030
782.563	8978
782.668	8888
782.773	7587
782.879	7663
782.984	9120
783.090	8004
783.195	8584
783.300	9534
783.405	7572
783.511	7157
783.616	7411
783.721	8493
783.826	6636
783.932	7060
784.037	8827
784.142	8272
784.247	7658
784.352	8029
784.457	5774
784.562	7793
784.667	8119
784.772	6063
784.877	5229
784.982	8037
785.087	8188
785.192	6864
785.297	6681
785.402	7408
785.507	6988
785.611	6431
785.716	5375
785.821	6716
785.926	7528
786.031	6542
786.135	7226
786.240	7122
786.345	4775
786.450	6421
786.554	6369
786.659	6403
786.763	5887
786.868	6342
786.973	7663
787.077	5582
787.182	5349
787.286	7557
787.391	7640
787.495	4658
787.600	4175
787.704	5225
787.809	6879
787.913	5583
788.017	6680
788.122	6683
788.226	5844
788.330	4442
788.435	6165
788.539	7113
788.643	5522
788.747	4044
788.852	5768
788.956	5835
789.060	6967
789.164	5836
789.268	5227
789.372	5694
789.476	5874
789.580	4351
789.684	4565
789.788	6442
789.892	5113
789.996	5072
790.100	3104
790.204	5791
790.308	6774
790.412	4219
790.516	3516
790.620	4443
790.724	6681
790.828	5436
790.931	2779
791.035	5162
791.139	4756
791.242	5218
791.346	4636
791.450	5269
791.554	4313
791.657	3390
791.761	4759
791.864	5417
791.968	5092
792.072	5199
792.175	4229
792.279	4326
792.382	4681
792.486	4119
792.589	5111
792.693	4062
792.796	3166
792.899	5220
793.003	4641
793.106	4025
793.209	4339
793.313	4894
793.416	2165
793.519	4552
793.623	5725
793.726	4686
793.829	3034
793.932	3231
794.035	2743
794.138	6175
794.242	6121
794.345	3429
794.448	3645
794.551	3281
794.654	9017
794.757	12211
794.860	4954
794.963	4538
795.066	3478
795.169	3982
795.272	3728
795.375	3910
795.477	2922
795.580	3578
795.683	1973
795.786	5050
795.889	2674
795.991	3836
796.094	3841
796.197	2925
796.300	4356
796.402	3976
796.505	2087
796.608	2845
796.710	3279
796.813	3739
796.915	4883
797.018	4133
797.120	4222
797.223	3074
797.326	5382
797.428	2525
797.530	3387
797.633	3785
797.735	5225
797.838	3885
797.940	4368
798.042	4039
798.145	3005
798.247	3788
798.349	1618
798.452	3522
798.554	2707
798.656	3634
798.758	4827
798.860	2828
798.962	2904
799.065	2649
799.167	1931
799.269	4079
799.371	4086
799.473	5706
799.575	3566
799.677	3032
799.779	3994
799.881	1706
799.983	3717
800.085	3243
800.187	2846
800.289	1523
800.390	3203
800.492	3887
800.594	3538
800.696	2764
800.798	2604
800.899	3375
801.001	3012
801.103	3058
801.205	3019
801.306	3489
801.408	2418
801.509	3280
801.611	3152
801.713	3510
801.814	1344
801.916	2859
802.017	2463
802.119	2211
802.220	2968
802.322	1482
802.423	3571
802.525	1751
802.626	2305
802.727	4450
802.829	3006
802.930	696
803.031	3234
803.133	2528
803.234	2841
803.335	3463
803.436	833
803.538	2834
803.639	1097
803.740	2934
803.841	2166
803.942	3439
804.043	2273
804.144	1744
804.245	1830
804.346	1752
804.447	1836
804.548	2140
804.649	3797
804.750	1692
804.851	2308
804.952	3316
805.053	2080
805.154	1928
805.255	3373
805.355	2535
805.456	2234
805.557	2220
805.658	1098
805.758	2450
805.859	1879
805.960	1412
806.061	2267
806.161	1687
806.262	2680
806.362	2433
806.463	2430
806.564	3912
806.664	2825
806.765	2755
806.865	2182
806.966	2459
807.066	1453
807.166	3744
807.267	2499
807.367	2651
807.468	2434
807.568	810
807.668	2737
807.769	2892
807.869	1802
807.969	1937
808.069	1812
808.170	2613
808.270	2212
808.370	2691
808.470	2145
808.570	1311
808.670	1184
808.770	2023
808.870	2309
808.970	2444
809.070	1951
809.170	2459
809.271	2549
809.370	2339
809.470	1693
809.570	1247
809.670	807
809.770	1878
809.870	2569
809.970	2387
810.070	2267
810.169	2817
810.269	985
810.369	2558
810.469	2346
810.568	2378
810.668	1897
810.768	2474
810.867	1666
810.967	549
811.066	1517
811.166	1803
811.265	1963
811.365	2087
811.464	1764
811.564	2233
811.663	1753
811.763	1217
811.862	2659
811.962	2700
812.061	1991
812.160	1047
812.260	1344
812.359	1845
812.458	1523
812.557	2282
812.657	1612
812.756	2130
812.855	1790
812.954	1309
813.053	2765
813.153	1913
813.252	1348
813.351	2736
813.450	2395
813.549	1869
813.648	1822
813.747	1507
813.846	2783
813.945	2968
814.044	2015
814.143	2482
814.242	2669
814.341	2283
814.439	2339
814.538	3447
814.637	2537
814.736	2989
814.835	4038
814.933	3246
815.032	4115
815.131	6390
815.229	11446
815.328	16098
815.427	11576
815.525	10712
815.624	10455
815.722	10132
815.821	10245
815.919	10203
816.018	9301
816.116	10873
816.215	10147
816.313	10978
816.412	13286
816.510	13453
816.609	14202
816.707	16155
816.805	13253
816.904	12855
817.002	13102
817.100	13588
817.198	14903
817.296	11631
817.395	13521
817.493	12490
817.591	11477
817.689	12413
817.787	12672
817.885	12009
817.983	12350
818.081	14115
818.179	17146
818.277	30883
818.375	24351
818.473	14482
818.571	11806
818.669	12205
818.767	13711
818.865	12456
818.963	9605
819.061	13380
819.158	12386
819.256	19308
819.354	24929
819.452	45144
819.549	29466
819.647	15996
819.745	11841
819.842	11097
819.940	11523
820.038	9845
820.135	9110
820.233	11636
820.330	9260
820.428	9588
820.525	10957
820.623	9649
820.720	8600
820.818	10217
820.915	10578
821.012	9931
821.110	8747
821.207	9410
821.304	8105
821.402	10384
821.499	10332
821.596	8769
821.693	8961
821.791	10434
821.888	8730
821.985	10326
822.082	7486
822.179	9071
822.276	9734
822.373	7390
822.470	7830
822.567	9401
822.664	6492
822.761	8110
822.858	8983
822.955	8135
823.052	6150
823.149	8712
823.246	8621
823.343	6523
823.440	7221
823.536	8942
823.633	7553
823.730	6103
823.827	8398
823.923	6539
824.020	7232
824.117	8466
824.213	7939
824.310	7642
824.407	5887
824.503	8861
824.600	6868
824.696	6026
824.793	8941
824.889	8265
824.986	7115
825.082	4868
825.179	6661
825.275	8656
825.371	7139
825.468	5914
825.564	4192
825.660	7830
825.757	9629
825.853	6755
825.949	5093
826.045	5783
826.142	5950
826.238	6927
826.334	7387
826.430	6505
826.526	3814
826.622	5325
826.718	6789
826.814	8788
826.910	6017
827.006	3272
827.102	4668
827.198	6918
827.294	7491
827.390	7358
827.486	5150
827.582	4286
827.678	4959
827.774	7606
827.869	4894
827.965	5924
828.061	4362
828.157	6789
828.252	7368
828.348	5277
828.444	4929
828.539	4884
828.635	5942
828.731	6417
828.826	4661
828.922	5473
829.017	6129
829.113	6828
829.208	2863
829.304	5302
829.399	7676
829.495	5731
829.590	5109
829.685	5500
829.781	5976
829.876	6343
829.971	2545
830.066	3262
830.162	4733
830.257	7662
830.352	5345
830.447	3888
830.543	4489
830.638	5665
830.733	6400
830.828	4663
830.923	5078
831.018	5686
831.113	5881
831.208	2858
831.303	3167
831.398	2804
831.493	5153
831.588	8857
831.683	4096
831.778	3309
831.873	3518
831.967	5735
832.062	4536
832.157	4499
832.252	3943
832.346	3546
832.441	6012
832.536	4012
832.631	5070
832.725	3271
832.820	4657
832.914	4471
833.009	3324
833.104	3425
833.198	2629
833.293	3807
833.387	4940
833.482	4226
833.576	3578
833.670	4149
833.765	4003
833.859	4267
833.954	4440
834.048	4458
834.142	3110
834.237	2660
834.331	3917
834.425	4217
834.519	3730
834.613	3892
834.708	2901
834.802	3074
834.896	3408
834.990	4230
835.084	2496
835.178	2945
835.272	3347
835.366	5814
835.460	4642
835.554	3022
835.648	2656
835.742	1850
835.836	2846
835.930	3040
836.024	4016
836.117	4560
836.211	3226
836.305	2199
836.399	2840
836.493	3002
836.586	4255
836.680	2712
836.774	2479
836.867	3161
836.961	2209
837.055	2550
837.148	1753
837.242	3066
837.335	2810
837.429	2875
837.522	1496
837.616	2514
837.709	3199
837.803	2463
837.896	4159
837.989	3319
838.083	1221
838.176	1699
838.269	1253
838.363	3202
838.456	2045
838.549	2509
838.642	2701
838.735	2871
838.829	3598
838.922	2531
839.015	3280
839.108	2024
839.201	3023
839.294	4340
839.387	3001
839.480	1849
839.573	2025
839.666	1593
839.759	2667
839.852	1978
839.945	2830
840.038	2433
840.131	2261
840.223	1927
840.316	2847
840.409	2428
840.502	3011
840.594	3511
840.687	34
840.780	1337
840.873	1574
840.965	1143
841.058	2062
841.150	3093
841.243	553
841.336	3141
841.428	1356
841.521	2073
841.613	2074
841.706	2609
841.798	1583
841.890	2690
841.983	1170
842.075	2395
842.167	1520
842.260	2210
842.352	3043
842.444	2034
842.537	1523
842.629	1197
842.721	1079
842.813	2365
842.905	794
842.997	2104
843.090	1722
843.182	1456
843.274	793
843.366	2268
843.458	2556
843.550	3413
843.642	2438
843.734	1930
843.826	1355
843.918	2339
844.009	1742
844.101	1443
844.193	1383
844.285	2501
844.377	2195
844.469	1121
844.560	306
844.652	1799
844.744	1476
844.835	1719
844.927	2240
845.019	2072
845.110	1486
845.202	1841
845.293	1266
845.385	921
845.476	1329
845.568	2509
845.659	1093
845.751	2359
845.842	1261
845.934	1658
846.025	1083
846.116	1389
846.208	761
846.299	1510
846.390	1929
846.482	1817
846.573	1230
846.664	2237
846.755	806
846.846	2046
846.937	178
847.029	1871
847.120	1366
847.211	1472
847.302	2295
847.393	1128
847.484	2145
847.575	384
847.666	457
847.757	1303
847.847	1705
847.938	2322
848.029	2103
848.120	1267
848.211	896
848.302	1372
848.392	675
848.483	1413
848.574	1283
848.664	1887
848.755	1298
848.846	1587
848.936	528
849.027	2266
849.118	2497
849.208	1287
849.299	2407
849.389	5073
849.480	8778
849.570	16484
849.661	31448
849.751	50803
849.841	18194
849.932	4122
850.022	1585
850.112	2231
850.203	1359
850.293	1514
850.383	575
850.474	1300
850.564	510
850.654	2081
850.744	1502
850.834	2351
850.924	1330
851.014	2367
851.104	1749
851.194	1222
851.284	1616
851.374	1139
851.464	1014
851.554	946
851.644	1042
851.734	1326
851.824	1389
851.914	1581
852.004	1771
852.094	1428
852.183	618
852.273	1500
852.363	1253
852.452	2338
852.542	1373
852.632	817
852.721	1305
852.811	1270
852.901	2392
852.990	1804
853.080	1231
853.169	2099
853.259	1944
853.348	2417
853.438	2279
853.527	4163
853.617	5604
853.706	10745
853.795	17894
853.885	34560
853.974	60416
854.063	105780
854.152	138126
854.242	64574
854.331	17736
854.420	8657
854.509	6158
854.598	4851
854.687	3956
854.777	3374
854.866	2194
854.955	2196
855.044	1230
855.133	1362
855.222	2237
855.311	1535
855.400	1101
855.488	816
855.577	1216
855.666	1197
855.755	930
855.844	1521
855.933	1220
856.021	1973
856.110	641
856.199	679
856.288	841
856.376	1356
856.465	481
856.554	1702
856.642	1818
856.731	1829
856.819	1708
856.908	741
856.996	1041
857.085	1287
857.173	858
857.262	696
857.350	630
857.438	1012
857.527	750
857.615	1247
857.703	1891
857.792	1076
857.880	934
857.968	1358
858.056	671
858.145	1014
858.233	683
858.321	950
858.409	1557
858.497	1252
858.585	607
858.673	1279
858.761	489
858.849	718
858.937	1051
859.025	1140
859.113	1580
859.201	968
859.289	1250
859.377	1551
859.465	617
859.552	412
859.640	318
859.728	1627
859.816	722
859.903	978
859.991	638
860.079	857
860.166	654
860.254	684
860.342	1420
860.429	678
860.517	1044
860.604	1063
860.692	1326
860.779	406
860.867	717
860.954	746
861.042	1869
861.129	1696
861.216	755
861.304	1728
861.391	1762
861.478	597
861.565	30
861.653	1527
861.740	-79
861.827	591
861.914	916
862.001	1456
862.089	1331
862.176	1369
862.263	740
862.350	1563
862.437	161
862.524	760
862.611	553
862.698	1271
862.785	2093
862.871	2401
862.958	2000
863.045	1426
863.132	1480
863.219	1470
863.306	229
863.392	1867
863.479	923
863.566	1310
863.652	2179
863.739	1314
863.826	1792
863.912	1534
863.999	1233
864.086	1974
864.172	1631
864.259	2865
864.345	1395
864.432	2193
864.518	2509
864.604	2191
864.691	1884
864.777	2949
864.863	3498
864.950	6114
865.036	8386
865.122	13989
865.209	15314
865.295	12572
865.381	12006
865.467	11322
865.553	13355
865.639	15030
865.726	17865
865.812	27002
865.898	41222
865.984	58207
866.070	93946
866.156	92899
866.242	37348
866.328	17331
866.414	13315
866.499	12513
866.585	10994
866.671	11305
866.757	10720
866.843	10101
866.928	11286
867.014	9988
867.100	9577
867.186	9143
867.271	8880
867.357	9669
867.442	9832
867.528	9443
867.614	9264
867.699	9140
867.785	8627
867.870	9125
867.956	9497
868.041	9846
868.127	8598
868.212	8946
868.297	8049
868.383	9054
868.468	8196
868.553	9401
868.639	8832
868.724	8948
868.809	8404
868.894	8775
868.979	8173
869.065	7980
869.150	7021
869.235	8273
869.320	8300
869.405	7192
869.490	8256
869.575	7709
869.660	6687
869.745	7092
869.830	9778
869.915	7344
870.000	7550
870.085	6566
870.169	8868
870.254	9431
870.339	5927
870.424	6205
870.509	7531
870.593	8377
870.678	8694
870.763	6462
870.847	5670
870.932	7523
871.016	7413
871.101	5265
871.186	6897
871.270	10148
871.355	5150
871.439	6916
871.523	7592
871.608	5939
871.692	5242
871.777	8144
871.861	7867
871.945	5859
872.030	6865
872.114	7222
872.198	5674
872.282	6016
872.367	5471
872.451	6035
872.535	5626
872.619	6502
872.703	5612
872.787	7296
872.871	6522
872.955	4848
873.039	4723
873.123	7302
873.207	7262
873.291	3786
873.375	5447
873.459	7064
873.543	5745
873.627	5923
873.711	4963
873.794	6178
873.878	4772
873.962	5204
874.045	4728
874.129	5898
874.137	5857
874.213	5447
874.245	5429
874.296	5401
874.352	4860
874.380	4597
874.460	5552
874.464	5592
874.547	4688
874.568	4806
874.631	5158
874.676	5081
874.714	5004
874.784	5762
874.798	5919
874.881	4651
874.892	4546
874.965	3841
874.999	4541
875.048	5502
875.107	5576
875.131	5589
875.215	3956
875.215	3956
875.298	3932
875.323	4202
875.381	4815
875.430	6169
875.465	7077
875.538	5795
875.548	5624
875.631	3127
875.646	3050
875.714	2764
875.753	3572
875.798	4481
875.861	5388
875.881	5647
875.964	3871
875.968	3848
876.047	3600
876.076	4062
876.130	4859
876.183	4400
876.213	4152
876.291	5135
876.296	5194
876.379	4224
876.398	4068
876.462	3537
876.506	3269
876.545	3154
876.613	3580
876.628	3659
876.711	4319
876.721	4436
876.794	5412
876.828	5278
876.877	4705
876.935	3572
876.960	3317
877.043	2906
877.043	2914
877.125	4593
877.150	4706
877.208	4809
877.258	3917
877.291	3249
877.365	2262
877.374	2179
877.456	3318
877.472	3321
877.539	3250
877.579	3705
877.622	4295
877.687	4085
877.704	3955
877.787	5077
877.794	4952
877.869	3794
877.901	3868
877.952	3677
878.008	2427
878.034	2027
878.115	2498
878.117	2506
878.199	3181
878.222	3384
878.282	3926
878.329	4156
878.364	4283
878.437	4334
878.447	4301
878.529	2842
878.544	2819
878.611	2956
878.651	2824
878.694	2811
878.758	3662
878.776	3827
878.858	3766
878.865	3716
878.941	2946
878.972	2492
879.023	1947
879.078	2631
879.105	3032
879.185	3783
879.187	3792
879.269	3935
879.292	3774
879.351	3400
879.399	2764
879.433	2236
879.506	2775
879.516	2883
879.598	3138
879.613	3116
879.680	2832
879.720	3292
879.762	3902
879.827	3460
879.844	3230
879.926	2042
879.933	2020
880.007	2428
880.040	2272
880.089	1608
880.147	2108
880.171	2636
880.253	3664
880.254	3662
880.335	2613
880.360	2915
880.417	4013
880.467	4274
880.499	4201
880.574	4372
880.580	4419
880.662	4145
880.680	3995
880.744	2615
880.787	2081
880.825	2158
880.893	2742
880.907	2808
880.989	2412
881.000	2481
881.070	3376
881.106	3709
881.152	3511
881.213	2510
881.233	2390
881.315	2947
881.319	2953
881.396	2894
881.426	2991
881.478	3276
881.532	3818
881.559	3858
881.639	2824
881.641	2810
881.722	2648
881.745	2756
881.803	3225
881.852	3099
881.885	2900
881.958	2788
881.966	2741
882.047	2835
882.064	2636
882.129	2030
882.171	2000
882.210	1884
882.277	1651
882.291	1799
882.372	3072
882.383	3232
882.454	3928
882.489	3928
882.535	3639
882.596	3481
882.616	3405
882.697	3068
882.702	3008
882.778	2017
882.808	1977
882.859	2038
882.914	2045
882.940	2235
883.020	2625
883.021	2627
883.102	2877
883.127	3058
883.183	3930
883.233	3812
883.264	3019
883.339	1974
883.345	1975
883.426	1488
883.445	1655
883.507	2232
883.551	2312
883.587	2610
883.657	3167
883.668	3195
883.749	3436
883.763	3333
883.830	2137
883.869	1851
883.910	1703
883.975	1355
883.991	1542
884.072	2507
884.081	2647
884.152	3426
884.187	3518
884.233	3506
884.292	3452
884.314	3161
884.394	1782
884.398	1749
884.475	1647
884.504	1539
884.555	1504
884.610	1488
884.636	1819
884.716	2831
884.716	2839
884.797	4209
884.821	4284
884.877	3537
884.927	2936
884.958	2522
885.033	1651
885.038	1655
885.118	1668
885.139	1793
885.199	2097
885.244	2247
885.279	2571
885.350	3119
885.359	3219
885.439	4416
885.456	4442
885.520	3468
885.561	3147
885.600	2602
885.667	1791
885.680	1971
885.760	2927
885.773	3044
885.840	2094
885.878	1716
885.920	2081
885.984	2590
886.000	2585
886.080	2431
886.089	2443
886.160	3135
886.195	3255
886.240	2871
886.300	2466
886.320	2499
886.400	2802
886.406	2788
886.480	1815
886.511	1708
886.560	1803
886.616	1464
886.640	1558
886.720	2152
886.722	2163
886.800	2280
886.827	2344
886.879	2246
886.932	2113
886.959	2668
887.038	4163
887.039	4149
887.119	2428
887.143	1923
887.198	2463
887.248	3041
887.278	2787
887.354	1897
887.358	1904
887.437	1939
887.459	2059
887.517	2652
887.564	2928
887.596	2740
887.669	2381
887.676	2280
887.755	946
887.774	652
887.835	1281
887.880	1820
887.914	2180
887.985	2628
887.994	2689
888.073	3598
888.090	3702
888.153	3653
888.195	3582
888.232	2932
888.300	1903
888.311	1877
888.391	1633
888.405	1588
888.470	1975
888.510	2210
888.549	2176
888.615	2184
888.628	2333
888.708	3115
888.720	3243
888.787	2968
888.825	2731
888.866	2351
888.930	1891
888.945	1937
889.024	2125
889.035	2146
889.103	3004
889.140	3431
889.182	2407
889.245	1001
889.261	1296
889.340	2626
889.349	2779
889.419	2018
889.454	1632
889.498	1775
889.559	1999
889.577	2118
889.656	2622
889.664	2672
889.735	2601
889.768	2558
889.814	2202
889.873	1724
889.978	2159
890.083	2268
890.187	2111
890.292	1983
890.397	2614
890.501	1707
890.606	1567
890.710	2251
890.815	3314
890.919	2364
891.024	3309
891.128	1752
891.233	2051
891.337	2665
891.442	3823
891.546	1828
891.650	1945
891.755	2129
891.859	4144
891.963	2361
892.068	2322
892.172	2160
892.276	917
892.380	2070
892.484	4356
892.589	3460
892.693	3351
892.797	784
892.901	1283
893.005	1171
893.109	3480
893.213	2819
893.317	1987
893.421	1760
893.525	2050
893.629	1386
893.733	3138
893.837	2003
893.941	2119
894.045	1114
894.148	1479
894.252	1560
894.356	2960
894.460	3598
894.564	1769
894.667	1416
894.771	1067
894.875	777
894.978	1786
895.082	3094
895.186	2698
895.289	2606
895.393	2437
895.496	2176
895.600	1571
895.703	1194
895.807	1702
895.910	1297
896.014	2311
896.117	2355
896.221	2110
896.324	1582
896.427	941
896.531	1041
896.634	1999
896.737	1263
896.840	1678
896.944	1784
897.047	2812
897.150	1954
897.253	389
897.356	453
897.460	954
897.563	1378
897.666	2194
897.769	2534
897.872	1526
897.975	531
898.078	1621
898.181	908
898.284	2240
898.387	2665
898.490	2106
898.593	1009
898.695	1249
898.798	1481
898.901	1828
899.004	1502
899.107	1128
899.209	1571
899.312	2934
899.415	1092
899.518	1340
899.620	1167
899.723	1391
899.826	1265
899.928	1674
900.031	1698
900.133	2659
900.236	875
900.338	544
900.441	1624
900.543	1400
900.646	1380
900.748	1689
900.851	1753
900.953	1609
901.055	859
901.158	1822
901.260	645
901.362	1492
901.465	569
901.567	1861
901.669	2368
901.771	2212
901.873	605
901.976	1464
902.078	1181
902.180	1454
902.282	465
902.384	2533
902.486	2071
902.588	1641
902.690	415
902.792	1602
902.894	1560
902.996	2192
903.098	1257
903.200	1804
903.302	138
903.404	1440
903.505	822
903.607	1570
903.709	2877
903.811	1803
903.913	814
904.014	502
904.116	462
904.218	1923
904.319	1349
904.421	3588
904.523	1841
904.624	2237
904.726	1713
904.827	1191
904.929	848
905.030	1398
905.132	2309
905.233	2030
905.335	929
905.436	2281
905.537	-70
905.639	1030
905.740	880
905.841	2281
905.943	1379
906.044	1672
906.145	494
906.247	1324
906.348	921
906.449	1162
906.550	1827
906.651	1145
906.752	828
906.854	857
906.955	959
907.056	2101
907.157	1303
907.258	2152
907.359	534
907.460	523
907.561	239
907.662	863
907.762	402
907.863	1560
907.964	1003
908.065	1694
908.166	61
908.267	557
908.367	321
908.468	842
908.569	829
908.670	2285
908.770	1811
908.871	1409
908.971	700
909.072	869
909.173	1154
909.273	2396
909.374	1150
909.474	1762
909.575	-105
909.675	1433
909.776	997
909.876	2026
909.977	1065
910.077	2082
910.177	1092
910.278	1575
910.378	107
910.478	1891
910.579	1691
910.679	2900
910.779	1148
910.879	2671
910.980	1099
911.080	1311
911.180	1
911.280	823
911.380	539
911.480	665
911.580	1245
911.680	2173
911.780	1573
911.880	1590
911.980	125
912.080	1266
912.180	916
912.280	1514
912.380	382
912.480	1041
912.580	513
912.679	1588
912.779	1650
912.879	1398
912.979	909
913.078	1389
913.178	637
913.278	1142
913.377	730
913.477	977
913.577	100
913.676	2447
913.776	1748
913.875	907
913.975	748
914.074	1566
914.174	1824
914.273	58
914.373	708
914.472	1268
914.572	-230
914.671	1014
914.770	-215
914.870	1663
914.969	337
915.068	1492
915.167	1647
915.267	560
915.366	433
915.465	1450
915.564	719
915.663	1029
915.763	1092
915.862	1956
915.961	1351
916.060	1216
916.159	217
916.258	1413
916.357	599
916.456	2259
916.555	852
916.654	819
916.752	1434
916.851	1151
916.950	705
917.049	484
917.148	723
917.247	1502
917.345	-244
917.444	826
917.543	1095
917.642	1170
917.740	1259
917.839	2045
917.937	2016
918.036	1764
918.135	526
918.233	1103
918.332	449
918.430	1415
918.529	951
918.627	1059
918.726	1377
918.824	1447
918.923	689
919.021	1028
919.119	84
919.218	709
919.316	816
919.414	880
919.512	1012
919.611	1852
919.709	1045
919.807	2751
919.905	1643
920.003	2631
920.102	1332
920.200	1804
920.298	1551
920.396	1530
920.494	2157
920.592	1724
920.690	1580
920.788	2493
920.886	1824
920.984	2427
921.082	2514
921.180	3710
921.277	1901
921.375	3453
921.473	4198
921.571	4603
921.669	3561
921.766	2961
921.864	2925
921.962	4534
922.060	3415
922.157	4393
922.255	3449
922.352	4510
922.450	4286
922.548	4497
922.645	4323
922.743	6988
922.840	10428
922.938	13225
923.035	10492
923.133	11106
923.230	12373
923.327	15113
923.425	14314
923.522	14248
923.619	12066
923.717	11257
923.814	10862
923.911	11422
924.008	10940
924.106	10982
924.203	9888
924.300	10947
924.397	10413
924.494	12254
924.591	10273
924.688	11301
924.786	10783
924.883	12147
924.979	9897
925.077	10517
925.173	9602
925.270	10517
925.367	10166
925.464	11162
925.561	11192
925.658	12104
925.755	8397
925.852	11324
925.948	9434
926.045	10339
926.142	10817
926.239	10723
926.335	7276
926.432	10202
926.529	10555
926.625	10929
926.722	9136
926.818	9239
926.915	10155
927.011	8875
927.108	8820
927.204	10795
927.301	7375
927.397	10035
927.494	11113
927.590	7427
927.687	8749
927.783	11217
927.879	10403
927.976	8661
928.072	7892
928.168	9561
928.264	9599
928.361	8842
928.457	10185
928.553	7664
928.649	8318
928.745	9968
928.841	7818
928.937	9123
929.033	8336
929.129	9108
929.225	8853
929.321	7825
929.417	6474
929.513	9788
929.609	6820
929.705	7817
929.801	8980
929.897	8149
929.993	7554
930.089	9179
930.184	7127
930.280	8619
930.376	10198
930.471	7147
930.567	5710
930.663	7650
930.758	6988
930.854	7730
930.950	7264
931.045	7118
931.141	7448
931.236	9137
931.332	6628
931.427	6238
931.523	9096
931.618	8636
931.714	5335
931.809	6488
931.905	8410
932.000	6400
932.095	5027
932.191	8912
932.286	9270
932.381	7534
932.476	5813
932.572	7547
932.667	5515
932.762	5781
932.857	7295
932.952	8543
933.047	6620
933.142	5639
933.237	6874
933.332	6804
933.427	6792
933.522	6613
933.617	5723
933.712	6223
933.807	7089
933.902	9439
933.997	7786
934.092	5472
934.187	6153
934.282	6579
934.376	6902
934.471	8024
934.566	5947
934.661	5898
934.755	6095
934.850	7237
934.945	5220
935.039	3967
935.134	3927
935.228	6281
935.323	8855
935.417	5071
935.512	3309
935.606	4124
935.701	6611
935.795	7112
935.890	6200
935.984	4757
936.079	3357
936.173	5182
936.267	4492
936.362	3670
936.456	5090
936.550	7644
936.644	5954
936.738	3725
936.833	4701
936.927	4033
937.021	5046
937.115	5533
937.209	5364
937.303	5804
937.397	3208
937.491	5955
937.585	5484
937.679	5564
937.773	3826
937.867	3438
937.961	4514
938.055	6785
938.149	5937
938.243	3629
938.337	2457
938.430	4358
938.524	5572
938.618	6051
938.712	4108
938.805	4146
938.899	5519
938.993	7200
939.086	4213
939.180	3081
939.274	3639
939.367	5853
939.461	5277
939.554	4928
939.648	2976
939.741	3865
939.835	4275
939.928	6465
940.022	5180
940.115	5518
940.208	4723
940.302	7020
940.395	6164
940.488	3750
940.582	3921
940.675	3231
940.768	3326
940.861	5553
940.954	4634
941.048	2687
941.141	2673
941.234	4355
941.327	3501
941.420	4545
941.513	4670
941.606	4172
941.699	3525
941.792	5519
941.885	3945
941.978	5112
942.071	3955
942.164	2924
942.257	2288
942.349	3907
942.442	4284
942.535	3094
942.628	2857
942.721	4908
942.813	3030
942.906	4855
942.999	3515
943.091	3292
943.184	3604
943.277	3506
943.369	3412
943.462	1329
943.554	2725
943.647	3506
943.739	4982
943.832	4892
943.924	815
944.017	3114
944.109	2384
944.201	3382
944.294	3846
944.386	3669
944.478	2578
944.571	2295
944.663	2682
944.755	2895
944.847	3416
944.940	3649
945.032	1123
945.124	2079
945.216	3495
945.308	3476
945.400	2902
945.492	3108
945.584	4029
945.676	4573
945.768	2813
945.860	4546
945.952	4193
946.044	4329
946.136	2580
946.228	3022
946.320	2316
946.412	3814
946.503	4444
946.595	5048
946.687	2085
946.779	1812
946.870	1307
946.962	2326
947.054	2378
947.145	4064
947.237	3366
947.329	3130
947.420	3037
947.512	3606
947.603	1045
947.695	2968
947.786	925
947.878	3168
947.969	2644
948.061	3351
948.152	2110
948.243	1564
948.335	1887
948.426	2255
948.517	2548
948.609	3563
948.700	2985
948.791	3137
948.882	1635
948.973	2440
949.065	1408
949.156	2798
949.247	834
949.338	2827
949.429	1165
949.520	2427
949.611	2287
949.702	3156
949.793	2569
949.884	2844
949.975	1792
950.066	1575
950.157	1972
950.247	1945
950.338	1066
950.429	1220
950.520	1898
950.611	1995
950.701	1696
950.792	4222
950.883	2290
950.973	2642
951.064	2923
951.155	2850
951.245	2936
951.336	2810
951.427	2305
951.517	4658
951.608	2542
951.698	1912
951.788	1154
951.879	1914
951.969	1796
952.060	1921
952.150	2372
952.240	4530
952.331	2117
952.421	3279
952.511	1321
952.602	1304
952.692	1526
952.782	1795
952.872	1839
952.962	2669
953.052	2251
953.143	1673
953.233	1276
953.323	2620
953.413	2837
953.503	3337
953.593	2538
953.683	2270
953.773	1394
953.863	1221
953.953	1132
954.042	2350
954.132	2106
954.222	2677
954.312	1144
954.402	1640
954.492	1161
954.581	1906
954.671	1701
954.761	2123
954.850	2843
954.940	724
955.030	1420
955.119	1649
955.209	1607
955.298	1538
955.388	2962
955.477	3714
955.567	190
955.656	2096
955.746	951
955.835	1546
955.925	636
956.014	2457
956.103	3227
956.193	3694
956.282	2622
956.371	1945
956.461	1970
956.550	2841
956.639	1559
956.728	1207
956.817	833
956.906	2092
956.995	1869
957.085	2533
957.174	2219
957.263	1955
957.352	1271
957.441	2546
957.530	1492
957.619	1939
957.708	1205
957.796	1947
957.885	1420
957.974	537
958.063	1415
958.152	1379
958.241	909
958.329	961
958.418	930
958.507	1570
958.596	2310
958.684	1436
958.773	1918
958.861	542
958.950	914
959.039	1183
959.127	861
959.216	2033
959.304	952
959.393	1696
959.481	1513
959.570	1953
959.658	1085
959.746	1020
959.835	1199
959.923	1261
960.011	1446
960.100	1894
960.188	1940
960.276	2113
960.365	583
960.453	1556
960.541	855
960.629	1177
960.717	594
960.805	227
960.893	1520
960.981	2384
961.069	3761
961.158	2350
961.245	2429
961.333	2964
961.421	188
961.509	2156
961.597	1267
961.685	1622
961.773	1962
961.861	1905
961.949	1626
962.036	1252
962.124	1237
962.212	1274
962.299	1157
962.387	897
962.475	1080
962.562	1235
962.650	1682
962.738	737
962.825	585
962.913	1377
963.000	108
963.088	1299
963.175	1325
963.263	1686
963.350	600
963.438	1760
963.525	249
963.612	3011
963.700	1006
963.787	2171
963.874	786
963.962	1861
964.049	820
964.136	1315
964.223	531
964.310	1741
964.398	988
964.485	1281
964.572	1369
964.659	1634
964.746	1436
964.833	418
964.920	761
965.007	1423
965.094	920
965.181	1233
965.268	1661
965.355	1594
965.441	1025
965.528	672
965.615	1512
965.702	1707
965.789	1057
965.875	1522
965.962	2547
966.049	1438
966.136	1410
966.222	1960
966.309	1955
966.395	2039
966.482	1896
966.569	2439
966.655	2201
966.742	1606
966.828	-15
966.915	1658
967.001	334
967.087	683
967.174	708
967.260	1317
967.347	748
967.433	1006
967.519	1446
967.605	1293
967.692	1001
967.778	1937
967.864	1156
967.950	1364
968.036	696
968.123	1306
968.209	1409
968.295	-20
968.381	1098
968.467	917
968.553	-314
968.639	2133
968.725	156
968.811	1908
968.897	1096
968.983	2409
969.069	718
969.154	2548
969.240	1743
969.326	247
969.412	355
969.497	980
969.583	569
969.669	2006
969.755	1557
969.840	1442
969.926	2899
970.012	2905
970.097	3317
970.183	1889
970.268	1672
970.354	2229
970.439	204
970.525	2462
970.610	583
970.696	1933
970.781	1029
970.866	700
970.952	1718
971.037	1033
971.122	1126
971.208	1862
971.293	1257
971.378	344
971.463	1204
971.549	1622
971.634	979
971.719	1758
971.804	747
971.889	2345
971.974	711
972.059	1221
972.144	1635
972.229	1189
972.314	805
972.399	1729
972.484	1092
972.569	1090
972.654	-827
972.739	2122
972.824	85
972.908	1939
972.993	1036
973.078	985
973.163	732
973.247	2005
973.332	-370
973.417	2834
973.501	523
973.586	1837
973.671	1129
973.755	1003
973.840	1023
973.924	2179
974.009	2322
974.093	2435
974.178	2496
974.262	1915
974.346	1185
974.431	2322
974.515	1468
974.600	1647
974.684	2155
974.768	1519
974.852	2362
974.937	1291
975.021	1055
975.105	2096
975.189	897
975.273	1649
975.358	1056
975.442	1646
975.526	1649
975.610	1041
975.694	718
975.778	2783
975.862	991
975.946	-529
976.030	2409
976.114	1336
976.198	1248
976.281	1569
976.365	1759
976.449	1859
976.533	1095
976.617	1494
976.700	673
976.784	1141
976.868	552
976.951	1007
977.035	698
977.119	1381
977.202	1242
977.286	1586
977.369	1720
977.453	3854
977.536	2040
977.620	2815
977.703	2448
977.787	1496
977.870	2826
977.953	2468
978.037	521
978.120	1875
978.203	1007
978.287	1910
978.370	422
978.453	1158
978.536	1466
978.620	1815
978.703	2044
978.786	583
978.869	11
978.952	438
979.035	2249
979.118	1945
979.201	419
979.284	2111
979.367	104
979.450	1638
979.533	354
979.616	1575
979.699	693
979.782	1361
979.865	1351
979.948	1238
980.030	77
980.113	1294
980.196	463
980.279	2090
980.361	244
980.444	1474
980.526	2268
980.609	2376
980.692	2884
980.774	3925
980.857	920
980.939	3287
981.022	1295
981.104	1451
981.187	1017
981.269	2282
981.352	1621
981.434	906
981.516	1121
981.599	2942
981.681	1808
981.763	1942
981.846	1732
981.928	1754
982.010	135
982.092	1560
982.174	1016
982.256	1174
982.339	1722
982.421	1979
982.503	1652
982.585	774
982.667	1030
982.749	1616
982.831	1462
982.913	1792
982.995	1800
983.077	1854
983.158	2738
983.240	1466
983.322	2589
983.404	4472
983.486	2374
983.568	3916
983.649	2354
983.731	3517
983.813	1771
983.894	2281
983.976	2006
984.058	1766
984.139	2114
984.221	1528
984.302	2112
984.384	2513
984.465	1721
984.547	2413
984.628	1344
984.710	3793
984.791	1856
984.872	3223
984.954	1610
985.035	2607
985.116	1563
985.198	2137
985.279	2866
985.360	2648
985.441	1416
985.522	2280
985.604	1759
985.685	716
985.766	2383
985.847	4298
985.928	1025
986.009	2151
986.090	1656
986.171	3232
986.252	1331
986.333	2842
986.414	2085
986.495	2889
986.576	2705
986.656	2858
986.737	2769
986.818	3368
986.899	1638
986.980	2796
987.060	2323
987.141	2932
987.222	2883
987.302	3521
987.383	3757
987.464	3739
987.544	4103
987.625	3778
987.705	4089
987.786	3463
987.866	3316
987.947	2800
988.027	3066
988.108	3891
988.188	3011
988.268	2875
988.349	3041
988.429	2376
988.509	2218
988.589	3070
988.670	1622
988.750	4032
988.830	1779
988.910	3265
988.990	2647
989.070	2377
989.151	2551
989.231	2269
989.311	1810
989.391	2120
989.471	2350
989.551	3175
989.631	1920
989.711	3882
989.791	1311
989.870	2264
989.950	2295
990.030	2184
990.110	2512
990.190	2122
990.269	1369
990.349	2872
990.429	2830
990.509	2985
990.588	1651
990.668	2168
990.747	1403
990.827	2687
990.907	1804
990.986	2347
991.066	1623
991.145	2020
991.225	2321
991.304	2766
991.383	1694
991.463	2685
991.542	2000
991.622	1779
991.701	927
991.780	908
991.859	1380
991.939	2146
992.018	955
992.097	2419
992.176	908
992.256	1109
992.335	1177
992.414	3279
992.493	602
992.572	979
992.651	1686
992.730	1715
992.809	1410
992.888	781
992.967	1402
993.046	1964
993.125	-102
993.203	1915
993.282	1350
993.361	2240
993.440	1572
993.519	541
993.597	2083
993.676	804
993.755	1215
993.834	1518
993.912	-338
993.991	1935
994.069	634
994.148	1184
994.226	283
994.305	1283
994.384	899
994.462	2692
994.540	205
994.619	918
994.697	1651
994.776	1859
994.854	1555
994.932	1502
995.011	280
995.089	707
995.167	653
995.245	1852
995.324	29
995.402	2575
995.480	358
995.558	1240
995.636	-348
995.714	1325
995.792	1828
995.870	681
995.948	-428
996.026	632
996.104	-293
996.182	1014
996.260	-346
996.338	1178
996.416	63
996.494	1123
996.572	955
996.649	884
996.727	-11
996.805	1795
996.883	821
996.960	407
997.038	840
997.116	999
997.193	-26
997.271	1182
997.348	-391
997.426	318
997.504	-48
997.581	1438
997.658	7
997.736	-521
997.813	-1164
997.891	821
997.968	-552
998.046	1146
998.123	-415
998.200	1080
998.277	557
998.355	1518
998.432	-1008
998.509	737
998.586	163
998.663	835
998.741	275
998.818	1023
998.895	-623
998.972	267
999.049	232
999.126	359
999.203	152
999.280	442
999.357	-361
999.434	190
999.511	-42
999.587	-491
999.664	-683
999.741	-577
999.818	26
999.895	-227
999.971	-659
1000.048	334
1000.125	-294
1000.202	-281
1000.278	259
1000.355	46
1000.431	-798
1000.508	-15
1000.584	-614
1000.661	353
1000.738	-1109
1000.814	447
1000.890	401
1000.967	61
1001.043	-102
1001.120	-765
1001.196	-26
1001.272	-1085
1001.349	33
1001.425	406
1001.501	-41
1001.577	-111
1001.654	-260
1001.730	-545
1001.806	181
1001.882	-527
1001.958	-89
1002.034	1281
1002.110	-1209
1002.186	-1101
1002.262	-740
1002.338	-198
1002.414	-18
1002.490	194
1002.566	-276
1002.642	-757
1002.718	41
1002.794	-183
1002.870	-307
1002.945	-342
1003.021	6
1003.097	121
1003.173	556
1003.248	-715
1003.324	-974
1003.400	287
1003.475	-1240
1003.551	512
1003.626	-348
1003.702	-293
1003.777	476
1003.853	-615
1003.928	-1199
1004.004	-602
1004.079	-561
1004.155	171
1004.230	-1206
1004.305	542
1004.381	-893
1004.456	288
1004.531	-984
1004.607	-920
1004.682	-1347
1004.757	-573
1004.832	-1580
1004.907	-738
1004.982	-413
1005.057	392
1005.133	-209
1005.208	-117
1005.283	-1471
1005.358	20
1005.433	-1076
1005.508	-64
1005.583	-1146
1005.657	63
1005.732	-798
1005.807	139
1005.882	-1596
1005.957	-508
1006.032	-414
1006.106	-1003
1006.181	-488
1006.256	338
1006.331	-1925
1006.405	-364
1006.480	-922
1006.554	-664
1006.629	-1304
1006.704	-665
1006.778	-733
1006.853	-107
1006.927	-1075
1007.002	-934
1007.076	-619
1007.150	-778
1007.225	-692
1007.299	24
1007.373	-1604
1007.448	50
1007.522	-1181
1007.596	159
1007.671	-1025
1007.745	-568
1007.819	-1584
1007.893	523
1007.967	-404
1008.041	-939
1008.115	-622
1008.190	-192
1008.264	-520
1008.338	-560
1008.412	-1179
1008.486	-760
1008.560	-1206
1008.633	-348
1008.707	-1062
1008.781	-218
1008.855	-894
1008.929	-842
1009.003	-1384
1009.076	-981
1009.150	-721
1009.224	-1308
1009.298	-587
1009.371	-1622
1009.445	-721
1009.519	115
1009.592	-980
1009.666	-648
1009.739	-785
1009.813	-1831
1009.886	-99
1009.960	-887
1010.033	-435
1010.107	-309
1010.180	-1638
1010.253	-552
1010.327	-1174
1010.400	-491
1010.473	-1196
1010.547	355
1010.620	-1164
1010.693	-372
1010.766	-1669
1010.840	-263
1010.913	-1424
1010.986	-1402
1011.059	-1213
1011.132	-135
1011.205	-38
1011.278	-1058
1011.351	-924
1011.424	-958
1011.497	-1053
1011.570	-489
1011.643	-1796
1011.716	-1063
1011.789	-743
1011.862	-780
1011.934	-893
1012.007	-1556
1012.080	-1210
1012.153	-674
1012.225	-353
1012.298	-915
1012.371	-1224
1012.443	-534
1012.516	-1146
1012.588	-298
1012.661	-660
1012.733	-1222
1012.806	-1144
1012.879	-728
1012.951	-1459
1013.023	-1511
1013.096	-1263
1013.168	-758
1013.241	-570
1013.313	-1423
1013.385	-1540
1013.458	-1019
1013.530	-1028
1013.602	-1326
1013.674	-386
1013.746	-1448
1013.819	-1111
1013.891	-130
1013.963	-1220
1014.035	-1012
1014.107	-977
1014.179	-75
1014.251	-1580
1014.323	-307
1014.395	-272
1014.467	231
1014.539	-1519
1014.611	-1074
1014.683	-1459
1014.754	-1212
1014.826	-2639
1014.898	-217
1014.970	-1918
1015.042	614
1015.113	-799
1015.185	-343
1015.257	-2103
1015.328	-401
1015.400	-1521
1015.471	-1117
1015.543	-1692
1015.615	-918
1015.686	-859
1015.757	-328
1015.829	-930
1015.901	-1123
1015.972	-1423
1016.043	-1020
1016.115	-866
1016.186	-481
1016.257	-944
1016.328	-328
1016.400	-679
1016.471	-1427
1016.542	-1190
1016.613	-826
1016.685	-1510
1016.756	-30
1016.827	-1103
1016.898	-1647
1016.969	-1262
1017.040	-731
1017.111	-1857
1017.182	-890
1017.253	-986
1017.324	-1079
1017.395	-1448
1017.466	-1247
1017.537	-1297
1017.608	-1103
1017.678	-1017
1017.749	-921
1017.820	-1760
1017.891	-2421
1017.961	-1374
1018.032	-1710
1018.103	-1084
1018.173	-490
1018.244	-1511
1018.315	-633
1018.385	-1193
1018.456	-612
1018.526	-2300
1018.597	-1425
1018.667	-1096
1018.738	-1571
1018.808	-1079
1018.878	-831
1018.949	-1370
1019.019	-1198
1019.089	-1064
1019.160	-1472
1019.230	-1546
1019.300	-87
1019.371	-1967
1019.441	-497
1019.511	-1871
1019.581	-697
1019.651	-1605
1019.721	-1355
1019.791	-2173
1019.861	-462
1019.931	-1355
1020.001	-668
1020.071	-1765
1020.141	-959
1020.211	-1496
1020.281	-1442
1020.351	-1090
1020.421	-1320
1020.491	-1233
1020.560	-1790
1020.630	-1027
1020.700	-819
1020.770	-1802
1020.839	-1220
1020.909	-1267
1020.979	-1568
1021.048	-1174
1021.118	-1189
1021.187	-1700
1021.257	-1359
1021.326	-1614
1021.396	-750
1021.465	-1510
1021.535	-1298
1021.604	-1943
1021.674	-1307
1021.743	-2582
1021.812	-828
1021.882	-2007
1021.951	-1443
1022.020	-1701
1022.089	-357
1022.159	-1667
1022.228	-773
1022.297	-1986
1022.366	-966
1022.435	-880
1022.504	-311
1022.573	-2198
1022.642	-275
1022.711	-1830
1022.781	-1104
1022.849	-1605
1022.918	-1363
1022.987	-1815
1023.056	-931
1023.125	-1497
1023.194	-1078
1023.263	-1336
1023.331	-1418
1023.400	-1356
1023.469	-1396
1023.538	-1179
1023.606	-1335
1023.675	-1126
1023.744	-1175
1023.812	-1679
1023.881	-2356
1023.949	-1099
1024.018	-1052
1024.086	-2232
1024.155	-1284
1024.223	-1533
1024.292	-1823
1024.360	-1264
1024.429	-1110
1024.497	-2217
1024.565	-1245
1024.634	-1622
1024.702	-814
1024.770	-1735
1024.838	-1892
1024.907	-2076
1024.975	-943
1025.043	-1523
1025.111	-1476
1025.179	-2218
1025.247	-1141
1025.315	-2440
1025.383	-1211
1025.451	-1878
1025.519	-1678
1025.587	-1060
1025.655	-1136
1025.723	-1693
1025.791	-1750
1025.859	-1014
1025.927	-1102
1025.995	-2544
1026.062	-1520
1026.130	-1528
1026.198	-1190
1026.266	-2008
1026.333	-821
1026.401	-1510
1026.469	-1829
1026.536	-1441
1026.604	-1139
1026.671	-2331
1026.739	-829
1026.806	-1690
1026.874	-1966
1026.941	-2109
1027.009	-1495
1027.076	-1777
1027.144	-1681
1027.211	-1761
1027.278	-1769
1027.345	-2280
1027.413	-1282
1027.480	-2542
1027.547	-889
1027.614	-1726
1027.682	-577
1027.749	-2326
1027.816	-1494
1027.883	-1686
1027.950	-1322
1028.017	-2406
1028.084	-990
1028.151	-2926
1028.218	-1455
1028.285	-2065
1028.352	-1708
1028.419	-2414
1028.486	-1232
1028.553	-1497
1028.619	-1627
1028.686	-2542
1028.753	-1477
1028.820	-1849
1028.886	-1508
1028.953	-2029
1029.020	-2248
1029.086	-2268
1029.153	-2002
1029.220	-2613
1029.286	-861
1029.353	-2081
1029.419	-903
1029.486	-1982
1029.552	-1901
1029.619	-1540
1029.685	-1420
1029.751	-2267
1029.818	-1471
1029.884	-2253
1029.951	-656
1030.017	-2681
1030.083	-1526
1030.149	-3144
1030.216	-1805
1030.282	-2158
1030.348	-1485
1030.414	-2314
1030.480	-1662
1030.546	-2476
1030.612	-1800
1030.678	-1851
1030.744	-1402
1030.810	-2397
1030.876	-1927
1030.942	-2641
1031.008	-1279
1031.074	-2661
1031.140	-1071
1031.206	-1804
1031.272	-1628
1031.337	-1607
1031.403	-1116
1031.469	-2172
1031.534	-2728
1031.600	-2004
1031.666	-1523
1031.731	-2158
1031.797	-1974
1031.863	-1899
1031.928	-1589
1031.994	-3165
1032.059	-2065
1032.125	-2161
1032.190	-1099
1032.256	-2881
1032.321	-2033
1032.386	-2439
1032.452	-1355
1032.517	-2558
1032.582	-2449
1032.647	-2259
1032.713	-2094
1032.778	-2406
1032.843	-2707
1032.908	-2636
1032.974	-2202
1033.039	-2382
1033.104	-1940
1033.169	-3124
1033.234	-2263
1033.299	-1550
1033.364	-1986
1033.429	-2459
1033.494	-2075
1033.559	-2172
1033.624	-1425
1033.688	-2190
1033.753	-2289
1033.818	-2262
1033.883	-1661
1033.948	-1767
1034.013	-1309
1034.077	-1344
1034.142	305
1034.207	-1463
1034.271	423
1034.336	-364
1034.400	-157
1034.465	-1747
1034.530	-1293
1034.594	-2038
1034.658	-1732
1034.723	-3148
1034.787	-1899
1034.852	-2094
1034.916	-2004
1034.981	-3578
1035.045	-1619
1035.109	-2547
1035.173	-1156
1035.238	-2119
1035.302	-1230
1035.366	-1648
1035.430	-1606
1035.495	-3223
1035.559	-2369
1035.623	-2388
1035.687	-3150
1035.751	-2851
1035.815	-2405
1035.879	-2322
1035.943	-1862
1036.007	-3241
1036.071	-1742
1036.135	-2379
1036.198	-2126
1036.262	-3172
1036.326	-2421
1036.390	-1883
1036.454	-1988
1036.517	-2299
1036.581	-2331
1036.645	-2916
1036.709	-1718
1036.772	-2410
1036.836	-1674
1036.900	-2423
1036.963	-2306
1037.026	-3226
1037.090	-2940
1037.154	-1898
1037.217	-2434
1037.280	-3490
1037.344	-2074
1037.407	-2228
1037.471	-2055
1037.534	-2237
1037.597	-2406
1037.661	-3238
1037.724	-1435
1037.787	-2969
1037.850	-2267
1037.913	-2882
1037.977	-1309
1038.040	-2532
1038.103	-2524
1038.166	-3457
1038.229	-1813
1038.292	-2763
1038.355	-2201
1038.418	-2376
1038.481	-2210
1038.544	-3046
1038.607	-2039
1038.670	-2820
1038.732	-1775
1038.795	-3078
1038.858	-2102
1038.921	-1667
1038.984	-2605
1039.046	-3349
1039.109	-1815
1039.172	-3311
1039.234	-2042
1039.297	-3181
1039.360	-1163
1039.422	-2645
1039.485	-2935
1039.547	-2944
1039.610	-2386
1039.672	-3105
1039.734	-1917
1039.797	-2823
1039.859	-2608
1039.922	-2745
1039.984	-2788
1040.046	-2658
1040.109	-2078
1040.171	-2837
1040.233	-2295
1040.295	-3802
1040.358	-2220
1040.420	-2429
1040.482	-1945
1040.544	-2710
1040.606	-2272
1040.668	-2936
1040.730	-1999
1040.792	-3763
1040.854	-2677
1040.916	-3195
1040.978	-3044
1041.040	-2970
1041.102	-1744
1041.164	-3019
1041.225	-1792
1041.287	-3472
1041.349	-2610
1041.411	-2878
1041.472	-2548
1041.534	-2865
1041.596	-2348
1041.657	-2836
1041.719	-2672
1041.781	-3094
1041.842	-3122
1041.904	-2818
1041.965	-2050
1042.027	-3133
1042.088	-1784
1042.150	-2183
1042.211	-2190
1042.272	-2854
1042.334	-2270
1042.395	-2539
1042.456	-3150
1042.518	-2321
1042.579	-2221
1042.640	-3030
1042.701	-2458
1042.763	-2652
1042.824	-1939
1042.885	-3535
1042.946	-2395
1043.007	-3142
1043.068	-2862
1043.129	-3032
1043.190	-2835
1043.251	-2934
1043.312	-2691
1043.373	-2989
1043.434	-2205
1043.495	-2845
1043.556	-1700
1043.616	-2306
1043.677	-2656
1043.738	-2849
1043.799	-2507
1043.859	-2697
1043.920	-3003
1043.981	-3320
1044.041	-2948
1044.102	-3341
1044.162	-2174
1044.223	-3431
1044.284	-2556
1044.344	-2569
1044.405	-1848
1044.465	-2939
1044.525	-2028
1044.586	-2976
1044.646	-2404
1044.707	-2774
1044.767	-2366
1044.827	-3436
1044.887	-2058
1044.948	-2873
1045.008	-2910
1045.068	-2777
1045.128	-2162
1045.188	-2353
1045.249	-2233
1045.309	-2943
1045.369	-2040
1045.429	-2174
1045.489	-1655
1045.549	-2991
1045.609	-3036
1045.669	-2541
1045.729	-1628
1045.789	-3169
1045.848	-2542
1045.908	-2758
1045.968	-2366
1046.028	-2116
1046.088	-1503
1046.147	-2846
1046.207	-1269
1046.267	-1939
1046.326	-1553
1046.386	-1989
1046.446	-1856
1046.505	-2845
1046.565	-1841
1046.624	-1613
1046.684	-1060
1046.743	-1479
1046.803	-1361
1046.862	-1183
1046.922	0
