'Start Wavelength	183.907
'End Wavelength	1046.922
'Gate Delay	5.000
'Gate Width (ms)	1.050
'Laser Output Level	0.000
'X Position	0.000
'Y Position	0.000
'Z Position	0.000
'Grid Point Number	1.000
'Shot Number	100.000
183.907	232.000
183.977	-542.000
184.047	38
184.116	157
184.186	252
184.256	699
184.325	77
184.395	-680
184.465	1006
184.534	713
184.604	-424
184.674	642
184.743	-108
184.813	623
184.883	-297
184.952	-6
185.022	53
185.092	-357
185.161	-76
185.231	777
185.301	-271
185.370	780
185.440	-47
185.509	-168
185.579	-913
185.649	29
185.718	389
185.788	1125
185.857	215
185.927	264
185.996	230
186.066	-174
186.136	-837
186.205	432
186.275	-334
186.344	427
186.414	-508
186.483	-182
186.553	379
186.622	748
186.692	37
186.761	208
186.831	311
186.900	-98
186.970	347
187.039	553
187.109	1216
187.178	396
187.248	436
187.317	668
187.387	-611
187.456	307
187.526	854
187.595	471
187.664	-122
187.734	316
187.803	923
187.873	716
187.942	1009
188.012	484
188.081	427
188.150	296
188.220	80
188.289	963
188.358	958
188.428	1471
188.497	166
188.567	508
188.636	-19
188.705	355
188.775	102
188.844	-390
188.913	736
188.983	245
189.052	-425
189.121	634
189.191	692
189.260	1300
189.329	937
189.399	602
189.468	40
189.537	267
189.606	300
189.676	843
189.745	1337
189.814	1696
189.883	631
189.953	591
190.022	1224
190.091	3808
190.161	5729
190.230	1797
190.299	71
190.368	1231
190.437	134
190.507	347
190.576	464
190.645	476
190.714	400
190.783	779
190.853	1214
190.922	804
190.991	453
191.060	844
191.129	287
191.198	1579
191.268	-115
191.337	630
191.406	873
191.475	420
191.544	327
191.613	1125
191.682	351
191.752	875
191.821	126
191.890	1058
191.959	622
192.028	410
192.097	716
192.166	216
192.235	-512
192.304	1293
192.373	231
192.442	562
192.511	447
192.580	64
192.650	252
192.719	288
192.788	740
192.857	639
192.926	-33
192.995	1445
193.064	2296
193.133	2212
193.202	2402
193.271	2294
193.340	1796
193.409	2923
193.478	2170
193.547	3796
193.615	5097
193.684	4748
193.753	1983
193.822	2455
193.891	760
193.960	1554
194.029	747
194.098	919
194.167	789
194.236	1109
194.305	-97
194.374	1595
194.443	908
194.512	1641
194.580	216
194.649	1737
194.718	1744
194.787	1706
194.856	795
194.925	1267
194.994	919
195.062	1842
195.131	1157
195.200	1070
195.269	1612
195.338	1648
195.407	1007
195.475	1505
195.544	1395
195.613	1739
195.682	792
195.751	1616
195.819	1201
195.888	856
195.957	2190
196.026	1858
196.094	1752
196.163	2021
196.232	964
196.301	2030
196.369	1683
196.438	939
196.507	822
196.576	1047
196.644	1227
196.713	1077
196.782	571
196.850	1471
196.919	906
196.988	1317
197.056	958
197.125	1308
197.194	1768
197.262	871
197.331	1101
197.400	1816
197.468	411
197.537	1731
197.606	1819
197.674	2879
197.743	5383
197.812	1674
197.880	4893
197.949	4279
198.017	4645
198.086	4100
198.155	1787
198.223	2675
198.292	6491
198.360	3944
198.429	1542
198.497	1648
198.566	3934
198.635	6840
198.703	2436
198.772	1899
198.840	4672
198.909	7290
198.977	2741
199.046	2170
199.114	1782
199.183	1868
199.251	1771
199.320	2329
199.388	943
199.457	1674
199.525	1762
199.594	2799
199.662	677
199.731	1510
199.799	1156
199.867	2239
199.936	458
200.004	1367
200.073	1453
200.141	950
200.210	1615
200.278	1349
200.346	1107
200.415	1556
200.483	1835
200.552	2124
200.620	1477
200.688	1941
200.757	1186
200.825	1289
200.893	1754
200.962	2029
201.030	1204
201.098	1140
201.167	2366
201.235	1692
201.303	1486
201.372	2400
201.440	1241
201.508	2553
201.577	1689
201.645	2402
201.713	1167
201.781	1738
201.850	2972
201.918	2127
201.986	1167
202.055	1847
202.123	1182
202.191	2014
202.259	1567
202.327	930
202.396	1564
202.464	1519
202.532	2286
202.600	7852
202.669	4886
202.737	2274
202.805	2055
202.873	3122
202.941	2148
203.009	2015
203.078	968
203.146	1895
203.214	1023
203.282	2117
203.350	1689
203.418	1922
203.487	1910
203.555	1885
203.623	1144
203.691	1573
203.759	1365
203.827	2342
203.895	1875
203.963	2654
204.031	1151
204.099	1296
204.168	1976
204.236	2406
204.304	1648
204.372	2326
204.440	2757
204.508	2912
204.576	845
204.644	2717
204.712	1129
204.780	1393
204.848	1681
204.916	1357
204.984	984
205.052	2562
205.120	2237
205.188	2151
205.256	1203
205.324	2142
205.392	1999
205.460	2481
205.528	1294
205.596	3049
205.664	1981
205.732	2143
205.799	7545
205.867	12758
205.935	3546
206.003	2836
206.071	2574
206.139	2750
206.207	2484
206.275	2418
206.343	2125
206.411	2614
206.478	1366
206.546	2801
206.614	2579
206.682	2821
206.750	1810
206.818	2939
206.885	2941
206.953	1524
207.021	1717
207.089	2348
207.157	1347
207.225	2511
207.292	2203
207.360	2579
207.428	2304
207.496	2089
207.563	2319
207.631	2548
207.699	2673
207.767	2182
207.834	2146
207.902	2136
207.970	2113
208.038	2208
208.105	1982
208.173	2893
208.241	3242
208.309	4610
208.376	3387
208.444	6474
208.512	4113
208.579	1807
208.647	3054
208.715	3686
208.782	3638
208.850	2846
208.918	1612
208.985	2824
209.053	2995
209.120	2650
209.188	1969
209.256	3091
209.323	2789
209.391	4269
209.459	3988
209.526	2750
209.594	2687
209.661	3444
209.729	3011
209.796	2830
209.864	3155
209.932	1802
209.999	3640
210.067	3482
210.134	4237
210.202	2865
210.269	4558
210.337	4712
210.404	2861
210.472	2884
210.539	3094
210.607	3434
210.674	3718
210.742	3136
210.809	2686
210.877	4358
210.944	5028
211.012	3253
211.079	4843
211.146	3738
211.214	2694
211.281	4465
211.349	3918
211.416	3313
211.484	4623
211.551	3775
211.618	4054
211.686	3687
211.753	2655
211.821	4303
211.888	3219
211.955	4006
212.023	3293
212.090	3923
212.157	4061
212.225	4110
212.292	7609
212.359	13606
212.427	38135
212.494	16073
212.561	6470
212.629	5294
212.696	4306
212.763	3952
212.831	3925
212.898	4827
212.965	3089
213.032	4075
213.100	4000
213.167	4382
213.234	4721
213.301	4087
213.369	4529
213.436	4063
213.503	3193
213.570	4576
213.638	3738
213.705	2997
213.772	3103
213.839	3573
213.906	3540
213.973	5040
214.041	2913
214.108	4515
214.175	3298
214.242	4314
214.309	3770
214.376	4411
214.444	4068
214.511	5020
214.578	4844
214.645	4085
214.712	4539
214.779	5145
214.846	4682
214.913	4948
214.980	6261
215.048	6763
215.115	6618
215.182	6110
215.249	4922
215.316	4447
215.383	4318
215.450	3687
215.517	3315
215.584	3535
215.651	3421
215.718	4099
215.785	3838
215.852	3877
215.919	4757
215.986	4576
216.053	2998
216.120	2975
216.187	3808
216.254	4189
216.321	3074
216.388	4105
216.455	3843
216.522	3969
216.589	5135
216.656	7675
216.722	8624
216.789	7981
216.856	8701
216.923	7287
216.990	5601
217.057	5499
217.124	6083
217.191	5932
217.258	8320
217.324	11742
217.391	13927
217.458	10668
217.525	6762
217.592	5606
217.659	4883
217.725	5921
217.792	7990
217.859	7815
217.926	3265
217.993	4123
218.059	4481
218.126	3678
218.193	3248
218.260	2884
218.327	2323
218.393	2989
218.460	2553
218.527	3194
218.594	3303
218.660	8133
218.727	9184
218.794	4203
218.860	3758
218.927	3180
218.994	2703
219.061	2265
219.127	3704
219.194	7129
219.261	3971
219.327	2882
219.394	2449
219.461	1907
219.527	2633
219.594	5391
219.661	3682
219.727	2213
219.794	3706
219.860	2251
219.927	4666
219.994	5373
220.060	9605
220.127	6724
220.193	4359
220.260	4946
220.326	7422
220.393	13858
220.460	21831
220.526	14781
220.593	7837
220.659	7656
220.726	7777
220.792	20638
220.859	17407
220.925	23526
220.992	38122
221.058	32370
221.125	30146
221.191	23360
221.258	9372
221.324	7121
221.391	4846
221.457	4469
221.524	3889
221.590	7306
221.657	23923
221.723	17323
221.789	15941
221.856	15073
221.922	8294
221.989	5849
222.055	4582
222.121	2809
222.188	5339
222.254	4789
222.321	3794
222.387	3591
222.453	3113
222.520	3857
222.586	1527
222.652	3942
222.719	3075
222.785	3533
222.851	1993
222.918	2859
222.984	3085
223.050	3600
223.116	2861
223.183	3848
223.249	1386
223.315	2342
223.382	2158
223.448	2820
223.514	1588
223.580	2531
223.647	1125
223.713	1597
223.779	3086
223.845	3174
223.911	3747
223.978	2259
224.044	2923
224.110	2615
224.176	2791
224.242	2188
224.309	1262
224.375	2440
224.441	2465
224.507	1963
224.573	1899
224.639	3043
224.705	1431
224.772	2485
224.838	993
224.904	2386
224.970	2531
225.036	2575
225.102	2156
225.168	3761
225.234	2814
225.300	3445
225.366	2241
225.432	2493
225.499	2868
225.565	3530
225.631	3321
225.697	3067
225.763	4602
225.829	6057
225.895	4722
225.961	8507
226.027	6386
226.093	6738
226.159	7823
226.225	10728
226.291	28433
226.357	57083
226.423	26565
226.489	12720
226.554	8311
226.620	8384
226.686	9018
226.752	14397
226.818	23623
226.884	71339
226.950	65438
227.016	21331
227.082	10759
227.148	8265
227.214	8179
227.279	7558
227.345	6324
227.411	5755
227.477	5350
227.543	9044
227.609	9647
227.674	8268
227.740	5134
227.806	5122
227.872	4336
227.938	5399
228.003	8539
228.069	4531
228.135	3033
228.201	3052
228.267	3658
228.332	4709
228.398	5046
228.464	4938
228.530	2923
228.595	3409
228.661	2539
228.727	6663
228.792	6090
228.858	3578
228.924	2733
228.990	6344
229.055	3419
229.121	5130
229.187	3267
229.252	4133
229.318	2783
229.384	3669
229.449	4482
229.515	1997
229.581	927
229.646	4015
229.712	3888
229.777	10412
229.843	10959
229.909	7458
229.974	7321
230.040	7781
230.105	4618
230.171	5880
230.236	7390
230.302	13401
230.368	9669
230.433	6430
230.499	5560
230.564	8051
230.630	4732
230.695	4176
230.761	4054
230.826	3258
230.892	6662
230.957	3838
231.023	3579
231.088	4343
231.154	4244
231.219	5165
231.284	5199
231.350	6678
231.415	3260
231.481	4722
231.546	3103
231.612	4009
231.677	3438
231.742	2219
231.808	4248
231.873	2702
231.939	1844
232.004	7930
232.069	7897
232.135	4590
232.200	3084
232.265	3230
232.331	3209
232.396	3282
232.461	2614
232.527	2413
232.592	2641
232.657	3354
232.723	6331
232.788	4928
232.853	3850
232.918	3235
232.984	2124
233.049	3419
233.114	5029
233.179	6308
233.245	9110
233.310	12950
233.375	3672
233.440	4426
233.506	3572
233.571	4082
233.636	2753
233.701	3671
233.766	7758
233.832	9160
233.897	3235
233.962	3094
234.027	5432
234.092	4498
234.157	3611
234.222	4599
234.288	6777
234.353	25170
234.418	20249
234.483	11887
234.548	7361
234.613	6386
234.678	6280
234.743	6937
234.808	22817
234.873	15918
234.938	6777
235.004	5972
235.069	5894
235.134	5157
235.199	4261
235.264	4341
235.329	3243
235.394	4780
235.459	7007
235.524	6313
235.589	5534
235.654	5097
235.719	3432
235.784	5195
235.849	5329
235.913	12502
235.978	12336
236.043	14723
236.108	6642
236.173	5776
236.238	7522
236.303	5570
236.368	5017
236.433	9795
236.498	16131
236.563	11502
236.627	21528
236.692	89125
236.757	68849
236.822	22851
236.887	17367
236.952	13980
237.017	9719
237.081	13082
237.146	14090
237.211	33431
237.276	85239
237.341	155306
237.405	60166
237.470	22782
237.535	16681
237.600	11820
237.664	9504
237.729	7594
237.794	11244
237.859	23097
237.923	13286
237.988	8781
238.053	11394
238.118	12552
238.182	31972
238.247	30663
238.312	12831
238.376	10005
238.441	8189
238.506	8495
238.570	4147
238.635	6386
238.700	4770
238.764	4766
238.829	13334
238.893	19123
238.958	8708
239.023	8654
239.087	5315
239.152	6875
239.216	4703
239.281	4685
239.346	4287
239.410	4761
239.475	6530
239.539	30326
239.604	25972
239.668	8201
239.733	4884
239.797	6845
239.862	14157
239.926	25428
239.991	10599
240.055	5709
240.120	4792
240.184	5497
240.249	3765
240.313	4029
240.378	5641
240.442	17342
240.507	31287
240.571	10377
240.635	13672
240.700	18690
240.764	6035
240.829	5940
240.893	2762
240.957	5533
241.022	16190
241.086	30923
241.151	14045
241.215	5673
241.279	7847
241.344	15922
241.408	8409
241.472	6386
241.537	7363
241.601	6414
241.665	4785
241.730	5685
241.794	6867
241.858	6069
241.922	5069
241.987	5274
242.051	4845
242.115	5527
242.179	5773
242.244	5146
242.308	5623
242.372	7152
242.436	7833
242.501	6025
242.565	4205
242.629	4585
242.693	5819
242.757	4207
242.822	5391
242.886	5805
242.950	6228
243.014	5279
243.078	7042
243.142	6798
243.206	5420
243.271	6540
243.335	6687
243.399	10763
243.463	39659
243.527	126736
243.591	37532
243.655	14289
243.719	7945
243.783	9939
243.847	13462
243.911	17974
243.975	17444
244.040	12012
244.104	8537
244.168	6362
244.232	8425
244.296	12338
244.360	16050
244.424	8346
244.488	6840
244.552	7098
244.615	3308
244.679	5540
244.743	5926
244.807	7185
244.871	4938
244.935	4681
244.999	3546
245.063	5678
245.127	6320
245.191	11713
245.255	11054
245.319	7777
245.383	6056
245.446	6876
245.510	4252
245.574	5282
245.638	6166
245.702	4365
245.766	17159
245.829	10953
245.893	6263
245.957	5328
246.021	6507
246.085	6118
246.149	7641
246.212	22945
246.276	36885
246.340	14655
246.404	9042
246.467	10528
246.531	15438
246.595	9951
246.659	8735
246.722	7659
246.786	9432
246.850	10190
246.913	13850
246.977	7834
247.041	6841
247.104	8051
247.168	8534
247.232	20117
247.295	49527
247.359	22219
247.423	9625
247.486	17887
247.550	11006
247.614	8588
247.677	10388
247.741	7666
247.804	6846
247.868	9255
247.932	17950
247.995	44201
248.059	14348
248.122	7687
248.186	9638
248.249	17179
248.313	67646
248.376	68480
248.440	47422
248.503	16127
248.567	12565
248.630	17326
248.694	23733
248.757	29095
248.821	74167
248.884	39178
248.948	38232
249.011	56777
249.075	88570
249.138	73454
249.202	24379
249.265	16657
249.328	21129
249.392	15351
249.455	13038
249.519	10805
249.582	12108
249.645	19407
249.709	14040
249.772	10954
249.835	9974
249.899	12327
249.962	10666
250.025	10612
250.089	28145
250.152	38652
250.215	16202
250.279	12171
250.342	12020
250.405	12730
250.468	11153
250.532	15844
250.595	25357
250.658	110433
250.721	186294
250.785	55298
250.848	28268
250.911	18666
250.974	17012
251.038	23337
251.101	50804
251.164	22498
251.227	21708
251.290	20963
251.354	34121
251.417	156230
251.480	150477
251.543	89552
251.606	300225
251.669	205696
251.732	66173
251.795	70166
251.859	74327
251.922	185142
251.985	96722
252.048	35676
252.111	24733
252.174	22725
252.237	38446
252.300	90828
252.363	96571
252.426	239321
252.489	89221
252.552	42202
252.615	30832
252.678	28567
252.741	70728
252.804	97360
252.867	241349
252.930	124087
252.993	63394
253.056	36035
253.119	28784
253.182	22587
253.245	37650
253.308	24749
253.371	20915
253.434	19727
253.497	21590
253.559	43807
253.622	28959
253.685	27041
253.748	27133
253.811	14715
253.874	17764
253.937	17429
254.000	13098
254.062	27354
254.125	47771
254.188	35602
254.251	29571
254.314	13717
254.376	23421
254.439	26338
254.502	21420
254.565	28125
254.628	50832
254.690	23743
254.753	14313
254.816	12883
254.878	13754
254.941	32450
255.004	35797
255.067	13573
255.129	11367
255.192	8342
255.255	6810
255.317	8720
255.380	6410
255.443	5056
255.505	5265
255.568	5918
255.631	7282
255.693	6574
255.756	4726
255.819	7205
255.881	4490
255.944	5882
256.006	5137
256.069	5715
256.132	5287
256.194	8013
256.257	23914
256.319	17863
256.382	15629
256.444	9449
256.507	7588
256.569	7061
256.632	8426
256.694	15069
256.757	44439
256.819	135914
256.882	46144
256.944	18962
257.007	14377
257.069	14241
257.132	11493
257.194	9881
257.257	7707
257.319	8596
257.381	11295
257.444	32601
257.506	162184
257.569	153124
257.631	47966
257.693	29794
257.756	17993
257.818	15615
257.880	10270
257.943	9056
258.005	7382
258.067	7983
258.130	8069
258.192	9390
258.254	16650
258.317	12277
258.379	8856
258.441	23973
258.503	24106
258.566	33320
258.628	44729
258.690	11979
258.753	10295
258.815	16242
258.877	9597
258.939	7527
259.001	7084
259.064	7472
259.126	8120
259.188	12581
259.250	8989
259.312	9247
259.375	16620
259.437	12485
259.499	6502
259.561	5904
259.623	6968
259.685	8862
259.747	8969
259.809	29791
259.872	60402
259.934	88200
259.996	78867
260.058	21555
260.120	10568
260.182	8923
260.244	8129
260.306	6922
260.368	7363
260.430	6963
260.492	16306
260.554	25877
260.616	15188
260.678	39221
260.740	59848
260.802	15548
260.864	11086
260.926	8698
260.988	8926
261.050	9866
261.112	26900
261.174	67849
261.236	51699
261.298	15809
261.359	25249
261.421	37181
261.483	11549
261.545	9308
261.607	5719
261.669	7408
261.731	15875
261.793	37522
261.854	14583
261.916	10778
261.978	9506
262.040	12027
262.102	8226
262.164	14470
262.225	12084
262.287	8284
262.349	17991
262.411	14016
262.472	8065
262.534	16493
262.596	37108
262.658	12067
262.719	6661
262.781	11212
262.843	33563
262.904	16121
262.966	10273
263.028	15603
263.090	69334
263.151	193093
263.213	56912
263.275	28491
263.336	13789
263.398	9924
263.459	6509
263.521	8330
263.583	16742
263.644	12802
263.706	6178
263.767	4986
263.829	5012
263.891	4488
263.952	4643
264.014	4246
264.075	12209
264.137	31648
264.198	12011
264.260	6112
264.321	7200
264.383	16906
264.444	45182
264.506	14308
264.567	8470
264.629	18707
264.690	43767
264.752	14476
264.813	8457
264.875	5907
264.936	6593
264.998	6281
265.059	5323
265.120	6832
265.182	12759
265.243	67218
265.305	61148
265.366	13524
265.427	9062
265.489	7839
265.550	4550
265.611	7719
265.673	6269
265.734	6269
265.795	5581
265.857	4612
265.918	7355
265.979	19781
266.040	115854
266.102	84780
266.163	20757
266.224	16152
266.286	9798
266.347	6640
266.408	6299
266.469	6997
266.530	6241
266.592	5737
266.653	10059
266.714	16451
266.775	6769
266.836	5311
266.898	4945
266.959	11129
267.020	7337
267.081	6935
267.142	4781
267.203	6223
267.264	4705
267.326	5962
267.387	4903
267.448	4685
267.509	4693
267.570	5170
267.631	3221
267.692	3725
267.753	5808
267.814	4637
267.875	10376
267.936	23438
267.997	14359
268.058	9710
268.119	5455
268.180	6096
268.241	3917
268.302	4074
268.363	3155
268.424	5354
268.485	4589
268.546	3786
268.607	3251
268.668	4049
268.729	3305
268.790	4898
268.851	5256
268.912	14889
268.972	15697
269.033	7970
269.094	4089
269.155	4868
269.216	3112
269.277	4572
269.338	4121
269.398	4088
269.459	4862
269.520	6729
269.581	8480
269.642	10281
269.702	6020
269.763	5789
269.824	5544
269.885	5847
269.945	9104
270.006	5268
270.067	3566
270.128	4197
270.188	3430
270.249	4766
270.310	3078
270.370	4432
270.431	3963
270.492	3829
270.553	4649
270.613	10239
270.674	20480
270.734	10052
270.795	5977
270.856	7980
270.916	6821
270.977	5961
271.038	6030
271.098	5827
271.159	9596
271.219	10031
271.280	4852
271.340	4438
271.401	6342
271.462	17013
271.522	8499
271.583	5800
271.643	5586
271.704	6264
271.764	7236
271.825	16731
271.885	58532
271.946	84568
272.006	24852
272.066	39209
272.127	72885
272.187	19674
272.248	11634
272.308	14808
272.369	52105
272.429	28042
272.489	16764
272.550	17447
272.610	16060
272.671	12462
272.731	13926
272.791	22985
272.852	10986
272.912	9372
272.972	5500
273.033	7593
273.093	10937
273.153	11885
273.214	8389
273.274	11412
273.334	39364
273.394	72787
273.455	25314
273.515	25532
273.575	55720
273.635	23853
273.696	33748
273.756	73922
273.816	27451
273.876	16266
273.936	33545
273.997	61702
274.057	17790
274.117	12631
274.177	18645
274.237	84990
274.297	73270
274.358	46231
274.418	55166
274.478	36483
274.538	15607
274.598	13945
274.658	46212
274.718	60436
274.778	22903
274.838	13242
274.898	28352
274.958	86067
275.018	77233
275.078	46614
275.138	16323
275.198	11174
275.258	8996
275.318	10263
275.378	15301
275.438	15622
275.498	13426
275.558	37590
275.618	81738
275.678	49184
275.738	24337
275.798	20563
275.858	12865
275.918	7961
275.978	8988
276.038	7879
276.098	6795
276.157	13518
276.217	33723
276.277	17082
276.337	11372
276.397	8218
276.457	8579
276.517	7633
276.576	6021
276.636	6250
276.696	9888
276.756	21398
276.815	16124
276.875	8933
276.935	9329
276.995	9002
277.055	5576
277.114	6457
277.174	9702
277.234	31500
277.293	14176
277.353	8466
277.413	7301
277.472	8138
277.532	7953
277.592	11335
277.651	38863
277.711	74071
277.771	25876
277.830	76295
277.890	64972
277.950	52119
278.009	156988
278.069	57237
278.128	51723
278.188	72407
278.248	31120
278.307	78210
278.367	49228
278.426	16826
278.486	10715
278.545	9744
278.605	8530
278.664	9364
278.724	10420
278.783	29020
278.843	76394
278.902	22840
278.962	12232
279.021	13488
279.081	22182
279.140	20534
279.199	13654
279.259	13523
279.318	16936
279.378	21407
279.437	37283
279.496	115583
279.556	406708
279.615	346467
279.675	87646
279.734	50028
279.793	60992
279.853	79072
279.912	32675
279.971	20709
280.031	18015
280.090	27206
280.149	43479
280.208	59422
280.268	283893
280.327	306804
280.386	71831
280.445	44656
280.505	37901
280.564	22925
280.623	18059
280.682	22713
280.742	29759
280.801	12101
280.860	9750
280.919	9752
280.978	8858
281.037	9288
281.097	8074
281.156	7908
281.215	7332
281.274	11301
281.333	43504
281.392	33905
281.451	8943
281.510	6827
281.569	6430
281.628	6913
281.688	5768
281.747	7561
281.806	7086
281.865	6240
281.924	4366
281.983	6078
282.042	4615
282.101	4696
282.160	5026
282.219	4833
282.278	5944
282.337	19432
282.396	13709
282.454	7022
282.513	8077
282.572	27973
282.631	16661
282.690	6557
282.749	6025
282.808	7845
282.867	7948
282.926	7242
282.985	4636
283.043	6145
283.102	4676
283.161	6858
283.220	19006
283.279	40220
283.338	12584
283.396	7468
283.455	7013
283.514	7612
283.573	11273
283.631	9982
283.690	6331
283.749	7342
283.808	11452
283.866	15236
283.925	7306
283.984	7280
284.043	9379
284.101	9576
284.160	7748
284.219	15525
284.277	11616
284.336	14917
284.395	40463
284.453	36850
284.512	13704
284.570	15952
284.629	16039
284.688	14940
284.746	16978
284.805	19080
284.863	24706
284.922	28831
284.981	34016
285.039	50151
285.098	93187
285.156	230497
285.215	536039
285.273	510786
285.332	243424
285.390	119180
285.449	74187
285.507	51438
285.566	38187
285.624	29659
285.683	22607
285.741	17182
285.799	14780
285.858	13901
285.916	12096
285.975	10266
286.033	8683
286.091	8305
286.150	7683
286.208	9079
286.267	11161
286.325	10063
286.383	11865
286.442	10911
286.500	7335
286.558	7323
286.616	5858
286.675	9383
286.733	6338
286.791	7140
286.850	8418
286.908	11522
286.966	15878
287.024	8195
287.083	6078
287.141	6170
287.199	6389
287.257	8896
287.315	7499
287.374	8715
287.432	16636
287.490	12132
287.548	7815
287.606	6770
287.664	7015
287.723	10644
287.781	16487
287.839	9290
287.897	8930
287.955	12960
288.013	22210
288.071	55836
288.129	204988
288.187	579880
288.245	245889
288.303	73977
288.361	42399
288.419	36028
288.477	27519
288.535	18292
288.593	13512
288.651	10414
288.709	7663
288.767	7337
288.825	6691
288.883	6782
288.941	7748
288.999	6043
289.057	6010
289.115	7037
289.173	6693
289.231	5785
289.289	5969
289.346	6362
289.404	5753
289.462	9128
289.520	9620
289.578	5011
289.636	4206
289.694	3925
289.751	3997
289.809	5245
289.867	4709
289.925	5527
289.983	6392
290.040	3593
290.098	4116
290.156	5519
290.214	5548
290.271	4030
290.329	3819
290.387	2495
290.444	3337
290.502	3261
290.560	4273
290.617	4787
290.675	4083
290.733	3787
290.790	4221
290.848	4162
290.906	5613
290.963	5185
291.021	4829
291.078	5039
291.136	6991
291.194	21334
291.251	45120
291.309	13534
291.366	6318
291.424	5513
291.481	5164
291.539	5364
291.596	4949
291.654	3097
291.711	3592
291.769	3812
291.826	8245
291.884	6608
291.941	3189
291.999	3062
292.056	4857
292.114	5201
292.171	3431
292.228	4484
292.286	5366
292.343	10168
292.401	12881
292.458	8845
292.515	5264
292.573	7137
292.630	6847
292.687	7987
292.745	6679
292.802	9964
292.859	29287
292.917	41361
292.974	22295
293.031	8789
293.089	6693
293.146	5846
293.203	4926
293.260	5461
293.318	5902
293.375	12206
293.432	6614
293.489	5671
293.546	5884
293.604	11487
293.661	32382
293.718	82749
293.775	40971
293.832	16994
293.889	12857
293.947	10749
294.004	8659
294.061	9303
294.118	18989
294.175	42056
294.232	62458
294.289	25758
294.346	12371
294.403	10279
294.460	9762
294.517	8680
294.574	7183
294.631	7540
294.688	10882
294.745	25737
294.802	91795
294.859	102167
294.916	35342
294.973	16601
295.030	13835
295.087	12432
295.144	9207
295.201	8358
295.258	8508
295.315	11124
295.372	30887
295.429	64559
295.486	27268
295.542	19571
295.599	45864
295.656	77641
295.713	48087
295.770	56573
295.827	23369
295.883	12804
295.940	11487
295.997	16002
296.054	14240
296.111	8315
296.167	7144
296.224	4854
296.281	4909
296.338	5148
296.394	5995
296.451	9281
296.508	23497
296.564	47271
296.621	34384
296.678	64489
296.734	97731
296.791	36374
296.848	18804
296.904	17667
296.961	33085
297.018	61423
297.074	49795
297.131	20291
297.187	15605
297.244	23429
297.301	71189
297.357	131016
297.414	44951
297.470	18732
297.527	13355
297.583	10472
297.640	10340
297.696	8688
297.753	7272
297.809	6660
297.866	4726
297.922	5686
297.979	5563
298.035	7268
298.092	12490
298.148	33808
298.204	34390
298.261	19227
298.317	32705
298.374	87732
298.430	50603
298.486	22426
298.543	17353
298.599	15713
298.656	16613
298.712	25313
298.768	60522
298.824	49559
298.881	18113
298.937	10243
298.993	9217
299.050	10602
299.106	9075
299.162	7374
299.218	8410
299.275	7980
299.331	10071
299.387	21647
299.443	70179
299.500	72635
299.556	25488
299.612	14452
299.668	11627
299.724	11257
299.780	11632
299.837	10942
299.893	16598
299.949	48308
300.005	58716
300.061	51782
300.117	100829
300.173	50543
300.229	21879
300.285	22603
300.341	22903
300.397	14267
300.453	9263
300.510	9177
300.566	8120
300.622	10669
300.678	19446
300.734	40712
300.790	49840
300.845	72205
300.901	39743
300.957	43143
301.013	36549
301.069	16103
301.125	11612
301.181	11410
301.237	9687
301.293	7276
301.349	6452
301.405	6837
301.461	7928
301.516	10458
301.572	8957
301.628	13338
301.684	14021
301.740	22522
301.796	36748
301.851	24566
301.907	35500
301.963	42912
302.019	71686
302.074	196619
302.130	197430
302.186	87561
302.242	36041
302.297	24156
302.353	22540
302.409	37585
302.464	35363
302.520	30002
302.576	63877
302.631	77486
302.687	38853
302.743	18178
302.798	11643
302.854	10582
302.910	9720
302.965	13213
303.021	20583
303.076	18345
303.132	20233
303.187	22996
303.243	13757
303.299	9289
303.354	7385
303.410	7687
303.465	7071
303.521	7334
303.576	8446
303.632	12878
303.687	21604
303.743	66894
303.798	58321
303.853	22749
303.909	12082
303.964	10727
304.020	13668
304.075	19643
304.130	16653
304.186	26634
304.241	27392
304.297	23357
304.352	12893
304.358	12499
304.407	9309
304.449	8653
304.463	8441
304.518	9273
304.539	9321
304.573	9413
304.629	13054
304.630	13206
304.684	20823
304.720	39868
304.739	49195
304.794	78646
304.811	66992
304.850	39259
304.902	18085
304.905	16747
304.960	11916
304.992	12186
305.015	12339
305.071	11999
305.083	11677
305.126	10499
305.173	7621
305.181	7162
305.236	6563
305.264	6973
305.292	7427
305.347	8530
305.354	8794
305.402	10523
305.445	11462
305.457	11687
305.512	13035
305.535	13160
305.567	13566
305.622	15482
305.626	16081
305.678	29873
305.716	56880
305.733	66203
305.788	78458
305.807	68741
305.843	53346
305.897	68415
305.898	68523
305.953	70266
305.988	47133
306.008	34890
306.063	19883
306.078	17705
306.118	13078
306.168	10344
306.173	10112
306.228	8796
306.259	8250
306.283	7920
306.338	7644
306.349	7987
306.393	9562
306.440	11248
306.448	11617
306.503	14040
306.530	16203
306.558	21545
306.613	47155
306.620	50410
306.668	65725
306.711	66258
306.723	64502
306.778	46422
306.801	35400
306.833	23564
306.888	13048
306.892	12623
306.943	9543
306.982	9174
306.997	9162
307.052	10026
307.072	10538
307.107	13310
307.162	21587
307.163	21719
307.217	35144
307.253	43351
307.272	44804
307.327	48432
307.343	43517
307.381	34268
307.434	27764
307.436	28134
307.491	51562
307.524	76109
307.546	81820
307.600	64478
307.614	55452
307.655	33575
307.704	21103
307.710	20989
307.765	28365
307.795	37729
307.819	45217
307.874	77763
307.885	77384
307.929	60400
307.975	36932
307.984	36019
308.038	45703
308.065	57544
308.093	103027
308.148	215343
308.156	241502
308.202	342990
308.246	398713
308.257	390135
308.312	200336
308.336	132803
308.366	93659
308.421	56167
308.426	53335
308.475	36162
308.517	27666
308.530	26127
308.585	23116
308.607	22464
308.639	24369
308.694	30280
308.697	30930
308.748	59902
308.787	94500
308.803	95534
308.857	72331
308.877	58059
308.912	44093
308.967	34552
308.967	34534
309.021	46530
309.058	57796
309.076	74448
309.130	137604
309.148	162058
309.185	305780
309.238	554304
309.239	554932
309.293	568274
309.328	479683
309.348	409044
309.402	183829
309.418	131804
309.457	88488
309.508	54183
309.511	53298
309.566	52418
309.598	54021
309.620	62359
309.674	90403
309.688	98048
309.729	89727
309.778	65579
309.783	63762
309.837	42534
309.868	33476
309.892	38420
309.946	54695
309.959	60070
310.001	71484
310.049	80300
310.055	77817
310.109	48396
310.139	30976
310.163	24816
310.218	16379
310.229	15048
310.272	13442
310.319	12252
310.326	12128
310.381	12090
310.409	12127
310.435	12005
310.489	11025
310.499	11028
310.543	12495
310.589	14069
310.598	13879
310.652	12995
310.679	12049
310.706	10599
310.760	7578
310.769	7184
310.814	6283
310.859	5691
310.868	5787
310.923	6179
310.948	6627
310.977	7475
311.031	8990
311.038	9230
311.085	8727
311.128	7861
311.139	7841
311.193	7915
311.218	7905
311.247	7510
311.301	6887
311.308	6809
311.356	7406
311.398	8025
311.410	7700
311.464	6077
311.488	5354
311.518	5590
311.572	6070
311.578	6131
311.626	8483
311.668	10645
311.680	11134
311.734	13177
311.758	14111
311.788	13846
311.842	13236
311.847	13164
311.896	17390
311.937	21208
311.950	20426
312.004	16855
312.027	15211
312.058	12437
312.112	7579
312.117	7107
312.165	7945
312.207	8687
312.297	13443
312.386	10681
312.476	10586
312.566	14425
312.656	8048
312.745	6844
312.835	8940
312.925	9017
313.015	10379
313.104	10853
313.194	6891
313.284	6877
313.374	9478
313.463	8604
313.553	6315
313.643	5469
313.732	5638
313.822	6060
313.912	7073
314.001	7590
314.091	10320
314.180	13980
314.270	10745
314.360	14106
314.449	9729
314.539	6306
314.628	5795
314.718	9714
314.808	14293
314.897	6769
314.987	7409
315.076	8837
315.166	12976
315.255	13380
315.345	11939
315.434	13225
315.524	12688
315.613	11739
315.703	12474
315.792	16295
315.881	34104
315.971	15736
316.060	27196
316.150	51795
316.239	53641
316.328	16572
316.418	7291
316.507	6745
316.597	8627
316.686	9515
316.775	28211
316.865	55422
316.954	10117
317.043	5678
317.133	5453
317.222	6323
317.311	5400
317.400	4625
317.490	8712
317.579	9140
317.668	7213
317.757	10903
317.847	24361
317.936	59878
318.025	26741
318.114	16279
318.203	13367
318.293	20960
318.382	35104
318.471	29970
318.560	58183
318.649	108456
318.738	20296
318.828	14409
318.917	15842
319.006	27927
319.095	73209
319.184	145362
319.273	56262
319.362	21356
319.451	10095
319.540	10222
319.629	21304
319.718	30211
319.807	22613
319.896	62103
319.985	171998
320.074	43986
320.163	18531
320.252	33295
320.341	23723
320.430	17463
320.519	16943
320.608	10038
320.697	8866
320.786	9100
320.875	11360
320.964	14211
321.053	20142
321.142	28828
321.230	27943
321.319	29467
321.408	56089
321.497	26468
321.586	26788
321.675	50542
321.764	38503
321.852	24803
321.941	31847
322.030	20735
322.119	31346
322.207	67181
322.296	69897
322.385	31862
322.474	29732
322.562	66897
322.651	34591
322.740	29171
322.829	47892
322.917	69807
323.006	27666
323.095	20766
323.183	24092
323.272	36167
323.361	85511
323.449	222709
323.538	77187
323.626	168347
323.715	83657
323.804	48873
323.892	147123
323.981	60258
324.069	27695
324.158	94494
324.246	65626
324.335	17018
324.424	18923
324.512	8654
324.601	11949
324.689	20871
324.778	35317
324.866	45744
324.954	12721
325.043	13182
325.131	36587
325.220	68381
325.308	69547
325.397	47251
325.485	22778
325.574	6698
325.662	6090
325.750	7096
325.839	6626
325.927	6535
326.015	11006
326.104	27789
326.192	32296
326.280	7963
326.369	8437
326.457	9222
326.545	15639
326.634	7034
326.722	4765
326.810	6065
326.898	5586
326.987	7953
327.075	18033
327.163	24680
327.251	11899
327.340	10640
327.428	12739
327.516	5799
327.604	7621
327.692	9576
327.781	15672
327.869	24803
327.957	12968
328.045	8909
328.133	7377
328.221	12589
328.309	6918
328.397	6446
328.485	8182
328.574	12903
328.662	35831
328.750	27786
328.838	14612
328.926	6902
329.014	5438
329.102	11696
329.190	31712
329.278	14101
329.366	5057
329.454	5492
329.542	4569
329.630	5285
329.718	5571
329.806	7072
329.893	7850
329.981	7949
330.069	12762
330.157	53877
330.245	122067
330.333	50493
330.421	10215
330.509	14233
330.597	40769
330.684	26110
330.772	15209
330.860	27387
330.948	29616
331.036	9426
331.123	5204
331.211	7239
331.299	10149
331.387	30672
331.475	37944
331.562	12710
331.650	6731
331.738	11855
331.825	15895
331.913	5684
332.001	6006
332.089	14667
332.176	34826
332.264	88597
332.352	51102
332.439	12608
332.527	9304
332.614	10531
332.702	14586
332.790	11472
332.877	40326
332.965	69961
333.052	14861
333.140	20057
333.228	35575
333.315	10468
333.403	14833
333.490	50379
333.578	35183
333.665	36971
333.753	15503
333.840	8623
333.928	16773
334.015	52382
334.103	93892
334.190	204833
334.278	40693
334.365	18436
334.452	10203
334.540	7773
334.627	16458
334.715	24340
334.802	70081
334.889	319877
334.977	226121
335.064	25101
335.151	12102
335.239	13743
335.326	26690
335.413	118636
335.501	108127
335.588	13810
335.675	9304
335.762	16814
335.850	24034
335.937	20635
336.024	84443
336.111	273980
336.199	82007
336.286	13974
336.373	8038
336.460	6036
336.547	7238
336.635	10185
336.722	8492
336.809	9455
336.896	18589
336.983	67766
337.070	155507
337.157	204180
337.245	198573
337.332	110640
337.419	14898
337.506	9308
337.593	15066
337.680	62171
337.767	122276
337.854	34957
337.941	43401
338.028	60146
338.115	18504
338.202	22893
338.289	67796
338.376	180991
338.463	51310
338.550	93739
338.637	72034
338.724	41819
338.811	52782
338.898	10908
338.984	7860
339.071	9921
339.158	10021
339.245	23361
339.332	18216
339.419	42561
339.506	30274
339.593	4225
339.679	5816
339.766	5245
339.853	9510
339.940	14146
340.027	6101
340.113	6128
340.200	8368
340.287	7235
340.374	8861
340.460	11953
340.547	5845
340.634	14187
340.720	42857
340.807	19292
340.894	5757
340.980	6063
341.067	4893
341.154	6465
341.240	11437
341.327	18180
341.414	8987
341.500	9881
341.587	6367
341.674	6099
341.760	13363
341.847	13280
341.933	5214
342.020	2700
342.106	3374
342.193	6642
342.279	9517
342.366	9111
342.452	11574
342.539	7856
342.625	21518
342.712	41073
342.798	16090
342.885	6332
342.971	2849
343.058	3248
343.144	3728
343.230	4211
343.317	5258
343.403	4236
343.490	4229
343.576	3946
343.662	5608
343.749	6347
343.835	9719
343.921	29881
344.008	173618
344.094	263152
344.180	46049
344.267	22541
344.353	79996
344.439	70295
344.525	22425
344.612	14573
344.698	12052
344.784	6786
344.870	4880
344.957	5326
345.043	7414
345.129	7194
345.215	12842
345.301	7656
345.387	4934
345.474	3504
345.560	5026
345.646	7564
345.732	6323
345.818	7775
345.904	6075
345.990	6855
346.076	12906
346.162	25671
346.249	7756
346.335	4498
346.421	8668
346.507	42685
346.593	94715
346.679	18283
346.765	6601
346.851	5658
346.937	4466
347.023	4586
347.108	5414
347.194	4540
347.280	6084
347.366	9092
347.452	43352
347.538	129164
347.624	83229
347.710	59635
347.796	10923
347.882	6488
347.967	6509
348.053	10688
348.139	5915
348.225	4392
348.311	3281
348.397	4213
348.482	5949
348.568	6663
348.654	3946
348.740	4661
348.825	4319
348.911	16167
348.997	78892
349.083	108506
349.168	17024
349.254	7458
349.340	7032
349.425	4148
349.511	7441
349.597	8941
349.682	20929
349.768	58901
349.854	22142
349.939	5745
350.025	4425
350.110	4779
350.196	3393
350.282	2730
350.367	5211
350.453	17114
350.538	13931
350.624	8092
350.709	7608
350.795	3905
350.880	3799
350.966	8001
351.051	14845
351.137	10406
351.222	6724
351.308	22426
351.393	41289
351.479	11617
351.564	4877
351.649	4172
351.735	3693
351.820	3714
351.906	4474
351.991	10937
352.076	37506
352.162	38225
352.247	8418
352.332	7537
352.418	14977
352.503	22837
352.588	68182
352.673	40946
352.759	9205
352.844	4825
352.929	7206
353.014	7717
353.100	5025
353.185	6583
353.270	13803
353.355	12735
353.441	5265
353.526	9383
353.611	15536
353.696	14055
353.781	9120
353.866	3498
353.952	6108
354.037	15201
354.122	28379
354.207	24095
354.292	7928
354.377	4733
354.462	4359
354.547	5413
354.632	6854
354.717	8893
354.802	6358
354.887	3974
354.972	3254
355.057	3641
355.142	2812
355.227	6178
355.312	9780
355.397	22738
355.482	46935
355.567	19958
355.652	17653
355.737	24486
355.822	75299
355.907	44039
355.991	7935
356.076	4647
356.161	4877
356.246	4410
356.331	7348
356.416	31327
356.501	160389
356.585	114614
356.670	14917
356.755	11216
356.840	20785
356.924	124057
357.009	318408
357.094	85786
357.179	18547
357.263	10660
357.348	14183
357.433	12978
357.517	11557
357.602	8475
357.687	7631
357.771	24262
357.856	70571
357.941	37750
358.025	112788
358.110	335189
358.195	109039
358.279	15662
358.364	14673
358.448	54646
358.533	118786
358.617	79815
358.702	80679
358.787	24702
358.871	15702
358.956	10603
359.040	4216
359.125	4662
359.209	8265
359.294	39359
359.378	46719
359.462	14874
359.547	9809
359.631	8757
359.716	4602
359.800	7105
359.885	11460
359.969	5826
360.053	5057
360.138	4460
360.222	9102
360.306	14271
360.391	14000
360.475	40156
360.559	61251
360.644	45436
360.728	32119
360.812	100864
360.896	197512
360.981	68878
361.065	29718
361.149	9049
361.233	8067
361.318	6929
361.402	7566
361.486	6952
361.570	5034
361.654	9954
361.739	33895
361.823	161616
361.907	184498
361.991	27640
362.075	16090
362.159	27328
362.243	17776
362.327	14574
362.411	16904
362.495	12696
362.580	6715
362.664	4941
362.748	3802
362.832	6037
362.916	9264
363.000	40059
363.084	168153
363.168	214505
363.252	38951
363.336	15619
363.420	37623
363.503	161394
363.587	134059
363.671	18838
363.755	12320
363.839	14665
363.923	6874
364.007	18240
364.091	24498
364.175	74538
364.258	221298
364.342	88854
364.426	53657
364.510	27749
364.594	23192
364.677	55224
364.761	199215
364.845	100707
364.929	29176
365.013	19433
365.096	20014
365.180	25992
365.264	89048
365.347	232317
365.431	75240
365.515	17047
365.598	7094
365.682	8502
365.766	22608
365.849	21622
365.933	11373
366.017	16560
366.100	12078
366.184	6072
366.267	7357
366.351	4515
366.435	3266
366.518	2473
366.602	3540
366.685	4953
366.769	6460
366.852	17616
366.936	22649
367.019	10094
367.103	17715
367.186	25769
367.270	5638
367.353	2921
367.436	3921
367.520	3080
367.603	6869
367.687	10224
367.770	16683
367.853	14212
367.937	57176
368.020	68637
368.104	13641
368.187	14185
368.270	19448
368.353	18566
368.437	55143
368.520	129019
368.603	53047
368.687	64474
368.770	84906
368.853	19442
368.936	24599
369.020	22468
369.103	6890
369.186	5522
369.269	5970
369.352	13480
369.436	17630
369.519	10935
369.602	4895
369.685	7837
369.768	6418
369.851	6636
369.934	4959
370.018	8189
370.101	14875
370.184	12503
370.267	11570
370.350	19101
370.433	36067
370.516	103009
370.599	92605
370.682	27879
370.765	46175
370.848	72758
370.931	122728
371.014	40257
371.097	8616
371.180	6434
371.263	4764
371.346	3317
371.429	4935
371.511	6865
371.594	12955
371.677	24169
371.760	27644
371.843	30163
371.926	158479
372.009	254482
372.091	64069
372.174	70918
372.257	134570
372.340	43003
372.423	42000
372.505	42834
372.588	19028
372.671	49755
372.754	120801
372.836	53574
372.919	81010
373.002	114358
373.085	26171
373.167	20713
373.250	61375
373.332	129597
373.415	219964
373.498	355846
373.580	113311
373.663	206992
373.746	206668
373.828	37370
373.911	19656
373.993	38049
374.076	140508
374.159	98814
374.241	45832
374.324	100592
374.406	61369
374.489	152959
374.571	304013
374.654	93070
374.736	77709
374.819	213795
374.901	293225
374.983	240291
375.066	36193
375.148	28356
375.231	131371
375.313	180319
375.395	50452
375.478	11266
375.560	8574
375.643	15991
375.725	84684
375.807	268165
375.890	201338
375.972	99220
376.054	60477
376.136	104142
376.219	39287
376.301	92321
376.383	190429
376.465	55369
376.548	33986
376.630	64296
376.712	155937
376.794	53386
376.877	7260
376.959	4969
377.041	9676
377.123	27864
377.205	24716
377.287	5265
377.369	4333
377.452	4801
377.534	4692
377.616	4631
377.698	4463
377.780	3838
377.862	4846
377.944	4714
378.026	2781
378.108	3422
378.190	4005
378.272	4032
378.354	3201
378.436	4047
378.518	16800
378.600	45218
378.682	34962
378.764	68988
378.846	41566
378.928	14794
379.010	16951
379.091	8241
379.173	5525
379.255	4061
379.337	10157
379.419	42678
379.501	92970
379.583	30038
379.664	9835
379.746	26277
379.828	68531
379.910	90226
379.991	64089
380.073	11041
380.155	8139
380.237	5572
380.318	4856
380.400	6089
380.482	14325
380.564	17434
380.645	15982
380.727	13682
380.809	9605
380.890	7151
380.972	4743
381.053	5884
381.135	9336
381.217	29171
381.298	63833
381.380	27601
381.461	47243
381.543	180049
381.624	159703
381.706	26283
381.787	16814
381.869	23704
381.951	112471
382.032	313733
382.113	135231
382.195	26712
382.276	21461
382.358	63124
382.439	153107
382.521	196423
382.602	260891
382.684	112677
382.765	201691
382.846	218911
382.928	319193
383.009	142760
383.090	139369
383.172	543527
383.253	646820
383.334	213478
383.416	225602
383.497	92404
383.578	48419
383.659	113359
383.741	507616
383.822	1057179
383.903	418937
383.984	169701
384.066	243772
384.147	119839
384.228	26905
384.309	19886
384.390	14755
384.471	12406
384.553	13212
384.634	19356
384.715	17388
384.796	11003
384.877	19704
384.958	67298
385.039	62274
385.120	19737
385.201	12793
385.282	18274
385.363	19969
385.444	16587
385.525	41838
385.606	126690
385.687	82124
385.768	23879
385.849	40021
385.930	167334
386.011	217218
386.092	43466
386.173	11260
386.254	10911
386.335	10320
386.416	13675
386.496	46118
386.577	60705
386.658	24590
386.739	15312
386.820	17055
386.901	13559
386.981	10767
387.062	8496
387.143	21530
387.224	67970
387.304	50184
387.385	19117
387.466	15797
387.547	19145
387.627	11341
387.708	37352
387.789	139465
387.869	139403
387.950	29772
388.031	7963
388.111	10748
388.192	35497
388.273	46789
388.353	20859
388.434	12279
388.514	43274
388.595	165986
388.676	150873
388.756	58417
388.837	54763
388.917	26837
388.998	7039
389.078	7058
389.159	6779
389.239	6081
389.320	11521
389.400	11074
389.480	37977
389.561	75970
389.641	28782
389.722	13150
389.802	18666
389.883	42657
389.963	99671
390.043	57424
390.124	21289
390.204	30758
390.284	70773
390.365	47055
390.445	108242
390.525	223511
390.605	142753
390.686	33244
390.766	10744
390.846	7357
390.927	6096
391.007	6354
391.087	8291
391.167	7433
391.247	8540
391.328	23341
391.408	29688
391.488	16293
391.568	5856
391.648	8853
391.728	11083
391.808	11856
391.888	15804
391.969	45329
392.049	57527
392.129	28980
392.209	42628
392.289	84446
392.369	44786
392.449	50768
392.529	23621
392.609	17606
392.689	32564
392.769	90254
392.849	60742
392.929	64681
393.009	132198
393.089	72434
393.169	59461
393.248	278827
393.328	1028307
393.408	852841
393.488	155172
393.568	39934
393.648	21543
393.728	15924
393.807	12771
393.887	13628
393.967	12415
394.047	15915
394.127	21538
394.206	47818
394.286	249495
394.366	873994
394.446	685552
394.525	125029
394.605	33294
394.685	36049
394.764	86084
394.844	132626
394.924	69892
395.003	17929
395.083	12291
395.163	11456
395.242	11649
395.322	11237
395.402	8994
395.481	19258
395.561	69369
395.640	135213
395.720	99527
395.799	176452
395.879	108666
395.958	75325
396.038	350808
396.117	1138880
396.197	932000
396.276	224490
396.356	77424
396.435	56081
396.515	31203
396.594	30964
396.673	64253
396.753	330937
396.832	910891
396.912	500738
396.991	91230
397.070	25834
397.150	14054
397.229	11889
397.308	13968
397.388	17189
397.467	10343
397.546	6771
397.625	5639
397.705	10196
397.784	8396
397.863	4838
397.942	5881
398.022	12834
398.101	67924
398.180	147469
398.259	57101
398.338	13836
398.417	8342
398.497	6924
398.576	6789
398.655	4549
398.734	5903
398.813	11233
398.892	68724
398.971	165975
399.050	57402
399.129	6487
399.208	3930
399.287	5179
399.366	3288
399.445	3933
399.524	4463
399.603	3601
399.682	13203
399.761	61594
399.840	187386
399.919	104572
399.998	12391
400.077	3202
400.156	2875
400.235	7577
400.313	4993
400.392	9733
400.471	37963
400.550	45400
400.629	10531
400.708	6664
400.786	12583
400.865	35005
400.944	28927
401.023	9497
401.102	2181
401.180	2653
401.259	4936
401.338	6515
401.416	7574
401.495	5891
401.574	6161
401.652	4477
401.731	7627
401.810	4546
401.888	1907
401.967	1298
402.046	3145
402.124	8360
402.203	8456
402.281	4607
402.360	13552
402.438	40551
402.517	21105
402.596	7766
402.674	8087
402.753	3764
402.831	3774
402.910	5308
402.988	17219
403.066	35972
403.145	16045
403.223	13939
403.302	24222
403.380	16325
403.459	15682
403.537	7127
403.615	3340
403.694	1689
403.772	2573
403.850	2317
403.929	1964
404.007	2818
404.085	5594
404.164	3649
404.242	4602
404.320	26428
404.398	73494
404.477	94113
404.555	234850
404.633	155859
404.711	53077
404.789	19590
404.868	4373
404.946	2852
405.024	1890
405.102	1294
405.180	1667
405.258	1417
405.336	4147
405.415	4009
405.493	10164
405.571	5763
405.649	1345
405.727	3259
405.805	7525
405.883	6391
405.961	8250
406.039	10414
406.117	3521
406.195	10215
406.273	62224
406.351	168203
406.429	76060
406.507	15048
406.585	5336
406.663	4689
406.740	5846
406.818	3967
406.896	3083
406.974	5753
407.052	21369
407.130	107866
407.208	108287
407.285	16402
407.363	3386
407.441	3649
407.519	2242
407.596	4920
407.674	22237
407.752	71099
407.830	59026
407.907	17361
407.985	5328
408.063	2332
408.141	2853
408.218	9348
408.296	5745
408.373	2111
408.451	3374
408.529	3055
408.606	1164
408.684	907
408.762	770
408.839	651
408.917	540
408.994	1235
409.072	714
409.149	2072
409.227	3966
409.304	4276
409.382	2718
409.459	3027
409.537	5376
409.614	4340
409.692	2083
409.769	2302
409.846	5892
409.924	8220
410.001	4201
410.079	2912
410.156	2954
410.233	3230
410.311	2611
410.388	2285
410.465	3605
410.543	3479
410.620	2533
410.697	2329
410.775	3417
410.852	776
410.929	4273
411.006	5622
411.083	3952
411.161	11053
411.238	12380
411.315	6682
411.392	2234
411.469	4720
411.547	4806
411.624	2237
411.701	2077
411.778	3930
411.855	8648
411.932	4151
412.009	1681
412.086	3037
412.163	3985
412.240	5160
412.317	8530
412.394	5398
412.471	2022
412.548	1549
412.625	2322
412.702	7063
412.779	9480
412.856	5172
412.933	1664
413.010	2332
413.087	8765
413.164	35596
413.241	34840
413.318	6615
413.395	6707
413.471	7418
413.548	3013
413.625	3090
413.702	5039
413.779	2769
413.855	1050
413.932	1251
414.009	1249
414.086	1137
414.162	1802
414.239	8629
414.316	37730
414.393	61869
414.469	15027
414.546	2272
414.623	1313
414.699	1182
414.776	2709
414.853	1722
414.929	2944
415.006	2874
415.082	5331
415.159	3818
415.236	2498
415.312	2795
415.389	6661
415.465	7358
415.542	2606
415.618	2472
415.695	5384
415.771	2859
415.848	2383
415.924	4154
416.000	3211
416.077	2247
416.153	216
416.230	286
416.306	1242
416.383	2391
416.459	2083
416.535	1089
416.612	1582
416.688	1807
416.764	2247
416.841	1816
416.917	1802
416.993	1564
417.069	4235
417.146	6872
417.222	6517
417.298	3757
417.374	2178
417.451	2721
417.527	3295
417.603	3420
417.679	2204
417.755	1858
417.831	344
417.908	727
417.984	1069
418.060	1665
418.136	7799
418.212	7527
418.288	2777
418.364	2352
418.440	2326
418.516	6034
418.592	12163
418.668	15831
418.744	17073
418.820	10712
418.896	2887
418.972	1152
419.048	3126
419.124	8732
419.200	4398
419.276	674
419.352	-251
419.428	1743
419.504	2714
419.579	2659
419.655	1357
419.731	2907
419.807	13332
419.883	20924
419.959	11440
420.034	4157
420.110	14087
420.186	43819
420.262	23169
420.337	5199
420.413	3349
420.489	937
420.565	2084
420.640	1347
420.716	1822
420.792	425
420.867	2476
420.943	1168
421.019	5169
421.094	2973
421.170	1730
421.245	1066
421.321	2018
421.397	2593
421.472	13595
421.548	33857
421.623	16761
421.699	4509
421.774	3741
421.850	2821
421.925	6796
422.001	5874
422.076	3752
422.152	4556
422.227	7449
422.302	9450
422.378	13305
422.453	25669
422.529	86171
422.604	369852
422.679	616498
422.755	248617
422.830	53902
422.905	19725
422.981	10541
423.056	6299
423.131	5199
423.207	3929
423.282	6300
423.357	11804
423.432	6142
423.508	8120
423.583	17503
423.658	10793
423.733	4655
423.808	6306
423.883	5881
423.959	3470
424.034	2389
424.109	2124
424.184	839
424.259	893
424.334	1171
424.409	716
424.484	1218
424.559	2195
424.634	2204
424.709	3561
424.784	4296
424.859	2466
424.934	7793
425.009	30887
425.084	42975
425.159	12106
425.234	2465
425.309	3711
425.384	22683
425.459	27459
425.534	6962
425.609	4259
425.683	2031
425.758	1621
425.833	2583
425.908	5206
425.983	20903
426.058	43731
426.132	14093
426.207	5410
426.282	12000
426.357	8037
426.431	2079
426.506	2240
426.581	3410
426.655	2717
426.730	1567
426.805	1793
426.879	3166
426.954	3254
427.029	13665
427.103	66816
427.178	132017
427.253	42334
427.327	7246
427.402	18389
427.476	38024
427.551	13451
427.625	6622
427.700	4540
427.774	3147
427.849	4565
427.923	2313
427.998	2366
428.072	3173
428.147	11072
428.221	38083
428.296	77436
428.370	28259
428.444	8119
428.519	16427
428.593	31931
428.667	25074
428.742	32324
428.816	27581
428.890	77979
428.965	87538
429.039	39524
429.113	33410
429.188	8423
429.262	2407
429.336	9462
429.410	24516
429.485	16559
429.559	26837
429.633	14967
429.707	5482
429.781	23083
429.855	90803
429.930	99575
430.004	93563
430.078	154370
430.152	107749
430.226	139826
430.300	101617
430.374	13867
430.448	11844
430.522	66949
430.596	147484
430.670	70109
430.744	134725
430.818	150129
430.892	25953
430.966	4732
431.040	3153
431.114	1526
431.188	1667
431.262	2535
431.336	3281
431.410	17788
431.484	38034
431.557	16471
431.631	2712
431.705	3341
431.779	19932
431.853	67897
431.927	34767
432.000	4480
432.074	2346
432.148	6114
432.222	4467
432.295	1409
432.369	1782
432.443	11633
432.516	74002
432.590	133529
432.664	36276
432.737	4839
432.811	157
432.885	260
432.958	817
433.032	1191
433.106	433
433.179	300
433.253	754
433.326	359
433.400	83
433.473	617
433.547	126
433.620	1400
433.694	3755
433.767	5923
433.841	1883
433.914	1877
433.988	478
434.061	1788
434.134	753
434.208	-59
434.281	-259
434.355	899
434.428	2716
434.501	1046
434.575	884
434.648	1116
434.721	-57
434.795	129
434.868	-77
434.941	658
435.014	-389
435.088	1091
435.161	3809
435.234	6127
435.307	5316
435.381	2453
435.454	1921
435.527	1916
435.600	1453
435.673	1633
435.746	726
435.819	833
435.892	809
435.966	738
436.039	1117
436.112	1315
436.185	-269
436.258	-528
436.331	-67
436.404	117
436.477	-1
436.550	-601
436.623	48
436.696	200
436.769	1521
436.842	1168
436.915	2345
436.987	3374
437.060	762
437.133	840
437.206	514
437.279	798
437.352	-94
437.425	64
437.498	1376
437.570	6238
437.643	3588
437.716	492
437.789	117
437.861	6145
437.934	13644
438.007	4550
438.080	1013
438.152	2762
438.225	13989
438.298	106381
438.370	206574
438.443	60782
438.516	11481
438.588	2001
438.661	154
438.734	1361
438.806	2024
438.879	2206
438.951	4144
439.024	6380
439.096	1404
439.169	836
439.241	-104
439.314	1238
439.386	5961
439.459	10855
439.531	14370
439.604	4257
439.676	768
439.749	-104
439.821	127
439.893	-8
439.966	1670
440.038	3511
440.110	1566
440.183	1209
440.255	790
440.327	5064
440.400	41619
440.472	122194
440.544	54321
440.617	6878
440.689	5716
440.761	7786
440.833	10336
440.905	5648
440.978	423
441.050	537
441.122	782
441.194	410
441.266	663
441.338	812
441.411	5882
441.483	35158
441.555	35988
441.627	7534
441.699	7778
441.771	7937
441.843	1865
441.915	784
441.987	-238
442.059	968
442.131	2591
442.203	5263
442.275	5584
442.347	4599
442.419	5336
442.491	26926
442.563	52819
442.635	27545
442.706	35008
442.778	17759
442.850	2380
442.922	1292
442.994	4008
443.066	4555
443.137	3238
443.209	2278
443.281	3694
443.353	11289
443.425	42327
443.496	114628
443.568	83663
443.640	25337
443.711	5871
443.783	3093
443.855	1420
443.926	1526
443.998	2817
444.070	5066
444.141	4140
444.213	4801
444.285	5296
444.356	8286
444.428	8039
444.499	1586
444.571	499
444.642	937
444.714	1472
444.785	4314
444.857	11901
444.928	26601
445.000	12539
445.071	18876
445.143	15110
445.214	6356
445.285	17677
445.357	46498
445.428	107513
445.500	194773
445.571	102242
445.642	41424
445.714	34812
445.785	35652
445.856	7466
445.928	5736
445.999	4878
446.070	2890
446.141	4265
446.213	4812
446.284	2664
446.355	4901
446.426	3056
446.497	2325
446.569	9383
446.640	8341
446.711	4621
446.782	3017
446.853	8731
446.924	6346
446.995	1997
447.066	4086
447.138	9658
447.209	4017
447.280	-165
447.351	0
447.422	870
447.493	3636
447.564	3488
447.635	3744
447.706	793
447.777	186
447.847	548
447.918	1672
447.989	4958
448.060	8249
448.131	18546
448.202	12975
448.273	6218
448.344	2254
448.414	1276
448.485	965
448.556	612
448.627	-305
448.698	586
448.768	266
448.839	2129
448.910	9030
448.981	5427
449.051	1549
449.122	216
449.193	686
449.263	1391
449.334	1018
449.405	3348
449.475	6991
449.546	5340
449.616	10635
449.687	6596
449.758	1173
449.828	649
449.899	-320
449.969	119
450.040	1213
450.110	5912
450.181	6133
450.251	1257
450.322	746
450.392	1404
450.463	712
450.533	1459
450.604	1096
450.674	1084
450.744	1475
450.815	676
450.885	1660
450.955	696
451.026	462
451.096	1952
451.166	3133
451.237	14163
451.307	27063
451.377	8006
451.447	2022
451.518	24
451.588	1014
451.658	1612
451.728	8356
451.799	34572
451.869	28022
451.939	6373
452.009	1729
452.079	1475
452.149	3126
452.219	10522
452.289	38028
452.360	20474
452.430	4114
452.500	2691
452.570	3016
452.640	6834
452.710	24823
452.780	27913
452.850	14735
452.920	9427
452.990	3835
453.060	3309
453.129	5010
453.199	10138
453.269	58076
453.339	87498
453.409	116978
453.479	148441
453.549	194791
453.619	183743
453.688	58189
453.758	9797
453.828	3785
453.898	3428
453.968	2486
454.037	2391
454.087	2278
454.107	2202
454.168	1303
454.177	1143
454.247	1417
454.249	1470
454.316	2094
454.330	2824
454.386	5378
454.411	11270
454.456	20013
454.492	20553
454.525	20990
454.574	10799
454.595	6496
454.655	3103
454.665	2666
454.734	4962
454.736	5309
454.804	14122
454.817	19444
454.873	37781
454.898	38025
454.943	36466
454.979	26078
455.013	17371
455.060	10564
455.082	8658
455.141	11831
455.152	12190
455.221	34962
455.222	35527
455.291	55137
455.303	57742
455.360	64841
455.384	81919
455.430	103696
455.465	75508
455.499	50246
455.546	40684
455.569	35612
455.627	18878
455.638	16306
455.707	3946
455.708	3977
455.777	2985
455.789	3021
455.846	3117
455.869	3214
455.916	3521
455.950	3730
455.985	3594
456.031	3094
456.054	2802
456.112	1689
456.124	1620
456.193	2811
456.193	2775
456.262	6105
456.274	6656
456.332	8445
456.355	9711
456.401	9904
456.436	7606
456.470	5733
456.516	3428
456.540	2552
456.597	1850
456.609	1735
456.678	2221
456.678	2200
456.747	1774
456.759	1699
456.817	1548
456.840	1742
456.886	1919
456.920	1958
456.955	2410
457.001	3318
457.024	4496
457.082	7500
457.093	8079
457.162	15175
457.163	15289
457.232	16425
457.243	15416
457.301	8555
457.324	5589
457.370	2527
457.405	2876
457.439	3440
457.485	2696
457.508	2489
457.566	3645
457.577	3834
457.646	3863
457.647	3902
457.715	5943
457.727	6238
457.784	8632
457.808	10165
457.853	11831
457.889	13037
457.922	12287
457.969	9152
457.991	9564
458.050	12027
458.060	12366
458.129	19322
458.130	19496
458.198	16827
458.211	15177
458.267	8340
458.292	6336
458.336	5475
458.372	5381
458.405	6892
458.453	9486
458.474	11647
458.533	20266
458.543	21073
458.611	31872
458.614	31990
458.680	16985
458.694	13416
458.749	7036
458.775	5719
458.818	4956
458.855	4362
458.887	4362
458.936	5209
458.955	5322
459.016	5595
459.024	5614
459.093	5216
459.097	5223
459.162	5558
459.177	5755
459.230	6460
459.257	6799
459.299	6927
459.338	7151
459.368	7314
459.418	7785
459.437	7474
459.499	5391
459.505	5311
459.574	4804
459.579	4843
459.643	5056
459.659	4941
459.711	4933
459.740	5229
459.780	5885
459.820	6762
459.849	7597
459.900	8738
459.917	8466
459.981	7360
459.986	7287
460.054	6477
460.061	6409
460.123	6571
460.141	6839
460.191	8129
460.222	8791
460.260	9424
460.302	10010
460.328	9331
460.382	7996
460.397	7960
460.462	7040
460.465	7129
460.534	10861
460.543	11311
460.602	28808
460.623	35561
460.671	52995
460.703	70022
460.739	66424
460.783	51334
460.808	40828
460.864	11008
460.876	9113
460.944	7628
460.945	7602
461.013	6768
461.024	6718
461.081	7276
461.104	7608
461.150	6938
461.184	6230
461.218	6152
461.264	6183
461.286	6554
461.345	7470
461.355	7509
461.423	8258
461.425	8269
461.491	9830
461.505	10237
461.559	22452
461.585	28238
461.628	48191
461.665	67854
461.696	74888
461.745	89137
461.764	75757
461.825	18315
461.832	17219
461.901	9661
461.905	9501
461.969	8942
461.985	8791
462.037	8704
462.065	8615
462.105	10876
462.145	13464
462.173	20916
462.225	34977
462.241	38979
462.305	58168
462.310	56407
462.378	25660
462.385	21663
462.446	11164
462.465	8835
462.514	8626
462.545	8792
462.582	8786
462.625	8866
462.650	8488
462.705	7469
462.718	8097
462.785	11426
462.786	11548
462.854	18863
462.865	20204
462.922	26580
462.945	28902
462.990	19324
463.025	10805
463.058	9402
463.104	7917
463.126	7577
463.184	7423
463.194	7577
463.262	8557
463.264	8576
463.330	8771
463.344	8846
463.398	10954
463.424	11938
463.466	11762
463.504	11891
463.533	12507
463.583	12935
463.601	13211
463.663	14295
463.669	14833
463.737	21284
463.743	21868
463.805	37316
463.823	41763
463.873	66825
463.903	82935
463.940	88227
463.982	94513
464.008	73927
464.062	25002
464.076	22345
464.142	10281
464.144	10220
464.211	9878
464.221	9843
464.279	9989
464.301	10087
464.347	11902
464.381	13400
464.414	15864
464.461	19104
464.482	20215
464.540	23570
464.550	22573
464.617	14569
464.620	14271
464.685	14229
464.699	14236
464.753	15615
464.779	16420
464.820	18961
464.859	21234
464.888	21808
464.938	22582
464.956	23064
465.018	24928
465.023	24377
465.091	16326
465.098	15472
465.158	16068
465.177	16279
465.226	16041
465.257	15842
465.293	16737
465.336	17781
465.361	18859
465.416	21217
465.428	23932
465.495	38602
465.496	38882
465.563	72871
465.575	78838
465.631	97317
465.654	105142
465.698	62780
465.734	25794
465.765	20973
465.813	14325
465.833	14097
465.893	14302
465.900	14390
465.968	14943
465.972	14961
466.035	14598
466.052	14433
466.102	14243
466.131	14101
466.170	14947
466.210	15839
466.237	16419
466.290	17471
466.304	17542
466.369	17655
466.372	17747
466.439	19517
466.449	19714
466.506	22155
466.528	23108
466.573	35922
466.607	45366
466.641	70530
466.687	105516
466.708	117642
466.766	151178
466.775	138862
466.842	43173
466.845	38559
466.909	25134
466.925	22035
466.977	21392
467.004	21075
467.044	21436
467.083	21725
467.111	23254
467.163	25982
467.178	26826
467.242	30131
467.245	30043
467.312	26986
467.321	26530
467.379	27901
467.400	28316
467.446	30835
467.480	32550
467.559	29156
467.638	23490
467.717	23995
467.796	26126
467.875	29312
467.955	29874
468.034	49557
468.113	127699
468.192	192288
468.271	43568
468.350	21434
468.429	23463
468.508	22830
468.588	21329
468.667	21862
468.746	23041
468.825	22363
468.904	19800
468.983	27185
469.062	47173
469.141	60934
469.220	22653
469.299	20113
469.378	23258
469.456	25084
469.535	23459
469.614	23827
469.693	26950
469.772	37844
469.851	55212
469.930	37325
470.009	22124
470.088	22874
470.166	27744
470.245	43861
470.324	53826
470.403	37070
470.482	23774
470.560	21347
470.639	21483
470.718	25025
470.797	22405
470.875	26081
470.954	39137
471.033	44725
471.111	19149
471.190	16726
471.269	15419
471.347	16582
471.426	18815
471.505	23406
471.583	22196
471.662	20536
471.740	18185
471.819	18983
471.898	17130
471.976	18084
472.055	16593
472.133	22183
472.212	31844
472.290	36550
472.369	21862
472.447	17098
472.526	16001
472.604	17797
472.683	17239
472.761	18825
472.839	17329
472.918	18088
472.996	19223
473.075	24766
473.153	22252
473.231	17568
473.310	22025
473.388	22084
473.466	20090
473.545	21902
473.623	26895
473.701	25374
473.780	17169
473.858	15136
473.936	17905
474.014	17580
474.093	21690
474.171	38123
474.249	59264
474.327	36852
474.405	15430
474.484	15453
474.562	15935
474.640	16726
474.718	18411
474.796	19306
474.874	15599
474.952	14020
475.030	14604
475.108	15339
475.187	17065
475.265	17252
475.343	19100
475.421	21809
475.499	18188
475.577	22110
475.655	30280
475.733	73164
475.811	137677
475.889	122477
475.966	78355
476.044	18031
476.122	17128
476.200	19554
476.278	18376
476.356	16881
476.434	17845
476.512	19144
476.590	22336
476.667	20250
476.745	16233
476.823	18073
476.901	17092
476.979	19457
477.056	17660
477.134	19143
477.212	16015
477.290	15979
477.367	15352
477.445	15253
477.523	16160
477.601	16108
477.678	17018
477.756	24507
477.834	28798
477.911	17580
477.989	17218
478.066	16808
478.144	20296
478.222	16793
478.299	18128
478.377	18516
478.454	13624
478.532	14256
478.609	15851
478.687	16689
478.764	14388
478.842	15952
478.919	17269
478.997	18966
479.074	15376
479.152	22687
479.229	32278
479.307	18791
479.384	13224
479.461	14200
479.539	16977
479.616	22975
479.694	17430
479.771	20329
479.848	22569
479.926	34602
480.003	38121
480.080	15955
480.157	15056
480.235	14579
480.312	15360
480.389	21708
480.467	40117
480.544	53758
480.621	21199
480.698	17835
480.775	21819
480.853	23417
480.930	16079
481.007	17380
481.084	21522
481.161	24769
481.238	22731
481.315	14628
481.392	13549
481.470	15423
481.547	14833
481.624	15635
481.701	15359
481.778	17477
481.855	20679
481.932	36523
482.009	67680
482.086	45301
482.163	15171
482.240	15631
482.317	19468
482.393	18337
482.470	16226
482.547	17477
482.624	15485
482.701	16394
482.778	15754
482.855	14009
482.932	13420
483.009	12989
483.085	15261
483.162	19269
483.239	17844
483.316	13397
483.393	14551
483.469	15373
483.546	19665
483.623	22597
483.699	15242
483.776	18769
483.853	20643
483.930	33394
484.006	102802
484.083	182651
484.160	68264
484.236	71300
484.313	56253
484.389	43077
484.466	37828
484.543	36119
484.619	36819
484.696	41558
484.772	45583
484.849	51366
484.925	36152
485.002	34529
485.078	37141
485.155	38336
485.231	33777
485.308	35227
485.384	37286
485.461	50171
485.537	103385
485.614	128317
485.690	41120
485.766	34531
485.843	34757
485.919	45743
485.995	48241
486.072	31302
486.148	29229
486.224	30525
486.301	33405
486.377	41663
486.453	39115
486.530	37308
486.606	46275
486.682	55647
486.758	80878
486.835	101935
486.911	73099
486.987	127035
487.063	108255
487.139	105207
487.215	73761
487.292	40472
487.368	33686
487.444	38411
487.520	44067
487.596	40714
487.672	47525
487.748	91878
487.824	130189
487.900	58053
487.976	36304
488.052	40923
488.128	47635
488.204	41546
488.280	36285
488.356	47655
488.432	121155
488.508	200321
488.584	56627
488.660	31286
488.736	29647
488.812	31949
488.888	39441
488.964	48902
489.039	97040
489.115	149745
489.191	92622
489.267	34365
489.343	32777
489.418	26310
489.494	24542
489.570	24351
489.646	28445
489.722	27387
489.797	29985
489.873	56865
489.949	148091
490.024	125003
490.100	29368
490.176	26407
490.251	31379
490.327	39164
490.403	26451
490.478	23025
490.554	20774
490.629	21862
490.705	20898
490.781	24357
490.856	25079
490.932	28502
491.007	28081
491.083	30011
491.158	27908
491.234	41363
491.309	108268
491.385	114234
491.460	30421
491.536	30213
491.611	24107
491.686	26435
491.762	34946
491.837	65579
491.913	113657
491.988	160819
492.063	189685
492.139	75677
492.214	49539
492.289	21212
492.365	20114
492.440	25856
492.515	28840
492.590	28189
492.666	22079
492.741	36163
492.816	61531
492.891	32943
492.967	22190
493.042	22817
493.117	25905
493.192	30880
493.267	59300
493.342	238267
493.418	343328
493.493	52631
493.568	20109
493.643	19784
493.718	27275
493.793	45891
493.868	42427
493.943	23528
494.018	18762
494.093	19958
494.168	19879
494.243	17320
494.318	16162
494.393	15724
494.468	15493
494.543	15607
494.618	18020
494.693	18041
494.768	17903
494.842	20217
494.917	15032
494.992	16221
495.067	15311
495.142	14462
495.217	16321
495.292	16997
495.366	20633
495.441	27255
495.516	32590
495.591	40754
495.665	130438
495.740	308012
495.815	132418
495.890	29419
495.964	20647
496.039	24100
496.114	21110
496.188	23544
496.263	24573
496.338	22311
496.412	26817
496.487	33412
496.561	30946
496.636	31367
496.710	25063
496.785	29533
496.860	37261
496.934	25193
497.009	23498
497.083	23887
497.158	24728
497.232	32530
497.307	41816
497.381	32415
497.455	42801
497.530	64848
497.604	38884
497.679	41315
497.753	71152
497.827	94108
497.902	81214
497.976	92630
498.050	229128
498.125	966928
498.199	1014154
498.273	122367
498.348	69812
498.422	58258
498.496	53471
498.570	48947
498.645	41764
498.719	45279
498.793	58584
498.867	96625
498.941	128438
499.016	377832
499.090	1074228
499.164	393079
499.238	38138
499.312	28875
499.386	33911
499.460	36601
499.534	35280
499.609	45841
499.683	74425
499.757	73429
499.831	160681
499.905	692738
499.979	686569
500.053	100943
500.127	83903
500.201	47798
500.275	34489
500.349	34435
500.422	40504
500.496	57290
500.570	111046
500.644	354295
500.718	733006
500.792	165210
500.866	37141
500.940	50050
501.013	42545
501.087	39484
501.161	58780
501.235	86627
501.309	218535
501.382	632344
501.456	565441
501.530	115236
501.603	201991
501.677	78609
501.751	29446
501.825	36014
501.898	76653
501.972	251481
502.046	160917
502.119	39984
502.193	98494
502.266	272558
502.340	132527
502.413	112853
502.487	238663
502.561	140475
502.634	37410
502.708	24002
502.781	20261
502.855	18731
502.928	15846
503.002	17563
503.075	18421
503.149	21964
503.222	22510
503.295	27175
503.369	35253
503.442	50144
503.516	180667
503.589	500112
503.662	323486
503.736	91496
503.809	217758
503.882	175928
503.956	233888
504.029	212004
504.102	69932
504.175	72879
504.249	32400
504.322	30606
504.395	27481
504.468	19660
504.542	21225
504.615	13807
504.688	14171
504.761	13897
504.834	19112
504.907	20943
504.980	30372
505.053	18881
505.127	20177
505.200	28366
505.273	36941
505.346	23112
505.419	16343
505.492	13957
505.565	11019
505.638	12489
505.711	12439
505.784	13176
505.857	11691
505.930	14247
506.003	12727
506.076	18075
506.149	27310
506.221	35757
506.294	29614
506.367	86609
506.440	322914
506.513	175613
506.586	36464
506.659	18664
506.731	14363
506.804	19525
506.877	26511
506.950	21158
507.022	13912
507.095	22957
507.168	29670
507.241	15789
507.313	10963
507.386	13582
507.459	18845
507.531	12861
507.604	10638
507.677	12197
507.749	8938
507.822	16093
507.894	27484
507.967	33624
508.040	19474
508.112	16364
508.185	16646
508.257	15375
508.330	21945
508.402	17318
508.475	19402
508.547	20450
508.620	19738
508.692	39215
508.765	21771
508.837	13074
508.909	13557
508.982	14019
509.054	16441
509.127	13241
509.199	12405
509.271	11693
509.344	12010
509.416	12604
509.488	13452
509.560	14521
509.633	14128
509.705	17491
509.777	17001
509.849	24034
509.922	17306
509.994	15043
510.066	15952
510.138	15646
510.210	30243
510.283	28650
510.355	22208
510.427	19359
510.499	17835
510.571	16865
510.643	16380
510.715	26403
510.787	22367
510.859	19575
510.931	23508
511.003	26324
511.076	23660
511.148	18184
511.219	20021
511.291	37042
511.363	46817
511.435	18991
511.507	14136
511.579	15053
511.651	16337
511.723	14851
511.795	14613
511.867	17209
511.939	24005
512.010	62065
512.082	46460
512.154	18040
512.226	17314
512.298	23443
512.369	32681
512.441	27196
512.513	26792
512.585	20038
512.656	21530
512.728	23623
512.800	18218
512.871	19707
512.943	19140
513.015	14815
513.086	16827
513.158	18495
513.230	19133
513.301	27518
513.373	31419
513.444	20075
513.516	15503
513.588	17301
513.659	18002
513.731	22566
513.802	19046
513.874	36134
513.945	63358
514.016	24421
514.088	15762
514.159	17482
514.231	22733
514.302	30530
514.374	25175
514.445	27168
514.516	64080
514.588	46922
514.659	26177
514.730	56122
514.802	37495
514.873	22308
514.944	24365
515.016	21265
515.087	20870
515.158	35577
515.229	54588
515.301	25368
515.372	30148
515.443	19957
515.514	17449
515.585	14218
515.656	16249
515.728	15871
515.799	14521
515.870	17039
515.941	18752
516.012	18056
516.083	24973
516.154	27672
516.225	35602
516.296	35781
516.367	32284
516.438	38280
516.509	47830
516.580	67779
516.651	207759
516.722	783323
516.793	344280
516.864	73681
516.935	72452
517.006	84378
517.077	108172
517.148	220621
517.219	929155
517.289	1538555
517.360	469010
517.431	148631
517.502	39660
517.573	34848
517.643	31797
517.714	35697
517.785	39075
517.856	42805
517.926	53639
517.997	65937
518.068	85300
518.138	110636
518.209	157000
518.280	597998
518.350	2281249
518.421	907669
518.492	97202
518.562	52647
518.633	47196
518.703	37890
518.774	46244
518.845	90642
518.915	90572
518.986	45179
519.056	42508
519.127	65161
519.197	109439
519.268	325128
519.338	225704
519.408	47767
519.479	40307
519.549	31597
519.620	22366
519.690	18304
519.760	18762
519.831	19213
519.901	18983
519.971	17648
520.042	21049
520.112	26832
520.182	25668
520.253	27385
520.323	22236
520.393	33135
520.463	52471
520.534	38248
520.604	83427
520.674	39100
520.744	37749
520.814	88501
520.885	80462
520.955	100837
521.025	412190
521.095	165746
521.165	26908
521.235	24354
521.305	19146
521.375	16962
521.445	17946
521.515	21979
521.585	24279
521.655	24506
521.725	21811
521.795	22839
521.865	16259
521.935	31894
522.005	29687
522.075	17291
522.145	20571
522.215	25624
522.285	38136
522.355	53705
522.424	112941
522.494	94391
522.564	35730
522.634	52739
522.704	136458
522.774	56299
522.843	19575
522.913	17815
522.983	21675
523.053	18180
523.122	17546
523.192	22167
523.262	74931
523.331	75017
523.401	18536
523.471	12230
523.540	14279
523.610	10607
523.680	12708
523.749	14086
523.819	20712
523.888	22005
523.958	11926
524.027	13344
524.097	15456
524.166	13917
524.236	14998
524.305	16238
524.375	12377
524.444	11818
524.514	15625
524.583	16630
524.653	22246
524.722	26737
524.791	16732
524.861	15046
524.930	12216
524.999	13970
525.069	19415
525.138	19818
525.207	25831
525.277	15956
525.346	14650
525.415	14748
525.484	13263
525.554	20141
525.623	19676
525.692	15596
525.761	15471
525.830	16229
525.900	16937
525.969	26951
526.038	33476
526.107	47852
526.176	132701
526.245	113927
526.314	51131
526.383	83771
526.452	100386
526.522	167803
526.591	204650
526.660	86997
526.729	43386
526.797	43460
526.867	82897
526.935	365852
527.004	501192
527.073	252868
527.142	32243
527.211	18040
527.280	17821
527.349	18288
527.418	10752
527.487	13181
527.555	11172
527.624	10712
527.693	9441
527.762	11506
527.831	9534
527.899	11329
527.968	11726
528.037	12213
528.106	14078
528.174	27550
528.243	25698
528.312	38941
528.380	47487
528.449	16437
528.518	11299
528.586	8260
528.655	10158
528.723	9597
528.792	9038
528.861	11862
528.929	9835
528.998	10109
529.066	7693
529.135	9389
529.203	7855
529.272	9449
529.340	9205
529.409	12179
529.477	9411
529.545	17844
529.614	20494
529.682	22989
529.751	28390
529.819	26228
529.887	17332
529.956	10998
530.024	11449
530.092	9562
530.161	11210
530.229	19469
530.297	11565
530.365	10721
530.434	8509
530.502	8250
530.570	8432
530.638	7881
530.707	9417
530.775	11537
530.843	8489
530.911	9609
530.979	8867
531.047	8488
531.115	10018
531.183	10121
531.252	10497
531.320	10563
531.388	9396
531.456	10511
531.524	7678
531.592	10057
531.660	12035
531.728	8959
531.796	9498
531.864	9752
531.932	9595
532.000	9870
532.067	10732
532.135	11759
532.203	13282
532.271	14628
532.339	25049
532.407	64715
532.475	38095
532.542	20454
532.610	18890
532.678	23911
532.746	92338
532.814	253616
532.881	68786
532.949	16695
533.017	12652
533.084	11566
533.152	10253
533.220	10534
533.287	11758
533.355	10786
533.423	10701
533.490	10253
533.558	10767
533.625	11569
533.693	13707
533.761	13851
533.828	12827
533.896	12140
533.963	25768
534.031	31196
534.098	37400
534.166	21147
534.233	12597
534.300	14423
534.368	14228
534.435	14036
534.503	13491
534.570	15731
534.637	13335
534.705	12503
534.772	13423
534.840	19418
534.907	62316
534.974	82680
535.041	18730
535.109	21181
535.176	10901
535.243	10533
535.310	10561
535.378	9968
535.445	9248
535.512	8704
535.579	9897
535.646	9234
535.714	10568
535.781	13998
535.848	13682
535.915	15520
535.982	16077
536.049	16002
536.116	15952
536.183	13681
536.250	12475
536.317	13146
536.384	14904
536.451	22062
536.518	22801
536.585	14950
536.652	20278
536.719	28474
536.786	21243
536.853	17318
536.920	25820
536.987	44118
537.053	33490
537.120	117289
537.187	109203
537.254	15632
537.321	12299
537.388	13457
537.454	9800
537.521	10423
537.588	8855
537.654	12465
537.721	13956
537.788	13139
537.855	10188
537.921	12222
537.988	11690
538.055	12517
538.121	12091
538.188	12048
538.254	18046
538.321	40379
538.388	25603
538.454	12492
538.521	11645
538.587	10500
538.654	9986
538.720	11261
538.787	10633
538.853	12597
538.920	17379
538.986	19333
539.053	14239
539.119	13856
539.185	11472
539.252	15039
539.318	21908
539.385	18345
539.451	15158
539.517	13972
539.583	17346
539.650	36799
539.716	93728
539.782	31699
539.849	12544
539.915	13167
539.981	13297
540.047	16228
540.114	15055
540.180	15493
540.246	12796
540.312	18638
540.378	39411
540.444	39847
540.510	33601
540.576	101138
540.643	36620
540.709	12169
540.775	12387
540.841	12664
540.907	20700
540.973	37715
541.039	25216
541.105	26144
541.171	14701
541.237	11996
541.303	14346
541.369	15590
541.435	18551
541.500	35281
541.566	21991
541.632	12459
541.698	10137
541.764	11526
541.830	11803
541.896	12080
541.961	11460
542.027	11754
542.093	11890
542.159	13325
542.224	13378
542.290	21031
542.356	33792
542.421	42981
542.487	18837
542.553	14773
542.618	18305
542.684	15411
542.750	13185
542.815	16664
542.881	27754
542.947	87746
543.012	66880
543.078	14277
543.143	11761
543.209	14054
543.274	13461
543.340	15508
543.405	32329
543.471	51920
543.536	15723
543.602	12740
543.667	11873
543.732	11502
543.798	10456
543.863	13264
543.928	10207
543.994	9726
544.059	11191
544.124	11167
544.190	10683
544.255	12216
544.320	12558
544.386	12636
544.451	17893
544.516	21716
544.581	19356
544.646	54355
544.712	88249
544.777	22954
544.842	17548
544.907	20592
544.972	15966
545.037	15170
545.102	16698
545.168	17300
545.233	17695
545.298	19552
545.363	22328
545.428	23885
545.493	34904
545.558	74777
545.623	34826
545.688	17876
545.753	16638
545.818	16908
545.883	17506
545.947	15835
546.012	19847
546.077	20959
546.142	17814
546.207	16679
546.272	22062
546.337	23812
546.401	18387
546.466	18067
546.531	15293
546.596	19187
546.661	18346
546.725	17825
546.790	15101
546.855	16371
546.919	15489
546.984	17330
547.049	19068
547.113	25327
547.178	21064
547.243	23239
547.307	24403
547.372	31144
547.436	36250
547.501	24218
547.565	24070
547.630	28151
547.695	29336
547.759	38145
547.823	30401
547.888	22580
547.952	22204
548.017	23899
548.081	29290
548.146	43505
548.210	34309
548.274	23232
548.339	21959
548.403	22374
548.468	19374
548.532	19349
548.596	21413
548.660	21632
548.725	23847
548.789	31625
548.853	33442
548.917	25830
548.982	38999
549.046	41756
549.110	22479
549.174	22022
549.238	20927
549.303	20225
549.367	22496
549.431	21911
549.495	20981
549.559	21124
549.623	22405
549.687	26249
549.751	33217
549.815	29344
549.879	27919
549.943	24855
550.007	27742
550.071	28451
550.135	31189
550.199	26789
550.263	24655
550.327	29318
550.391	42911
550.455	30465
550.519	26404
550.582	28560
550.646	33490
550.710	38027
550.774	30489
550.838	31161
550.901	32589
550.965	34747
551.029	35431
551.093	41115
551.156	53774
551.220	108980
551.284	120209
551.347	60295
551.411	122825
551.475	138785
551.538	38931
551.602	29848
551.666	27973
551.729	24760
551.793	26293
551.856	27329
551.920	26471
551.983	26514
552.047	24440
552.110	24236
552.174	24764
552.237	25358
552.301	23763
552.364	23597
552.428	23101
552.491	24501
552.554	25996
552.618	26586
552.681	29359
552.745	34386
552.808	56310
552.871	80825
552.934	42885
552.998	30230
553.061	30247
553.124	27750
553.187	25786
553.251	28703
553.314	30648
553.377	30172
553.440	41234
553.503	110210
553.567	188103
553.630	45741
553.693	26660
553.756	25690
553.819	22642
553.882	22765
553.945	21806
554.008	21974
554.071	21143
554.134	21885
554.197	20335
554.260	20333
554.323	22558
554.386	22829
554.449	22455
554.512	22122
554.575	20787
554.638	22891
554.701	22037
554.764	20205
554.827	21698
554.889	19633
554.952	17360
555.015	18734
555.078	18771
555.141	19458
555.203	18194
555.266	18702
555.329	21177
555.391	18249
555.454	19705
555.517	21090
555.580	17798
555.642	17439
555.705	17362
555.768	18547
555.830	18773
555.893	17575
555.955	16351
556.018	17479
556.080	17156
556.143	16589
556.206	16900
556.268	19773
556.330	19656
556.393	18881
556.455	18411
556.518	34053
556.580	32965
556.643	18076
556.705	15596
556.767	15672
556.830	17590
556.892	19198
556.955	27354
557.017	21123
557.079	16385
557.142	16300
557.204	18341
557.266	35810
557.328	29987
557.391	16217
557.453	14436
557.515	15055
557.577	18494
557.639	20296
557.701	16010
557.764	14540
557.826	15331
557.888	18064
557.950	17449
558.012	17412
558.074	20532
558.136	40310
558.198	94839
558.260	40659
558.322	21907
558.384	22502
558.446	24684
558.508	29555
558.570	36871
558.632	54262
558.694	76796
558.756	70383
558.818	206159
558.880	547821
558.942	164772
559.003	103873
559.065	55548
559.127	27745
559.189	26748
559.251	28881
559.312	38054
559.374	87874
559.436	308917
559.498	156832
559.559	30496
559.621	26732
559.683	29682
559.744	47638
559.806	143354
559.868	213735
559.929	47128
559.991	31487
560.052	38662
560.114	92419
560.176	62892
560.237	55682
560.299	92562
560.360	27389
560.422	17966
560.483	17704
560.545	16632
560.606	16560
560.667	15806
560.729	15397
560.790	15429
560.852	15427
560.913	14409
560.974	14868
561.036	14233
561.097	15989
561.158	15323
561.220	16428
561.281	14655
561.342	15884
561.403	18224
561.465	21708
561.526	47668
561.587	63037
561.648	20570
561.709	16040
561.771	15889
561.832	15653
561.893	14494
561.954	14313
562.015	13749
562.076	14352
562.137	14438
562.198	15092
562.259	13981
562.320	14928
562.381	14919
562.442	23025
562.503	18106
562.564	14772
562.625	13965
562.686	13858
562.747	15539
562.808	15058
562.869	15589
562.930	19624
562.991	18583
563.051	17805
563.112	15509
563.173	15806
563.234	14193
563.294	14295
563.355	14241
563.416	15989
563.477	14726
563.537	16158
563.598	17496
563.659	16185
563.720	15778
563.780	16833
563.841	16735
563.901	16806
563.962	14811
564.023	16519
564.083	16550
564.144	16586
564.204	16530
564.265	17806
564.325	21562
564.386	50479
564.446	46012
564.507	16748
564.567	14985
564.628	14071
564.688	14204
564.749	15339
564.809	19554
564.869	25560
564.930	16210
564.990	14536
565.050	13739
565.111	13580
565.171	13871
565.231	14511
565.292	13971
565.352	13589
565.412	14245
565.472	14888
565.532	14938
565.593	14521
565.653	13843
565.713	15808
565.773	15885
565.833	18393
565.893	22043
565.953	14646
566.013	15335
566.074	17751
566.134	22832
566.194	44511
566.254	43968
566.314	24909
566.374	16000
566.434	16229
566.494	15920
566.554	15449
566.614	15062
566.673	15705
566.733	16837
566.793	18878
566.853	17858
566.913	18635
566.973	17522
567.033	19509
567.092	19191
567.152	18525
567.212	17704
567.272	19820
567.331	21389
567.391	21403
567.451	22783
567.511	34349
567.570	34968
567.630	19926
567.690	18676
567.749	18564
567.809	19926
567.868	22106
567.928	23946
567.988	29344
568.047	29849
568.107	32933
568.166	43944
568.226	67253
568.285	97855
568.345	86276
568.404	64453
568.464	52902
568.523	44492
568.582	46122
568.642	51887
568.701	64530
568.761	96234
568.820	160199
568.879	165482
568.939	125074
568.998	80172
569.057	55123
569.116	41247
569.176	33651
569.235	28687
569.294	25323
569.353	22992
569.413	21348
569.472	20497
569.531	18031
569.590	16853
569.649	17619
569.708	14749
569.767	16744
569.827	20637
569.886	16800
569.945	14044
570.004	14961
570.063	13743
570.122	16833
570.181	16893
570.240	21067
570.299	20182
570.358	18000
570.417	14038
570.475	13958
570.534	14373
570.593	15309
570.652	14182
570.711	15242
570.770	14833
570.829	19176
570.887	16054
570.946	16551
571.005	13247
571.064	14052
571.122	17123
571.181	19406
571.240	14239
571.299	12567
571.357	15804
571.416	17746
571.475	19169
571.533	20769
571.592	13954
571.650	16786
571.709	12676
571.768	12199
571.826	12452
571.885	11702
571.943	11643
572.002	13018
572.060	15141
572.119	11493
572.177	10731
572.236	10347
572.294	10032
572.352	11411
572.411	11283
572.469	10916
572.528	10072
572.586	11215
572.644	12507
572.703	16444
572.761	12787
572.819	11496
572.877	10175
572.936	10508
572.994	9812
573.052	10166
573.110	11035
573.169	12151
573.227	10261
573.285	9971
573.343	10118
573.401	11257
573.459	11022
573.517	10429
573.576	10506
573.634	10435
573.692	11349
573.750	10385
573.808	10676
573.866	13499
573.924	18932
573.982	18401
574.040	12191
574.098	11510
574.155	9644
574.213	10102
574.271	9195
574.329	10384
574.387	8440
574.445	9342
574.503	8710
574.560	8515
574.618	8288
574.676	8041
574.734	8628
574.792	10296
574.849	8930
574.907	8348
574.965	9043
575.022	8758
575.080	8974
575.138	9943
575.195	10606
575.253	9774
575.311	11107
575.368	9185
575.426	8408
575.483	9556
575.541	8938
575.598	9773
575.656	9767
575.713	10420
575.771	9455
575.828	8402
575.886	9105
575.943	10928
576.001	10808
576.058	11453
576.115	12284
576.173	15549
576.230	18190
576.287	16533
576.345	13677
576.402	12261
576.459	11363
576.517	12455
576.574	13995
576.631	15858
576.688	11477
576.746	11068
576.803	11062
576.860	9990
576.917	10900
576.974	10663
577.031	10151
577.089	11670
577.146	10634
577.203	11464
577.260	12105
577.317	13815
577.374	16949
577.431	15222
577.488	11612
577.545	10516
577.602	11075
577.659	11338
577.716	11979
577.773	12957
577.830	10943
577.886	10924
577.943	10089
578.000	10306
578.057	12323
578.114	13032
578.171	13783
578.227	17478
578.284	17190
578.341	15277
578.398	12552
578.454	13284
578.511	15742
578.568	19318
578.625	13904
578.681	11180
578.738	9536
578.794	10896
578.851	9166
578.908	10057
578.964	10318
579.021	10609
579.077	9808
579.134	10174
579.190	8945
579.247	9466
579.303	9398
579.360	9010
579.416	8708
579.473	8936
579.529	8377
579.586	10041
579.642	9951
579.698	10885
579.755	11646
579.811	10193
579.867	9637
579.924	10199
579.980	10951
580.036	13887
580.093	15727
580.149	23034
580.205	25861
580.261	20046
580.317	15558
580.374	16213
580.430	16915
580.486	16695
580.542	12237
580.598	10730
580.619	10929
580.654	11282
580.692	11097
580.710	11025
580.765	10906
580.767	10911
580.823	10915
580.838	10978
580.879	11207
580.911	10947
580.935	10755
580.984	8973
580.991	8741
581.047	10621
581.057	10736
581.103	11276
581.130	12036
581.159	12846
581.203	12917
581.215	12944
581.270	14693
581.276	14400
581.326	11669
581.349	11581
581.382	11491
581.422	11046
581.438	10837
581.494	10994
581.494	10982
581.550	10466
581.567	10882
581.606	11700
581.640	10581
581.661	9921
581.713	11037
581.717	11132
581.773	10723
581.786	10781
581.829	10976
581.859	10898
581.885	10867
581.932	10604
581.940	10550
581.996	10647
582.004	10663
582.052	10779
582.077	10460
582.107	10081
582.150	10953
582.163	11249
582.219	10519
582.223	10601
582.274	11549
582.296	11757
582.330	12103
582.368	12171
582.386	12184
582.441	10852
582.441	10852
582.497	11183
582.514	11022
582.552	10892
582.587	12186
582.608	12823
582.659	11675
582.663	11588
582.719	11389
582.732	11280
582.774	11145
582.805	11543
582.830	11754
582.877	11128
582.885	11069
582.941	11636
582.950	11664
582.996	11616
583.023	12388
583.052	13428
583.095	13966
583.107	14165
583.162	17562
583.168	17713
583.218	18484
583.240	17714
583.273	16371
583.313	14115
583.328	13345
583.384	12738
583.385	12740
583.439	12574
583.458	12198
583.494	11619
583.531	10892
583.549	10675
583.603	11101
583.605	11099
583.660	11143
583.676	11104
583.715	11268
583.748	11930
583.770	12376
583.820	12704
583.825	12698
583.881	11328
583.893	11324
583.936	11726
583.965	11938
583.991	11939
584.038	12419
584.046	12550
584.101	12604
584.110	12641
584.156	12534
584.183	12192
584.211	11860
584.255	12256
584.266	12363
584.321	10852
584.328	10961
584.376	12281
584.400	12593
584.431	12621
584.472	12240
584.486	12157
584.541	11569
584.545	11589
584.596	12207
584.617	12356
584.651	12856
584.689	14183
584.706	14564
584.761	14329
584.762	14317
584.816	13290
584.834	13374
584.871	13594
584.906	14415
584.926	14849
584.978	13950
584.980	13927
585.035	15683
585.051	15653
585.090	15572
585.123	16487
585.145	17113
585.195	17036
585.200	17119
585.254	19568
585.267	20410
585.309	23415
585.340	26867
585.364	28711
585.412	24658
585.419	24009
585.473	22934
585.484	22857
585.528	24470
585.556	27702
585.583	33486
585.628	46320
585.637	51134
585.692	95425
585.700	103818
585.747	135159
585.772	114593
585.801	73949
585.845	32253
585.856	27030
585.910	21528
585.917	20904
585.965	20017
585.989	19931
586.019	19798
586.061	19277
586.074	19165
586.128	19515
586.133	19570
586.183	20894
586.205	21532
586.237	22023
586.277	21407
586.292	21258
586.346	22065
586.349	22024
586.401	21536
586.421	22076
586.455	23569
586.493	25687
586.509	27941
586.564	38083
586.565	38514
586.618	62115
586.637	63041
586.672	50667
586.709	33793
586.727	28190
586.781	24503
586.781	24517
586.835	23032
586.853	23139
586.889	23384
586.925	23128
586.944	23134
586.996	23690
586.998	23726
587.052	23956
587.068	24139
587.106	24806
587.140	25304
587.161	25750
587.212	26500
587.215	26556
587.269	27558
587.284	27616
587.323	27555
587.356	28207
587.377	28967
587.427	29997
587.431	30105
587.485	31324
587.499	31577
587.539	32559
587.571	33364
587.593	34207
587.643	36790
587.648	37100
587.702	39317
587.715	39929
587.755	41486
587.786	42386
587.810	43234
587.858	45474
587.864	46011
587.917	50700
587.930	51968
587.971	56862
588.001	60106
588.025	62527
588.073	66965
588.079	67807
588.133	75523
588.145	77367
588.187	85563
588.217	91352
588.241	97860
588.288	112165
588.295	114513
588.348	133692
588.360	138206
588.402	157604
588.431	171074
588.456	185034
588.503	214690
588.510	219951
588.564	264074
588.575	273922
588.617	324545
588.646	362231
588.671	412441
588.718	520100
588.725	549392
588.778	798341
588.789	858141
588.832	1277244
588.861	1598168
588.886	1909923
588.932	2506882
588.939	2525264
588.993	2406764
589.004	2381834
589.047	2084207
589.075	1783285
589.100	1435234
589.147	853204
589.154	814983
589.207	587251
589.218	545576
589.261	501146
589.290	479754
589.314	500286
589.361	554057
589.368	581212
589.421	830462
589.433	892084
589.475	1358930
589.504	1723790
589.528	1950730
589.576	2286056
589.582	2248498
589.635	1750444
589.647	1618776
589.689	1012666
589.718	632753
589.742	510003
589.790	306920
589.795	297674
589.849	223306
589.861	207797
589.902	182855
589.932	162806
589.955	146737
590.004	113174
590.009	111599
590.062	96718
590.075	93131
590.115	85503
590.146	79565
590.168	76774
590.218	70411
590.222	70134
590.275	65726
590.289	64446
590.328	62380
590.360	60346
590.381	58497
590.431	54166
590.435	54058
590.488	50811
590.503	49907
590.541	48563
590.574	47012
590.594	46301
590.645	44636
590.647	44663
590.700	42996
590.716	42539
590.753	41802
590.787	40841
590.806	40410
590.859	39104
590.859	39160
590.912	37905
590.930	37519
590.965	37464
591.001	37070
591.018	36841
591.071	36335
591.072	36256
591.124	35517
591.143	35196
591.177	35154
591.214	34936
591.230	34860
591.283	34461
591.285	34371
591.336	34896
591.356	35100
591.389	34927
591.427	34331
591.442	33820
591.495	31793
591.498	31575
591.547	31536
591.569	31461
591.600	31086
591.640	30427
591.653	30684
591.706	31680
591.711	31708
591.759	33524
591.782	34442
591.811	35685
591.853	37236
591.864	36481
591.917	31948
591.924	31259
591.969	31663
591.995	31825
592.022	31722
592.066	31331
592.075	31979
592.127	35663
592.137	36310
592.180	40094
592.208	42242
592.233	38965
592.279	32384
592.285	32245
592.338	30737
592.350	30320
592.390	29777
592.421	29276
592.443	29380
592.491	29404
592.495	29489
592.548	29759
592.562	29767
592.600	29648
592.633	29427
592.653	29388
592.704	28966
592.705	29146
592.775	29894
592.846	29574
592.916	29362
592.987	30634
593.058	29775
593.128	28615
593.199	27764
593.270	27466
593.341	26935
593.411	27732
593.482	27046
593.553	27735
593.623	26596
593.694	28127
593.764	31505
593.835	27790
593.906	27949
593.976	27918
594.047	28357
594.117	34727
594.188	33703
594.258	27696
594.329	26072
594.399	27216
594.470	26399
594.540	26410
594.611	26436
594.681	26831
594.751	29127
594.822	29573
594.892	30715
594.963	30398
595.033	29729
595.103	31008
595.174	32575
595.244	45639
595.314	57703
595.384	32120
595.455	30161
595.525	30599
595.595	31268
595.665	30896
595.736	29952
595.806	29501
595.876	30108
595.946	29131
596.016	29086
596.087	31320
596.157	31247
596.227	31120
596.297	31718
596.367	34501
596.437	37985
596.507	48171
596.577	56917
596.647	35463
596.717	34360
596.787	32950
596.857	32838
596.927	34127
596.997	33937
597.067	34822
597.137	37881
597.207	36691
597.277	34634
597.347	33957
597.417	33173
597.487	34623
597.557	34740
597.626	35260
597.696	37837
597.766	43398
597.836	54519
597.906	37396
597.975	32010
598.045	31919
598.115	32075
598.185	33456
598.254	36892
598.324	37483
598.394	36790
598.464	37575
598.533	36364
598.603	34528
598.672	34507
598.742	35270
598.812	34861
598.881	35456
598.951	35727
599.020	35813
599.090	34690
599.159	37033
599.229	35499
599.299	34238
599.368	35096
599.437	34093
599.507	33803
599.576	36182
599.646	35636
599.715	37352
599.785	33308
599.854	35756
599.924	38397
599.993	36027
600.062	34270
600.132	33722
600.201	34381
600.270	39510
600.340	38494
600.409	37697
600.478	36876
600.547	37806
600.617	36697
600.686	33990
600.755	31803
600.824	32648
600.894	31096
600.963	30846
601.032	30866
601.101	30412
601.170	29874
601.239	30113
601.308	30325
601.378	31458
601.447	30278
601.516	30299
601.585	30975
601.654	31657
601.723	31445
601.792	31944
601.861	33829
601.930	38732
601.999	36253
602.068	32386
602.137	32903
602.206	33150
602.275	34112
602.343	35851
602.412	36565
602.481	34085
602.550	32975
602.619	33758
602.688	34911
602.756	34285
602.825	33880
602.894	33972
602.963	34724
603.032	36456
603.100	34310
603.169	34725
603.238	35751
603.307	35075
603.375	34449
603.444	35397
603.513	34934
603.581	34887
603.650	36938
603.719	33103
603.787	34411
603.856	35344
603.924	35142
603.993	35941
604.061	35797
604.130	36105
604.198	36733
604.267	38088
604.335	37763
604.404	37623
604.472	39184
604.541	38258
604.609	37989
604.678	38649
604.746	40022
604.815	41173
604.883	41087
604.951	39912
605.020	40214
605.088	40566
605.156	40894
605.225	40985
605.293	39779
605.361	40316
605.429	39974
605.498	41294
605.566	41502
605.634	43565
605.702	44865
605.771	44743
605.839	46089
605.907	43706
605.975	42747
606.043	41907
606.111	42391
606.180	44553
606.248	45991
606.316	47714
606.384	45159
606.452	46274
606.520	44208
606.588	40629
606.656	39297
606.724	38923
606.792	36390
606.860	34794
606.928	31928
606.996	31479
607.064	29735
607.132	30621
607.200	33084
607.267	33263
607.335	33071
607.403	34709
607.471	32261
607.539	32090
607.607	33338
607.674	30572
607.742	31649
607.810	30805
607.878	30137
607.946	29911
608.013	31919
608.081	33808
608.149	32772
608.216	31811
608.284	33866
608.352	32955
608.419	33890
608.487	44513
608.555	36096
608.622	33443
608.690	33094
608.757	36410
608.825	37103
608.893	37657
608.960	39461
609.028	41981
609.095	46850
609.163	35709
609.230	31226
609.298	31273
609.365	29324
609.432	31348
609.500	33833
609.567	37951
609.635	41514
609.702	41782
609.769	41859
609.837	39409
609.904	33146
609.971	33167
610.039	40720
610.106	51671
610.173	97520
610.241	226500
610.308	179299
610.375	91437
610.442	40832
610.509	33020
610.577	32632
610.644	32356
610.711	32746
610.778	33555
610.845	33428
610.912	36420
610.980	39765
611.047	47509
611.114	41125
611.181	35965
611.248	34003
611.315	36787
611.382	36575
611.449	36924
611.516	38216
611.583	38695
611.650	38990
611.717	39598
611.784	40517
611.851	43533
611.918	48335
611.984	58781
612.051	86836
612.118	185214
612.185	472943
612.252	273339
612.319	60269
612.386	49014
612.452	45533
612.519	46257
612.586	54906
612.653	47666
612.719	42413
612.786	41392
612.853	38749
612.919	37457
612.986	39076
613.053	35746
613.120	34563
613.186	32774
613.253	35261
613.319	34217
613.386	33942
613.453	35698
613.519	36940
613.586	39957
613.652	47077
613.719	43151
613.785	41106
613.852	36917
613.918	36901
613.985	42520
614.051	57825
614.118	108627
614.184	101693
614.250	39430
614.317	36104
614.383	34316
614.449	34619
614.516	34769
614.582	36341
614.648	34768
614.715	33826
614.781	34172
614.847	34827
614.914	36257
614.980	35460
615.046	33833
615.112	33528
615.179	35255
615.245	35978
615.311	40852
615.377	54123
615.443	55694
615.509	41487
615.575	39178
615.642	37744
615.708	41675
615.774	44292
615.840	50159
615.906	60818
615.972	85589
616.038	148826
616.104	277061
616.170	636326
616.236	506907
616.302	97628
616.368	66763
616.434	50261
616.500	48702
616.565	51800
616.631	62401
616.697	51142
616.763	53508
616.829	75733
616.895	129270
616.961	120110
617.026	54945
617.092	39665
617.158	38912
617.224	36991
617.289	35753
617.355	35666
617.421	36661
617.487	36584
617.552	35025
617.618	32710
617.684	32345
617.749	35182
617.815	32281
617.880	30711
617.946	32162
618.012	32194
618.077	32346
618.143	31765
618.208	32922
618.274	34029
618.339	34322
618.405	30081
618.470	31022
618.536	32388
618.601	33620
618.667	32065
618.732	29838
618.798	28701
618.863	29008
618.928	27904
618.994	31487
619.059	32300
619.124	38441
619.190	32892
619.255	29379
619.320	30165
619.386	29954
619.451	28254
619.516	28255
619.581	28568
619.647	29666
619.712	28554
619.777	27879
619.842	28950
619.907	29169
619.972	28541
620.038	29921
620.103	28174
620.168	27318
620.233	28324
620.298	28101
620.363	28403
620.428	28062
620.493	29275
620.558	29319
620.623	28772
620.688	28111
620.753	28049
620.818	28614
620.883	28590
620.948	27848
621.013	28215
621.078	29540
621.143	28708
621.207	32393
621.272	31161
621.337	33177
621.402	34095
621.467	41609
621.532	42674
621.596	36657
621.661	32850
621.726	31109
621.791	31230
621.855	32176
621.920	34277
621.985	36542
622.049	40697
622.114	38340
622.179	34869
622.243	36196
622.308	34736
622.373	36635
622.437	35458
622.502	33266
622.566	33997
622.631	33520
622.695	33474
622.760	34041
622.824	34007
622.889	34228
622.953	34160
623.018	44010
623.082	41654
623.147	34609
623.211	33416
623.276	33664
623.340	30831
623.404	31020
623.469	30806
623.533	31815
623.597	30774
623.662	31081
623.726	28961
623.790	28288
623.854	29653
623.919	29098
623.983	28341
624.047	29308
624.111	28923
624.176	30146
624.240	32490
624.304	33904
624.368	29222
624.432	29617
624.496	31065
624.560	32341
624.625	33281
624.689	30090
624.753	30199
624.817	28610
624.881	29305
624.945	27322
625.009	25755
625.073	27619
625.137	29757
625.201	33752
625.265	33445
625.329	29653
625.393	29582
625.456	29505
625.520	31528
625.584	35819
625.648	41685
625.712	61581
625.776	129345
625.839	145719
625.903	58042
625.967	34795
626.031	54751
626.095	83247
626.158	34423
626.222	23549
626.286	23336
626.349	22801
626.413	21874
626.477	24514
626.540	21478
626.604	21767
626.668	22967
626.731	21242
626.795	22957
626.858	23296
626.922	21830
626.986	21907
627.049	19749
627.113	22079
627.176	20663
627.240	21216
627.303	21114
627.366	20554
627.430	21243
627.493	21693
627.557	22201
627.620	22576
627.684	21582
627.747	22118
627.810	20294
627.874	19594
627.937	19196
628.000	21929
628.064	20624
628.127	17478
628.190	19333
628.253	19859
628.317	18371
628.380	19068
628.443	18624
628.506	18377
628.569	17123
628.632	17037
628.696	17552
628.759	17117
628.822	16890
628.885	16227
628.948	16830
629.011	16961
629.074	16178
629.137	15827
629.200	16127
629.263	17694
629.326	15243
629.389	15285
629.452	16187
629.515	16380
629.578	15965
629.641	18009
629.704	16386
629.767	17003
629.830	16000
629.892	15520
629.955	14528
630.018	17335
630.081	16164
630.144	19888
630.207	15534
630.269	17959
630.332	18246
630.395	17173
630.458	13916
630.520	14073
630.583	15041
630.646	15604
630.708	14785
630.771	14732
630.834	15462
630.896	13849
630.959	13195
631.021	13774
631.084	14207
631.146	16502
631.209	18540
631.272	14288
631.334	14418
631.397	13831
631.459	12933
631.522	13982
631.584	14006
631.646	14839
631.709	14777
631.771	18531
631.834	15492
631.896	14391
631.958	12065
632.021	14586
632.083	13037
632.145	13893
632.208	13653
632.270	13738
632.332	13102
632.395	12904
632.457	13831
632.519	12827
632.581	13889
632.643	11689
632.706	12977
632.768	11891
632.830	12878
632.892	12406
632.954	12688
633.016	14036
633.078	11874
633.141	11397
633.203	11822
633.265	13384
633.327	12265
633.389	12072
633.451	14207
633.513	15830
633.575	16812
633.637	15065
633.698	13972
633.760	13099
633.822	11966
633.884	12821
633.946	13072
634.008	13402
634.070	14385
634.132	16390
634.193	14452
634.255	14347
634.317	13986
634.379	14106
634.441	13257
634.502	12399
634.564	13365
634.626	12032
634.687	12451
634.749	12774
634.811	11962
634.873	9815
634.934	11535
634.996	12292
635.057	10891
635.119	11111
635.181	11948
635.242	12881
635.304	9916
635.365	12938
635.427	11095
635.488	11202
635.550	10693
635.611	11782
635.673	9663
635.734	13222
635.796	12199
635.857	14533
635.918	12130
635.980	14643
636.041	12531
636.102	14055
636.164	12999
636.225	15278
636.286	11500
636.348	12782
636.409	11533
636.470	11082
636.531	11207
636.593	12854
636.654	12770
636.715	10422
636.776	10145
636.838	9012
636.899	10370
636.960	9983
637.021	9854
637.082	10401
637.143	10180
637.204	9408
637.265	9867
637.326	9282
637.387	10513
637.448	9005
637.509	9667
637.570	10097
637.631	9950
637.692	9127
637.753	8060
637.814	9684
637.875	8486
637.936	10377
637.997	8959
638.058	10189
638.119	11136
638.179	9754
638.240	8931
638.301	9350
638.362	9311
638.423	9503
638.483	9834
638.544	8092
638.605	9747
638.666	7740
638.726	9642
638.787	9206
638.848	8714
638.908	8700
638.969	8342
639.030	8324
639.090	7864
639.151	7876
639.211	9690
639.272	11119
639.332	15976
639.393	11017
639.453	8186
639.514	9151
639.574	9157
639.635	8392
639.695	8214
639.756	7188
639.816	9093
639.877	9977
639.937	14461
639.997	17442
640.058	8623
640.118	7929
640.178	8817
640.239	7860
640.299	8657
640.359	8104
640.420	8365
640.480	8696
640.540	8285
640.600	8943
640.661	9515
640.721	9087
640.781	11824
640.841	8387
640.901	9485
640.961	9180
641.021	8842
641.082	8385
641.142	12056
641.202	10011
641.262	6766
641.322	8197
641.382	6231
641.442	8022
641.502	8092
641.562	8111
641.622	7419
641.682	7775
641.742	7880
641.802	8615
641.861	8004
641.921	9200
641.981	9794
642.041	9566
642.101	10358
642.161	7482
642.221	7203
642.280	7970
642.340	7742
642.400	6986
642.460	8383
642.519	7765
642.579	7328
642.639	8761
642.698	5139
642.758	9618
642.818	7876
642.877	6724
642.937	7502
642.997	8425
643.056	11432
643.116	7560
643.175	8612
643.235	7274
643.294	7680
643.354	8334
643.414	9265
643.473	10902
643.532	12228
643.592	17196
643.651	25907
643.711	44107
643.770	83164
643.830	196089
643.889	431605
643.948	96796
644.008	16931
644.067	12098
644.126	9066
644.186	8723
644.245	8357
644.304	6465
644.363	9557
644.423	6590
644.482	7482
644.541	7454
644.600	5945
644.659	10146
644.719	9680
644.778	13328
644.837	18595
644.896	35065
644.955	78876
645.014	29187
645.073	11437
645.132	8582
645.191	9309
645.250	8022
645.309	8477
645.368	8329
645.427	10175
645.486	11300
645.545	17958
645.604	8245
645.663	7897
645.722	8221
645.781	8022
645.840	9009
645.898	12426
645.957	16502
646.016	20871
646.075	37935
646.134	69486
646.192	184287
646.251	281601
646.310	39280
646.369	11809
646.427	9790
646.486	7677
646.545	7633
646.603	7178
646.662	7216
646.721	7230
646.779	6385
646.838	6048
646.896	7498
646.955	9712
647.014	13359
647.072	18834
647.131	48642
647.189	25062
647.248	5940
647.306	6413
647.365	6755
647.423	4283
647.481	7606
647.540	5213
647.598	5896
647.657	5251
647.715	6607
647.773	5442
647.832	7672
647.890	4945
647.948	5589
648.007	6282
648.065	4639
648.123	5569
648.181	8248
648.240	8540
648.298	7221
648.356	6621
648.414	6684
648.472	6586
648.531	6412
648.589	5948
648.647	5503
648.705	5788
648.763	6071
648.821	6527
648.879	6095
648.937	6738
648.995	7514
649.053	8071
649.111	12629
649.169	17615
649.227	27661
649.285	52059
649.343	149230
649.401	76189
649.459	24390
649.516	19948
649.574	17702
649.632	39432
649.690	46476
649.748	16764
649.806	15977
649.863	26883
649.921	37275
649.979	24043
650.037	7171
650.094	4965
650.152	6047
650.210	5130
650.268	6531
650.325	5903
650.383	6617
650.440	3988
650.498	5402
650.556	5629
650.613	5625
650.671	5835
650.728	4945
650.786	6519
650.843	5847
650.901	4175
650.958	5200
651.016	5393
651.073	5203
651.131	3852
651.188	4427
651.246	5467
651.303	4536
651.360	4767
651.418	4590
651.475	4896
651.532	3642
651.590	4933
651.647	4439
651.704	4444
651.762	4479
651.819	5521
651.876	4683
651.933	4266
651.990	5320
652.048	3563
652.105	4428
652.162	4457
652.219	3735
652.276	4097
652.333	5164
652.390	3891
652.448	5050
652.505	5683
652.562	5628
652.619	6167
652.676	8521
652.733	9955
652.790	4775
652.847	3282
652.904	4393
652.961	3045
653.017	3182
653.074	4291
653.131	4375
653.188	3148
653.245	4021
653.302	4133
653.359	4056
653.415	4686
653.472	3432
653.529	4694
653.586	3811
653.642	4109
653.699	4973
653.756	3558
653.813	3521
653.869	3630
653.926	3224
653.983	3422
654.039	4088
654.096	4190
654.152	4992
654.209	3021
654.266	4422
654.322	4211
654.379	5622
654.435	6331
654.492	5064
654.548	7335
654.605	11426
654.661	7798
654.717	4231
654.774	5053
654.830	4776
654.887	4524
654.943	5497
655.000	5560
655.056	4924
655.112	5302
655.168	5134
655.225	5330
655.281	5860
655.337	7677
655.394	13390
655.450	9248
655.506	7970
655.562	12850
655.618	11173
655.675	3710
655.731	4879
655.787	4634
655.843	5019
655.899	4469
655.955	6120
656.011	5474
656.067	4241
656.123	5126
656.179	6248
656.235	7854
656.291	4348
656.347	6724
656.403	5238
656.459	5709
656.515	6724
656.571	6134
656.627	6012
656.683	5057
656.739	5287
656.795	4433
656.850	5863
656.906	5823
656.962	6075
657.018	3784
657.074	4953
657.129	4939
657.185	6176
657.241	6780
657.297	5976
657.352	4741
657.408	3864
657.464	5668
657.519	5426
657.575	3005
657.630	3976
657.686	4506
657.742	3394
657.797	4133
657.853	4153
657.908	5442
657.964	3563
658.019	4262
658.075	4598
658.130	4861
658.186	3264
658.241	3964
658.297	2444
658.352	3897
658.407	5006
658.463	2904
658.518	4545
658.573	4174
658.629	3458
658.684	3493
658.739	3947
658.795	2800
658.850	4810
658.905	3639
658.960	4071
659.016	3150
659.071	3185
659.126	4313
659.181	3796
659.236	7182
659.291	7918
659.346	5961
659.401	4894
659.457	5811
659.512	7529
659.567	6408
659.622	4198
659.677	3161
659.732	3238
659.787	4513
659.842	5052
659.897	6675
659.952	4759
660.007	3839
660.061	4507
660.116	3625
660.171	3445
660.226	4285
660.281	4002
660.336	3049
660.391	4390
660.445	3424
660.500	3813
660.555	3912
660.610	3964
660.664	3800
660.719	3152
660.774	4733
660.828	5121
660.883	3129
660.938	4160
660.992	2812
661.047	4743
661.101	3516
661.156	3368
661.211	2638
661.265	4118
661.320	3751
661.374	3306
661.429	3171
661.483	4831
661.538	3559
661.592	4559
661.647	4221
661.701	5388
661.755	3779
661.810	4790
661.864	3850
661.919	3210
661.973	4856
662.027	3609
662.081	3254
662.136	3949
662.190	4644
662.244	4922
662.299	3385
662.353	4984
662.407	3708
662.461	4388
662.515	4316
662.569	4094
662.624	4732
662.678	3984
662.732	3662
662.786	3898
662.840	4955
662.894	4287
662.948	4407
663.002	3557
663.056	3483
663.110	3615
663.164	3561
663.218	3687
663.272	3869
663.326	3997
663.380	4324
663.434	4486
663.488	2985
663.542	4254
663.595	4931
663.649	3771
663.703	5213
663.757	4686
663.811	3587
663.864	3070
663.918	4123
663.972	3082
664.026	4294
664.079	3499
664.133	3962
664.187	4494
664.240	3859
664.294	4044
664.348	4419
664.401	4188
664.455	3559
664.508	3608
664.562	3728
664.615	4457
664.669	4025
664.722	3930
664.776	4156
664.829	5078
664.883	3472
664.936	3167
664.990	4323
665.043	4725
665.097	3966
665.150	6103
665.203	5181
665.257	4940
665.310	4849
665.363	5108
665.417	4957
665.470	5038
665.523	5136
665.576	4239
665.630	4598
665.683	4019
665.736	4209
665.789	4890
665.842	4074
665.895	4704
665.949	4794
666.002	4811
666.055	5003
666.108	5591
666.161	3942
666.214	5045
666.267	4872
666.320	4856
666.373	5363
666.426	4510
666.479	4839
666.532	5247
666.585	5974
666.638	6505
666.691	5509
666.744	6554
666.796	6493
666.849	5411
666.902	4861
666.955	4916
667.008	4062
667.060	4573
667.113	3575
667.166	4009
667.219	4760
667.271	4553
667.324	3700
667.377	5100
667.430	3766
667.482	6098
667.535	5095
667.587	6060
667.640	5042
667.693	5238
667.745	6719
667.798	7080
667.850	5649
667.903	4434
667.955	4385
668.008	4508
668.060	5446
668.113	5727
668.165	5572
668.218	5548
668.270	5576
668.322	5321
668.375	4114
668.427	4888
668.479	4946
668.532	5588
668.584	5734
668.636	4644
668.689	5742
668.741	4254
668.793	5019
668.845	5101
668.898	5206
668.950	4792
669.002	5944
669.054	4331
669.106	4962
669.158	5649
669.211	5255
669.263	5482
669.315	6549
669.367	7100
669.419	5864
669.471	7069
669.523	7243
669.575	8686
669.627	7558
669.679	6604
669.731	5919
669.783	6330
669.835	7177
669.886	6540
669.938	6818
669.990	6069
670.042	5199
670.094	6483
670.146	6668
670.197	7103
670.249	9093
670.301	12397
670.353	16701
670.404	23372
670.456	33801
670.508	50293
670.560	78405
670.611	126904
670.663	212580
670.715	490770
670.766	824548
670.818	295087
670.869	48764
670.921	23726
670.972	16528
671.024	13215
671.075	10687
671.127	8932
671.178	8252
671.230	8161
671.281	7676
671.333	7046
671.384	7511
671.436	7711
671.487	7385
671.538	8815
671.590	8773
671.641	11268
671.692	15826
671.744	26655
671.795	19742
671.846	9261
671.897	6567
671.949	6011
672.000	5647
672.051	5698
672.102	6558
672.153	5549
672.204	5728
672.256	5994
672.307	6456
672.358	6038
672.409	5123
672.460	5176
672.511	4397
672.562	4817
672.613	4660
672.664	5454
672.715	5221
672.766	5635
672.817	5914
672.868	4684
672.919	5049
672.970	5173
673.021	5201
673.071	4507
673.122	5351
673.173	4801
673.224	4256
673.275	5208
673.326	4577
673.376	5288
673.427	4062
673.478	4212
673.528	4756
673.579	4490
673.630	4256
673.680	5568
673.731	4043
673.782	4735
673.832	4937
673.883	6013
673.934	4635
673.984	3723
674.035	4521
674.085	4807
674.136	4798
674.186	5172
674.237	5925
674.287	9722
674.338	6052
674.388	4383
674.438	5097
674.489	5042
674.539	5707
674.589	4395
674.640	5825
674.690	5222
674.740	4533
674.791	6114
674.841	5304
674.891	5567
674.942	4820
674.992	4644
675.042	3697
675.092	4300
675.142	3511
675.193	4320
675.243	3608
675.293	4699
675.343	4037
675.393	4978
675.443	4671
675.493	4022
675.543	4576
675.593	5450
675.643	4515
675.693	4140
675.743	4014
675.793	4255
675.843	4231
675.893	4517
675.943	4189
675.993	4292
676.043	3609
676.093	3626
676.142	4111
676.192	4652
676.242	3914
676.292	4055
676.341	4535
676.391	4888
676.441	3324
676.491	3944
676.540	3581
676.590	3943
676.640	3717
676.689	3647
676.739	3138
676.789	4026
676.838	3523
676.888	3882
676.937	4260
676.987	3145
677.037	3761
677.086	3281
677.136	3619
677.185	4225
677.235	3810
677.284	3967
677.333	3035
677.383	3538
677.432	2610
677.482	3428
677.531	4052
677.580	3889
677.630	3042
677.679	3299
677.728	3462
677.778	3752
677.827	3312
677.876	3279
677.925	2987
677.975	4034
678.024	4039
678.073	3578
678.122	3604
678.171	3701
678.220	4293
678.269	4858
678.319	4888
678.368	4912
678.417	3519
678.466	4996
678.515	4318
678.564	4029
678.613	3867
678.662	3959
678.711	3871
678.760	4315
678.809	3270
678.857	4108
678.906	3644
678.955	3617
679.004	5306
679.053	3692
679.102	3453
679.151	4269
679.199	3877
679.248	3076
679.297	3386
679.346	4080
679.394	3666
679.443	4297
679.492	3764
679.540	4476
679.589	3569
679.638	3824
679.686	3538
679.735	3633
679.784	3237
679.832	4032
679.881	2662
679.929	3573
679.978	3098
680.026	3545
680.075	3629
680.123	2692
680.172	2967
680.220	3569
680.268	2986
680.317	3599
680.365	3834
680.414	2931
680.462	3543
680.510	3437
680.559	2753
680.607	3182
680.655	2397
680.703	2948
680.752	3235
680.800	3866
680.848	3144
680.896	3580
680.945	2718
680.993	3508
681.041	3471
681.089	3025
681.137	2817
681.185	3294
681.233	3277
681.258	3426
681.281	3549
681.329	2888
681.377	3409
681.380	3384
681.425	2580
681.473	3848
681.502	3856
681.521	3819
681.569	3384
681.617	3050
681.624	3112
681.665	3389
681.713	4023
681.745	3805
681.761	3674
681.809	2779
681.857	3423
681.867	3470
681.904	3553
681.952	4104
681.989	3396
682.000	3170
682.048	3780
682.096	3367
682.111	3275
682.143	3001
682.191	3319
682.233	4034
682.239	4120
682.286	4390
682.334	3001
682.354	3157
682.382	3343
682.430	3997
682.476	3428
682.477	3400
682.525	3424
682.572	3214
682.598	3256
682.620	3279
682.667	3505
682.715	3854
682.720	3923
682.763	4366
682.810	3964
682.841	3833
682.857	3744
682.905	3766
682.952	3999
682.963	4091
683.000	4400
683.047	4397
683.085	5207
683.095	5391
683.142	3723
683.190	3536
683.206	3762
683.237	4180
683.284	4322
683.328	3790
683.332	3725
683.379	4063
683.426	3879
683.449	3999
683.473	4102
683.521	4303
683.568	5083
683.571	5017
683.615	3999
683.662	3885
683.693	3631
683.709	3472
683.757	4564
683.804	4139
683.814	4275
683.851	4685
683.898	4393
683.936	4232
683.945	4190
683.992	3813
684.039	4685
684.057	4635
684.086	4527
684.133	4536
684.179	4174
684.180	4147
684.227	4393
684.274	5564
684.300	5270
684.321	5039
684.368	4218
684.415	4650
684.422	4618
684.462	4379
684.509	4354
684.543	4628
684.556	4700
684.603	4366
684.649	4315
684.665	4509
684.696	4975
684.743	4959
684.786	5034
684.790	5035
684.837	4438
684.883	5833
684.908	6112
684.930	6295
684.977	6185
685.023	5641
685.029	5582
685.070	4876
685.117	5797
685.150	5796
685.164	5909
685.210	5920
685.257	6582
685.272	6497
685.303	6030
685.350	6413
685.393	5497
685.396	5424
685.443	6435
685.490	6185
685.514	6433
685.536	6628
685.583	6640
685.629	6085
685.636	6054
685.675	5816
685.722	5527
685.757	5969
685.768	6107
685.815	6337
685.861	6319
685.878	6175
685.908	6109
685.954	6162
686.000	7111
686.000	7122
686.047	7585
686.093	8592
686.121	8665
686.139	8428
686.185	6928
686.232	6739
686.242	6760
686.278	6989
686.324	6289
686.363	6276
686.370	6289
686.416	6333
686.463	6802
686.484	6846
686.509	6863
686.555	6385
686.601	6092
686.606	6141
686.647	6510
686.693	6095
686.727	5976
686.739	5971
686.785	6299
686.831	6456
686.848	6392
686.877	6261
686.923	6182
686.969	6121
686.969	6120
687.015	6075
687.061	6348
687.090	6553
687.107	6647
687.153	7038
687.199	6907
687.211	6726
687.245	6282
687.291	6903
687.332	6982
687.336	6992
687.382	7460
687.428	7343
687.453	7284
687.474	7042
687.520	7069
687.565	6359
687.574	6339
687.611	6596
687.657	6613
687.695	6590
687.702	6611
687.748	7490
687.794	7863
687.816	7698
687.839	7254
687.885	6785
687.931	6468
687.937	6404
687.976	6497
688.022	7176
688.058	7199
688.067	7159
688.113	7138
688.158	6550
688.179	6562
688.204	6696
688.249	7273
688.295	7645
688.300	7657
688.340	7800
688.386	7927
688.421	7924
688.431	7818
688.477	6828
688.522	7157
688.542	7058
688.567	7197
688.613	7051
688.658	7842
688.663	7798
688.703	7320
688.749	7520
688.784	7289
688.794	7243
688.839	7743
688.884	7225
688.905	7167
688.930	7077
688.975	6897
689.020	7469
689.026	7416
689.065	7236
689.110	7421
689.146	7713
689.155	7747
689.201	7508
689.246	7155
689.267	7253
689.291	7523
689.336	7505
689.381	7435
689.388	7501
689.426	7647
689.471	7378
689.509	7150
689.516	7141
689.561	7088
689.606	7332
689.630	7493
689.651	7654
689.696	7539
689.741	7645
689.750	7639
689.785	7608
689.830	7565
689.871	7561
689.875	7564
689.920	7232
689.965	7358
689.992	7357
690.010	7428
690.054	6863
690.099	7597
690.112	7618
690.144	7616
690.189	7320
690.233	7175
690.233	7184
690.278	7010
690.323	7724
690.354	7570
690.367	7578
690.412	7890
690.457	7901
690.474	8084
690.501	8139
690.546	7935
690.590	7707
690.595	7649
690.635	7602
690.680	7797
690.716	8338
690.724	8565
690.769	9420
690.813	10451
690.836	10709
690.857	11434
690.902	13836
690.946	15068
690.957	15721
690.991	20288
691.035	27304
691.077	33884
691.080	33859
691.124	28739
691.168	22994
691.198	19879
691.213	18464
691.257	15528
691.301	11836
691.318	10674
691.346	10277
691.390	9303
691.434	8685
691.439	8555
691.478	8241
691.522	8227
691.559	8056
691.567	8072
691.611	8258
691.655	8402
691.680	8333
691.699	8307
691.743	8499
691.787	9009
691.800	8961
691.831	8990
691.875	9154
691.919	9606
691.921	9588
691.964	9343
692.008	9969
692.041	9746
692.052	9688
692.096	9562
692.139	9606
692.162	9787
692.183	10045
692.227	10090
692.271	9908
692.282	10002
692.315	10090
692.359	9465
692.402	9528
692.403	9548
692.447	9514
692.490	9701
692.523	9445
692.534	9443
692.578	9763
692.622	10123
692.643	10289
692.666	10117
692.709	9278
692.753	8923
692.763	8787
692.797	8965
692.840	9242
692.884	9585
692.884	9605
692.928	9507
692.971	10128
693.004	10106
693.015	10061
693.059	9797
693.102	9647
693.124	9529
693.146	9602
693.189	10001
693.233	10109
693.245	10205
693.276	10616
693.320	11025
693.363	11258
693.365	11247
693.407	11345
693.450	11549
693.485	11762
693.493	12118
693.537	13924
693.580	15388
693.605	16479
693.624	18409
693.667	22733
693.710	27340
693.725	29096
693.753	37365
693.797	51158
693.840	65556
693.845	66680
693.883	57143
693.926	45037
693.966	35806
693.970	35030
694.013	26627
694.056	18900
694.086	13393
694.099	13200
694.142	12570
694.185	11956
694.206	11781
694.229	11728
694.272	11131
694.315	10928
694.326	10754
694.358	10636
694.401	10761
694.444	10773
694.446	10760
694.487	10984
694.530	10854
694.566	10880
694.573	10833
694.616	10368
694.659	9855
694.686	9471
694.702	9484
694.745	9665
694.787	9766
694.806	9764
694.830	9709
694.873	9628
694.916	9543
694.926	9471
694.959	9296
695.002	9146
695.044	9149
695.046	9131
695.087	9504
695.130	9513
695.166	9561
695.172	9623
695.215	9971
695.258	10203
695.286	10362
695.301	10301
695.343	10261
695.386	10061
695.406	9895
695.428	9759
695.471	9627
695.514	9587
695.526	9442
695.556	9420
695.599	9733
695.641	9882
695.646	9869
695.684	9745
695.726	9622
695.766	9543
695.769	9567
695.811	9581
695.854	9566
695.886	9500
695.896	9503
695.938	9413
695.981	9287
696.005	9239
696.023	9413
696.065	9777
696.108	10228
696.125	10351
696.150	10371
696.192	10391
696.235	10338
696.245	10316
696.277	10268
696.319	10087
696.361	10109
696.365	10070
696.404	10291
696.446	10494
696.485	10692
696.488	10705
696.530	10685
696.572	10444
696.604	10267
696.614	10278
696.656	10156
696.698	10292
696.724	10143
696.740	10049
696.783	9908
696.825	9821
696.844	9765
696.867	9717
696.909	9427
696.951	9243
696.964	9129
696.992	9148
697.034	9138
697.076	9256
697.083	9243
697.118	9504
697.160	9795
697.202	9963
697.203	9945
697.244	9844
697.286	9718
697.323	9494
697.327	9519
697.369	9533
697.411	9508
697.442	9511
697.453	9609
697.494	9876
697.536	10162
697.562	10365
697.578	10370
697.620	10160
697.661	10047
697.682	9936
697.703	10149
697.744	10555
697.786	11038
697.801	11137
697.828	11142
697.869	11154
697.911	11166
697.921	11151
697.952	11071
697.994	10842
698.035	10629
698.040	10581
698.077	10298
698.118	9895
698.160	9522
698.160	9495
698.201	9937
698.243	10346
698.279	10760
698.284	10786
698.325	10693
698.367	10618
698.399	10551
698.408	10571
698.449	10499
698.491	10444
698.518	10392
698.532	10413
698.573	10357
698.614	10325
698.638	10281
698.656	10346
698.697	10427
698.738	10505
698.757	10517
698.779	10631
698.820	10793
698.862	10947
698.877	10978
698.903	11289
698.944	11735
698.985	12185
698.996	12279
699.026	11864
699.067	11242
699.116	10474
699.235	11456
699.354	10376
699.474	10336
699.593	12446
699.713	11801
699.832	12496
699.951	12094
700.070	10662
700.190	10590
700.309	11836
700.428	11396
700.547	10587
700.667	11851
700.786	11725
700.905	9929
701.024	11089
701.143	10246
701.262	9348
701.381	9469
701.500	10651
701.619	10424
701.738	9716
701.857	10351
701.976	9119
702.095	9438
702.214	10058
702.333	10425
702.452	10346
702.571	9656
702.690	9283
702.809	8766
702.928	9144
703.047	9114
703.165	9541
703.284	9147
703.403	10249
703.522	10174
703.640	10694
703.759	12079
703.878	16127
703.997	10864
704.115	9061
704.234	9096
704.353	9187
704.471	8560
704.590	7863
704.708	8694
704.827	8245
704.946	9610
705.064	9554
705.183	9972
705.301	11466
705.420	16434
705.538	14594
705.656	11835
705.775	12277
705.893	21537
706.012	21903
706.130	12879
706.249	13485
706.367	13734
706.485	14171
706.604	13232
706.722	12764
706.840	15331
706.958	15553
707.077	11687
707.195	11403
707.313	11389
707.431	11159
707.549	10811
707.668	11222
707.786	12723
707.904	10974
708.022	11160
708.140	11126
708.258	11159
708.376	11575
708.494	11617
708.612	12290
708.730	17432
708.848	16600
708.966	14805
709.084	13108
709.202	13667
709.320	14644
709.438	14682
709.556	14287
709.674	15077
709.791	14202
709.909	14404
710.027	14090
710.145	13672
710.263	14895
710.380	14070
710.498	12865
710.616	14388
710.733	14167
710.851	14797
710.969	13651
711.086	13279
711.204	13067
711.322	14439
711.439	13283
711.557	13247
711.674	12950
711.792	12067
711.909	14569
712.027	14222
712.144	13144
712.262	12439
712.379	15222
712.497	20821
712.614	19819
712.732	17176
712.849	15197
712.966	16446
713.084	20031
713.201	17071
713.318	15811
713.436	16662
713.553	16751
713.670	15918
713.787	18592
713.905	17408
714.022	15754
714.139	15220
714.256	16433
714.373	18456
714.490	22064
714.608	41726
714.725	142809
714.842	116850
714.959	18464
715.076	15575
715.193	15090
715.310	14832
715.427	14084
715.544	13971
715.661	14333
715.778	14382
715.895	15193
716.011	15129
716.128	14522
716.245	14681
716.362	14942
716.479	15515
716.596	13588
716.713	14298
716.829	13603
716.946	13526
717.063	12454
717.180	12983
717.296	12553
717.413	13042
717.530	12804
717.646	12418
717.763	12350
717.880	12860
717.996	11915
718.113	12145
718.229	11361
718.346	12066
718.462	12138
718.579	14398
718.695	17170
718.812	16156
718.928	18069
719.045	12469
719.161	11549
719.277	11914
719.394	12180
719.510	11140
719.626	12368
719.743	14354
719.859	12945
719.975	16672
720.092	42157
720.208	71147
720.324	16400
720.440	12810
720.557	12953
720.673	16139
720.789	25727
720.905	53335
721.021	17145
721.137	11647
721.253	11866
721.369	12934
721.486	13863
721.602	18229
721.718	10799
721.834	10235
721.950	10687
722.066	10037
722.181	10566
722.297	10722
722.413	10579
722.529	10876
722.645	10367
722.761	10042
722.877	10528
722.993	10143
723.108	10206
723.224	8973
723.340	10073
723.456	9772
723.571	10028
723.687	9498
723.803	9705
723.918	8773
724.034	10170
724.150	9457
724.265	10871
724.381	22746
724.497	23458
724.612	9622
724.728	8215
724.843	9069
724.959	10640
725.074	21806
725.190	21405
725.305	10145
725.421	8520
725.536	8802
725.651	8372
725.767	8873
725.882	8776
725.997	7216
726.113	8303
726.228	9051
726.343	8007
726.459	7823
726.574	8910
726.689	8036
726.804	8448
726.920	8176
727.035	8213
727.150	8565
727.265	7827
727.380	8741
727.495	7978
727.610	7897
727.725	8282
727.841	9127
727.956	14456
728.071	11615
728.186	8105
728.301	6649
728.416	7722
728.531	8120
728.645	7116
728.760	8707
728.875	8343
728.990	8304
729.105	8095
729.220	7803
729.335	6905
729.449	7292
729.564	6693
729.679	6105
729.794	6597
729.908	7772
730.023	7229
730.138	6270
730.253	6719
730.367	6077
730.482	5899
730.596	7229
730.711	7576
730.826	7241
730.940	6321
731.055	7483
731.169	6353
731.284	7143
731.398	7077
731.513	8050
731.627	6834
731.742	8600
731.856	8207
731.970	5853
732.085	7140
732.199	6900
732.313	8857
732.428	15813
732.542	40186
732.656	20267
732.771	7589
732.885	6586
732.999	6953
733.113	7206
733.227	7273
733.342	5910
733.456	6150
733.570	7059
733.684	6296
733.798	6370
733.912	5762
734.026	6127
734.140	6181
734.254	7749
734.368	12629
734.482	14395
734.596	5916
734.710	6167
734.824	6100
734.938	6269
735.052	5616
735.166	7004
735.280	6516
735.393	5950
735.507	6354
735.621	8909
735.735	15151
735.849	6929
735.962	5332
736.076	5976
736.190	7040
736.303	9046
736.417	10417
736.531	5867
736.644	6109
736.758	5433
736.872	6210
736.985	6026
737.099	4723
737.212	4962
737.326	5737
737.439	5799
737.553	6361
737.666	5588
737.780	4507
737.893	4586
738.007	5228
738.120	5063
738.233	4857
738.347	5365
738.460	5095
738.573	6277
738.687	5273
738.800	5130
738.913	5633
739.026	5761
739.140	5269
739.253	5112
739.366	4851
739.479	5019
739.592	4818
739.705	5236
739.818	5405
739.932	4680
740.045	4701
740.158	5097
740.271	5130
740.384	4271
740.497	5248
740.610	6678
740.723	5871
740.836	5531
740.949	5500
741.062	6372
741.174	6256
741.287	5075
741.400	5092
741.513	6418
741.626	6473
741.739	5037
741.851	5318
741.964	5532
742.077	5618
742.189	4895
742.302	9834
742.415	7368
742.527	4859
742.640	4960
742.753	4720
742.865	3768
742.978	4593
743.090	4810
743.203	3774
743.316	4761
743.428	4124
743.541	4923
743.653	4089
743.766	4913
743.878	4384
743.990	6324
744.103	8384
744.215	10409
744.327	5376
744.440	5989
744.552	6191
744.664	4221
744.777	3964
744.889	3938
745.001	4666
745.113	4070
745.226	3976
745.338	4775
745.450	4633
745.562	4016
745.674	4098
745.786	4586
745.898	4380
746.010	3821
746.122	4476
746.234	4553
746.347	4915
746.459	5527
746.570	4733
746.682	7203
746.794	14548
746.906	6347
747.018	4458
747.130	5181
747.242	3611
747.354	3687
747.466	4543
747.577	3662
747.689	4846
747.801	4335
747.913	3845
748.024	3488
748.136	4281
748.248	3671
748.359	4324
748.471	3909
748.583	3000
748.694	5005
748.806	5984
748.918	5261
749.029	4586
749.141	4558
749.252	4609
749.364	4630
749.475	7121
749.587	5013
749.698	4332
749.809	4591
749.921	4148
750.032	3387
750.144	3359
750.255	3670
750.366	3459
750.478	3206
750.589	4122
750.700	3626
750.811	3834
750.923	4612
751.034	7173
751.145	5929
751.256	3643
751.367	3755
751.479	3669
751.590	3000
751.701	3510
751.812	2952
751.923	4047
752.034	3696
752.145	4154
752.256	3310
752.367	3237
752.478	4013
752.589	3010
752.700	4224
752.811	3372
752.922	3661
753.032	3274
753.143	4619
753.254	3322
753.365	4560
753.476	3485
753.586	3157
753.697	3527
753.808	3460
753.919	2872
754.029	3277
754.140	4175
754.251	3801
754.361	3557
754.472	4116
754.582	3674
754.693	3489
754.804	3215
754.914	3699
755.025	3526
755.135	3137
755.246	3575
755.356	3487
755.466	4256
755.577	4185
755.687	4191
755.798	2688
755.908	3348
756.018	3631
756.129	3393
756.239	3727
756.349	4207
756.460	3754
756.570	3585
756.680	3685
756.790	3624
756.900	4915
757.011	2921
757.121	3880
757.231	3603
757.341	3705
757.451	4459
757.561	3106
757.671	3800
757.781	3365
757.891	4611
758.001	4300
758.111	3354
758.221	4042
758.331	4415
758.441	3838
758.551	4795
758.661	4593
758.771	5212
758.880	4275
758.990	3808
759.100	3954
759.210	4772
759.320	4698
759.429	4162
759.539	4596
759.649	4508
759.758	5390
759.868	4995
759.978	5115
760.087	4657
760.197	4808
760.307	5115
760.416	5362
760.526	3891
760.635	5741
760.745	4961
760.854	5008
760.964	5679
761.073	5260
761.182	4944
761.292	4676
761.401	6125
761.511	5420
761.620	5571
761.729	5410
761.839	6098
761.948	5682
762.057	5846
762.166	4792
762.276	4231
762.385	6057
762.494	5255
762.603	5845
762.712	6590
762.822	5761
762.931	6183
763.040	6100
763.149	7285
763.258	6767
763.367	7392
763.476	7611
763.585	8738
763.694	8517
763.803	8541
763.912	9526
764.021	8805
764.130	9531
764.238	10462
764.347	11019
764.456	10578
764.565	11648
764.674	12231
764.783	13505
764.891	13259
765.000	16674
765.109	19265
765.217	21498
765.326	25430
765.435	30292
765.543	35734
765.652	44418
765.761	59878
765.869	86122
765.978	129941
766.086	213023
766.195	385342
766.303	701854
766.412	776620
766.520	761804
766.629	502010
766.737	251620
766.846	147821
766.954	98194
767.062	74024
767.171	57173
767.279	44177
767.387	35283
767.496	28934
767.604	25643
767.712	22986
767.820	20493
767.928	19652
768.037	17680
768.145	16032
768.253	17036
768.361	15535
768.469	16551
768.577	16982
768.685	17735
768.793	18251
768.901	20214
769.009	24396
769.117	27488
769.225	36343
769.333	52686
769.441	84364
769.549	153442
769.657	317913
769.765	630845
769.873	676749
769.981	459878
770.088	189517
770.196	98413
770.304	63123
770.412	45032
770.519	34405
770.627	26940
770.735	22475
770.842	19845
770.950	17060
771.058	14446
771.165	14352
771.273	11930
771.380	11121
771.488	10627
771.595	9923
771.703	9422
771.810	9494
771.918	8875
772.025	8661
772.133	7349
772.240	8013
772.348	7803
772.455	7630
772.562	7058
772.670	6239
772.777	6355
772.884	6298
772.991	5481
773.099	6077
773.206	5048
773.313	6178
773.420	5473
773.528	4183
773.635	4926
773.742	6069
773.849	5423
773.956	5241
774.063	4799
774.170	5173
774.277	5780
774.384	4887
774.491	5091
774.598	5514
774.705	5654
774.812	5479
774.919	5183
775.026	4370
775.133	5025
775.239	4658
775.346	4500
775.453	3860
775.560	4028
775.667	5005
775.773	4254
775.880	4595
775.987	4230
776.093	4236
776.200	4582
776.307	4007
776.413	4162
776.520	4124
776.627	4289
776.733	4050
776.840	3702
776.946	6258
777.053	11049
777.159	23176
777.266	12407
777.372	18872
777.478	15290
777.585	8595
777.691	3410
777.798	4167
777.904	4962
778.010	5499
778.117	3912
778.223	3923
778.329	3303
778.435	3382
778.542	3515
778.648	3617
778.754	3282
778.860	2900
778.966	3524
779.072	2892
779.178	2584
779.284	3465
779.391	3173
779.497	3234
779.603	6615
779.708	8145
779.815	19120
779.920	73668
780.026	89142
780.132	10153
780.238	4231
780.344	4453
780.450	4423
780.556	3857
780.661	2862
780.767	3550
780.873	3584
780.979	3540
781.085	3054
781.190	2977
781.296	2245
781.402	2332
781.507	2698
781.613	2467
781.719	2273
781.824	2984
781.930	3402
782.035	3366
782.141	2636
782.246	1677
782.352	2469
782.457	2235
782.563	2699
782.668	2303
782.773	2954
782.879	2666
782.984	3617
783.090	2685
783.195	3789
783.300	2864
783.405	3052
783.511	2713
783.616	3257
783.721	3240
783.826	3005
783.932	3078
784.037	2759
784.142	2620
784.247	3735
784.352	2649
784.457	3022
784.562	3221
784.667	2877
784.772	2801
784.877	2378
784.982	2662
785.087	2249
785.192	2571
785.297	2572
785.402	2651
785.507	2229
785.611	2809
785.716	2267
785.821	2382
785.926	2333
786.031	1966
786.135	2040
786.240	2249
786.345	1591
786.450	3007
786.554	1815
786.659	2074
786.763	936
786.868	2604
786.973	2778
787.077	1471
787.182	1935
787.286	1859
787.391	2496
787.495	2019
787.600	2120
787.704	1092
787.809	2112
787.913	1997
788.017	1742
788.122	2441
788.226	1314
788.330	1765
788.435	1928
788.539	1864
788.643	859
788.747	1887
788.852	1268
788.956	1225
789.060	2015
789.164	1969
789.268	1480
789.372	2305
789.476	2301
789.580	1587
789.684	1387
789.788	2534
789.892	1657
789.996	2574
790.100	1501
790.204	1391
790.308	2150
790.412	2641
790.516	3321
790.620	2103
790.724	1913
790.828	1938
790.931	1670
791.035	2613
791.139	2566
791.242	566
791.346	2720
791.450	2177
791.554	1927
791.657	1180
791.761	2440
791.864	2485
791.968	1730
792.072	1009
792.175	1884
792.279	1617
792.382	2509
792.486	1920
792.589	1868
792.693	2112
792.796	1038
792.899	2371
793.003	2814
793.106	591
793.209	2279
793.313	2554
793.416	850
793.519	2140
793.623	3083
793.726	2889
793.829	1291
793.932	1980
794.035	1891
794.138	2532
794.242	3018
794.345	2865
794.448	5747
794.551	10083
794.654	36630
794.757	48228
794.860	7599
794.963	2923
795.066	1584
795.169	2191
795.272	1572
795.375	2075
795.477	1366
795.580	2358
795.683	481
795.786	951
795.889	31
795.991	1607
796.094	2155
796.197	1151
796.300	2108
796.402	1335
796.505	1590
796.608	164
796.710	1947
796.813	1387
796.915	547
797.018	2021
797.120	1170
797.223	683
797.326	1994
797.428	920
797.530	1449
797.633	1287
797.735	2625
797.838	3614
797.940	3126
798.042	519
798.145	1159
798.247	1368
798.349	-780
798.452	1840
798.554	1215
798.656	-150
798.758	2255
798.860	1050
798.962	542
799.065	921
799.167	505
799.269	1798
799.371	2075
799.473	2178
799.575	2081
799.677	2092
799.779	2926
799.881	1449
799.983	2225
800.085	1019
800.187	989
800.289	406
800.390	499
800.492	1626
800.594	1493
800.696	-23
800.798	1019
800.899	916
801.001	733
801.103	731
801.205	912
801.306	838
801.408	207
801.509	1070
801.611	1014
801.713	1147
801.814	495
801.916	929
802.017	1396
802.119	334
802.220	361
802.322	-1173
802.423	3402
802.525	475
802.626	1114
802.727	819
802.829	1475
802.930	-768
803.031	2315
803.133	1397
803.234	1158
803.335	648
803.436	476
803.538	415
803.639	404
803.740	878
803.841	0
803.942	866
804.043	1109
804.144	-771
804.245	763
804.346	401
804.447	310
804.548	583
804.649	1876
804.750	978
804.851	691
804.952	191
805.053	176
805.154	-590
805.255	1726
805.355	272
805.456	74
805.557	-71
805.658	-437
805.758	975
805.859	196
805.960	32
806.061	791
806.161	-248
806.262	831
806.362	-5
806.463	271
806.564	1260
806.664	909
806.765	840
806.865	1655
806.966	594
807.066	500
807.166	713
807.267	1270
807.367	-169
807.468	1037
807.568	-378
807.668	1250
807.769	1363
807.869	-353
807.969	147
808.069	1029
808.170	765
808.270	314
808.370	894
808.470	1857
808.570	-248
808.670	-131
808.770	857
808.870	-910
808.970	121
809.070	591
809.170	-283
809.271	706
809.370	408
809.470	424
809.570	-321
809.670	-140
809.770	794
809.870	673
809.970	312
810.070	967
810.169	415
810.269	-1378
810.369	212
810.469	37
810.568	-285
810.668	296
810.768	-518
810.867	41
810.967	-202
811.066	582
811.166	330
811.265	596
811.365	-33
811.464	-53
811.564	267
811.663	431
811.763	-1067
811.862	200
811.962	692
812.061	-166
812.160	160
812.260	507
812.359	1234
812.458	402
812.557	2595
812.657	2146
812.756	847
812.855	58
812.954	-417
813.053	730
813.153	578
813.252	-438
813.351	465
813.450	670
813.549	-487
813.648	27
813.747	443
813.846	446
813.945	16
814.044	959
814.143	1103
814.242	671
814.341	-144
814.439	439
814.538	594
814.637	92
814.736	384
814.835	642
814.933	-641
815.032	431
815.131	-63
815.229	279
815.328	428
815.427	287
815.525	1213
815.624	-166
815.722	-117
815.821	-702
815.919	557
816.018	-593
816.116	825
816.215	288
816.313	669
816.412	1409
816.510	237
816.609	1900
816.707	595
816.805	506
816.904	313
817.002	1366
817.100	1151
817.198	943
817.296	501
817.395	748
817.493	1921
817.591	1224
817.689	3454
817.787	3148
817.885	7066
817.983	16291
818.081	37893
818.179	98362
818.277	238697
818.375	134477
818.473	24386
818.571	10070
818.669	7563
818.767	8231
818.865	7204
818.963	9687
819.061	15213
819.158	31809
819.256	79181
819.354	206944
819.452	402921
819.549	161883
819.647	29720
819.745	11425
819.842	7926
819.940	5701
820.038	4352
820.135	3529
820.233	2297
820.330	1936
820.428	898
820.525	2412
820.623	2084
820.720	1299
820.818	1988
820.915	1073
821.012	996
821.110	294
821.207	1436
821.304	533
821.402	1836
821.499	3615
821.596	7942
821.693	4450
821.791	2716
821.888	1876
821.985	2987
822.082	1473
822.179	2807
822.276	3033
822.373	1982
822.470	896
822.567	1349
822.664	-307
822.761	1496
822.858	-577
822.955	236
823.052	-37
823.149	-395
823.246	502
823.343	69
823.440	913
823.536	-218
823.633	377
823.730	1037
823.827	466
823.923	625
824.020	1712
824.117	1111
824.213	2025
824.310	1441
824.407	-122
824.503	467
824.600	377
824.696	482
824.793	797
824.889	-258
824.986	-734
825.082	-161
825.179	1579
825.275	-74
825.371	-678
825.468	436
825.564	-406
825.660	-124
825.757	256
825.853	1680
825.949	-672
826.045	-246
826.142	-147
826.238	135
826.334	438
826.430	-231
826.526	245
826.622	88
826.718	-168
826.814	-850
826.910	608
827.006	-497
827.102	-994
827.198	318
827.294	-511
827.390	328
827.486	589
827.582	-1907
827.678	-784
827.774	476
827.869	-748
827.965	544
828.061	-250
828.157	-512
828.252	379
828.348	-723
828.444	124
828.539	-1362
828.635	-344
828.731	684
828.826	-239
828.922	243
829.017	-764
829.113	341
829.208	-44
829.304	8
829.399	1412
829.495	-910
829.590	325
829.685	-640
829.781	298
829.876	-363
829.971	-201
830.066	-104
830.162	-662
830.257	-458
830.352	-561
830.447	995
830.543	804
830.638	-1903
830.733	735
830.828	-76
830.923	629
831.018	-511
831.113	-66
831.208	-116
831.303	203
831.398	200
831.493	-287
831.588	54
831.683	-349
831.778	144
831.873	-110
831.967	416
832.062	-919
832.157	-1754
832.252	817
832.346	-629
832.441	-141
832.536	-205
832.631	1834
832.725	1056
832.820	142
832.914	-302
833.009	112
833.104	-132
833.198	324
833.293	-533
833.387	288
833.482	-740
833.576	-391
833.670	261
833.765	-191
833.859	-779
833.954	726
834.048	-457
834.142	61
834.237	-720
834.331	-289
834.425	-380
834.519	-775
834.613	72
834.708	-189
834.802	-251
834.896	-911
834.990	142
835.084	-302
835.178	-634
835.272	-836
835.366	-571
835.460	20
835.554	-124
835.648	-304
835.742	-241
835.836	-295
835.930	-1322
836.024	23
836.117	-174
836.211	-1018
836.305	840
836.399	1576
836.493	-1165
836.586	449
836.680	-269
836.774	-1069
836.867	1030
836.961	-713
837.055	-655
837.148	-189
837.242	-189
837.335	-836
837.429	149
837.522	-132
837.616	12
837.709	2781
837.803	-581
837.896	-19
837.989	-638
838.083	1928
838.176	3805
838.269	2450
838.363	385
838.456	-344
838.549	889
838.642	515
838.735	1845
838.829	536
838.922	-733
839.015	-700
839.108	-1508
839.201	3
839.294	634
839.387	285
839.480	-790
839.573	1199
839.666	480
839.759	-476
839.852	-817
839.945	-299
840.038	-255
840.131	-419
840.223	-298
840.316	336
840.409	-773
840.502	-1031
840.594	183
840.687	-1354
840.780	-85
840.873	-773
840.965	858
841.058	1555
841.150	2684
841.243	394
841.336	-372
841.428	-251
841.521	-1023
841.613	-505
841.706	651
841.798	-554
841.890	-930
841.983	-355
842.075	805
842.167	-572
842.260	-325
842.352	833
842.444	1578
842.537	4545
842.629	4901
842.721	-489
842.813	636
842.905	-1242
842.997	132
843.090	734
843.182	1623
843.274	3658
843.366	10463
843.458	18289
843.550	9267
843.642	127
843.734	-280
843.826	741
843.918	817
844.009	376
844.101	-65
844.193	572
844.285	428
844.377	574
844.469	2760
844.560	4388
844.652	3762
844.744	1105
844.835	-471
844.927	-317
845.019	399
845.110	-408
845.202	-249
845.293	-1300
845.385	-223
845.476	330
845.568	-19
845.659	-468
845.751	-201
845.842	-866
845.934	-610
846.025	-1454
846.116	-408
846.208	-375
846.299	-976
846.390	247
846.482	396
846.573	-308
846.664	658
846.755	815
846.846	925
846.937	-1111
847.029	-386
847.120	-175
847.211	-780
847.302	813
847.393	-1279
847.484	463
847.575	-491
847.666	-461
847.757	-533
847.847	-373
847.938	252
848.029	197
848.120	-644
848.211	-647
848.302	-936
848.392	-1039
848.483	363
848.574	-686
848.664	-691
848.755	-627
848.846	-831
848.936	-553
849.027	303
849.118	-1350
849.208	-241
849.299	-197
849.389	1052
849.480	1965
849.570	5120
849.661	10620
849.751	15518
849.841	4126
849.932	-93
850.022	-976
850.112	181
850.203	-1049
850.293	-1449
850.383	-675
850.474	-1006
850.564	-1132
850.654	-216
850.744	-1042
850.834	-513
850.924	-338
851.014	-690
851.104	-563
851.194	-202
851.284	376
851.374	-422
851.464	564
851.554	-159
851.644	268
851.734	957
851.824	166
851.914	-1085
852.004	46
852.094	155
852.183	-524
852.273	111
852.363	-180
852.452	105
852.542	-663
852.632	-833
852.721	-670
852.811	-975
852.901	334
852.990	-124
853.080	-300
853.169	-642
853.259	-126
853.348	-1125
853.438	-26
853.527	673
853.617	680
853.706	4661
853.795	7521
853.885	19819
853.974	38945
854.063	74487
854.152	112103
854.242	30957
854.331	2917
854.420	917
854.509	886
854.598	411
854.687	755
854.777	1098
854.866	-71
854.955	134
855.044	-1053
855.133	76
855.222	-580
855.311	-385
855.400	860
855.488	357
855.577	-333
855.666	-375
855.755	326
855.844	167
855.933	-400
856.021	-292
856.110	-40
856.199	-1506
856.288	-428
856.376	-786
856.465	-689
856.554	-928
856.642	-914
856.731	142
856.819	-308
856.908	-517
856.996	-627
857.085	-469
857.173	-10
857.262	-346
857.350	182
857.438	-1003
857.527	294
857.615	-755
857.703	-577
857.792	-1548
857.880	-1015
857.968	-1530
858.056	303
858.145	-936
858.233	-904
858.321	-758
858.409	-37
858.497	-1244
858.585	-224
858.673	-903
858.761	-1332
858.849	-869
858.937	-689
859.025	-921
859.113	-1
859.201	-1531
859.289	929
859.377	207
859.465	168
859.552	-247
859.640	-632
859.728	-12
859.816	-690
859.903	-741
859.991	-717
860.079	-505
860.166	-1048
860.254	-931
860.342	-715
860.429	-980
860.517	-964
860.604	-244
860.692	-538
860.779	-1199
860.867	-778
860.954	-787
861.042	-1442
861.129	-586
861.216	-214
861.304	-1064
861.391	-523
861.478	-1412
861.565	-875
861.653	-148
861.740	-1441
861.827	-1531
861.914	-421
862.001	-1205
862.089	455
862.176	-1372
862.263	-982
862.350	-1370
862.437	-1053
862.524	-1215
862.611	-548
862.698	-77
862.785	826
862.871	2511
862.958	-695
863.045	-746
863.132	-29
863.219	-1182
863.306	-1171
863.392	174
863.479	-591
863.566	-489
863.652	-947
863.739	-1034
863.826	-993
863.912	-570
863.999	-912
864.086	-961
864.172	-175
864.259	-883
864.345	-459
864.432	-289
864.518	-1368
864.604	-348
864.691	-625
864.777	-829
864.863	-650
864.950	288
865.036	-814
865.122	75
865.209	561
865.295	-409
865.381	-391
865.467	232
865.553	1189
865.639	1253
865.726	2368
865.812	8423
865.898	17518
865.984	25522
866.070	53563
866.156	51687
866.242	9372
866.328	664
866.414	-321
866.499	389
866.585	596
866.671	-123
866.757	332
866.843	47
866.928	-165
867.014	-1045
867.100	515
867.186	-389
867.271	588
867.357	191
867.442	826
867.528	70
867.614	314
867.699	1170
867.785	2303
867.870	4080
867.956	5520
868.041	1885
868.127	1314
868.212	4043
868.297	1676
868.383	513
868.468	1386
868.553	2352
868.639	1155
868.724	2379
868.809	1532
868.894	189
868.979	-606
869.065	520
869.150	507
869.235	-350
869.320	-673
869.405	-138
869.490	-79
869.575	-1112
869.660	-1035
869.745	-188
869.830	-1064
869.915	-992
870.000	-492
870.085	-79
870.169	299
870.254	1193
870.339	-813
870.424	-770
870.509	-326
870.593	-1085
870.678	-42
870.763	-606
870.847	197
870.932	-370
871.016	1096
871.101	340
871.186	-221
871.270	-895
871.355	-735
871.439	-813
871.523	-481
871.608	-599
871.692	432
871.777	645
871.861	360
871.945	-1057
872.030	565
872.114	-795
872.198	-844
872.282	-695
872.367	-1077
872.451	-820
872.535	-1108
872.619	-1164
872.703	-1058
872.787	-908
872.871	-500
872.955	-913
873.039	-1075
873.123	-667
873.207	-527
873.291	-664
873.375	-1124
873.459	-838
873.543	-583
873.627	-1172
873.711	-1169
873.794	121
873.878	-760
873.962	-1469
874.045	-961
874.129	-1092
874.137	-1024
874.213	-354
874.245	-324
874.296	-267
874.352	-1099
874.380	-1513
874.460	-930
874.464	-906
874.547	-681
874.568	-595
874.631	-365
874.676	-697
874.714	-970
874.784	-222
874.798	-70
874.881	160
874.892	-30
874.965	-1356
874.999	-1151
875.048	-876
875.107	-574
875.131	-457
875.215	-764
875.215	-764
875.298	-341
875.323	-425
875.381	-612
875.430	-453
875.465	-359
875.538	-1175
875.548	-1276
875.631	-254
875.646	-323
875.714	-738
875.753	-573
875.798	-342
875.861	-677
875.881	-805
875.964	-833
875.968	-831
876.047	-667
876.076	-538
876.130	-304
876.183	-532
876.213	-673
876.291	138
876.296	188
876.379	-495
876.398	-544
876.462	-590
876.506	-782
876.545	-964
876.613	-376
876.628	-267
876.711	10
876.721	-19
876.794	-202
876.828	-219
876.877	-231
876.935	3
876.960	127
877.043	28
877.043	31
877.125	700
877.150	744
877.208	890
877.258	929
877.291	964
877.365	1159
877.374	1189
877.456	1232
877.472	1104
877.539	379
877.579	673
877.622	1000
877.687	508
877.704	405
877.787	-101
877.794	-110
877.869	-300
877.901	-232
877.952	-152
878.008	-350
878.034	-413
878.115	-734
878.117	-738
878.199	-429
878.222	-375
878.282	-102
878.329	-51
878.364	-109
878.437	282
878.447	330
878.529	-601
878.544	-466
878.611	95
878.651	61
878.694	253
878.758	-230
878.776	-431
878.858	-79
878.865	-48
878.941	243
878.972	69
879.023	-202
879.078	-185
879.105	-107
879.185	33
879.187	33
879.269	-605
879.292	-617
879.351	-488
879.399	-688
879.433	-740
879.506	184
879.516	283
879.598	272
879.613	219
879.680	-180
879.720	-142
879.762	59
879.827	-198
879.844	-317
879.926	-580
879.933	-590
880.007	-570
880.040	-609
880.089	-558
880.147	249
880.171	616
880.253	1900
880.254	1904
880.335	3245
880.360	3739
880.417	6262
880.467	9947
880.499	12163
880.574	14377
880.580	13948
880.662	4172
880.680	2665
880.744	726
880.787	222
880.825	162
880.893	-400
880.907	-417
880.989	290
881.000	304
881.070	56
881.106	-165
881.152	-277
881.213	74
881.233	214
881.315	63
881.319	70
881.396	109
881.426	40
881.478	-204
881.532	-119
881.559	-64
881.639	-427
881.641	-423
881.722	241
881.745	255
881.803	172
881.852	358
881.885	435
881.958	445
881.966	442
882.047	129
882.064	78
882.129	47
882.171	421
882.210	1110
882.277	1804
882.291	1770
882.372	859
882.383	833
882.454	473
882.489	22
882.535	-198
882.596	-79
882.616	-69
882.697	-136
882.702	-142
882.778	-6
882.808	-56
882.859	-154
882.914	150
882.940	169
883.020	-430
883.021	-429
883.102	-322
883.127	-273
883.183	100
883.233	337
883.264	382
883.339	798
883.345	790
883.426	148
883.445	3
883.507	-136
883.551	-196
883.587	-82
883.657	396
883.668	422
883.749	307
883.763	246
883.830	-41
883.869	-125
883.910	-108
883.975	26
883.991	13
884.072	150
884.081	82
884.152	-311
884.187	-347
884.233	-188
884.292	125
884.314	29
884.394	-474
884.398	-510
884.475	226
884.504	670
884.555	309
884.610	-261
884.636	-111
884.716	48
884.716	55
884.797	510
884.821	652
884.877	623
884.927	545
884.958	379
885.033	16
885.038	45
885.118	138
885.139	209
885.199	-85
885.244	-173
885.279	74
885.350	459
885.359	453
885.439	119
885.456	29
885.520	49
885.561	294
885.600	315
885.667	87
885.680	87
885.760	103
885.773	100
885.840	648
885.878	973
885.920	879
885.984	580
886.000	482
886.080	205
886.089	151
886.160	210
886.195	317
886.240	328
886.300	125
886.320	289
886.400	1107
886.406	1156
886.480	1053
886.511	974
886.560	1006
886.616	914
886.640	922
886.720	1094
886.722	1085
886.800	395
886.827	274
886.879	775
886.932	1080
886.959	807
887.038	229
887.039	238
887.119	453
887.143	562
887.198	569
887.248	507
887.278	685
887.354	1266
887.358	1262
887.437	953
887.459	850
887.517	678
887.564	525
887.596	644
887.669	952
887.676	947
887.755	777
887.774	714
887.835	991
887.880	1284
887.914	1165
887.985	746
887.994	798
888.073	1259
888.090	1342
888.153	986
888.195	743
888.232	628
888.300	502
888.311	634
888.391	1411
888.405	1552
888.470	790
888.510	291
888.549	675
888.615	1347
888.628	1305
888.708	993
888.720	939
888.787	843
888.825	794
888.866	940
888.930	1084
888.945	1151
889.024	1544
889.035	1590
889.103	1121
889.140	834
889.182	805
889.245	760
889.261	744
889.340	686
889.349	674
889.419	749
889.454	779
889.498	623
889.559	411
889.577	545
889.656	1131
889.664	1187
889.735	1565
889.768	1740
889.814	1511
889.873	1197
889.978	2073
890.083	1209
890.187	807
890.292	1569
890.397	1237
890.501	730
890.606	923
890.710	2465
890.815	1765
890.919	1981
891.024	1176
891.128	1392
891.233	1409
891.337	1420
891.442	639
891.546	712
891.650	94
891.755	924
891.859	2457
891.963	810
892.068	1383
892.172	1709
892.276	1059
892.380	557
892.484	317
892.589	1045
892.693	1725
892.797	1150
892.901	1501
893.005	1071
893.109	692
893.213	1077
893.317	1542
893.421	832
893.525	-401
893.629	741
893.733	576
893.837	1112
893.941	-55
894.045	1164
894.148	178
894.252	1237
894.356	1038
894.460	69
894.564	234
894.667	911
894.771	1377
894.875	205
894.978	1001
895.082	-108
895.186	651
895.289	1267
895.393	1227
895.496	299
895.600	826
895.703	247
895.807	429
895.910	202
896.014	265
896.117	88
896.221	929
896.324	543
896.427	-275
896.531	587
896.634	351
896.737	754
896.840	852
896.944	1092
897.047	939
897.150	646
897.253	735
897.356	172
897.460	-221
897.563	1343
897.666	580
897.769	963
897.872	732
897.975	871
898.078	379
898.181	591
898.284	551
898.387	768
898.490	1122
898.593	-105
898.695	788
898.798	865
898.901	1119
899.004	620
899.107	80
899.209	1046
899.312	414
899.415	819
899.518	24
899.620	126
899.723	738
899.826	2195
899.928	2211
900.031	837
900.133	320
900.236	282
900.338	57
900.441	216
900.543	447
900.646	838
900.748	472
900.851	1165
900.953	861
901.055	1054
901.158	1577
901.260	253
901.362	452
901.465	450
901.567	261
901.669	796
901.771	93
901.873	-33
901.976	266
902.078	716
902.180	782
902.282	510
902.384	-484
902.486	546
902.588	1161
902.690	1403
902.792	586
902.894	862
902.996	167
903.098	187
903.200	-208
903.302	345
903.404	1133
903.505	-149
903.607	-3
903.709	496
903.811	-331
903.913	777
904.014	484
904.116	807
904.218	39
904.319	1004
904.421	2132
904.523	1379
904.624	1165
904.726	1093
904.827	714
904.929	700
905.030	815
905.132	888
905.233	525
905.335	174
905.436	365
905.537	931
905.639	669
905.740	118
905.841	421
905.943	626
906.044	1261
906.145	637
906.247	71
906.348	359
906.449	387
906.550	619
906.651	12
906.752	731
906.854	1090
906.955	214
907.056	-208
907.157	444
907.258	81
907.359	299
907.460	-44
907.561	-30
907.662	338
907.762	531
907.863	-858
907.964	730
908.065	307
908.166	516
908.267	166
908.367	-295
908.468	-144
908.569	473
908.670	205
908.770	597
908.871	1266
908.971	1417
909.072	792
909.173	15
909.273	628
909.374	253
909.474	118
909.575	644
909.675	29
909.776	536
909.876	70
909.977	344
910.077	663
910.177	-75
910.278	295
910.378	199
910.478	-199
910.579	1151
910.679	11
910.779	616
910.879	781
910.980	468
911.080	-54
911.180	-411
911.280	146
911.380	538
911.480	72
911.580	4
911.680	164
911.780	639
911.880	1391
911.980	-13
912.080	-179
912.180	1196
912.280	362
912.380	814
912.480	62
912.580	967
912.679	-301
912.779	777
912.879	81
912.979	-664
913.078	581
913.178	-718
913.278	45
913.377	-61
913.477	257
913.577	709
913.676	638
913.776	377
913.875	287
913.975	126
914.074	332
914.174	-472
914.273	-315
914.373	42
914.472	106
914.572	190
914.671	187
914.770	588
914.870	178
914.969	-848
915.068	97
915.167	1088
915.267	-85
915.366	-442
915.465	756
915.564	155
915.663	-274
915.763	-681
915.862	518
915.961	243
916.060	-349
916.159	-567
916.258	-766
916.357	-560
916.456	560
916.555	483
916.654	631
916.752	366
916.851	-872
916.950	29
917.049	-817
917.148	-720
917.247	264
917.345	-229
917.444	-506
917.543	-334
917.642	-127
917.740	-293
917.839	-617
917.937	282
918.036	666
918.135	264
918.233	-317
918.332	-150
918.430	-440
918.529	294
918.627	-542
918.726	-516
918.824	34
918.923	-293
919.021	480
919.119	-405
919.218	-682
919.316	-441
919.414	50
919.512	-267
919.611	-391
919.709	431
919.807	-817
919.905	924
920.003	-142
920.102	116
920.200	638
920.298	378
920.396	56
920.494	861
920.592	-47
920.690	154
920.788	-185
920.886	-243
920.984	-211
921.082	-68
921.180	163
921.277	314
921.375	-58
921.473	-690
921.571	-284
921.669	-278
921.766	239
921.864	136
921.962	-355
922.060	106
922.157	758
922.255	310
922.352	-331
922.450	-101
922.548	-269
922.645	-84
922.743	476
922.840	81
922.938	817
923.035	885
923.133	118
923.230	1076
923.327	953
923.425	1068
923.522	203
923.619	198
923.717	487
923.814	629
923.911	206
924.008	1039
924.106	566
924.203	228
924.300	125
924.397	-4
924.494	1036
924.591	1108
924.688	58
924.786	-118
924.883	690
924.979	115
925.077	346
925.173	572
925.270	482
925.367	620
925.464	1049
925.561	869
925.658	1118
925.755	2064
925.852	1752
925.948	1475
926.045	2283
926.142	2667
926.239	3002
926.335	2101
926.432	2729
926.529	2689
926.625	2637
926.722	1744
926.818	895
926.915	729
927.011	1241
927.108	476
927.204	-735
927.301	25
927.397	710
927.494	-23
927.590	334
927.687	548
927.783	137
927.879	1308
927.976	-102
928.072	-420
928.168	66
928.264	-312
928.361	158
928.457	831
928.553	39
928.649	734
928.745	-283
928.841	734
928.937	1155
929.033	223
929.129	-650
929.225	504
929.321	715
929.417	-153
929.513	279
929.609	-249
929.705	594
929.801	673
929.897	-899
929.993	-165
930.089	587
930.184	398
930.280	399
930.376	687
930.471	-539
930.567	-112
930.663	-382
930.758	221
930.854	225
930.950	-530
931.045	-200
931.141	283
931.236	397
931.332	8
931.427	203
931.523	168
931.618	-118
931.714	-143
931.809	306
931.905	1031
932.000	-103
932.095	148
932.191	-159
932.286	150
932.381	529
932.476	49
932.572	492
932.667	-292
932.762	-16
932.857	485
932.952	-8
933.047	-453
933.142	4
933.237	-13
933.332	-724
933.427	379
933.522	-123
933.617	450
933.712	285
933.807	95
933.902	-507
933.997	-488
934.092	157
934.187	-657
934.282	-219
934.376	196
934.471	-386
934.566	57
934.661	-67
934.755	438
934.850	376
934.945	450
935.039	-239
935.134	-262
935.228	248
935.323	-154
935.417	-456
935.512	-998
935.606	-435
935.701	101
935.795	-231
935.890	-617
935.984	-120
936.079	-1090
936.173	45
936.267	-417
936.362	-792
936.456	-806
936.550	504
936.644	7
936.738	-352
936.833	-263
936.927	256
937.021	194
937.115	-682
937.209	-553
937.303	273
937.397	-864
937.491	363
937.585	-37
937.679	-174
937.773	-688
937.867	-576
937.961	-355
938.055	-474
938.149	110
938.243	413
938.337	-508
938.430	149
938.524	906
938.618	2728
938.712	2214
938.805	-63
938.899	342
938.993	468
939.086	699
939.180	3700
939.274	4430
939.367	522
939.461	215
939.554	-397
939.648	-539
939.741	695
939.835	-300
939.928	42
940.022	-214
940.115	289
940.208	-313
940.302	-57
940.395	515
940.488	-714
940.582	1026
940.675	-1317
940.768	-608
940.861	-20
940.954	-341
941.048	-133
941.141	-507
941.234	273
941.327	2199
941.420	1028
941.513	514
941.606	-274
941.699	326
941.792	-333
941.885	-440
941.978	-228
942.071	-322
942.164	-524
942.257	114
942.349	-70
942.442	33
942.535	-688
942.628	-540
942.721	-529
942.813	-1361
942.906	-217
942.999	-343
943.091	-504
943.184	-374
943.277	-915
943.369	-361
943.462	-584
943.554	244
943.647	-554
943.739	-189
943.832	-88
943.924	-1101
944.017	-847
944.109	-1006
944.201	-1261
944.294	63
944.386	-59
944.478	-550
944.571	15
944.663	-225
944.755	-1129
944.847	-336
944.940	-1062
945.032	-827
945.124	-592
945.216	-68
945.308	-305
945.400	-160
945.492	-353
945.584	-832
945.676	-1006
945.768	180
945.860	-347
945.952	198
946.044	287
946.136	85
946.228	-407
946.320	-159
946.412	-1368
946.503	-538
946.595	-69
946.687	-847
946.779	-1050
946.870	118
946.962	-628
947.054	-107
947.145	-613
947.237	-417
947.329	-133
947.420	-61
947.512	-620
947.603	26
947.695	-709
947.786	-1016
947.878	-940
947.969	-715
948.061	-606
948.152	-707
948.243	-78
948.335	-283
948.426	-342
948.517	-980
948.609	-1365
948.700	-1432
948.791	-851
948.882	-68
948.973	-568
949.065	-14
949.156	-1112
949.247	-1174
949.338	-701
949.429	-949
949.520	-1066
949.611	-1272
949.702	-847
949.793	-9
949.884	-907
949.975	-457
950.066	-1245
950.157	-1014
950.247	-754
950.338	-312
950.429	-888
950.520	135
950.611	25
950.701	-253
950.792	-364
950.883	92
950.973	-239
951.064	-306
951.155	-513
951.245	-651
951.336	-262
951.427	-828
951.517	-211
951.608	-148
951.698	-817
951.788	-180
951.879	-738
951.969	-1331
952.060	-513
952.150	-450
952.240	-840
952.331	-1900
952.421	263
952.511	-762
952.602	-536
952.692	-872
952.782	-600
952.872	-1004
952.962	-443
953.052	-655
953.143	-1204
953.233	-565
953.323	-877
953.413	-1340
953.503	-645
953.593	-559
953.683	-520
953.773	-1402
953.863	-835
953.953	-691
954.042	-192
954.132	-845
954.222	418
954.312	-840
954.402	-386
954.492	-347
954.581	1797
954.671	-402
954.761	-1119
954.850	31
954.940	-1010
955.030	-2068
955.119	-743
955.209	-557
955.298	-661
955.388	-1025
955.477	-819
955.567	-639
955.656	-1
955.746	-822
955.835	-1431
955.925	-1240
956.014	-629
956.103	-501
956.193	-960
956.282	-711
956.371	-30
956.461	-10
956.550	-868
956.639	-575
956.728	-511
956.817	-165
956.906	-653
956.995	110
957.085	-157
957.174	-876
957.263	-950
957.352	-1271
957.441	43
957.530	-389
957.619	-571
957.708	-490
957.796	-677
957.885	-508
957.974	-878
958.063	-359
958.152	-653
958.241	367
958.329	-360
958.418	-183
958.507	-756
958.596	780
958.684	-1078
958.773	388
958.861	-33
958.950	890
959.039	-405
959.127	-132
959.216	639
959.304	-131
959.393	-22
959.481	532
959.570	991
959.658	-364
959.746	415
959.835	3052
959.923	2741
960.011	669
960.100	588
960.188	776
960.276	84
960.365	-695
960.453	-780
960.541	-551
960.629	-570
960.717	-629
960.805	-1046
960.893	-245
960.981	-1068
961.069	196
961.158	-410
961.245	-89
961.333	43
961.421	-814
961.509	-579
961.597	-41
961.685	-354
961.773	-956
961.861	-484
961.949	-505
962.036	-267
962.124	236
962.212	-1192
962.299	-1066
962.387	-983
962.475	-1048
962.562	-862
962.650	-262
962.738	-386
962.825	-1242
962.913	-504
963.000	-1229
963.088	-940
963.175	-264
963.263	-394
963.350	-115
963.438	253
963.525	693
963.612	3441
963.700	10156
963.787	16440
963.874	5164
963.962	330
964.049	285
964.136	-552
964.223	-1798
964.310	-804
964.398	-599
964.485	-289
964.572	-14
964.659	1853
964.746	1205
964.833	-499
964.920	-1002
965.007	-409
965.094	91
965.181	-736
965.268	-572
965.355	-850
965.441	-562
965.528	-705
965.615	-410
965.702	-970
965.789	-866
965.875	-1151
965.962	-1014
966.049	-989
966.136	-1083
966.222	-1346
966.309	-992
966.395	-842
966.482	-387
966.569	-991
966.655	-1477
966.742	-1620
966.828	-136
966.915	-599
967.001	191
967.087	-1911
967.174	-160
967.260	1138
967.347	1525
967.433	7216
967.519	9495
967.605	1637
967.692	-1806
967.778	-1526
967.864	-99
967.950	-860
968.036	-699
968.123	-731
968.209	-1046
968.295	-2298
968.381	-446
968.467	-1070
968.553	-1804
968.639	612
968.725	-598
968.811	721
968.897	144
968.983	-48
969.069	-1194
969.154	-650
969.240	-131
969.326	-1727
969.412	-1980
969.497	-737
969.583	-1675
969.669	-570
969.755	-467
969.840	-947
969.926	-710
970.012	-723
970.097	-477
970.183	-1140
970.268	88
970.354	1013
970.439	2933
970.525	6891
970.610	971
970.696	70
970.781	-715
970.866	-1491
970.952	-628
971.037	-1211
971.122	-238
971.208	-218
971.293	-801
971.378	-1793
971.463	-1491
971.549	-579
971.634	-679
971.719	-481
971.804	85
971.889	701
971.974	-1503
972.059	-769
972.144	-784
972.229	-763
972.314	-1740
972.399	-98
972.484	-1177
972.569	584
972.654	-631
972.739	3627
972.824	1115
972.908	-187
972.993	-932
973.078	-1043
973.163	-1523
973.247	-2040
973.332	-2186
973.417	-101
973.501	-1449
973.586	-831
973.671	219
973.755	-1365
973.840	197
973.924	-273
974.009	-10
974.093	-1003
974.178	1136
974.262	2497
974.346	721
974.431	-339
974.515	-1646
974.600	-1319
974.684	-1216
974.768	-1801
974.852	-904
974.937	-1975
975.021	-245
975.105	-959
975.189	-1236
975.273	-425
975.358	-1054
975.442	-2238
975.526	-1293
975.610	-1637
975.694	-1995
975.778	271
975.862	-786
975.946	-2439
976.030	100
976.114	-2254
976.198	-1539
976.281	-978
976.365	-1104
976.449	-1345
976.533	-582
976.617	-1874
976.700	-622
976.784	-690
976.868	-441
976.951	560
977.035	18
977.119	-667
977.202	-1360
977.286	-927
977.369	-325
977.453	-684
977.536	-1612
977.620	-993
977.703	-172
977.787	-1075
977.870	-408
977.953	595
978.037	-1975
978.120	387
978.203	1333
978.287	2627
978.370	-123
978.453	-861
978.536	-1150
978.620	1245
978.703	252
978.786	59
978.869	-1881
978.952	-1927
979.035	487
979.118	-904
979.201	-1035
979.284	-995
979.367	-2126
979.450	-427
979.533	-1349
979.616	-1656
979.699	-1034
979.782	-224
979.865	-1989
979.948	-1722
980.030	-1751
980.113	-1269
980.196	-2347
980.279	-1065
980.361	-918
980.444	-1463
980.526	-936
980.609	-1262
980.692	-1603
980.774	-782
980.857	-1273
980.939	14
981.022	-2051
981.104	-1465
981.187	-913
981.269	-145
981.352	-1185
981.434	-1845
981.516	-1040
981.599	-560
981.681	-574
981.763	-1423
981.846	-642
981.928	-1303
982.010	-2152
982.092	-1925
982.174	-344
982.256	-1445
982.339	-1500
982.421	-1395
982.503	-601
982.585	-1513
982.667	-1530
982.749	-702
982.831	-458
982.913	-2227
982.995	-352
983.077	-1497
983.158	93
983.240	-1957
983.322	-1180
983.404	-586
983.486	-2016
983.568	-402
983.649	-1497
983.731	-1256
983.813	-1398
983.894	-810
983.976	-1586
984.058	-1592
984.139	-790
984.221	-1714
984.302	-865
984.384	-916
984.465	-1270
984.547	-1144
984.628	-1780
984.710	-1420
984.791	-1557
984.872	-1012
984.954	-1469
985.035	-1544
985.116	-1642
985.198	-1432
985.279	-178
985.360	-1867
985.441	-1352
985.522	-479
985.604	-2095
985.685	-2712
985.766	-689
985.847	-237
985.928	-1529
986.009	-473
986.090	-1650
986.171	-595
986.252	-1689
986.333	-1152
986.414	-1633
986.495	-681
986.576	-1450
986.656	-955
986.737	-370
986.818	-872
986.899	-1279
986.980	-1216
987.060	-877
987.141	-1778
987.222	-1197
987.302	-1328
987.383	-887
987.464	-2243
987.544	-945
987.625	-1621
987.705	-366
987.786	-1473
987.866	-1764
987.947	-1169
988.027	-1083
988.108	-1555
988.188	-567
988.268	-805
988.349	-303
988.429	-1443
988.509	-658
988.589	-1789
988.670	-2709
988.750	-57
988.830	-1172
988.910	520
988.990	-1386
989.070	-1488
989.151	-978
989.231	-1871
989.311	-570
989.391	-1157
989.471	-286
989.551	-1451
989.631	-1896
989.711	-1170
989.791	-2317
989.870	-844
989.950	-355
990.030	-1829
990.110	-1645
990.190	-1787
990.269	-1804
990.349	-1869
990.429	-949
990.509	-1252
990.588	-1940
990.668	-1158
990.747	-1396
990.827	-1621
990.907	-1651
990.986	-1310
991.066	-877
991.145	-1672
991.225	-480
991.304	-908
991.383	-736
991.463	-1933
991.542	-1231
991.622	-1407
991.701	-1848
991.780	-1295
991.859	-990
991.939	-1631
992.018	-1236
992.097	-1259
992.176	-865
992.256	-1831
992.335	-1720
992.414	-578
992.493	-1933
992.572	-904
992.651	-570
992.730	-2319
992.809	-1135
992.888	-1832
992.967	-1431
993.046	-954
993.125	-1613
993.203	-938
993.282	-1208
993.361	-764
993.440	-1328
993.519	-1351
993.597	-1506
993.676	-1420
993.755	-1022
993.834	-1040
993.912	-1509
993.991	-1330
994.069	-2152
994.148	-932
994.226	-1673
994.305	-447
994.384	-1179
994.462	-819
994.540	-1664
994.619	-1373
994.697	-703
994.776	-1564
994.854	-866
994.932	-1286
995.011	-1335
995.089	-1212
995.167	-1419
995.245	-988
995.324	-2609
995.402	-965
995.480	-1868
995.558	-527
995.636	-2656
995.714	-2075
995.792	-1047
995.870	-1746
995.948	-1600
996.026	-638
996.104	-2308
996.182	97
996.260	-1554
996.338	-1207
996.416	-1849
996.494	-2181
996.572	-892
996.649	-1620
996.727	-2964
996.805	-415
996.883	-1674
996.960	-2228
997.038	-1472
997.116	-1641
997.193	-1475
997.271	-763
997.348	-1524
997.426	-1564
997.504	-2435
997.581	-437
997.658	-936
997.736	-1240
997.813	-1553
997.891	-1034
997.968	-1879
998.046	-1268
998.123	-1417
998.200	-1440
998.277	-1802
998.355	-490
998.432	-2788
998.509	-966
998.586	-1409
998.663	-1479
998.741	-1980
998.818	-1812
998.895	-1064
998.972	-884
999.049	-828
999.126	-1294
999.203	-619
999.280	-1336
999.357	-1901
999.434	-738
999.511	-1425
999.587	-907
999.664	-1704
999.741	-1114
999.818	-808
999.895	-1620
999.971	-1707
1000.048	-1416
1000.125	-693
1000.202	-2183
1000.278	-1406
1000.355	-1978
1000.431	-1925
1000.508	-1626
1000.584	-1974
1000.661	-1315
1000.738	-1425
1000.814	-1521
1000.890	-1672
1000.967	-1017
1001.043	-952
1001.120	-2384
1001.196	-800
1001.272	-2249
1001.349	-963
1001.425	-904
1001.501	-1258
1001.577	-1963
1001.654	-780
1001.730	-2231
1001.806	-504
1001.882	-2443
1001.958	-885
1002.034	-942
1002.110	-1247
1002.186	-1059
1002.262	-1989
1002.338	-831
1002.414	-1204
1002.490	-1694
1002.566	-1670
1002.642	-1859
1002.718	-628
1002.794	-885
1002.870	-1110
1002.945	-1912
1003.021	-1378
1003.097	-1517
1003.173	-940
1003.248	-1915
1003.324	-1341
1003.400	-944
1003.475	-2242
1003.551	-1300
1003.626	-1715
1003.702	-1625
1003.777	-1381
1003.853	-1263
1003.928	-2272
1004.004	-1481
1004.079	-348
1004.155	-2182
1004.230	-2316
1004.305	-1084
1004.381	-1945
1004.456	-1686
1004.531	-498
1004.607	-1731
1004.682	-1264
1004.757	-1560
1004.832	-1665
1004.907	-1270
1004.982	-1801
1005.057	-1097
1005.133	-1792
1005.208	-1844
1005.283	-1558
1005.358	-552
1005.433	-2078
1005.508	-691
1005.583	-1436
1005.657	-1493
1005.732	-714
1005.807	-1779
1005.882	-1394
1005.957	-1511
1006.032	-1494
1006.106	-1735
1006.181	-821
1006.256	-1127
1006.331	-2021
1006.405	-2479
1006.480	-1889
1006.554	-1747
1006.629	-1720
1006.704	-1997
1006.778	-1801
1006.853	-1396
1006.927	-1984
1007.002	-2595
1007.076	-1995
1007.150	-2114
1007.225	-1831
1007.299	-1474
1007.373	-1988
1007.448	-1396
1007.522	-1152
1007.596	-1400
1007.671	-1674
1007.745	-1204
1007.819	-1923
1007.893	-2086
1007.967	-1769
1008.041	-3001
1008.115	-2265
1008.190	-1955
1008.264	-804
1008.338	-3013
1008.412	-1635
1008.486	-1831
1008.560	-1046
1008.633	-1765
1008.707	-1702
1008.781	-1545
1008.855	-1997
1008.929	-1986
1009.003	-2347
1009.076	-1600
1009.150	-1189
1009.224	-2159
1009.298	-1321
1009.371	-1081
1009.445	-1584
1009.519	-2195
1009.592	-1900
1009.666	-2055
1009.739	-1182
1009.813	-2057
1009.886	-112
1009.960	-2257
1010.033	-909
1010.107	-1264
1010.180	-2766
1010.253	-1015
1010.327	-2628
1010.400	-1244
1010.473	-1721
1010.547	-577
1010.620	-1947
1010.693	-930
1010.766	-2070
1010.840	-1259
1010.913	-1628
1010.986	-1877
1011.059	-720
1011.132	-1401
1011.205	-658
1011.278	-1590
1011.351	-2366
1011.424	-1778
1011.497	-1962
1011.570	-1960
1011.643	-1371
1011.716	-1351
1011.789	-1950
1011.862	-1057
1011.934	-1485
1012.007	-2753
1012.080	-1699
1012.153	-1864
1012.225	-1236
1012.298	-2486
1012.371	-1860
1012.443	-1707
1012.516	-2769
1012.588	-2466
1012.661	-768
1012.733	-2092
1012.806	-1254
1012.879	-1573
1012.951	-2164
1013.023	-1847
1013.096	-1513
1013.168	-2387
1013.241	-1406
1013.313	-1640
1013.385	-2369
1013.458	-1891
1013.530	-1637
1013.602	-2262
1013.674	-689
1013.746	-2598
1013.819	-2028
1013.891	-1834
1013.963	-1927
1014.035	-1892
1014.107	-1512
1014.179	-2289
1014.251	-2944
1014.323	-1612
1014.395	-1291
1014.467	-1066
1014.539	-1709
1014.611	-2368
1014.683	-1351
1014.754	-1360
1014.826	-2422
1014.898	-2052
1014.970	-2461
1015.042	-1514
1015.113	-994
1015.185	-1374
1015.257	-2949
1015.328	-1394
1015.400	-2603
1015.471	-2202
1015.543	-2388
1015.615	-2251
1015.686	-1559
1015.757	-1963
1015.829	-1629
1015.901	-2601
1015.972	-1969
1016.043	-2491
1016.115	-1082
1016.186	-1534
1016.257	-2446
1016.328	-1360
1016.400	-1885
1016.471	-2292
1016.542	-1588
1016.613	-2607
1016.685	-2061
1016.756	-1948
1016.827	-1726
1016.898	-2307
1016.969	-1194
1017.040	-2122
1017.111	-2207
1017.182	-2339
1017.253	-2044
1017.324	-2066
1017.395	-2207
1017.466	-2445
1017.537	-2437
1017.608	-1891
1017.678	-1436
1017.749	-3368
1017.820	-2440
1017.891	-1775
1017.961	-2562
1018.032	-2719
1018.103	-2509
1018.173	-1941
1018.244	-1340
1018.315	-2053
1018.385	-1298
1018.456	-2005
1018.526	-2179
1018.597	-1879
1018.667	-1795
1018.738	-2102
1018.808	-2255
1018.878	-1554
1018.949	-2013
1019.019	-2076
1019.089	-1506
1019.160	-2211
1019.230	-2452
1019.300	-1908
1019.371	-2978
1019.441	-1472
1019.511	-1601
1019.581	-2010
1019.651	-2415
1019.721	-2322
1019.791	-2104
1019.861	-2209
1019.931	-1966
1020.001	-2074
1020.071	-2351
1020.141	-2352
1020.211	-2203
1020.281	-2428
1020.351	-3049
1020.421	-1700
1020.491	-1750
1020.560	-2390
1020.630	-1949
1020.700	-2407
1020.770	-2263
1020.839	-2303
1020.909	-1866
1020.979	-1623
1021.048	-2124
1021.118	-2153
1021.187	-2282
1021.257	-1916
1021.326	-1381
1021.396	-1483
1021.465	-1889
1021.535	-2535
1021.604	-2131
1021.674	-1897
1021.743	-1228
1021.812	-2366
1021.882	-2510
1021.951	-2162
1022.020	-2465
1022.089	-1834
1022.159	-1858
1022.228	-2464
1022.297	-2002
1022.366	-2681
1022.435	-2200
1022.504	-2595
1022.573	-2632
1022.642	-1726
1022.711	-1698
1022.781	-2007
1022.849	-2085
1022.918	-1776
1022.987	-2256
1023.056	-2771
1023.125	-2791
1023.194	-2119
1023.263	-2226
1023.331	-2768
1023.400	-2418
1023.469	-2443
1023.538	-1840
1023.606	-1879
1023.675	-2111
1023.744	-1940
1023.812	-1771
1023.881	-2494
1023.949	-1925
1024.018	-2178
1024.086	-2296
1024.155	-2585
1024.223	-1828
1024.292	-1878
1024.360	-2138
1024.429	-2291
1024.497	-2508
1024.565	-1629
1024.634	-1960
1024.702	-2348
1024.770	-2450
1024.838	-3324
1024.907	-2264
1024.975	-1582
1025.043	-1855
1025.111	-2722
1025.179	-1811
1025.247	-1923
1025.315	-2541
1025.383	-2398
1025.451	-2582
1025.519	-2644
1025.587	-2141
1025.655	-2403
1025.723	-2597
1025.791	-1371
1025.859	-2518
1025.927	-1970
1025.995	-2409
1026.062	-2376
1026.130	-2522
1026.198	-2019
1026.266	-2038
1026.333	-2159
1026.401	-3077
1026.469	-2381
1026.536	-2074
1026.604	-1983
1026.671	-3030
1026.739	-1929
1026.806	-2248
1026.874	-2912
1026.941	-2022
1027.009	-2404
1027.076	-1820
1027.144	-964
1027.211	-2382
1027.278	-2433
1027.345	-2008
1027.413	-1872
1027.480	-3129
1027.547	-2035
1027.614	-2139
1027.682	-1667
1027.749	-2897
1027.816	-2114
1027.883	-2067
1027.950	-1798
1028.017	-2272
1028.084	-1697
1028.151	-2090
1028.218	-2790
1028.285	-2576
1028.352	-2477
1028.419	-2600
1028.486	-2941
1028.553	-2139
1028.619	-2649
1028.686	-1595
1028.753	-1872
1028.820	-1685
1028.886	-1709
1028.953	-2077
1029.020	-2194
1029.086	-2522
1029.153	-1847
1029.220	-2295
1029.286	-1650
1029.353	-1831
1029.419	-2704
1029.486	-2039
1029.552	-2405
1029.619	-1951
1029.685	-2511
1029.751	-1622
1029.818	-1492
1029.884	-2011
1029.951	-1778
1030.017	-2155
1030.083	-1946
1030.149	-2491
1030.216	-2842
1030.282	-2131
1030.348	-2411
1030.414	-1990
1030.480	-2518
1030.546	-2034
1030.612	-1203
1030.678	-2672
1030.744	-3101
1030.810	-2033
1030.876	-2114
1030.942	-2364
1031.008	-1799
1031.074	-1940
1031.140	-2389
1031.206	-1708
1031.272	-2140
1031.337	-2889
1031.403	-1791
1031.469	-2436
1031.534	-2060
1031.600	-2488
1031.666	-2278
1031.731	-2922
1031.797	-2551
1031.863	-2321
1031.928	-1574
1031.994	-2170
1032.059	-2138
1032.125	-1973
1032.190	-2466
1032.256	-2513
1032.321	-3519
1032.386	-1354
1032.452	-1419
1032.517	-2157
1032.582	-2424
1032.647	-2132
1032.713	-2257
1032.778	-2091
1032.843	-1784
1032.908	-2577
1032.974	-1374
1033.039	-3212
1033.104	-2117
1033.169	-2929
1033.234	-1768
1033.299	-1936
1033.364	-1717
1033.429	-2324
1033.494	-2860
1033.559	-2404
1033.624	-2061
1033.688	-1892
1033.753	-2515
1033.818	-2479
1033.883	-1759
1033.948	-2151
1034.013	-2369
1034.077	-1338
1034.142	-1671
1034.207	-1316
1034.271	-1359
1034.336	-907
1034.400	-872
1034.465	-1273
1034.530	-1097
1034.594	-2072
1034.658	-2233
1034.723	-2460
1034.787	-2705
1034.852	-3017
1034.916	-2537
1034.981	-2080
1035.045	-2016
1035.109	-2267
1035.173	-1898
1035.238	-1929
1035.302	-1904
1035.366	-2065
1035.430	-1245
1035.495	-2468
1035.559	-1859
1035.623	-2356
1035.687	-2732
1035.751	-2413
1035.815	-1555
1035.879	-2241
1035.943	-1969
1036.007	-1765
1036.071	-1243
1036.135	-2494
1036.198	-1956
1036.262	-2499
1036.326	-2186
1036.390	-2444
1036.454	-2340
1036.517	-1769
1036.581	-1245
1036.645	-352
1036.709	-1096
1036.772	-1760
1036.836	-2275
1036.900	-1949
1036.963	-2609
1037.026	-2142
1037.090	-1313
1037.154	-2109
1037.217	-2378
1037.280	-2346
1037.344	-2353
1037.407	-2719
1037.471	-2155
1037.534	-2454
1037.597	-2442
1037.661	-2401
1037.724	-1865
1037.787	-2225
1037.850	-2540
1037.913	-2236
1037.977	-2170
1038.040	-2671
1038.103	-2220
1038.166	-3032
1038.229	-2748
1038.292	-2440
1038.355	-2118
1038.418	-1888
1038.481	-1051
1038.544	-2111
1038.607	-1869
1038.670	-1446
1038.732	-2351
1038.795	-2514
1038.858	-2216
1038.921	-2178
1038.984	-1212
1039.046	-2393
1039.109	-2536
1039.172	-2100
1039.234	-1980
1039.297	-2110
1039.360	-1788
1039.422	-2158
1039.485	-2337
1039.547	-1845
1039.610	-2160
1039.672	-1913
1039.734	-2583
1039.797	-2049
1039.859	-1966
1039.922	-1724
1039.984	-2208
1040.046	-1582
1040.109	-2275
1040.171	-2344
1040.233	-2165
1040.295	-2520
1040.358	-2683
1040.420	-2502
1040.482	-1845
1040.544	-2705
1040.606	-2402
1040.668	-2353
1040.730	-1937
1040.792	-2435
1040.854	-2200
1040.916	-2230
1040.978	-2359
1041.040	-1329
1041.102	-2233
1041.164	-2278
1041.225	-2514
1041.287	-2366
1041.349	-1896
1041.411	-1643
1041.472	-2086
1041.534	-2719
1041.596	-2310
1041.657	-2274
1041.719	-2048
1041.781	-2022
1041.842	-2286
1041.904	-1621
1041.965	-2571
1042.027	-1523
1042.088	-1307
1042.150	-2244
1042.211	-2122
1042.272	-1442
1042.334	-2207
1042.395	-2084
1042.456	-3246
1042.518	-2146
1042.579	-2056
1042.640	-2202
1042.701	-1823
1042.763	-2476
1042.824	-2763
1042.885	-2440
1042.946	-2046
1043.007	-1993
1043.068	-3030
1043.129	-2239
1043.190	-2381
1043.251	-2612
1043.312	-3078
1043.373	-2754
1043.434	-2321
1043.495	-2064
1043.556	-1452
1043.616	-2714
1043.677	-1372
1043.738	-1911
1043.799	-2497
1043.859	-2368
1043.920	-2571
1043.981	-3371
1044.041	-1988
1044.102	-2235
1044.162	-1984
1044.223	-2208
1044.284	-2417
1044.344	-1943
1044.405	-2643
1044.465	-1508
1044.525	-2197
1044.586	-2381
1044.646	-2160
1044.707	-2112
1044.767	-1752
1044.827	-1779
1044.887	-1603
1044.948	-1540
1045.008	-2105
1045.068	-1938
1045.128	-1762
1045.188	-2331
1045.249	-1771
1045.309	-1171
1045.369	-2259
1045.429	-1969
1045.489	-2344
1045.549	-2163
1045.609	-2335
1045.669	-1778
1045.729	-2080
1045.789	-2312
1045.848	-2289
1045.908	-1739
1045.968	-2199
1046.028	-2568
1046.088	-1158
1046.147	-1632
1046.207	-2098
1046.267	-2053
1046.326	-1647
1046.386	-1212
1046.446	-1305
1046.505	-809
1046.565	-770
1046.624	-1350
1046.684	-1643
1046.743	-1207
1046.803	-1126
1046.862	-515
1046.922	0
