'Start Wavelength	183.907
'End Wavelength	1046.922
'Gate Delay	5.000
'Gate Width (ms)	1.050
'Laser Output Level	0.000
'X Position	0.000
'Y Position	0.000
'Z Position	0.000
'Grid Point Number	1.000
'Shot Number	100.000
183.907	837.000
183.977	-174.000
184.047	-243
184.116	828
184.186	-81
184.256	543
184.325	41
184.395	840
184.465	1193
184.534	783
184.604	-117
184.674	1095
184.743	1071
184.813	832
184.883	398
184.952	657
185.022	234
185.092	467
185.161	319
185.231	1361
185.301	515
185.370	1368
185.440	755
185.509	443
185.579	342
185.649	28
185.718	372
185.788	1047
185.857	14
185.927	682
185.996	619
186.066	1277
186.136	-10
186.205	957
186.275	1249
186.344	610
186.414	478
186.483	213
186.553	1503
186.622	3306
186.692	1297
186.761	398
186.831	1099
186.900	120
186.970	1197
187.039	1741
187.109	1499
187.178	600
187.248	338
187.317	1428
187.387	1479
187.456	1007
187.526	1501
187.595	1248
187.664	1207
187.734	1073
187.803	1671
187.873	1313
187.942	2308
188.012	1451
188.081	624
188.150	717
188.220	2507
188.289	2160
188.358	1744
188.428	1266
188.497	486
188.567	1655
188.636	632
188.705	1122
188.775	478
188.844	820
188.913	1962
188.983	1286
189.052	988
189.121	1218
189.191	1109
189.260	2423
189.329	2300
189.399	1301
189.468	1440
189.537	1561
189.606	978
189.676	2152
189.745	2187
189.814	2493
189.883	1606
189.953	2128
190.022	2983
190.091	8852
190.161	13039
190.230	5135
190.299	1870
190.368	2675
190.437	1255
190.507	2145
190.576	1867
190.645	2205
190.714	942
190.783	2100
190.853	2463
190.922	2105
190.991	3542
191.060	2836
191.129	1744
191.198	2299
191.268	1433
191.337	1878
191.406	2231
191.475	2148
191.544	1533
191.613	1977
191.682	924
191.752	1129
191.821	1097
191.890	1947
191.959	1979
192.028	1248
192.097	1679
192.166	1459
192.235	1016
192.304	1836
192.373	749
192.442	1366
192.511	1207
192.580	876
192.650	1484
192.719	1034
192.788	1694
192.857	2205
192.926	1307
192.995	2222
193.064	3650
193.133	4239
193.202	5361
193.271	5231
193.340	3563
193.409	4268
193.478	4703
193.547	5926
193.615	8169
193.684	7701
193.753	4321
193.822	4182
193.891	2365
193.960	2701
194.029	2634
194.098	2638
194.167	1183
194.236	2882
194.305	1061
194.374	1636
194.443	1898
194.512	2835
194.580	2136
194.649	2895
194.718	2966
194.787	2332
194.856	1651
194.925	3012
194.994	2057
195.062	2290
195.131	3380
195.200	3753
195.269	5336
195.338	3076
195.407	1783
195.475	2647
195.544	4271
195.613	3776
195.682	2137
195.751	3369
195.819	3954
195.888	4580
195.957	4409
196.026	4135
196.094	3491
196.163	4640
196.232	4082
196.301	3391
196.369	2915
196.438	3189
196.507	2642
196.576	2472
196.644	2247
196.713	2823
196.782	2019
196.850	3321
196.919	1959
196.988	2462
197.056	2532
197.125	2614
197.194	2797
197.262	2545
197.331	2289
197.400	1846
197.468	2359
197.537	2536
197.606	3524
197.674	5812
197.743	12946
197.812	5609
197.880	9802
197.949	8892
198.017	10184
198.086	7838
198.155	4251
198.223	4542
198.292	13048
198.360	7883
198.429	3607
198.497	4216
198.566	6912
198.635	13820
198.703	5200
198.772	5244
198.840	13970
198.909	17672
198.977	5007
199.046	5226
199.114	3835
199.183	4362
199.251	2661
199.320	2668
199.388	1889
199.457	3713
199.525	3190
199.594	3173
199.662	3444
199.731	3143
199.799	3767
199.867	3779
199.936	3084
200.004	3741
200.073	3994
200.141	3148
200.210	2553
200.278	2231
200.346	2987
200.415	3863
200.483	4312
200.552	3427
200.620	2452
200.688	3378
200.757	3816
200.825	3802
200.893	2622
200.962	2953
201.030	2447
201.098	3669
201.167	3648
201.235	3438
201.303	3087
201.372	3438
201.440	2840
201.508	3695
201.577	4254
201.645	3971
201.713	2821
201.781	3010
201.850	4768
201.918	3865
201.986	3478
202.055	4121
202.123	3544
202.191	3563
202.259	3620
202.327	3149
202.396	2417
202.464	3604
202.532	4798
202.600	15576
202.669	10446
202.737	4622
202.805	3279
202.873	3537
202.941	3261
203.009	3541
203.078	1997
203.146	2900
203.214	2969
203.282	3839
203.350	3380
203.418	3525
203.487	3673
203.555	3150
203.623	4082
203.691	3498
203.759	3442
203.827	3346
203.895	3117
203.963	4159
204.031	2872
204.099	5060
204.168	3067
204.236	4345
204.304	3838
204.372	4180
204.440	3842
204.508	4197
204.576	3059
204.644	3286
204.712	2999
204.780	3457
204.848	3659
204.916	2791
204.984	3085
205.052	4683
205.120	4324
205.188	4212
205.256	3455
205.324	3607
205.392	3352
205.460	4568
205.528	5247
205.596	4432
205.664	4429
205.732	5354
205.799	15401
205.867	28024
205.935	7764
206.003	5364
206.071	4064
206.139	6153
206.207	5551
206.275	4969
206.343	3628
206.411	4399
206.478	3805
206.546	5033
206.614	4054
206.682	4230
206.750	4305
206.818	6410
206.885	5633
206.953	3850
207.021	4447
207.089	4083
207.157	3320
207.225	5144
207.292	3826
207.360	4182
207.428	4417
207.496	3536
207.563	3823
207.631	4478
207.699	3666
207.767	3684
207.834	3680
207.902	5693
207.970	4607
208.038	4818
208.105	4702
208.173	5196
208.241	7435
208.309	6483
208.376	5616
208.444	11962
208.512	7916
208.579	3493
208.647	6189
208.715	6436
208.782	5346
208.850	4547
208.918	4674
208.985	4339
209.053	5396
209.120	6472
209.188	3531
209.256	5170
209.323	4785
209.391	7838
209.459	6282
209.526	4879
209.594	3776
209.661	4898
209.729	4838
209.796	5344
209.864	4599
209.932	4138
209.999	5996
210.067	6056
210.134	6382
210.202	5939
210.269	8398
210.337	8289
210.404	5251
210.472	5416
210.539	4934
210.607	5385
210.674	7375
210.742	6143
210.809	5178
210.877	7040
210.944	8369
211.012	5819
211.079	8797
211.146	5683
211.214	5530
211.281	9421
211.349	9574
211.416	6815
211.484	7241
211.551	6344
211.618	4925
211.686	5450
211.753	5387
211.821	6188
211.888	5249
211.955	6849
212.023	5176
212.090	6597
212.157	6658
212.225	7232
212.292	15202
212.359	28492
212.427	82481
212.494	39712
212.561	13768
212.629	9423
212.696	8186
212.763	7757
212.831	7152
212.898	6600
212.965	6517
213.032	6385
213.100	7623
213.167	7918
213.234	8608
213.301	5850
213.369	6084
213.436	7011
213.503	6739
213.570	8341
213.638	10406
213.705	6881
213.772	5454
213.839	9143
213.906	11122
213.973	8685
214.041	6679
214.108	7071
214.175	5883
214.242	6628
214.309	6276
214.376	7633
214.444	6903
214.511	8496
214.578	7332
214.645	6738
214.712	7592
214.779	7724
214.846	6385
214.913	9828
214.980	9178
215.048	10082
215.115	11186
215.182	10237
215.249	8360
215.316	7196
215.383	6232
215.450	7196
215.517	6485
215.584	6798
215.651	5689
215.718	6354
215.785	7612
215.852	8331
215.919	9714
215.986	9089
216.053	6382
216.120	5722
216.187	7807
216.254	8925
216.321	7452
216.388	7777
216.455	8269
216.522	8734
216.589	10171
216.656	17604
216.722	17973
216.789	11831
216.856	12592
216.923	9761
216.990	8720
217.057	9669
217.124	11598
217.191	11254
217.258	12389
217.324	15705
217.391	16389
217.458	12622
217.525	10526
217.592	9765
217.659	7877
217.725	9984
217.792	13639
217.859	15043
217.926	7363
217.993	6171
218.059	6131
218.126	5916
218.193	5570
218.260	5369
218.327	4709
218.393	6169
218.460	5330
218.527	4772
218.594	6182
218.660	13413
218.727	15491
218.794	8150
218.860	5080
218.927	5742
218.994	4526
219.061	5723
219.127	8022
219.194	13391
219.261	7107
219.327	4525
219.394	4712
219.461	4235
219.527	4295
219.594	9894
219.661	7154
219.727	5039
219.794	6300
219.860	5746
219.927	6510
219.994	10954
220.060	17276
220.127	11896
220.193	8276
220.260	8579
220.326	10592
220.393	17386
220.460	24291
220.526	17152
220.593	10515
220.659	12532
220.726	12853
220.792	33434
220.859	29714
220.925	30383
220.992	40731
221.058	44593
221.125	49392
221.191	39105
221.258	16281
221.324	11175
221.391	11568
221.457	8009
221.524	7793
221.590	12127
221.657	43101
221.723	32836
221.789	27489
221.856	27215
221.922	14677
221.989	10197
222.055	9356
222.121	7514
222.188	8660
222.254	7738
222.321	6669
222.387	4743
222.453	5182
222.520	5044
222.586	4812
222.652	5891
222.719	6393
222.785	7010
222.851	5134
222.918	5037
222.984	6901
223.050	7726
223.116	6093
223.183	6306
223.249	3975
223.315	3949
223.382	6216
223.448	5311
223.514	3830
223.580	3736
223.647	4284
223.713	4189
223.779	4150
223.845	4720
223.911	5023
223.978	3674
224.044	4576
224.110	4850
224.176	4728
224.242	4643
224.309	3560
224.375	4261
224.441	3796
224.507	4245
224.573	4713
224.639	5566
224.705	4172
224.772	4855
224.838	4005
224.904	8467
224.970	7088
225.036	6015
225.102	7316
225.168	8292
225.234	5747
225.300	7833
225.366	7193
225.432	5381
225.499	5123
225.565	7772
225.631	6667
225.697	6584
225.763	7505
225.829	8902
225.895	8878
225.961	15864
226.027	16053
226.093	13243
226.159	13382
226.225	17549
226.291	35318
226.357	62368
226.423	35424
226.489	21063
226.554	14428
226.620	13519
226.686	17029
226.752	26940
226.818	35118
226.884	78345
226.950	72041
227.016	29758
227.082	18181
227.148	14290
227.214	15068
227.279	12750
227.345	10635
227.411	9444
227.477	9448
227.543	16014
227.609	19033
227.674	12981
227.740	9924
227.806	9035
227.872	7828
227.938	8158
228.003	16851
228.069	9922
228.135	5829
228.201	5859
228.267	6218
228.332	8439
228.398	11642
228.464	8859
228.530	5043
228.595	5938
228.661	5789
228.727	12772
228.792	11124
228.858	6737
228.924	7953
228.990	11140
229.055	9880
229.121	11882
229.187	7035
229.252	9211
229.318	7010
229.384	7771
229.449	10521
229.515	4923
229.581	3916
229.646	7325
229.712	7641
229.777	18755
229.843	22020
229.909	13948
229.974	13653
230.040	14341
230.105	8885
230.171	11978
230.236	14001
230.302	23571
230.368	20074
230.433	9625
230.499	10516
230.564	10674
230.630	7588
230.695	6708
230.761	6923
230.826	5737
230.892	11869
230.957	8078
231.023	5606
231.088	7467
231.154	7215
231.219	8202
231.284	11972
231.350	12450
231.415	7147
231.481	6610
231.546	4920
231.612	5870
231.677	4253
231.742	5387
231.808	7659
231.873	5747
231.939	4480
232.004	13305
232.069	14140
232.135	8627
232.200	8356
232.265	6854
232.331	5436
232.396	5238
232.461	4250
232.527	6039
232.592	6074
232.657	8093
232.723	26198
232.788	23096
232.853	7602
232.918	6615
232.984	6329
233.049	6442
233.114	25660
233.179	24702
233.245	32026
233.310	50193
233.375	13244
233.440	9917
233.506	7172
233.571	7530
233.636	7434
233.701	8553
233.766	27046
233.832	42603
233.897	14409
233.962	12100
234.027	15055
234.092	11802
234.157	10860
234.222	12261
234.288	21536
234.353	88888
234.418	86452
234.483	40899
234.548	23878
234.613	16686
234.678	14977
234.743	20564
234.808	91691
234.873	67034
234.938	19036
235.004	14301
235.069	12788
235.134	14842
235.199	11465
235.264	9748
235.329	7915
235.394	10971
235.459	20055
235.524	20834
235.589	11747
235.654	9293
235.719	8609
235.784	10719
235.849	15298
235.913	51844
235.978	57725
236.043	73481
236.108	22623
236.173	21305
236.238	23542
236.303	12618
236.368	14843
236.433	26473
236.498	61161
236.563	26247
236.627	34509
236.692	105051
236.757	90028
236.822	46113
236.887	48650
236.952	28600
237.017	24773
237.081	27219
237.146	26418
237.211	48951
237.276	99274
237.341	189562
237.405	115899
237.470	45312
237.535	46244
237.600	24493
237.664	18912
237.729	14610
237.794	17739
237.859	33462
237.923	44218
237.988	27235
238.053	39291
238.118	46755
238.182	107916
238.247	109331
238.312	59766
238.376	37715
238.441	32633
238.506	24662
238.570	13039
238.635	13795
238.700	10598
238.764	12719
238.829	46631
238.893	73265
238.958	22459
239.023	19589
239.087	12357
239.152	17021
239.216	11431
239.281	10553
239.346	9121
239.410	11095
239.475	19022
239.539	108002
239.604	101838
239.668	25159
239.733	14818
239.797	16532
239.862	34035
239.926	89761
239.991	39075
240.055	18951
240.120	13753
240.184	13107
240.249	14045
240.313	12412
240.378	15801
240.442	64565
240.507	118233
240.571	36521
240.635	53193
240.700	75195
240.764	22839
240.829	14939
240.893	11500
240.957	14832
241.022	58494
241.086	123736
241.151	61933
241.215	19711
241.279	26113
241.344	69050
241.408	26050
241.472	14819
241.537	14123
241.601	13047
241.665	10947
241.730	10768
241.794	16503
241.858	12033
241.922	10024
241.987	11701
242.051	9119
242.115	9993
242.179	10071
242.244	9945
242.308	13170
242.372	16694
242.436	28868
242.501	15671
242.565	11278
242.629	9908
242.693	10292
242.757	8774
242.822	13890
242.886	16093
242.950	16046
243.014	22962
243.078	17839
243.142	16394
243.206	16779
243.271	22859
243.335	19355
243.399	23509
243.463	81969
243.527	229216
243.591	78831
243.655	32519
243.719	20634
243.783	18886
243.847	29170
243.911	44562
243.975	54305
244.040	38593
244.104	18906
244.168	13525
244.232	22197
244.296	32214
244.360	34071
244.424	30111
244.488	30459
244.552	25367
244.615	20058
244.679	16467
244.743	19220
244.807	20145
244.871	12163
244.935	11924
244.999	11865
245.063	13857
245.127	14339
245.191	23370
245.255	25140
245.319	19875
245.383	20088
245.446	17422
245.510	11997
245.574	14353
245.638	14355
245.702	15159
245.766	35451
245.829	24585
245.893	28378
245.957	17253
246.021	16800
246.085	19755
246.149	30102
246.212	52672
246.276	69895
246.340	36197
246.404	28211
246.467	27371
246.531	43538
246.595	28346
246.659	27328
246.722	25717
246.786	25331
246.850	26139
246.913	35187
246.977	20566
247.041	20614
247.104	25595
247.168	18459
247.232	43803
247.295	91020
247.359	49409
247.423	23652
247.486	42700
247.550	28250
247.614	21207
247.677	27019
247.741	19678
247.804	17124
247.868	23327
247.932	38182
247.995	87700
248.059	39620
248.122	20408
248.186	26822
248.249	46096
248.313	129719
248.376	142534
248.440	96622
248.503	38935
248.567	29080
248.630	45256
248.694	57728
248.757	64077
248.821	141020
248.884	85611
248.948	82374
249.011	119618
249.075	169312
249.138	150079
249.202	61230
249.265	46023
249.328	101911
249.392	55515
249.455	31332
249.519	23511
249.582	29465
249.645	44585
249.709	34696
249.772	27713
249.835	28165
249.899	47565
249.962	29149
250.025	23129
250.089	52032
250.152	77202
250.215	41601
250.279	34344
250.342	36274
250.405	36419
250.468	25766
250.532	33680
250.595	54793
250.658	185256
250.721	331689
250.785	114794
250.848	57746
250.911	37157
250.974	31939
251.038	41076
251.101	85824
251.164	61971
251.227	58577
251.290	46404
251.354	63951
251.417	258013
251.480	281204
251.543	168554
251.606	482001
251.669	387415
251.732	142167
251.795	130601
251.859	132429
251.922	312373
251.985	190487
252.048	68797
252.111	54692
252.174	52482
252.237	80199
252.300	174061
252.363	190824
252.426	402281
252.489	186134
252.552	123517
252.615	88844
252.678	73713
252.741	133923
252.804	179209
252.867	411431
252.930	253800
252.993	150797
253.056	80956
253.119	66910
253.182	52119
253.245	79571
253.308	63301
253.371	80165
253.434	75145
253.497	63650
253.559	93598
253.622	73483
253.685	104862
253.748	98919
253.811	51317
253.874	87380
253.937	88576
254.000	42920
254.062	64138
254.125	98693
254.188	85838
254.251	83413
254.314	46092
254.376	75605
254.439	79202
254.502	68303
254.565	66845
254.628	108652
254.690	77396
254.753	46241
254.816	39065
254.878	50916
254.941	80892
255.004	85301
255.067	45797
255.129	40310
255.192	22113
255.255	19941
255.317	26934
255.380	19694
255.443	15311
255.505	17682
255.568	19729
255.631	18592
255.693	17884
255.756	16080
255.819	15954
255.881	13652
255.944	15247
256.006	18381
256.069	18486
256.132	15525
256.194	29738
256.257	116263
256.319	87302
256.382	81039
256.444	29602
256.507	20629
256.569	16521
256.632	20675
256.694	47669
256.757	61820
256.819	154349
256.882	72621
256.944	33312
257.007	27278
257.069	36633
257.132	28464
257.194	18031
257.257	16663
257.319	19322
257.381	20544
257.444	54801
257.506	175275
257.569	216170
257.631	158662
257.693	79782
257.756	44524
257.818	54110
257.880	26706
257.943	20861
258.005	18286
258.067	18347
258.130	17072
258.192	22261
258.254	69903
258.317	45599
258.379	20572
258.441	49331
258.503	54865
258.566	103286
258.628	157993
258.690	37617
258.753	27758
258.815	47149
258.877	29002
258.939	17973
259.001	16234
259.064	16394
259.126	31141
259.188	58453
259.250	28553
259.312	38896
259.375	95483
259.437	63446
259.499	22622
259.561	19258
259.623	19273
259.685	20258
259.747	24704
259.809	97583
259.872	213447
259.934	270507
259.996	238721
260.058	59759
260.120	31795
260.182	24223
260.244	19686
260.306	16724
260.368	18272
260.430	17835
260.492	33685
260.554	78600
260.616	77794
260.678	116708
260.740	211557
260.802	53140
260.864	33289
260.926	27176
260.988	25896
261.050	26601
261.112	53485
261.174	175047
261.236	173676
261.298	47668
261.359	90509
261.421	149605
261.483	39023
261.545	27093
261.607	20266
261.669	21174
261.731	55726
261.793	146520
261.854	53208
261.916	31863
261.978	24944
262.040	32300
262.102	29878
262.164	61391
262.225	51592
262.287	21480
262.349	44985
262.411	40469
262.472	23552
262.534	62468
262.596	162416
262.658	46336
262.719	25971
262.781	37210
262.843	146622
262.904	65645
262.966	39178
263.028	51386
263.090	195266
263.151	505347
263.213	158921
263.275	69900
263.336	37399
263.398	25571
263.459	19958
263.521	19514
263.583	40651
263.644	32303
263.706	15061
263.767	13882
263.829	13855
263.891	11524
263.952	11160
264.014	12335
264.075	17764
264.137	42965
264.198	26033
264.260	13553
264.321	12775
264.383	28969
264.444	67282
264.506	25160
264.567	16716
264.629	24989
264.690	53405
264.752	23295
264.813	15849
264.875	13020
264.936	12491
264.998	12076
265.059	11440
265.120	12464
265.182	19243
265.243	70062
265.305	78089
265.366	23343
265.427	14963
265.489	13474
265.550	9621
265.611	15526
265.673	15175
265.734	12271
265.795	10680
265.857	11318
265.918	11946
265.979	23350
266.040	116030
266.102	107742
266.163	32531
266.224	29374
266.286	19217
266.347	14450
266.408	15561
266.469	27338
266.530	21112
266.592	13083
266.653	30948
266.714	54297
266.775	18802
266.836	12910
266.898	11647
266.959	18682
267.020	14868
267.081	11665
267.142	9595
267.203	10574
267.264	9764
267.326	12377
267.387	11151
267.448	9451
267.509	10276
267.570	10577
267.631	9278
267.692	8760
267.753	9940
267.814	10532
267.875	22445
267.936	53327
267.997	25939
268.058	23014
268.119	15224
268.180	14855
268.241	12497
268.302	11601
268.363	9713
268.424	13243
268.485	18996
268.546	13759
268.607	7798
268.668	7843
268.729	8526
268.790	11696
268.851	14394
268.912	32859
268.972	44216
269.033	23631
269.094	12942
269.155	10689
269.216	11342
269.277	21914
269.338	14996
269.398	11624
269.459	13932
269.520	19109
269.581	25626
269.642	30418
269.702	21219
269.763	16429
269.824	13910
269.885	16527
269.945	26706
270.006	13032
270.067	10126
270.128	11209
270.188	11744
270.249	13268
270.310	10323
270.370	11946
270.431	21096
270.492	10862
270.553	12094
270.613	28177
270.674	55030
270.734	28691
270.795	15369
270.856	22028
270.916	22891
270.977	15029
271.038	15737
271.098	18156
271.159	27027
271.219	35767
271.280	15830
271.340	14087
271.401	23762
271.462	89482
271.522	40333
271.583	20031
271.643	23223
271.704	17921
271.764	19489
271.825	38262
271.885	113259
271.946	166954
272.006	58055
272.066	67444
272.127	126225
272.187	40965
272.248	26433
272.308	27847
272.369	82362
272.429	53814
272.489	45431
272.550	50985
272.610	41933
272.671	38417
272.731	50552
272.791	109163
272.852	41641
272.912	31480
272.972	19744
273.033	20789
273.093	45751
273.153	33778
273.214	21517
273.274	23668
273.334	64592
273.394	136448
273.455	60542
273.515	52553
273.575	118310
273.635	57667
273.696	87442
273.756	151094
273.816	62867
273.876	44890
273.936	123814
273.997	254373
274.057	62280
274.117	38381
274.177	47199
274.237	152727
274.297	172864
274.358	184699
274.418	118424
274.478	88547
274.538	44913
274.598	50896
274.658	209147
274.718	291094
274.778	105933
274.838	53698
274.898	118593
274.958	403760
275.018	205088
275.078	108241
275.138	54103
275.198	34211
275.258	27831
275.318	40759
275.378	67437
275.438	53882
275.498	44303
275.558	141868
275.618	291938
275.678	123023
275.738	66332
275.798	54180
275.858	32817
275.918	21879
275.978	23571
276.038	22650
276.098	18834
276.157	36620
276.217	99366
276.277	49744
276.337	34635
276.397	22955
276.457	26580
276.517	21876
276.576	16867
276.636	17371
276.696	29797
276.756	72642
276.815	61979
276.875	28110
276.935	35491
276.995	28681
277.055	17389
277.114	18283
277.174	24161
277.234	70934
277.293	38832
277.353	22582
277.413	17342
277.472	21054
277.532	22055
277.592	24593
277.651	69204
277.711	140916
277.771	52641
277.830	146002
277.890	135601
277.950	97790
278.009	256228
278.069	105144
278.128	89415
278.188	139744
278.248	63600
278.307	143001
278.367	107528
278.426	44823
278.486	29395
278.545	24602
278.605	21280
278.664	21004
278.724	24145
278.783	50571
278.843	131892
278.902	49576
278.962	32749
279.021	43048
279.081	108613
279.140	112967
279.199	50222
279.259	42856
279.318	45487
279.378	63156
279.437	114796
279.496	329237
279.556	1031567
279.615	954833
279.675	291095
279.734	164734
279.793	247849
279.853	339155
279.912	115392
279.971	69134
280.031	60230
280.090	81362
280.149	138307
280.208	173760
280.268	693491
280.327	810515
280.386	222588
280.445	127767
280.505	110579
280.564	63322
280.623	49257
280.682	55203
280.742	77863
280.801	33669
280.860	26522
280.919	23528
280.978	23019
281.037	26144
281.097	22233
281.156	20895
281.215	20827
281.274	24980
281.333	80872
281.392	74231
281.451	23418
281.510	19689
281.569	18674
281.628	18589
281.688	16779
281.747	18597
281.806	22005
281.865	16833
281.924	13551
281.983	16487
282.042	12978
282.101	13031
282.160	13276
282.219	12886
282.278	15349
282.337	46035
282.396	38062
282.454	17741
282.513	21442
282.572	68700
282.631	47110
282.690	17995
282.749	16473
282.808	23194
282.867	24120
282.926	22040
282.985	13119
283.043	13102
283.102	14353
283.161	22877
283.220	45065
283.279	89121
283.338	31716
283.396	19739
283.455	18504
283.514	19315
283.573	30617
283.631	27118
283.690	18615
283.749	17139
283.808	32866
283.866	42213
283.925	19168
283.984	18810
284.043	25704
284.101	32221
284.160	21632
284.219	33046
284.277	25516
284.336	34135
284.395	94822
284.453	89533
284.512	34178
284.570	42151
284.629	39972
284.688	34211
284.746	37704
284.805	43398
284.863	54705
284.922	65215
284.981	74611
285.039	102743
285.098	170929
285.156	369199
285.215	675596
285.273	649519
285.332	415324
285.390	232782
285.449	148785
285.507	102399
285.566	77288
285.624	63412
285.683	48149
285.741	40560
285.799	36146
285.858	36834
285.916	30644
285.975	23814
286.033	20922
286.091	20131
286.150	18475
286.208	19644
286.267	26180
286.325	23387
286.383	31743
286.442	28275
286.500	17648
286.558	15895
286.616	14102
286.675	20011
286.733	19483
286.791	19254
286.850	21665
286.908	28024
286.966	43153
287.024	23721
287.083	16259
287.141	14542
287.199	15015
287.257	25429
287.315	20493
287.374	22374
287.432	41404
287.490	33169
287.548	22410
287.606	18971
287.664	16564
287.723	25948
287.781	39792
287.839	23299
287.897	23258
287.955	30454
288.013	46881
288.071	103835
288.129	343163
288.187	946936
288.245	469032
288.303	150095
288.361	88764
288.419	78366
288.477	55651
288.535	37145
288.593	27568
288.651	22828
288.709	19060
288.767	18755
288.825	18393
288.883	16594
288.941	16066
288.999	15089
289.057	14504
289.115	16020
289.173	17259
289.231	16963
289.289	19061
289.346	16964
289.404	18166
289.462	27116
289.520	30818
289.578	18699
289.636	11351
289.694	10829
289.751	10835
289.809	11324
289.867	12273
289.925	15716
289.983	19846
290.040	12328
290.098	10536
290.156	14685
290.214	17672
290.271	13381
290.329	9581
290.387	9741
290.444	8911
290.502	9532
290.560	9672
290.617	12076
290.675	14104
290.733	12186
290.790	14499
290.848	12086
290.906	15760
290.963	15494
291.021	15493
291.078	14414
291.136	15597
291.194	35398
291.251	83261
291.309	31426
291.366	14275
291.424	12144
291.481	14751
291.539	15838
291.596	14369
291.654	10552
291.711	9667
291.769	13632
291.826	30844
291.884	22724
291.941	12567
291.999	12943
292.056	14718
292.114	16955
292.171	11209
292.228	14324
292.286	17756
292.343	32339
292.401	43228
292.458	31780
292.515	20886
292.573	22136
292.630	22894
292.687	30622
292.745	21554
292.802	25854
292.859	61504
292.917	103732
292.974	63414
293.031	23780
293.089	18033
293.146	16332
293.203	14314
293.260	13788
293.318	22707
293.375	27421
293.432	17631
293.489	13343
293.546	15376
293.604	28197
293.661	78777
293.718	155481
293.775	82230
293.832	41911
293.889	35205
293.947	43079
294.004	30883
294.061	25515
294.118	41139
294.175	82509
294.232	98831
294.289	48103
294.346	24408
294.403	24443
294.460	29635
294.517	24192
294.574	19486
294.631	16664
294.688	21862
294.745	47049
294.802	148084
294.859	165589
294.916	82385
294.973	56048
295.030	37836
295.087	32951
295.144	23241
295.201	20644
295.258	18587
295.315	24559
295.372	58547
295.429	117183
295.486	57887
295.542	35329
295.599	60026
295.656	109483
295.713	79451
295.770	104903
295.827	48114
295.883	27646
295.940	26213
295.997	39664
296.054	42527
296.111	23274
296.167	16821
296.224	13645
296.281	13928
296.338	14163
296.394	15120
296.451	20905
296.508	49223
296.564	94373
296.621	68258
296.678	108793
296.734	170701
296.791	72731
296.848	39572
296.904	40379
296.961	77349
297.018	118444
297.074	100224
297.131	41482
297.187	30531
297.244	42261
297.301	104930
297.357	203964
297.414	81108
297.470	34929
297.527	24639
297.583	21099
297.640	23506
297.696	19372
297.753	16799
297.809	14468
297.866	11636
297.922	13345
297.979	15063
298.035	16736
298.092	26564
298.148	65551
298.204	71629
298.261	40269
298.317	53026
298.374	139816
298.430	97798
298.486	63806
298.543	54369
298.599	40546
298.656	34552
298.712	51884
298.768	121998
298.824	101024
298.881	37326
298.937	23314
298.993	19803
299.050	27451
299.106	24817
299.162	20129
299.218	20902
299.275	18907
299.331	21874
299.387	36177
299.443	111938
299.500	134274
299.556	58176
299.612	31292
299.668	27490
299.724	29897
299.780	33330
299.837	26501
299.893	36475
299.949	101654
300.005	136787
300.061	104689
300.117	170037
300.173	98623
300.229	48726
300.285	59244
300.341	65952
300.397	37581
300.453	24294
300.510	21427
300.566	22192
300.622	27234
300.678	52934
300.734	109411
300.790	106880
300.845	130789
300.901	82959
300.957	108760
301.013	98023
301.069	41476
301.125	29047
301.181	33251
301.237	27025
301.293	19297
301.349	16128
301.405	15031
301.461	15922
301.516	17638
301.572	20216
301.628	38166
301.684	39871
301.740	51078
301.796	78286
301.851	57103
301.907	85322
301.963	97980
302.019	128763
302.074	319400
302.130	337069
302.186	160819
302.242	70483
302.297	47984
302.353	45540
302.409	74945
302.464	74272
302.520	61155
302.576	127474
302.631	154907
302.687	94586
302.743	44863
302.798	27322
302.854	22613
302.910	24350
302.965	32539
303.021	53369
303.076	53009
303.132	58555
303.187	71751
303.243	41681
303.299	24345
303.354	19666
303.410	18247
303.465	16948
303.521	16408
303.576	18826
303.632	24077
303.687	38877
303.743	104642
303.798	102250
303.853	46370
303.909	26954
303.964	24180
304.020	33018
304.075	54794
304.130	48086
304.186	81108
304.241	86109
304.297	70688
304.352	42077
304.358	40518
304.407	27885
304.449	25289
304.463	24430
304.518	26448
304.539	25539
304.573	24147
304.629	26057
304.630	26315
304.684	39417
304.720	67546
304.739	81299
304.794	130811
304.811	113613
304.850	72235
304.902	37736
304.905	35569
304.960	25225
304.992	25448
305.015	25653
305.071	24858
305.083	24091
305.126	21201
305.173	17151
305.181	16524
305.236	14342
305.264	15679
305.292	17120
305.347	21401
305.354	21661
305.402	23171
305.445	24097
305.457	24403
305.512	31167
305.535	32004
305.567	33332
305.622	34625
305.626	35589
305.678	59475
305.716	107830
305.733	124166
305.788	154468
305.807	135507
305.843	104954
305.897	116917
305.898	116884
305.953	120991
305.988	84706
306.008	65783
306.063	39855
306.078	36404
306.118	29144
306.168	21162
306.173	20496
306.228	18297
306.259	17471
306.283	17037
306.338	16804
306.349	17290
306.393	19051
306.440	21398
306.448	22049
306.503	25767
306.530	29745
306.558	39528
306.613	84159
306.620	90828
306.668	126522
306.711	136557
306.723	134470
306.778	107558
306.801	82095
306.833	54287
306.888	29796
306.892	28914
306.943	22337
306.982	20270
306.997	19805
307.052	19957
307.072	20924
307.107	25680
307.162	36944
307.163	37182
307.217	61764
307.253	75243
307.272	77201
307.327	83571
307.343	74996
307.381	59376
307.434	52263
307.436	53184
307.491	95948
307.524	140193
307.546	150120
307.600	128560
307.614	112150
307.655	69418
307.704	40392
307.710	39752
307.765	52052
307.795	67198
307.819	79033
307.874	132131
307.885	131595
307.929	100993
307.975	58116
307.984	55262
308.038	63511
308.065	76563
308.093	127681
308.148	256565
308.156	285825
308.202	405659
308.246	487353
308.257	481366
308.312	274543
308.336	198923
308.366	152078
308.421	102576
308.426	97925
308.475	63959
308.517	46223
308.530	42737
308.585	37011
308.607	36277
308.639	40918
308.694	52777
308.697	53877
308.748	103433
308.787	162898
308.803	163463
308.857	120907
308.877	95949
308.912	71854
308.967	58287
308.967	58274
309.021	73433
309.058	88775
309.076	109781
309.130	191338
309.148	223084
309.185	393139
309.238	672754
309.239	673566
309.293	692801
309.328	613801
309.348	532324
309.402	257424
309.418	189928
309.457	135110
309.508	89046
309.511	87745
309.566	88539
309.598	93090
309.620	108136
309.674	159371
309.688	173785
309.729	161127
309.778	122885
309.783	120206
309.837	87499
309.868	72959
309.892	87052
309.946	129407
309.959	143545
310.001	172463
310.049	196691
310.055	190544
310.109	114407
310.139	70129
310.163	56159
310.218	37524
310.229	34860
310.272	29537
310.319	25080
310.326	24649
310.381	24240
310.409	23863
310.435	23345
310.489	21871
310.499	21951
310.543	24677
310.589	27162
310.598	26521
310.652	24106
310.679	21586
310.706	18603
310.760	13043
310.769	12310
310.814	11220
310.859	10531
310.868	10576
310.923	11541
310.948	12044
310.977	14212
311.031	18806
311.038	19504
311.085	18098
311.128	15738
311.139	15317
311.193	13508
311.218	12856
311.247	12216
311.301	10944
311.308	10815
311.356	10929
311.398	11434
311.410	11255
311.464	10259
311.488	9828
311.518	10315
311.572	11329
311.578	11500
311.626	16162
311.668	20416
311.680	20923
311.734	22901
311.758	23853
311.788	23262
311.842	22071
311.847	21972
311.896	27814
311.937	33188
311.950	32036
312.004	26970
312.027	24654
312.058	20608
312.112	13617
312.117	12968
312.165	12909
312.207	12963
312.297	18855
312.386	14269
312.476	18358
312.566	34077
312.656	15657
312.745	9616
312.835	12430
312.925	14033
313.015	17412
313.104	17923
313.194	10723
313.284	11798
313.374	16995
313.463	13957
313.553	10234
313.643	9225
313.732	8298
313.822	9112
313.912	11921
314.001	14451
314.091	15970
314.180	20735
314.270	19243
314.360	26995
314.449	19679
314.539	11116
314.628	10862
314.718	16276
314.808	22691
314.897	11254
314.987	12110
315.076	18081
315.166	25544
315.255	23862
315.345	23206
315.434	25694
315.524	23456
315.613	27504
315.703	33005
315.792	63792
315.881	179932
315.971	58903
316.060	58284
316.150	98142
316.239	97590
316.328	28995
316.418	12364
316.507	14279
316.597	20211
316.686	18887
316.775	53379
316.865	100332
316.954	16780
317.043	10332
317.133	11526
317.222	11310
317.311	11227
317.400	11400
317.490	20500
317.579	24416
317.668	20807
317.757	39130
317.847	111224
317.936	319644
318.025	104590
318.114	64310
318.203	34711
318.293	39859
318.382	65134
318.471	51371
318.560	81464
318.649	133839
318.738	29122
318.828	26797
318.917	28467
319.006	48903
319.095	118164
319.184	187896
319.273	95731
319.362	49014
319.451	21052
319.540	22115
319.629	51431
319.718	70152
319.807	34940
319.896	82431
319.985	225356
320.074	71102
320.163	31559
320.252	61431
320.341	35388
320.430	26408
320.519	38293
320.608	20229
320.697	16385
320.786	17923
320.875	25334
320.964	33369
321.053	54077
321.142	79891
321.230	72154
321.319	67108
321.408	130734
321.497	55390
321.586	59563
321.675	96798
321.764	73771
321.852	48490
321.941	76532
322.030	47730
322.119	65252
322.207	155819
322.296	126910
322.385	58183
322.474	69422
322.562	167093
322.651	76373
322.740	76068
322.829	110325
322.917	136858
323.006	60194
323.095	46553
323.183	47425
323.272	72445
323.361	154209
323.449	398490
323.538	139787
323.626	304528
323.715	152259
323.804	88075
323.892	271748
323.981	116121
324.069	49430
324.158	165113
324.246	118554
324.335	36985
324.424	46035
324.512	20827
324.601	34312
324.689	96292
324.778	164156
324.866	102641
324.954	25824
325.043	26094
325.131	69451
325.220	118671
325.308	126454
325.397	90157
325.485	41064
325.574	13389
325.662	12317
325.750	15056
325.839	12178
325.927	13302
326.015	23393
326.104	58863
326.192	66309
326.280	14417
326.369	14824
326.457	22665
326.545	37653
326.634	14943
326.722	10455
326.810	11957
326.898	10880
326.987	16558
327.075	44538
327.163	54645
327.251	31872
327.340	60720
327.428	71337
327.516	15489
327.604	17156
327.692	19740
327.781	30853
327.869	50467
327.957	26237
328.045	19307
328.133	13669
328.221	24926
328.309	14479
328.397	12034
328.485	17648
328.574	31581
328.662	90626
328.750	62856
328.838	26445
328.926	12901
329.014	11007
329.102	20599
329.190	47314
329.278	26502
329.366	8196
329.454	8473
329.542	8268
329.630	7633
329.718	9868
329.806	14265
329.893	13259
329.981	11650
330.069	17870
330.157	61083
330.245	153614
330.333	69301
330.421	17896
330.509	33778
330.597	107990
330.684	58086
330.772	24612
330.860	38651
330.948	39527
331.036	15536
331.123	8191
331.211	10519
331.299	14123
331.387	41057
331.475	55002
331.562	20501
331.650	10321
331.738	19879
331.825	25452
331.913	10598
332.001	10747
332.089	22984
332.176	59306
332.264	158409
332.352	87981
332.439	21458
332.527	15055
332.614	18854
332.702	24652
332.790	21153
332.877	76255
332.965	120282
333.052	26724
333.140	37466
333.228	65457
333.315	17646
333.403	24771
333.490	87882
333.578	61398
333.665	64879
333.753	27873
333.840	15959
333.928	28600
334.015	91304
334.103	134168
334.190	300634
334.278	62241
334.365	33002
334.452	19834
334.540	14785
334.627	28644
334.715	44782
334.802	123093
334.889	563196
334.977	404337
335.064	45815
335.151	20241
335.239	19310
335.326	34285
335.413	139437
335.501	133060
335.588	21550
335.675	14879
335.762	22823
335.850	33517
335.937	35355
336.024	137769
336.111	464064
336.199	140431
336.286	25290
336.373	12894
336.460	11268
336.547	12006
336.635	18072
336.722	14856
336.809	14396
336.896	29919
336.983	90364
337.070	193139
337.157	265657
337.245	334084
337.332	188142
337.419	24326
337.506	13961
337.593	18562
337.680	75813
337.767	142895
337.854	49252
337.941	65842
338.028	103647
338.115	30836
338.202	35857
338.289	113596
338.376	316065
338.463	81202
338.550	110764
338.637	86788
338.724	73076
338.811	90057
338.898	17760
338.984	12203
339.071	15200
339.158	24132
339.245	53533
339.332	34031
339.419	74889
339.506	51810
339.593	9435
339.679	10730
339.766	10260
339.853	19439
339.940	35026
340.027	11286
340.113	13831
340.200	20633
340.287	14809
340.374	21693
340.460	30446
340.547	14635
340.634	34218
340.720	108107
340.807	49336
340.894	11439
340.980	14465
341.067	10836
341.154	13830
341.240	26367
341.327	46267
341.414	16729
341.500	17070
341.587	11567
341.674	13326
341.760	34454
341.847	36134
341.933	9946
342.020	5772
342.106	6087
342.193	15727
342.279	23924
342.366	21649
342.452	32392
342.539	21019
342.625	54609
342.712	106453
342.798	40635
342.885	16134
342.971	5910
343.058	7119
343.144	8070
343.230	8313
343.317	10451
343.403	7755
343.490	6612
343.576	7241
343.662	10100
343.749	14923
343.835	21824
343.921	48104
344.008	268165
344.094	479389
344.180	95414
344.267	46274
344.353	157943
344.439	145097
344.525	52388
344.612	19201
344.698	16674
344.784	11513
344.870	8289
344.957	10848
345.043	18538
345.129	16795
345.215	31056
345.301	16945
345.387	10953
345.474	7482
345.560	10773
345.646	16721
345.732	11303
345.818	14576
345.904	12470
345.990	15893
346.076	25004
346.162	42733
346.249	14254
346.335	8677
346.421	16186
346.507	76854
346.593	190413
346.679	38059
346.765	11936
346.851	12156
346.937	10715
347.023	9126
347.108	13124
347.194	10403
347.280	11250
347.366	19432
347.452	74114
347.538	249924
347.624	166751
347.710	126601
347.796	22425
347.882	12588
347.967	10628
348.053	15773
348.139	10833
348.225	9717
348.311	10043
348.397	8996
348.482	13968
348.568	14303
348.654	7770
348.740	11009
348.825	12330
348.911	29672
348.997	134452
349.083	210344
349.168	34228
349.254	13458
349.340	11415
349.425	8928
349.511	16683
349.597	21373
349.682	49783
349.768	128893
349.854	49707
349.939	11270
350.025	9003
350.110	7359
350.196	7880
350.282	6395
350.367	9471
350.453	36456
350.538	29816
350.624	17597
350.709	13295
350.795	8692
350.880	9893
350.966	15810
351.051	32454
351.137	21572
351.222	13837
351.308	50032
351.393	99679
351.479	24504
351.564	10109
351.649	11092
351.735	6806
351.820	7109
351.906	10264
351.991	23692
352.076	84636
352.162	91980
352.247	19814
352.332	15962
352.418	30595
352.503	46932
352.588	163731
352.673	105456
352.759	26522
352.844	12835
352.929	16854
353.014	21353
353.100	14509
353.185	25304
353.270	42593
353.355	34757
353.441	13015
353.526	22787
353.611	42508
353.696	39240
353.781	22498
353.866	10566
353.952	14797
354.037	42160
354.122	81550
354.207	68302
354.292	22527
354.377	10960
354.462	10515
354.547	17113
354.632	14540
354.717	20766
354.802	24828
354.887	10295
354.972	7436
355.057	6464
355.142	8236
355.227	14016
355.312	26049
355.397	63040
355.482	130193
355.567	53903
355.652	48227
355.737	56114
355.822	167553
355.907	102400
355.991	17184
356.076	10317
356.161	9833
356.246	9464
356.331	14165
356.416	54078
356.501	294684
356.585	235925
356.670	32935
356.755	22045
356.840	42960
356.924	222234
357.009	626119
357.094	188112
357.179	46865
357.263	30116
357.348	31963
357.433	28808
357.517	25715
357.602	20433
357.687	16474
357.771	21799
357.856	40854
357.941	39570
358.025	173557
358.110	588882
358.195	219486
358.279	35483
358.364	34324
358.448	128628
358.533	282547
358.617	195089
358.702	189281
358.787	63161
358.871	39186
358.956	27610
359.040	11041
359.125	8143
359.209	11381
359.294	20443
359.378	30925
359.462	29242
359.547	20410
359.631	16782
359.716	9419
359.800	11920
359.885	18642
359.969	13372
360.053	12640
360.138	12944
360.222	22682
360.306	38554
360.391	27630
360.475	46957
360.559	88763
360.644	110736
360.728	75563
360.812	181325
360.896	384748
360.981	143861
361.065	64345
361.149	21160
361.233	20250
361.318	16761
361.402	20977
361.486	16583
361.570	13387
361.654	23132
361.739	70270
361.823	296435
361.907	356744
361.991	56376
362.075	41950
362.159	80072
362.243	47604
362.327	44095
362.411	44127
362.495	31200
362.580	15758
362.664	11096
362.748	10016
362.832	13264
362.916	24362
363.000	86624
363.084	315029
363.168	420022
363.252	84003
363.336	34299
363.420	60106
363.503	196025
363.587	164641
363.671	31428
363.755	27434
363.839	34200
363.923	18521
364.007	44948
364.091	49692
364.175	93147
364.258	269197
364.342	142222
364.426	126333
364.510	65619
364.594	43774
364.677	91368
364.761	368312
364.845	205660
364.929	71547
365.013	52926
365.096	50771
365.180	54516
365.264	102758
365.347	269354
365.431	91686
365.515	26196
365.598	15231
365.682	15429
365.766	30543
365.849	28152
365.933	23250
366.017	27436
366.100	16011
366.184	12038
366.267	12742
366.351	10868
366.435	9560
366.518	7693
366.602	7471
366.685	12072
366.769	15145
366.852	28662
366.936	44579
367.019	25017
367.103	23972
367.186	31211
367.270	10580
367.353	7226
367.436	9965
367.520	9915
367.603	16347
367.687	29213
367.770	44719
367.853	31303
367.937	112047
368.020	144584
368.104	34086
368.187	39055
368.270	47896
368.353	46993
368.437	105995
368.520	234122
368.603	102954
368.687	137131
368.770	189509
368.853	44562
368.936	47778
369.020	38358
369.103	15567
369.186	11452
369.269	13640
369.352	36509
369.436	42171
369.519	24510
369.602	12400
369.685	15862
369.768	17510
369.851	13149
369.934	9575
370.018	20210
370.101	40938
370.184	28661
370.267	22038
370.350	39916
370.433	68509
370.516	200010
370.599	222659
370.682	77608
370.765	110837
370.848	150895
370.931	258321
371.014	79492
371.097	19048
371.180	12718
371.263	8661
371.346	7270
371.429	9535
371.511	13685
371.594	26544
371.677	41041
371.760	38301
371.843	46994
371.926	238283
372.009	439506
372.091	121660
372.174	123360
372.257	244450
372.340	81910
372.423	66851
372.505	60917
372.588	31801
372.671	102230
372.754	262023
372.836	109015
372.919	100273
373.002	138595
373.085	42507
373.167	45802
373.250	123225
373.332	248060
373.415	362602
373.498	634950
373.580	214448
373.663	379240
373.746	404616
373.828	83751
373.911	37092
373.993	56383
374.076	172420
374.159	132752
374.241	87913
374.324	218881
374.406	124865
374.489	237469
374.571	540900
374.654	187408
374.736	126833
374.819	365618
374.901	500628
374.983	435385
375.066	66414
375.148	40195
375.231	156578
375.313	218717
375.395	68500
375.478	19138
375.560	17112
375.643	31473
375.725	138404
375.807	478291
375.890	373803
375.972	184238
376.054	115338
376.136	185447
376.219	70085
376.301	161714
376.383	369035
376.465	119423
376.548	86386
376.630	127054
376.712	314542
376.794	112772
376.877	16062
376.959	12207
377.041	17581
377.123	35419
377.205	30037
377.287	8868
377.369	10927
377.452	12657
377.534	11126
377.616	11839
377.698	11302
377.780	8640
377.862	11949
377.944	10492
378.026	7477
378.108	8672
378.190	8776
378.272	9154
378.354	6506
378.436	7537
378.518	28483
378.600	71104
378.682	66068
378.764	156189
378.846	95193
378.928	33243
379.010	40492
379.091	18879
379.173	11916
379.255	12048
379.337	23222
379.419	91824
379.501	203801
379.583	65964
379.664	23642
379.746	63724
379.828	152277
379.910	198945
379.991	146222
380.073	25965
380.155	19070
380.237	13013
380.318	9931
380.400	13422
380.482	36595
380.564	49936
380.645	47917
380.727	39865
380.809	23013
380.890	17170
380.972	13393
381.053	14134
381.135	19217
381.217	63974
381.298	145919
381.380	64424
381.461	86526
381.543	354795
381.624	335077
381.706	56141
381.787	32066
381.869	39570
381.951	171579
382.032	531525
382.113	263692
382.195	55692
382.276	40660
382.358	115575
382.439	286229
382.521	333724
382.602	465943
382.684	217607
382.765	407084
382.846	404309
382.928	529115
383.009	242123
383.090	232683
383.172	868119
383.253	1055700
383.334	366082
383.416	425977
383.497	179965
383.578	90651
383.659	195999
383.741	791252
383.822	1674583
383.903	695288
383.984	320891
384.066	509721
384.147	264245
384.228	55105
384.309	44226
384.390	30842
384.471	24530
384.553	28330
384.634	41586
384.715	35806
384.796	20493
384.877	39160
384.958	147332
385.039	143337
385.120	44015
385.201	24580
385.282	31635
385.363	29979
385.444	26344
385.525	69341
385.606	228618
385.687	158965
385.768	41067
385.849	61160
385.930	256063
386.011	363324
386.092	82239
386.173	21393
386.254	19613
386.335	19794
386.416	28654
386.496	100032
386.577	130659
386.658	45632
386.739	30430
386.820	26690
386.901	21861
386.981	18436
387.062	16252
387.143	46696
387.224	151622
387.304	112138
387.385	39329
387.466	27813
387.547	30896
387.627	24340
387.708	74550
387.789	279991
387.869	288691
387.950	63928
388.031	14519
388.111	18431
388.192	47809
388.273	58867
388.353	31277
388.434	22886
388.514	70570
388.595	277963
388.676	298993
388.756	131568
388.837	131878
388.917	65529
388.998	16854
389.078	17006
389.159	14665
389.239	14261
389.320	26010
389.400	24467
389.480	68195
389.561	151963
389.641	58983
389.722	28076
389.802	43474
389.883	79182
389.963	192681
390.043	112970
390.124	40036
390.204	66343
390.284	166571
390.365	96574
390.445	145883
390.525	324468
390.605	231693
390.686	67480
390.766	23006
390.846	14000
390.927	12414
391.007	13065
391.087	17124
391.167	16410
391.247	18478
391.328	42329
391.408	43816
391.488	22853
391.568	12519
391.648	21931
391.728	27723
391.808	28524
391.888	35282
391.969	92528
392.049	122601
392.129	50310
392.209	79596
392.289	171379
392.369	83565
392.449	66897
392.529	40620
392.609	38035
392.689	65608
392.769	183495
392.849	130038
392.929	113668
393.009	246785
393.089	168199
393.169	173052
393.248	661157
393.328	2161257
393.408	1911539
393.488	430650
393.568	119933
393.648	61439
393.728	40473
393.807	31313
393.887	27978
393.967	25048
394.047	29018
394.127	35109
394.206	61325
394.286	260599
394.366	934270
394.446	762325
394.525	134883
394.605	40845
394.685	47784
394.764	108582
394.844	164203
394.924	91700
395.003	32518
395.083	24699
395.163	21327
395.242	21311
395.322	20069
395.402	16226
395.481	26797
395.561	92676
395.640	183719
395.720	137625
395.799	207213
395.879	128543
395.958	86095
396.038	363973
396.117	1222705
396.197	1043180
396.276	242740
396.356	89463
396.435	71729
396.515	53551
396.594	74994
396.673	165894
396.753	711632
396.832	1881686
396.912	1151615
396.991	240125
397.070	66750
397.150	38221
397.229	28144
397.308	36793
397.388	43645
397.467	22958
397.546	15813
397.625	14816
397.705	21600
397.784	23152
397.863	11560
397.942	10797
398.022	18035
398.101	82936
398.180	170939
398.259	69023
398.338	21755
398.417	16935
398.497	12225
398.576	13714
398.655	9293
398.734	9051
398.813	15316
398.892	79810
398.971	191803
399.050	68015
399.129	11382
399.208	8056
399.287	8596
399.366	5843
399.445	7718
399.524	9041
399.603	10840
399.682	26959
399.761	87817
399.840	221154
399.919	122988
399.998	17394
400.077	7637
400.156	6938
400.235	11058
400.313	9731
400.392	21592
400.471	89614
400.550	109932
400.629	27069
400.708	14812
400.786	18373
400.865	42914
400.944	38917
401.023	16983
401.102	5499
401.180	7874
401.259	8681
401.338	11071
401.416	16645
401.495	13380
401.574	11182
401.652	9873
401.731	14883
401.810	12521
401.888	6918
401.967	4942
402.046	7800
402.124	15210
402.203	19404
402.281	10173
402.360	21295
402.438	52126
402.517	29513
402.596	12061
402.674	11449
402.753	7794
402.831	7545
402.910	14207
402.988	63734
403.066	152662
403.145	68651
403.223	55111
403.302	116739
403.380	79580
403.459	75121
403.537	27931
403.615	11069
403.694	4405
403.772	5433
403.850	4562
403.929	4194
404.007	7315
404.085	18209
404.164	17280
404.242	7686
404.320	10554
404.398	23083
404.477	112909
404.555	432118
404.633	285388
404.711	35330
404.789	10517
404.868	10202
404.946	5357
405.024	4811
405.102	5269
405.180	5800
405.258	4736
405.336	5973
405.415	9706
405.493	20556
405.571	14713
405.649	6145
405.727	7486
405.805	12699
405.883	12332
405.961	13967
406.039	15307
406.117	9139
406.195	22947
406.273	125948
406.351	349519
406.429	156445
406.507	25379
406.585	9644
406.663	12213
406.740	16434
406.818	14147
406.896	7275
406.974	10941
407.052	46900
407.130	225862
407.208	238344
407.285	39614
407.363	10103
407.441	10052
407.519	8458
407.596	14501
407.674	51211
407.752	131614
407.830	91427
407.907	27828
407.985	11099
408.063	7058
408.141	6888
408.218	14991
408.296	12915
408.373	10908
408.451	13317
408.529	10469
408.606	4880
408.684	4479
408.762	3121
408.839	2783
408.917	4235
408.994	4768
409.072	4421
409.149	5248
409.227	10176
409.304	10992
409.382	8163
409.459	10250
409.537	14390
409.614	11191
409.692	7417
409.769	9691
409.846	16580
409.924	19692
410.001	11499
410.079	7502
410.156	7318
410.233	7708
410.311	6438
410.388	5190
410.465	9104
410.543	7881
410.620	5576
410.697	9927
410.775	11316
410.852	5531
410.929	12370
411.006	13403
411.083	9231
411.161	21742
411.238	21176
411.315	10972
411.392	6215
411.469	11571
411.547	10651
411.624	5855
411.701	5820
411.778	12778
411.855	25788
411.932	12051
412.009	6118
412.086	5882
412.163	9190
412.240	10515
412.317	13156
412.394	10023
412.471	4451
412.548	5189
412.625	6687
412.702	11375
412.779	19354
412.856	10854
412.933	3971
413.010	5299
413.087	18213
413.164	82751
413.241	88291
413.318	20382
413.395	17009
413.471	22027
413.548	8571
413.625	7651
413.702	11360
413.779	6652
413.855	2737
413.932	2973
414.009	3038
414.086	3913
414.162	5234
414.239	18405
414.316	88262
414.393	149750
414.469	41495
414.546	6051
414.623	4964
414.699	5161
414.776	7725
414.853	4572
414.929	7310
415.006	7013
415.082	8678
415.159	6712
415.236	5957
415.312	8192
415.389	19273
415.465	23135
415.542	9938
415.618	9121
415.695	15376
415.771	10102
415.848	8941
415.924	8127
416.000	5585
416.077	3634
416.153	2234
416.230	1343
416.306	4328
416.383	6112
416.459	3740
416.535	2250
416.612	4025
416.688	4278
416.764	4398
416.841	4286
416.917	4614
416.993	4848
417.069	8399
417.146	12596
417.222	14560
417.298	8622
417.374	6121
417.451	7218
417.527	10964
417.603	12085
417.679	8769
417.755	6425
417.831	2771
417.908	2950
417.984	2956
418.060	5856
418.136	21611
418.212	24120
418.288	8005
418.364	5522
418.440	8396
418.516	12703
418.592	19496
418.668	36058
418.744	49299
418.820	30298
418.896	7564
418.972	4465
419.048	8547
419.124	23004
419.200	13800
419.276	4246
419.352	2647
419.428	3721
419.504	7766
419.579	9643
419.655	6825
419.731	10791
419.807	37885
419.883	60858
419.959	33953
420.034	11939
420.110	33450
420.186	104800
420.262	60010
420.337	12262
420.413	10108
420.489	5066
420.565	5076
420.640	4952
420.716	5621
420.792	3436
420.867	5359
420.943	6057
421.019	14977
421.094	9581
421.170	4950
421.245	3470
421.321	5494
421.397	7811
421.472	28710
421.548	64813
421.623	32292
421.699	10800
421.774	11296
421.850	10265
421.925	19833
422.001	15100
422.076	10786
422.152	13994
422.227	23498
422.302	22774
422.378	33487
422.453	64306
422.529	175875
422.604	535144
422.679	845799
422.755	444956
422.830	124035
422.905	47857
422.981	27843
423.056	17557
423.131	13494
423.207	12087
423.282	17491
423.357	32202
423.432	18435
423.508	23205
423.583	52223
423.658	29776
423.733	11731
423.808	14359
423.883	17388
423.959	14036
424.034	9541
424.109	7426
424.184	4149
424.259	3669
424.334	4125
424.409	3865
424.484	5483
424.559	7480
424.634	7097
424.709	12374
424.784	12473
424.859	9798
424.934	22268
425.009	79660
425.084	106458
425.159	31116
425.234	5983
425.309	3535
425.384	8054
425.459	10322
425.534	6290
425.609	6515
425.683	3612
425.758	4438
425.833	6099
425.908	11564
425.983	56929
426.058	117646
426.132	38390
426.207	11005
426.282	16354
426.357	11975
426.431	4741
426.506	5361
426.581	6640
426.655	4381
426.730	4668
426.805	5238
426.879	6289
426.954	8183
427.029	28996
427.103	147089
427.178	285577
427.253	94987
427.327	13220
427.402	16428
427.476	25512
427.551	10522
427.625	8027
427.700	8795
427.774	6024
427.849	7818
427.923	4304
427.998	4737
428.072	6906
428.147	22021
428.221	85929
428.296	171664
428.370	64687
428.444	15314
428.519	24650
428.593	40801
428.667	33562
428.742	40958
428.816	44334
428.890	132091
428.965	145957
429.039	55671
429.113	43685
429.188	13798
429.262	7001
429.336	23127
429.410	57386
429.485	32369
429.559	35349
429.633	21027
429.707	9888
429.781	39367
429.855	160152
429.930	185634
430.004	139650
430.078	192837
430.152	154056
430.226	259234
430.300	193558
430.374	30118
430.448	20135
430.522	85223
430.596	180691
430.670	108787
430.744	288398
430.818	327411
430.892	60208
430.966	12678
431.040	6262
431.114	3926
431.188	4300
431.262	6611
431.336	7827
431.410	25990
431.484	57391
431.557	28254
431.631	6045
431.705	8867
431.779	46736
431.853	150580
431.927	78927
432.000	11542
432.074	6643
432.148	9469
432.222	7263
432.295	4522
432.369	6005
432.443	22954
432.516	145589
432.590	280658
432.664	80897
432.737	10724
432.811	3540
432.885	2811
432.958	3037
433.032	2400
433.106	2542
433.179	2209
433.253	3163
433.326	2264
433.400	1934
433.473	2427
433.547	1388
433.620	4450
433.694	13569
433.767	12522
433.841	6697
433.914	2903
433.988	2248
434.061	3045
434.134	2949
434.208	1623
434.281	1237
434.355	2517
434.428	3132
434.501	2006
434.575	2849
434.648	3596
434.721	2691
434.795	2000
434.868	1201
434.941	890
435.014	1609
435.088	2796
435.161	6522
435.234	13958
435.307	15022
435.381	6946
435.454	6857
435.527	8306
435.600	7132
435.673	5284
435.746	3292
435.819	3119
435.892	3166
435.966	2436
436.039	3345
436.112	2909
436.185	1214
436.258	912
436.331	1525
436.404	1259
436.477	1117
436.550	1247
436.623	1713
436.696	2085
436.769	4828
436.842	3233
436.915	4972
436.987	8882
437.060	3459
437.133	2028
437.206	2108
437.279	3313
437.352	2990
437.425	3235
437.498	6024
437.570	14520
437.643	11234
437.716	3545
437.789	3426
437.861	13357
437.934	29026
438.007	12365
438.080	4647
438.152	7810
438.225	27540
438.298	195298
438.370	401383
438.443	128910
438.516	29685
438.588	7620
438.661	4134
438.734	4950
438.806	6682
438.879	6786
438.951	10048
439.024	14415
439.096	6621
439.169	2942
439.241	2753
439.314	4609
439.386	10632
439.459	21147
439.531	26823
439.604	9285
439.676	3162
439.749	2066
439.821	2085
439.893	3179
439.966	5855
440.038	7580
440.110	6599
440.183	4545
440.255	3826
440.327	12819
440.400	83038
440.472	264992
440.544	129058
440.617	18817
440.689	13605
440.761	17824
440.833	26540
440.905	15106
440.978	4062
441.050	2540
441.122	3098
441.194	3029
441.266	4071
441.338	4183
441.411	17088
441.483	87971
441.555	97257
441.627	22377
441.699	14422
441.771	13434
441.843	5142
441.915	2522
441.987	2969
442.059	2780
442.131	6865
442.203	12007
442.275	13005
442.347	10548
442.419	16219
442.491	78029
442.563	148174
442.635	67622
442.706	56658
442.778	36627
442.850	8043
442.922	4529
442.994	7931
443.066	12690
443.137	9516
443.209	6643
443.281	11575
443.353	27153
443.425	109325
443.496	303890
443.568	246221
443.640	84172
443.711	19907
443.783	8418
443.855	7219
443.926	4953
443.998	6748
444.070	8848
444.141	9374
444.213	14957
444.285	18305
444.356	19339
444.428	15065
444.499	5011
444.571	2718
444.642	3461
444.714	6795
444.785	13840
444.857	21011
444.928	37931
445.000	21778
445.071	28997
445.143	27578
445.214	17089
445.285	32735
445.357	85333
445.428	253903
445.500	458742
445.571	267804
445.642	127021
445.714	70107
445.785	58079
445.856	21753
445.928	19171
445.999	15088
446.070	11454
446.141	13453
446.213	16124
446.284	9512
446.355	9072
446.426	6476
446.497	7424
446.569	15038
446.640	22204
446.711	15371
446.782	7975
446.853	16242
446.924	13523
446.995	8594
447.066	8623
447.138	14619
447.209	7466
447.280	2987
447.351	2083
447.422	3408
447.493	7350
447.564	10871
447.635	14395
447.706	5996
447.777	2800
447.847	2044
447.918	3851
447.989	8552
448.060	13544
448.131	29108
448.202	24950
448.273	17031
448.344	7047
448.414	4542
448.485	4482
448.556	3433
448.627	2881
448.698	2872
448.768	2786
448.839	6084
448.910	13198
448.981	11524
449.051	5589
449.122	2894
449.193	1889
449.263	2470
449.334	3383
449.405	8323
449.475	19967
449.546	14452
449.616	17080
449.687	12279
449.758	4774
449.828	4041
449.899	3279
449.969	3350
450.040	4205
450.110	10534
450.181	11107
450.251	4354
450.322	3551
450.392	3923
450.463	4126
450.533	2952
450.604	3559
450.674	3476
450.744	3497
450.815	3841
450.885	3093
450.955	3598
451.026	2873
451.096	4253
451.166	6259
451.237	21328
451.307	38902
451.377	16861
451.447	4606
451.518	3584
451.588	3832
451.658	4827
451.728	13417
451.799	48237
451.869	44629
451.939	12002
452.009	4560
452.079	3579
452.149	5522
452.219	16758
452.289	52047
452.360	34144
452.430	8741
452.500	8211
452.570	9288
452.640	14970
452.710	41403
452.780	50471
452.850	42767
452.920	35272
452.990	13418
453.060	9122
453.129	12747
453.199	19067
453.269	76877
453.339	126925
453.409	177028
453.479	199699
453.549	269187
453.619	261970
453.688	101202
453.758	19214
453.828	8282
453.898	6574
453.968	6283
454.037	4234
454.087	4796
454.107	4910
454.168	4178
454.177	3938
454.247	4725
454.249	4864
454.316	5927
454.330	7332
454.386	11407
454.411	20769
454.456	32167
454.492	35189
454.525	37379
454.574	21170
454.595	14666
454.655	8440
454.665	7761
454.734	15587
454.736	16498
454.804	32407
454.817	41155
454.873	63035
454.898	65459
454.943	64441
454.979	46073
455.013	32205
455.060	19497
455.082	17186
455.141	29396
455.152	29920
455.221	60686
455.222	61981
455.291	68501
455.303	62796
455.360	42350
455.384	40876
455.430	42765
455.465	47281
455.499	46755
455.546	60859
455.569	60871
455.627	37476
455.638	34715
455.707	12733
455.708	12845
455.777	9840
455.789	10134
455.846	10854
455.869	10306
455.916	9477
455.950	10835
455.985	11412
456.031	11397
456.054	11029
456.112	10277
456.124	10429
456.193	11103
456.193	10971
456.262	16528
456.274	18059
456.332	22385
456.355	24362
456.401	22850
456.436	18078
456.470	14234
456.516	10523
456.540	9505
456.597	9506
456.609	9365
456.678	9798
456.678	9714
456.747	8861
456.759	8919
456.817	9245
456.840	9489
456.886	9655
456.920	9856
456.955	10999
457.001	13492
457.024	16821
457.082	26270
457.093	27598
457.162	40418
457.163	40725
457.232	38970
457.243	36741
457.301	20128
457.324	14937
457.370	12308
457.405	12606
457.439	13526
457.485	14587
457.508	15169
457.566	17513
457.577	18086
457.646	22700
457.647	22870
457.715	36829
457.727	39970
457.784	59261
457.808	69944
457.853	82199
457.889	90933
457.922	81936
457.969	62739
457.991	69179
458.050	91998
458.060	96325
458.129	140741
458.130	142193
458.198	115516
458.211	107633
458.267	64954
458.292	46592
458.336	40022
458.372	38389
458.405	51478
458.453	73657
458.474	93764
458.533	160485
458.543	165770
458.611	222291
458.614	224188
458.680	123622
458.694	99888
458.749	56991
458.775	40242
458.818	31182
458.855	27086
458.887	25935
458.936	24892
458.955	24665
459.016	24591
459.024	24435
459.093	24562
459.097	24638
459.162	28240
459.177	29141
459.230	33305
459.257	36061
459.299	35924
459.338	35074
459.368	35997
459.418	38950
459.437	36676
459.499	27553
459.505	27297
459.574	25090
459.579	25037
459.643	24501
459.659	24451
459.711	26052
459.740	26930
459.780	29795
459.820	33226
459.849	33816
459.900	35402
459.917	34747
459.981	32373
459.986	32153
460.054	28322
460.061	28084
460.123	33357
460.141	35211
460.191	44702
460.222	50782
460.260	55612
460.302	61751
460.328	54698
460.382	38394
460.397	38009
460.462	35655
460.465	36096
460.534	48498
460.543	50278
460.602	116355
460.623	140666
460.671	210468
460.703	266222
460.739	230152
460.783	171772
460.808	136315
460.864	40265
460.876	36857
460.944	32228
460.945	32161
461.013	33630
461.024	33815
461.081	37203
461.104	39106
461.150	36010
461.184	32935
461.218	31879
461.264	30483
461.286	30980
461.345	32297
461.355	32170
461.423	32351
461.425	32349
461.491	36108
461.505	37103
461.559	78119
461.585	97427
461.628	161001
461.665	220055
461.696	238443
461.745	272183
461.764	226317
461.825	60702
461.832	59265
461.901	44912
461.905	44596
461.969	39941
461.985	38741
462.037	34788
462.065	32450
462.105	41457
462.145	51014
462.173	75600
462.225	121840
462.241	135781
462.305	195792
462.310	189226
462.378	82752
462.385	69993
462.446	46641
462.465	40309
462.514	39196
462.545	39376
462.582	37604
462.625	35424
462.650	34642
462.705	32933
462.718	34806
462.785	44927
462.786	45414
462.854	73361
462.865	77995
462.922	93984
462.945	100485
462.990	69044
463.025	42853
463.058	38280
463.104	32117
463.126	32473
463.184	34328
463.194	34973
463.262	39294
463.264	39444
463.330	41370
463.344	41627
463.398	45361
463.424	47201
463.466	49497
463.504	51739
463.533	51212
463.583	49824
463.601	52845
463.663	63067
463.669	65211
463.737	90183
463.743	92397
463.805	140202
463.823	153938
463.873	233907
463.903	283424
463.940	296369
463.982	311346
464.008	240323
464.062	83207
464.076	76469
464.142	41867
464.144	41771
464.211	41344
464.221	41379
464.279	47277
464.301	49443
464.347	55187
464.381	59477
464.414	66810
464.461	76820
464.482	78611
464.540	83320
464.550	80062
464.617	55695
464.620	54752
464.685	65050
464.699	67506
464.753	72537
464.779	74823
464.820	74856
464.859	74619
464.888	77330
464.938	81516
464.956	82479
465.018	85938
465.023	84120
465.091	58114
465.098	55327
465.158	55105
465.177	55061
465.226	57981
465.257	59773
465.293	65875
465.336	72804
465.361	81431
465.416	100687
465.428	108066
465.495	146956
465.496	147798
465.563	241169
465.575	257139
465.631	306183
465.654	326640
465.698	194453
465.734	82877
465.765	72268
465.813	55957
465.833	55580
465.893	55984
465.900	56195
465.968	57251
465.972	57223
466.035	58561
466.052	58783
466.102	60751
466.131	61662
466.170	63325
466.210	64914
466.237	65597
466.290	66468
466.304	67700
466.369	72674
466.372	73016
466.439	78952
466.449	79655
466.506	90248
466.528	94086
466.573	136247
466.607	167491
466.641	252041
466.687	369049
466.708	406519
466.766	508405
466.775	469258
466.842	166449
466.845	151742
466.909	108456
466.925	98034
466.977	91206
467.004	87501
467.044	88538
467.083	89227
467.111	94196
467.163	103025
467.178	105763
467.242	116017
467.245	116050
467.312	111550
467.321	110711
467.379	111413
467.400	111316
467.446	123260
467.480	131442
467.559	108526
467.638	94949
467.717	100195
467.796	119465
467.875	138219
467.955	119821
468.034	176168
468.113	406235
468.192	592293
468.271	148127
468.350	98294
468.429	105315
468.508	103082
468.588	93272
468.667	96229
468.746	108636
468.825	101558
468.904	82599
468.983	106055
469.062	178769
469.141	218458
469.220	83444
469.299	76256
469.378	87040
469.456	90432
469.535	83802
469.614	88217
469.693	98523
469.772	135278
469.851	197585
469.930	129931
470.009	90410
470.088	95354
470.166	115953
470.245	171616
470.324	222289
470.403	178497
470.482	129311
470.560	104471
470.639	112047
470.718	129050
470.797	99340
470.875	117094
470.954	174084
471.033	185142
471.111	69991
471.190	64357
471.269	60781
471.347	64240
471.426	73680
471.505	81419
471.583	79131
471.662	72467
471.740	67453
471.819	68032
471.898	65171
471.976	64241
472.055	66864
472.133	81447
472.212	115450
472.290	122475
472.369	74431
472.447	60554
472.526	59998
472.604	63914
472.683	77269
472.761	88231
472.839	79312
472.918	70166
472.996	74164
473.075	90390
473.153	86724
473.231	71857
473.310	92334
473.388	88358
473.466	77951
473.545	92666
473.623	137051
473.701	139855
473.780	73355
473.858	73003
473.936	83770
474.014	71648
474.093	88615
474.171	144035
474.249	211372
474.327	127066
474.405	65426
474.484	64898
474.562	71111
474.640	70692
474.718	76392
474.796	74577
474.874	65243
474.952	59672
475.030	63397
475.108	67509
475.187	76707
475.265	87569
475.343	134802
475.421	154291
475.499	77082
475.577	78303
475.655	112860
475.733	255594
475.811	465571
475.889	405548
475.966	249409
476.044	77052
476.122	107284
476.200	140903
476.278	105780
476.356	67161
476.434	74229
476.512	97247
476.590	138204
476.667	110611
476.745	66913
476.823	71265
476.901	68868
476.979	72155
477.056	67064
477.134	72433
477.212	76566
477.290	70878
477.367	59052
477.445	57537
477.523	61285
477.601	61497
477.678	63338
477.756	87250
477.834	99923
477.911	63843
477.989	64041
478.066	63790
478.144	80123
478.222	98198
478.299	162874
478.377	145349
478.454	61891
478.532	57658
478.609	69126
478.687	75267
478.764	59000
478.842	68754
478.919	83152
478.997	74443
479.074	58972
479.152	80752
479.229	111892
479.307	66646
479.384	48050
479.461	50164
479.539	63765
479.616	82164
479.694	67420
479.771	75360
479.848	84941
479.926	125738
480.003	128643
480.080	60261
480.157	54964
480.235	58583
480.312	60768
480.389	73931
480.467	141887
480.544	178565
480.621	77902
480.698	70432
480.775	87469
480.853	88009
480.930	65962
481.007	67391
481.084	83985
481.161	92027
481.238	81366
481.315	56489
481.392	56619
481.470	61506
481.547	66146
481.624	61143
481.701	59898
481.778	65701
481.855	78235
481.932	129299
482.009	233522
482.086	148808
482.163	72619
482.240	111824
482.317	208426
482.393	156624
482.470	70165
482.547	70762
482.624	64827
482.701	69963
482.778	67063
482.855	53840
482.932	52688
483.009	54235
483.085	66413
483.162	85359
483.239	80284
483.316	60681
483.393	60699
483.469	60324
483.546	78755
483.623	86236
483.699	62120
483.776	69942
483.853	85363
483.930	128697
484.006	338935
484.083	560116
484.160	198344
484.236	222103
484.313	180850
484.389	147215
484.466	126892
484.543	125142
484.619	130978
484.696	135873
484.772	155348
484.849	166922
484.925	121076
485.002	115523
485.078	130889
485.155	138517
485.231	114943
485.308	114462
485.384	123169
485.461	172144
485.537	343812
485.614	409344
485.690	130270
485.766	116490
485.843	134256
485.919	225389
485.995	244023
486.072	109710
486.148	100914
486.224	102519
486.301	117344
486.377	146872
486.453	150597
486.530	125967
486.606	149388
486.682	178368
486.758	273172
486.835	337080
486.911	258307
486.987	463032
487.063	510283
487.139	682412
487.215	439319
487.292	169618
487.368	133403
487.444	156567
487.520	200393
487.596	193404
487.672	261474
487.748	633361
487.824	960572
487.900	395017
487.976	189147
488.052	178221
488.128	211701
488.204	167286
488.280	135533
488.356	170392
488.432	408106
488.508	635631
488.584	188290
488.660	124667
488.736	124880
488.812	142268
488.888	183976
488.964	266536
489.039	661986
489.115	1040293
489.191	567246
489.267	141208
489.343	118308
489.418	95115
489.494	88543
489.570	87292
489.646	95179
489.722	99242
489.797	107777
489.873	195060
489.949	475635
490.024	367046
490.100	101633
490.176	98869
490.251	144031
490.327	202480
490.403	106940
490.478	83893
490.554	74162
490.629	76797
490.705	79403
490.781	91618
490.856	96637
490.932	118231
491.007	123076
491.083	113412
491.158	101840
491.234	147199
491.309	358573
491.385	351370
491.460	110820
491.536	114506
491.611	105986
491.686	125830
491.762	187162
491.837	436793
491.913	728812
491.988	1014248
492.063	1265384
492.139	332887
492.214	169071
492.289	82506
492.365	87013
492.440	106587
492.515	111447
492.590	97927
492.666	80449
492.741	129044
492.816	206728
492.891	100270
492.967	69992
493.042	65209
493.117	65948
493.192	64742
493.267	87179
493.342	154369
493.418	163001
493.493	74054
493.568	62413
493.643	68347
493.718	104438
493.793	188134
493.868	205238
493.943	120315
494.018	77891
494.093	73613
494.168	73038
494.243	60339
494.318	57413
494.393	57330
494.468	58782
494.543	62936
494.618	85247
494.693	71978
494.768	69375
494.842	72073
494.917	60727
494.992	69354
495.067	61802
495.142	62516
495.217	74693
495.292	80009
495.366	98949
495.441	130090
495.516	166040
495.591	246570
495.665	902752
495.740	2148282
495.815	814442
495.890	141271
495.964	98413
496.039	91819
496.114	87794
496.188	98000
496.263	95942
496.338	84593
496.412	103968
496.487	123681
496.561	141782
496.636	145778
496.710	101002
496.785	118662
496.860	138920
496.934	102656
497.009	104174
497.083	99876
497.158	106070
497.232	134330
497.307	169931
497.381	128313
497.455	161807
497.530	223778
497.604	143518
497.679	154066
497.753	254142
497.827	326520
497.902	274128
497.976	298364
498.050	637775
498.125	2304444
498.199	2199344
498.273	448225
498.348	337444
498.422	264985
498.496	260727
498.570	236477
498.645	171033
498.719	170957
498.793	204763
498.867	319153
498.941	397556
499.016	982826
499.090	2524324
499.164	800974
499.238	135764
499.312	118558
499.386	156197
499.460	137193
499.534	125525
499.609	156775
499.683	240630
499.757	215919
499.831	450317
499.905	1769549
499.979	1523543
500.053	304532
500.127	325941
500.201	248724
500.275	141269
500.349	130285
500.422	152977
500.496	241439
500.570	525922
500.644	1095872
500.718	1849282
500.792	374403
500.866	128785
500.940	165131
501.013	135106
501.087	143312
501.161	258974
501.235	331461
501.309	662896
501.382	1781837
501.456	1394701
501.530	370772
501.603	618583
501.677	211028
501.751	106533
501.825	129280
501.898	253280
501.972	758367
502.046	417528
502.119	141259
502.193	341264
502.266	827548
502.340	345466
502.413	358340
502.487	702204
502.561	411256
502.634	128076
502.708	108488
502.781	98054
502.855	73116
502.928	63087
503.002	65416
503.075	67495
503.149	75205
503.222	79541
503.295	95200
503.369	119912
503.442	170390
503.516	573845
503.589	1481569
503.662	882535
503.736	282006
503.809	682458
503.882	508463
503.956	728344
504.029	623337
504.102	419489
504.175	487485
504.249	201879
504.322	141681
504.395	116863
504.468	80589
504.542	81446
504.615	59989
504.688	57416
504.761	62129
504.834	79712
504.907	111468
504.980	191468
505.053	84896
505.127	119098
505.200	116658
505.273	129176
505.346	71766
505.419	58480
505.492	50035
505.565	42595
505.638	43912
505.711	46271
505.784	46586
505.857	45941
505.930	50425
506.003	51839
506.076	59685
506.149	92000
506.221	119997
506.294	94478
506.367	277726
506.440	936574
506.513	431443
506.586	125500
506.659	70879
506.731	60871
506.804	87549
506.877	138433
506.950	80695
507.022	55661
507.095	88820
507.168	103856
507.241	63787
507.313	54401
507.386	73260
507.459	104882
507.531	64745
507.604	51880
507.677	49493
507.749	45392
507.822	71407
507.894	137100
507.967	131571
508.040	69438
508.112	60648
508.185	58663
508.257	64688
508.330	105481
508.402	61920
508.475	60617
508.547	65731
508.620	68539
508.692	125754
508.765	65664
508.837	46457
508.909	45404
508.982	51023
509.054	63404
509.127	54131
509.199	44845
509.271	42736
509.344	40782
509.416	43346
509.488	46486
509.560	49956
509.633	60590
509.705	73507
509.777	67795
509.849	110707
509.922	68290
509.994	42916
510.066	45118
510.138	50543
510.210	83674
510.283	80524
510.355	67186
510.427	62545
510.499	65053
510.571	66574
510.643	65118
510.715	123918
510.787	106505
510.859	64053
510.931	86604
511.003	117684
511.076	97275
511.148	55231
511.219	59279
511.291	116414
511.363	130146
511.435	53566
511.507	48590
511.579	49376
511.651	50292
511.723	49696
511.795	51829
511.867	53713
511.939	77828
512.010	205880
512.082	135154
512.154	66015
512.226	61124
512.298	84404
512.369	126176
512.441	97266
512.513	111647
512.585	82758
512.656	80645
512.728	96166
512.800	64396
512.871	65946
512.943	66726
513.015	57482
513.086	67879
513.158	80163
513.230	91801
513.301	145533
513.373	152150
513.444	82390
513.516	65151
513.588	66444
513.659	81230
513.731	108716
513.802	99069
513.874	221597
513.945	424906
514.016	119937
514.088	67108
514.159	82197
514.231	109450
514.302	124598
514.374	79463
514.445	89984
514.516	202815
514.588	135145
514.659	90500
514.730	184410
514.802	126116
514.873	98669
514.944	88084
515.016	85896
515.087	104511
515.158	136129
515.229	172805
515.301	95302
515.372	113534
515.443	87470
515.514	73633
515.585	62709
515.656	64326
515.728	61320
515.799	63760
515.870	68663
515.941	72051
516.012	75487
516.083	92160
516.154	115795
516.225	161317
516.296	155286
516.367	146054
516.438	172310
516.509	221943
516.580	314329
516.651	937873
516.722	3253491
516.793	1292206
516.864	322632
516.935	287858
517.006	326538
517.077	447174
517.148	994428
517.219	3253667
517.289	4413273
517.360	1435026
517.431	404364
517.502	158066
517.573	133560
517.643	123242
517.714	131129
517.785	139805
517.856	157231
517.926	193080
517.997	237516
518.068	312480
518.138	406942
518.209	622144
518.280	2119378
518.350	5215893
518.421	2733556
518.492	447693
518.562	248717
518.633	220425
518.703	201163
518.774	288504
518.845	560489
518.915	502019
518.986	233476
519.056	203861
519.127	352279
519.197	515407
519.268	1044508
519.338	534048
519.408	166628
519.479	217846
519.549	145786
519.620	91246
519.690	71451
519.760	70667
519.831	81035
519.901	79811
519.971	60099
520.042	72264
520.112	94306
520.182	104278
520.253	115669
520.323	67758
520.393	73947
520.463	88329
520.534	79713
520.604	128181
520.674	85461
520.744	99636
520.814	158300
520.885	164438
520.955	286820
521.025	1078609
521.095	333511
521.165	82031
521.235	76452
521.305	65392
521.375	59088
521.445	73103
521.515	116035
521.585	128278
521.655	118522
521.725	100176
521.795	86620
521.865	63535
521.935	102606
522.005	90383
522.075	58946
522.145	67743
522.215	89181
522.285	125600
522.355	180658
522.424	357948
522.494	292549
522.564	143820
522.634	306344
522.704	877664
522.774	269940
522.843	83590
522.913	83072
522.983	116572
523.053	86656
523.122	83499
523.192	133598
523.262	526546
523.331	470539
523.401	89328
523.471	58103
523.540	62642
523.610	47884
523.680	44950
523.749	49571
523.819	72297
523.888	72744
523.958	46444
524.027	51280
524.097	55961
524.166	53653
524.236	74312
524.305	58709
524.375	51095
524.444	47381
524.514	50797
524.583	58321
524.653	78520
524.722	84509
524.791	55465
524.861	52245
524.930	49301
524.999	59888
525.069	88390
525.138	69149
525.207	85848
525.277	55550
525.346	61188
525.415	53141
525.484	58752
525.554	78810
525.623	76436
525.692	65794
525.761	75633
525.830	78907
525.900	97787
525.969	147606
526.038	210391
526.107	393549
526.176	1055020
526.245	816893
526.314	345249
526.383	610612
526.452	733875
526.522	1255096
526.591	1230834
526.660	552577
526.729	267587
526.797	253049
526.867	506680
526.935	2037054
527.004	2892723
527.073	1384117
527.142	194592
527.211	102093
527.280	105150
527.349	104928
527.418	57216
527.487	53520
527.555	49235
527.624	44289
527.693	42757
527.762	46723
527.831	45115
527.899	46935
527.968	47119
528.037	52254
528.106	70125
528.174	150603
528.243	109670
528.312	176386
528.380	232702
528.449	68082
528.518	42745
528.586	34572
528.655	36311
528.723	35701
528.792	38142
528.861	48601
528.929	40374
528.998	34485
529.066	32954
529.135	34244
529.203	33732
529.272	36483
529.340	37591
529.409	41651
529.477	41779
529.545	61236
529.614	58877
529.682	72869
529.751	84695
529.819	76030
529.887	57186
529.956	42305
530.024	43328
530.092	38981
530.161	57480
530.229	111047
530.297	54611
530.365	36823
530.434	33534
530.502	33790
530.570	33408
530.638	33073
530.707	42710
530.775	42766
530.843	34850
530.911	35008
530.979	32479
531.047	35242
531.115	37119
531.183	34553
531.252	36138
531.320	39078
531.388	35450
531.456	35949
531.524	35407
531.592	37648
531.660	44476
531.728	38644
531.796	37685
531.864	37044
531.932	41372
532.000	42190
532.067	47832
532.135	52046
532.203	62055
532.271	69199
532.339	131208
532.407	405285
532.475	206178
532.542	91387
532.610	93604
532.678	131003
532.746	557871
532.814	1288562
532.881	286570
532.949	67382
533.017	53062
533.084	43421
533.152	40656
533.220	43568
533.287	56516
533.355	38795
533.423	38813
533.490	36710
533.558	39379
533.625	44541
533.693	50598
533.761	45730
533.828	51419
533.896	54431
533.963	121166
534.031	143164
534.098	202966
534.166	76852
534.233	43199
534.300	45233
534.368	46642
534.435	46536
534.503	45743
534.570	49144
534.637	53533
534.705	60635
534.772	68804
534.840	117938
534.907	491232
534.974	539165
535.041	88791
535.109	79567
535.176	47975
535.243	41356
535.310	48985
535.378	44620
535.445	37277
535.512	35168
535.579	38462
535.646	37237
535.714	39210
535.781	45676
535.848	43783
535.915	46332
535.982	42727
536.049	42995
536.116	46816
536.183	47503
536.250	52815
536.317	56760
536.384	73094
536.451	116054
536.518	117854
536.585	84168
536.652	107711
536.719	155996
536.786	122019
536.853	94446
536.920	146398
536.987	224686
537.053	198387
537.120	719807
537.187	501363
537.254	69253
537.321	55743
537.388	51375
537.454	43680
537.521	42173
537.588	41589
537.654	49565
537.721	54623
537.788	53495
537.855	46908
537.921	51662
537.988	53389
538.055	53623
538.121	56568
538.188	68691
538.254	126066
538.321	243004
538.388	126195
538.454	59514
538.521	50744
538.587	44830
538.654	44802
538.720	43599
538.787	44017
538.853	52487
538.920	73390
538.986	74673
539.053	58039
539.119	60834
539.185	60009
539.252	72651
539.318	132750
539.385	80104
539.451	71193
539.517	66550
539.583	79759
539.650	216593
539.716	524718
539.782	117489
539.849	62039
539.915	59709
539.981	68529
540.047	85666
540.114	72513
540.180	73778
540.246	78194
540.312	120598
540.378	240754
540.444	205999
540.510	224831
540.576	592841
540.643	147541
540.709	60571
540.775	56285
540.841	56488
540.907	80575
540.973	114003
541.039	117378
541.105	123851
541.171	68947
541.237	60691
541.303	64111
541.369	79838
541.435	117501
541.500	195326
541.566	113325
541.632	56220
541.698	49239
541.764	48766
541.830	48901
541.896	49324
541.961	51772
542.027	56776
542.093	57481
542.159	64393
542.224	77871
542.290	115356
542.356	205563
542.421	206321
542.487	87127
542.553	64841
542.618	70785
542.684	61786
542.750	64503
542.815	74942
542.881	141861
542.947	528498
543.012	303334
543.078	59548
543.143	54142
543.209	57884
543.274	59426
543.340	73076
543.405	202221
543.471	286258
543.536	60648
543.602	50900
543.667	48822
543.732	43536
543.798	45129
543.863	46797
543.928	42478
543.994	42253
544.059	43989
544.124	45490
544.190	47583
544.255	50238
544.320	54982
544.386	65206
544.451	93451
544.516	106456
544.581	107523
544.646	333587
544.712	441569
544.777	80729
544.842	67492
544.907	69671
544.972	58287
545.037	56486
545.102	63049
545.168	65417
545.233	68684
545.298	74168
545.363	91983
545.428	102625
545.493	193055
545.558	423841
545.623	135547
545.688	68062
545.753	61967
545.818	59126
545.883	60966
545.947	60923
546.012	70908
546.077	72969
546.142	67896
546.207	74865
546.272	104692
546.337	106117
546.401	74751
546.466	67797
546.531	64761
546.596	75455
546.661	76961
546.725	67908
546.790	64541
546.855	66222
546.919	67766
546.984	74683
547.049	84051
547.113	100098
547.178	89447
547.243	102558
547.307	113605
547.372	138913
547.436	147831
547.501	111816
547.565	122552
547.630	147554
547.695	142512
547.759	151304
547.823	128731
547.888	108130
547.952	108301
548.017	115709
548.081	140757
548.146	172502
548.210	144089
548.274	120744
548.339	113429
548.403	106689
548.468	102446
548.532	101127
548.596	107205
548.660	107896
548.725	122600
548.789	147999
548.853	143230
548.917	122398
548.982	162556
549.046	144150
549.110	99437
549.174	99443
549.238	106610
549.303	109951
549.367	117004
549.431	112249
549.495	106462
549.559	106586
549.623	120923
549.687	144902
549.751	182894
549.815	155213
549.879	145067
549.943	137523
550.007	147313
550.071	151037
550.135	172940
550.199	142985
550.263	131287
550.327	142317
550.391	180302
550.455	145603
550.519	142124
550.582	155796
550.646	211741
550.710	204687
550.774	165744
550.838	169010
550.901	176248
550.965	187957
551.029	199931
551.093	223455
551.156	276109
551.220	443887
551.284	444932
551.347	272220
551.411	448339
551.475	410845
551.538	183678
551.602	160463
551.666	152479
551.729	142332
551.793	140104
551.856	136053
551.920	132266
551.983	132573
552.047	131965
552.110	131596
552.174	136507
552.237	139280
552.301	128690
552.364	126094
552.428	125948
552.491	130932
552.554	138407
552.618	138227
552.681	150232
552.745	166386
552.808	247405
552.871	330730
552.934	216111
552.998	159835
553.061	148845
553.124	132059
553.187	126106
553.251	129193
553.314	129819
553.377	124644
553.440	136441
553.503	164213
553.567	172723
553.630	129166
553.693	125361
553.756	130384
553.819	122077
553.882	120923
553.945	120622
554.008	118602
554.071	118199
554.134	119966
554.197	115605
554.260	113965
554.323	122614
554.386	123749
554.449	122586
554.512	119621
554.575	117888
554.638	119247
554.701	116721
554.764	111685
554.827	109793
554.889	103063
554.952	98664
555.015	97924
555.078	100213
555.141	98582
555.203	98462
555.266	99151
555.329	102887
555.391	99392
555.454	107025
555.517	104657
555.580	93932
555.642	89689
555.705	91011
555.768	92195
555.830	89556
555.893	86262
555.955	84270
556.018	84682
556.080	86379
556.143	86482
556.206	87925
556.268	93135
556.330	96074
556.393	92676
556.455	93149
556.518	136291
556.580	128867
556.643	81275
556.705	81166
556.767	79809
556.830	83349
556.892	100231
556.955	161377
557.017	108327
557.079	82217
557.142	82526
557.204	105340
557.266	213898
557.328	155430
557.391	75849
557.453	70952
557.515	72971
557.577	98618
557.639	98269
557.701	72735
557.764	71162
557.826	76453
557.888	85540
557.950	86188
558.012	92733
558.074	121860
558.136	281663
558.198	615273
558.260	198024
558.322	109107
558.384	111279
558.446	128593
558.508	152160
558.570	196252
558.632	323110
558.694	442547
558.756	417014
558.818	1220695
558.880	2574700
558.942	761040
559.003	682434
559.065	297655
559.127	152727
559.189	149623
559.251	166010
559.312	234079
559.374	582509
559.436	1784673
559.498	724884
559.559	173111
559.621	149573
559.683	169315
559.744	290249
559.806	915144
559.868	1153176
559.929	225162
559.991	160092
560.052	243734
560.114	620007
560.176	347666
560.237	386386
560.299	555185
560.360	125028
560.422	75630
560.483	67564
560.545	62724
560.606	59344
560.667	57819
560.729	56709
560.790	54918
560.852	54282
560.913	55953
560.974	54969
561.036	55110
561.097	57281
561.158	58512
561.220	61760
561.281	63238
561.342	67985
561.403	77385
561.465	112428
561.526	288099
561.587	339505
561.648	90099
561.709	62395
561.771	58819
561.832	55644
561.893	55913
561.954	53395
562.015	53746
562.076	52702
562.137	52761
562.198	52902
562.259	52259
562.320	56846
562.381	66439
562.442	104653
562.503	75748
562.564	53805
562.625	51084
562.686	51312
562.747	61772
562.808	54135
562.869	53323
562.930	63527
562.991	61644
563.051	57749
563.112	55067
563.173	52864
563.234	50575
563.294	50909
563.355	53837
563.416	56280
563.477	53743
563.537	55241
563.598	58950
563.659	56718
563.720	56686
563.780	59767
563.841	62571
563.901	53491
563.962	52618
564.023	53985
564.083	55548
564.144	57612
564.204	56666
564.265	59594
564.325	73372
564.386	152357
564.446	117463
564.507	54339
564.567	54079
564.628	52003
564.688	52732
564.749	53432
564.809	64587
564.869	76861
564.930	56783
564.990	52224
565.050	50128
565.111	51028
565.171	50524
565.231	51074
565.292	50866
565.352	51183
565.412	53362
565.472	56881
565.532	62854
565.593	56359
565.653	54515
565.713	57306
565.773	61870
565.833	81742
565.893	99243
565.953	62231
566.013	57556
566.074	63386
566.134	83025
566.194	139848
566.254	137778
566.314	87156
566.374	62262
566.434	61642
566.494	62417
566.554	60341
566.614	63843
566.673	63662
566.733	67905
566.793	71574
566.853	72506
566.913	71116
566.973	73273
567.033	76943
567.092	79980
567.152	75446
567.212	76010
567.272	76440
567.331	83575
567.391	78714
567.451	87805
567.511	115299
567.570	113333
567.630	76240
567.690	73395
567.749	75013
567.809	80652
567.868	90508
567.928	99222
567.988	114038
568.047	122003
568.107	140128
568.166	181851
568.226	272278
568.285	361560
568.345	307562
568.404	255665
568.464	227692
568.523	215288
568.582	222259
568.642	243564
568.701	290923
568.761	404146
568.820	602791
568.879	572062
568.939	447012
568.998	333545
569.057	260039
569.116	215023
569.176	177874
569.235	153354
569.294	135007
569.353	122818
569.413	111199
569.472	102596
569.531	93308
569.590	86723
569.649	81114
569.708	77312
569.767	79309
569.827	91893
569.886	78075
569.945	65541
570.004	66492
570.063	66008
570.122	70504
570.181	73242
570.240	78139
570.299	76297
570.358	75434
570.417	60166
570.475	56802
570.534	61674
570.593	62659
570.652	64503
570.711	65234
570.770	60994
570.829	69285
570.887	66157
570.946	72795
571.005	56201
571.064	54767
571.122	64436
571.181	71084
571.240	55749
571.299	49552
571.357	55590
571.416	57952
571.475	68287
571.533	67406
571.592	53206
571.650	57271
571.709	49198
571.768	51432
571.826	49681
571.885	46224
571.943	45082
572.002	47013
572.060	48326
572.119	41765
572.177	41614
572.236	40960
572.294	41441
572.352	41323
572.411	41988
572.469	41802
572.528	42567
572.586	43471
572.644	52515
572.703	66212
572.761	48270
572.819	42139
572.877	39949
572.936	37913
572.994	39313
573.052	40891
573.110	44659
573.169	43145
573.227	40469
573.285	38781
573.343	39737
573.401	40176
573.459	38576
573.517	39473
573.576	41073
573.634	41340
573.692	44675
573.750	41804
573.808	40587
573.866	45078
573.924	62300
573.982	55916
574.040	41780
574.098	40053
574.155	39236
574.213	38354
574.271	37539
574.329	40647
574.387	36857
574.445	36217
574.503	35575
574.560	34423
574.618	34957
574.676	34528
574.734	35198
574.792	36553
574.849	34454
574.907	34021
574.965	33647
575.022	34710
575.080	34146
575.138	36042
575.195	39375
575.253	40360
575.311	46493
575.368	36248
575.426	34323
575.483	34523
575.541	34591
575.598	35274
575.656	38814
575.713	38285
575.771	35995
575.828	35579
575.886	36311
575.943	37250
576.001	39804
576.058	39435
576.115	43609
576.173	49554
576.230	59469
576.287	67461
576.345	52724
576.402	41990
576.459	42288
576.517	43507
576.574	46646
576.631	47772
576.688	41926
576.746	38017
576.803	39000
576.860	36252
576.917	37644
576.974	37123
577.031	38042
577.089	38144
577.146	38001
577.203	40770
577.260	42396
577.317	44677
577.374	49958
577.431	46691
577.488	43283
577.545	38001
577.602	36337
577.659	36864
577.716	35096
577.773	36144
577.830	34659
577.886	35459
577.943	35808
578.000	35786
578.057	40899
578.114	37347
578.171	37296
578.227	36910
578.284	36383
578.341	38391
578.398	39085
578.454	43683
578.511	47951
578.568	52087
578.625	43957
578.681	37824
578.738	35655
578.794	35670
578.851	34955
578.908	37298
578.964	38700
579.021	38028
579.077	37592
579.134	37214
579.190	33851
579.247	35000
579.303	35617
579.360	34638
579.416	35189
579.473	32842
579.529	33967
579.586	34294
579.642	36716
579.698	35525
579.755	38447
579.811	37247
579.867	35421
579.924	34546
579.980	34843
580.036	36178
580.093	35996
580.149	36412
580.205	37197
580.261	36654
580.317	39831
580.374	43049
580.430	49194
580.486	46873
580.542	41740
580.598	41018
580.619	41068
580.654	41214
580.692	40707
580.710	40543
580.765	40059
580.767	40099
580.823	38131
580.838	38361
580.879	39135
580.911	38546
580.935	38209
580.984	37477
580.991	37434
581.047	35928
581.057	36209
581.103	37692
581.130	37656
581.159	37691
581.203	38687
581.215	39021
581.270	38853
581.276	38765
581.326	38234
581.349	38333
581.382	38656
581.422	38457
581.438	38405
581.494	40430
581.494	40380
581.550	39288
581.567	39840
581.606	41125
581.640	40530
581.661	40180
581.713	37202
581.717	37016
581.773	36768
581.786	37006
581.829	37812
581.859	37433
581.885	37206
581.932	37192
581.940	37227
581.996	37658
582.004	37479
582.052	36588
582.077	36830
582.107	37211
582.150	36788
582.163	36668
582.219	37392
582.223	37478
582.274	38939
582.296	39575
582.330	40522
582.368	40023
582.386	39913
582.441	36839
582.441	36851
582.497	35878
582.514	35943
582.552	36237
582.587	36403
582.608	36509
582.659	36762
582.663	36798
582.719	36625
582.732	36443
582.774	35933
582.805	36673
582.830	37349
582.877	36760
582.885	36622
582.941	37515
582.950	37345
582.996	36831
583.023	37417
583.052	38093
583.095	37973
583.107	37913
583.162	38532
583.168	38516
583.218	38442
583.240	38242
583.273	37890
583.313	37339
583.328	37143
583.384	37037
583.385	37027
583.439	36658
583.458	36642
583.494	36644
583.531	36017
583.549	35783
583.603	35921
583.605	35905
583.660	35905
583.676	35969
583.715	36614
583.748	37891
583.770	38546
583.820	38076
583.825	38030
583.881	37893
583.893	37703
583.936	36923
583.965	36657
583.991	36526
584.038	36535
584.046	36476
584.101	38269
584.110	38049
584.156	37020
584.183	37241
584.211	37416
584.255	36495
584.266	36254
584.321	36526
584.328	36584
584.376	37054
584.400	37124
584.431	37033
584.472	36597
584.486	36454
584.541	37487
584.545	37510
584.596	37343
584.617	37718
584.651	38756
584.689	40238
584.706	40644
584.761	40612
584.762	40630
584.816	39881
584.834	40260
584.871	41018
584.906	41428
584.926	41523
584.978	42172
584.980	42193
585.035	43735
585.051	44684
585.090	46747
585.123	48441
585.145	49524
585.195	52573
585.200	52805
585.254	55088
585.267	56335
585.309	60351
585.340	63824
585.364	66408
585.412	70575
585.419	71135
585.473	78524
585.484	81484
585.528	95160
585.556	110916
585.583	131783
585.628	195634
585.637	212591
585.692	414871
585.700	449086
585.747	597919
585.772	468712
585.801	287555
585.845	131179
585.856	103198
585.910	73378
585.917	71591
585.965	63673
585.989	60724
586.019	57243
586.061	56057
586.074	55690
586.128	55122
586.133	55394
586.183	58481
586.205	59252
586.237	59131
586.277	57914
586.292	57613
586.346	57366
586.349	57453
586.401	57072
586.421	57881
586.455	59899
586.493	63801
586.509	66885
586.564	84920
586.565	85994
586.618	130138
586.637	124830
586.672	100730
586.709	77081
586.727	68106
586.781	65056
586.781	64952
586.835	61501
586.853	60990
586.889	59997
586.925	59768
586.944	60010
586.996	61485
586.998	61414
587.052	63958
587.068	64242
587.106	64167
587.140	64648
587.161	65309
587.212	68353
587.215	68374
587.269	71616
587.284	72260
587.323	72935
587.356	74506
587.377	75599
587.427	77739
587.431	77744
587.485	80592
587.499	81678
587.539	84576
587.571	86835
587.593	88011
587.643	92568
587.648	92920
587.702	98450
587.715	100385
587.755	105105
587.786	108656
587.810	111052
587.858	116557
587.864	117135
587.917	128036
587.930	131089
587.971	141014
588.001	149620
588.025	155430
588.073	166512
588.079	167816
588.133	185072
588.145	190521
588.187	210287
588.217	226047
588.241	238827
588.288	268559
588.295	272553
588.348	317185
588.360	328076
588.402	367841
588.431	402030
588.456	431644
588.503	498707
588.510	508321
588.564	606330
588.575	632204
588.617	739369
588.646	830212
588.671	928908
588.718	1157238
588.725	1205836
588.778	1659109
588.789	1766771
588.832	2410794
588.861	2836927
588.886	3208082
588.932	3658842
588.939	3638680
588.993	3416450
589.004	3455964
589.047	3297078
589.075	2966185
589.100	2566837
589.147	1707577
589.154	1636554
589.207	1233723
589.218	1171702
589.261	1066054
589.290	1033047
589.314	1057723
589.361	1160641
589.368	1199451
589.421	1617452
589.433	1723421
589.475	2421452
589.504	2878243
589.528	3110315
589.576	3355896
589.582	3280016
589.635	2795886
589.647	2625016
589.689	1810908
589.718	1228580
589.742	1000141
589.790	649673
589.795	625258
589.849	467651
589.861	439267
589.902	377325
589.932	333771
589.955	301099
590.004	243491
590.009	238654
590.062	205859
590.075	199175
590.115	179523
590.146	166840
590.168	159164
590.218	146268
590.222	144812
590.275	133471
590.289	131302
590.328	124212
590.360	119005
590.381	114709
590.431	107023
590.435	106285
590.488	100935
590.503	100018
590.541	95953
590.574	92840
590.594	90395
590.645	85358
590.647	84869
590.700	80707
590.716	79717
590.753	77272
590.787	75904
590.806	74820
590.859	72851
590.859	72558
590.912	70478
590.930	70052
590.965	67789
591.001	66361
591.018	65885
591.071	64861
591.072	65080
591.124	63485
591.143	63155
591.177	62018
591.214	61522
591.230	61250
591.283	61206
591.285	61427
591.336	62787
591.356	63643
591.389	62653
591.427	61412
591.442	59797
591.495	54531
591.498	54386
591.547	53552
591.569	53415
591.600	52555
591.640	51979
591.653	51666
591.706	51190
591.711	51346
591.759	52595
591.782	53739
591.811	54833
591.853	56641
591.864	55629
591.917	50624
591.924	50198
591.969	48960
591.995	48600
592.022	48516
592.066	48882
592.075	49329
592.127	53352
592.137	54403
592.180	56806
592.208	58189
592.233	54478
592.279	47890
592.285	47481
592.338	46078
592.350	45957
592.390	44926
592.421	44456
592.443	44432
592.491	44966
592.495	44821
592.548	45245
592.562	45541
592.600	44524
592.633	43954
592.653	43270
592.704	41737
592.705	41989
592.775	42984
592.846	43590
592.916	44268
592.987	47708
593.058	44030
593.128	41274
593.199	42567
593.270	40339
593.341	40957
593.411	42863
593.482	43301
593.553	41002
593.623	41569
593.694	41267
593.764	43812
593.835	41705
593.906	41671
593.976	41180
594.047	43451
594.117	48693
594.188	49654
594.258	41556
594.329	41134
594.399	40595
594.470	41795
594.540	42267
594.611	42439
594.681	41773
594.751	43064
594.822	46802
594.892	47486
594.963	46883
595.033	45867
595.103	46984
595.174	50267
595.244	65115
595.314	74491
595.384	49617
595.455	46985
595.525	47465
595.595	49551
595.665	50763
595.736	47925
595.806	48968
595.876	49258
595.946	48228
596.016	48902
596.087	49954
596.157	51313
596.227	49757
596.297	52672
596.367	55260
596.437	60048
596.507	71254
596.577	79412
596.647	60013
596.717	58505
596.787	58985
596.857	56496
596.927	56991
596.997	58911
597.067	58737
597.137	60677
597.207	61133
597.277	59843
597.347	58862
597.417	57410
597.487	58650
597.557	60113
597.626	60933
597.696	65652
597.766	69904
597.836	79575
597.906	59720
597.975	54914
598.045	54437
598.115	56025
598.185	58468
598.254	64582
598.324	69372
598.394	71754
598.464	69479
598.533	66793
598.603	63298
598.672	62899
598.742	62893
598.812	63297
598.881	62680
598.951	62090
599.020	61894
599.090	62978
599.159	64824
599.229	63097
599.299	60744
599.368	62485
599.437	61947
599.507	58847
599.576	59639
599.646	57088
599.715	56943
599.785	58096
599.854	57986
599.924	60461
599.993	57252
600.062	56780
600.132	56377
600.201	59755
600.270	68831
600.340	69262
600.409	65978
600.478	65798
600.547	67554
600.617	62759
600.686	55273
600.755	54080
600.824	54639
600.894	51792
600.963	47597
601.032	47642
601.101	47407
601.170	45454
601.239	45763
601.308	49236
601.378	47125
601.447	45277
601.516	44949
601.585	49177
601.654	50387
601.723	48194
601.792	47416
601.861	49134
601.930	51674
601.999	56548
602.068	52263
602.137	55394
602.206	53906
602.275	53301
602.343	60561
602.412	60936
602.481	52018
602.550	51122
602.619	51198
602.688	53404
602.756	51740
602.825	52044
602.894	52396
602.963	52963
603.032	53612
603.100	54133
603.169	54137
603.238	54524
603.307	53542
603.375	54144
603.444	55515
603.513	55705
603.581	54884
603.650	56395
603.719	54153
603.787	55747
603.856	58444
603.924	60049
603.993	61668
604.061	60424
604.130	64141
604.198	65263
604.267	64187
604.335	66101
604.404	65061
604.472	66290
604.541	67459
604.609	67858
604.678	66837
604.746	68867
604.815	69860
604.883	71124
604.951	70670
605.020	71468
605.088	72257
605.156	74311
605.225	73395
605.293	74150
605.361	74142
605.429	75145
605.498	76732
605.566	81295
605.634	81447
605.702	84282
605.771	85086
605.839	86021
605.907	83987
605.975	81062
606.043	79655
606.111	79954
606.180	79602
606.248	77969
606.316	79715
606.384	81684
606.452	88962
606.520	97689
606.588	86002
606.656	81814
606.724	79390
606.792	76470
606.860	69140
606.928	63727
606.996	62371
607.064	60652
607.132	62939
607.200	66715
607.267	67536
607.335	70085
607.403	70510
607.471	67729
607.539	66755
607.607	66980
607.674	60809
607.742	63237
607.810	63930
607.878	62839
607.946	60850
608.013	64853
608.081	65817
608.149	67067
608.216	66010
608.284	69651
608.352	68463
608.419	70274
608.487	78530
608.555	70025
608.622	67139
608.690	71589
608.757	75845
608.825	79649
608.893	79060
608.960	80140
609.028	82053
609.095	85487
609.163	72625
609.230	66157
609.298	61441
609.365	62777
609.432	65432
609.500	73118
609.567	81209
609.635	90670
609.702	94838
609.769	93097
609.837	77899
609.904	68389
609.971	68038
610.039	81289
610.106	109834
610.173	211220
610.241	477589
610.308	342385
610.375	173288
610.442	82954
610.509	70727
610.577	69036
610.644	67898
610.711	69535
610.778	71789
610.845	73699
610.912	77254
610.980	79874
611.047	79663
611.114	81279
611.181	76233
611.248	74419
611.315	79860
611.382	80580
611.449	82584
611.516	85121
611.583	83492
611.650	85705
611.717	86983
611.784	87208
611.851	93309
611.918	106204
611.984	125469
612.051	187383
612.118	398701
612.185	988345
612.252	530552
612.319	133698
612.386	110442
612.452	101966
612.519	100011
612.586	107606
612.653	99688
612.719	98453
612.786	94554
612.853	86896
612.919	83532
612.986	87152
613.053	81777
613.120	76982
613.186	74419
613.253	77433
613.319	75541
613.386	77842
613.453	80124
613.519	84863
613.586	93048
613.652	111831
613.719	98064
613.785	91586
613.852	79342
613.918	77309
613.985	79724
614.051	84241
614.118	90759
614.184	85789
614.250	77565
614.317	79881
614.383	78152
614.449	78575
614.516	79266
614.582	80953
614.648	77460
614.715	78977
614.781	77580
614.847	77806
614.914	78622
614.980	76055
615.046	75455
615.112	78828
615.179	79548
615.245	82529
615.311	90172
615.377	113188
615.443	114107
615.509	90582
615.575	86495
615.642	87098
615.708	90287
615.774	95653
615.840	106352
615.906	123295
615.972	171144
616.038	302130
616.104	564144
616.170	1293424
616.236	958144
616.302	201397
616.368	145972
616.434	107896
616.500	101816
616.565	112719
616.631	135324
616.697	110711
616.763	116819
616.829	172321
616.895	296021
616.961	260875
617.026	116854
617.092	89144
617.158	84876
617.224	81455
617.289	78307
617.355	76585
617.421	75906
617.487	75171
617.552	70360
617.618	71063
617.684	69949
617.749	71342
617.815	68355
617.880	65749
617.946	66770
618.012	68578
618.077	69877
618.143	67162
618.208	68613
618.274	72706
618.339	71109
618.405	62633
618.470	63856
618.536	65390
618.601	66958
618.667	62162
618.732	58832
618.798	58128
618.863	58178
618.928	58257
618.994	60736
619.059	66246
619.124	80191
619.190	66131
619.255	57191
619.320	59749
619.386	57939
619.451	56748
619.516	55545
619.581	56421
619.647	57458
619.712	57288
619.777	56792
619.842	56563
619.907	58033
619.972	59354
620.038	58890
620.103	56411
620.168	55537
620.233	56519
620.298	56735
620.363	56952
620.428	57537
620.493	58673
620.558	59081
620.623	60160
620.688	59898
620.753	58919
620.818	58981
620.883	60748
620.948	59599
621.013	60489
621.078	59727
621.143	59392
621.207	64620
621.272	63074
621.337	63784
621.402	64917
621.467	72520
621.532	72667
621.596	65828
621.661	61984
621.726	58981
621.791	61006
621.855	62633
621.920	63937
621.985	65106
622.049	69704
622.114	67372
622.179	62931
622.243	64350
622.308	65335
622.373	68105
622.437	66257
622.502	63314
622.566	62682
622.631	62406
622.695	63732
622.760	64295
622.824	64502
622.889	65395
622.953	69888
623.018	93236
623.082	88625
623.147	67017
623.211	66023
623.276	65816
623.340	60983
623.404	60009
623.469	59872
623.533	61196
623.597	59694
623.662	58839
623.726	56806
623.790	53971
623.854	54050
623.919	55374
623.983	56020
624.047	55894
624.111	55227
624.176	56550
624.240	61359
624.304	63948
624.368	56168
624.432	56229
624.496	59993
624.560	64450
624.625	68512
624.689	59968
624.753	59129
624.817	57523
624.881	55037
624.945	52742
625.009	52496
625.073	53358
625.137	58455
625.201	68224
625.265	67406
625.329	54097
625.393	59314
625.456	55467
625.520	58080
625.584	61313
625.648	69584
625.712	91014
625.776	163997
625.839	174999
625.903	79530
625.967	55361
626.031	81202
626.095	110232
626.158	59004
626.222	43674
626.286	42998
626.349	40360
626.413	39680
626.477	43844
626.540	40200
626.604	39147
626.668	39191
626.731	37621
626.795	39245
626.858	39272
626.922	38102
626.986	38062
627.049	35966
627.113	37929
627.176	37239
627.240	36382
627.303	36477
627.366	35647
627.430	37460
627.493	35841
627.557	36012
627.620	37145
627.684	37773
627.747	36803
627.810	33317
627.874	33733
627.937	32279
628.000	35138
628.064	33974
628.127	27988
628.190	30935
628.253	30080
628.317	30012
628.380	28346
628.443	28665
628.506	28870
628.569	27940
628.632	25523
628.696	27375
628.759	26169
628.822	26081
628.885	24417
628.948	25970
629.011	26138
629.074	26025
629.137	24466
629.200	25263
629.263	27507
629.326	23195
629.389	23708
629.452	24348
629.515	25188
629.578	25032
629.641	25705
629.704	24301
629.767	25414
629.830	22844
629.892	23021
629.955	23115
630.018	25801
630.081	28720
630.144	33502
630.207	25781
630.269	27079
630.332	26218
630.395	23076
630.458	21727
630.520	20733
630.583	22354
630.646	20811
630.708	19936
630.771	19780
630.834	21970
630.896	21362
630.959	21125
631.021	20594
631.084	21074
631.146	23383
631.209	25806
631.272	20739
631.334	21102
631.397	20500
631.459	20204
631.522	23168
631.584	22531
631.646	23974
631.709	25905
631.771	31864
631.834	25813
631.896	21810
631.958	19915
632.021	20509
632.083	19450
632.145	20733
632.208	20834
632.270	21187
632.332	18062
632.395	17305
632.457	21003
632.519	19903
632.581	20037
632.643	19178
632.706	20028
632.768	17607
632.830	19598
632.892	18503
632.954	19306
633.016	20109
633.078	18726
633.141	18110
633.203	18796
633.265	19522
633.327	19338
633.389	18775
633.451	23861
633.513	26389
633.575	25574
633.637	26258
633.698	23106
633.760	19574
633.822	20029
633.884	20764
633.946	20117
634.008	19952
634.070	21246
634.132	20391
634.193	23941
634.255	24234
634.317	24226
634.379	25206
634.441	22578
634.502	20849
634.564	19844
634.626	19711
634.687	20811
634.749	18456
634.811	18494
634.873	17644
634.934	17536
634.996	18530
635.057	17376
635.119	16483
635.181	18424
635.242	18795
635.304	16794
635.365	20438
635.427	17801
635.488	19147
635.550	16576
635.611	17909
635.673	17028
635.734	19950
635.796	19801
635.857	22618
635.918	20383
635.980	23580
636.041	23089
636.102	24609
636.164	24830
636.225	25222
636.286	21177
636.348	21035
636.409	19457
636.470	17646
636.531	18155
636.593	19006
636.654	19482
636.715	15333
636.776	15781
636.838	15108
636.899	16849
636.960	15181
637.021	15812
637.082	17135
637.143	16847
637.204	14065
637.265	14656
637.326	15200
637.387	15846
637.448	14425
637.509	16101
637.570	15078
637.631	16549
637.692	12472
637.753	13772
637.814	14602
637.875	14365
637.936	14958
637.997	14557
638.058	14617
638.119	15714
638.179	14661
638.240	14183
638.301	13743
638.362	13505
638.423	13997
638.483	14807
638.544	12270
638.605	14880
638.666	13148
638.726	14288
638.787	13496
638.848	12922
638.908	12907
638.969	14557
639.030	13028
639.090	13193
639.151	13022
639.211	16436
639.272	21279
639.332	33530
639.393	18773
639.453	14423
639.514	14747
639.574	14583
639.635	11422
639.695	14487
639.756	12577
639.816	15793
639.877	19368
639.937	32112
639.997	39144
640.058	14307
640.118	12605
640.178	13637
640.239	11580
640.299	12444
640.359	12699
640.420	13273
640.480	13906
640.540	14773
640.600	14445
640.661	15153
640.721	14212
640.781	19891
640.841	14294
640.901	13973
640.961	14618
641.021	15357
641.082	18333
641.142	25708
641.202	16326
641.262	10912
641.322	13046
641.382	11474
641.442	13196
641.502	12474
641.562	13342
641.622	11910
641.682	12981
641.742	14424
641.802	13189
641.861	14549
641.921	14195
641.981	16762
642.041	15896
642.101	19637
642.161	13094
642.221	11068
642.280	11754
642.340	10738
642.400	10159
642.460	12919
642.519	11862
642.579	11766
642.639	12523
642.698	10071
642.758	13727
642.818	13177
642.877	10673
642.937	13159
642.997	15468
643.056	22213
643.116	13070
643.175	13807
643.235	12128
643.294	13124
643.354	13752
643.414	15637
643.473	17871
643.532	21133
643.592	28036
643.651	48823
643.711	82710
643.770	167196
643.830	407205
643.889	836432
643.948	169179
644.008	30708
644.067	20332
644.126	16761
644.186	15269
644.245	14395
644.304	11020
644.363	14145
644.423	11590
644.482	12990
644.541	12190
644.600	11237
644.659	16426
644.719	17304
644.778	24690
644.837	40246
644.896	78082
644.955	167535
645.014	53344
645.073	16103
645.132	13481
645.191	12861
645.250	12136
645.309	13878
645.368	13005
645.427	16707
645.486	22504
645.545	35912
645.604	14756
645.663	12629
645.722	11870
645.781	13277
645.840	15620
645.898	19448
645.957	27599
646.016	41491
646.075	74376
646.134	146947
646.192	399517
646.251	547928
646.310	70295
646.369	22294
646.427	18717
646.486	14692
646.545	12904
646.603	12564
646.662	11559
646.721	11970
646.779	10761
646.838	11004
646.896	14276
646.955	16962
647.014	23557
647.072	42318
647.131	107696
647.189	48371
647.248	11949
647.306	10492
647.365	10655
647.423	8527
647.481	10365
647.540	8145
647.598	9991
647.657	7842
647.715	9850
647.773	7974
647.832	9567
647.890	8156
647.948	8904
648.007	9161
648.065	8058
648.123	9710
648.181	9753
648.240	9204
648.298	8174
648.356	8601
648.414	9297
648.472	9705
648.531	9176
648.589	8679
648.647	8583
648.705	8783
648.763	8644
648.821	9187
648.879	9697
648.937	10688
648.995	11612
649.053	14480
649.111	21440
649.169	33061
649.227	55559
649.285	115389
649.343	320129
649.401	144087
649.459	49715
649.516	29191
649.574	13689
649.632	16903
649.690	17572
649.748	15604
649.806	17210
649.863	30997
649.921	75679
649.979	47594
650.037	10426
650.094	7069
650.152	8831
650.210	8185
650.268	8982
650.325	8750
650.383	7671
650.440	7290
650.498	7390
650.556	7716
650.613	5473
650.671	7417
650.728	7965
650.786	7827
650.843	9097
650.901	5789
650.958	7264
651.016	6544
651.073	6528
651.131	6876
651.188	6212
651.246	7297
651.303	6074
651.360	6651
651.418	5538
651.475	6608
651.532	4766
651.590	6548
651.647	5365
651.704	6133
651.762	6661
651.819	6896
651.876	5758
651.933	5814
651.990	6020
652.048	5357
652.105	6355
652.162	7159
652.219	6072
652.276	6550
652.333	6250
652.390	5007
652.448	5593
652.505	6608
652.562	4905
652.619	5970
652.676	6208
652.733	6841
652.790	5288
652.847	4149
652.904	5088
652.961	5200
653.017	4702
653.074	7140
653.131	6226
653.188	5078
653.245	5845
653.302	5224
653.359	5624
653.415	6446
653.472	4874
653.529	6210
653.586	5306
653.642	4626
653.699	5536
653.756	4815
653.813	4839
653.869	5734
653.926	4767
653.983	5161
654.039	6031
654.096	5804
654.152	6122
654.209	5579
654.266	5812
654.322	6095
654.379	6255
654.435	7301
654.492	6960
654.548	12151
654.605	17537
654.661	8720
654.717	5841
654.774	7175
654.830	6890
654.887	6653
654.943	6121
655.000	6722
655.056	6064
655.112	7059
655.168	4967
655.225	6075
655.281	7438
655.337	9166
655.394	15260
655.450	10159
655.506	9179
655.562	14736
655.618	11527
655.675	5470
655.731	6614
655.787	6047
655.843	6451
655.899	6051
655.955	7153
656.011	8491
656.067	6830
656.123	9115
656.179	9543
656.235	11664
656.291	8744
656.347	9393
656.403	7380
656.459	7618
656.515	8430
656.571	8614
656.627	6868
656.683	7322
656.739	6486
656.795	6193
656.850	7817
656.906	9340
656.962	6925
657.018	6005
657.074	6552
657.129	7362
657.185	7853
657.241	11823
657.297	7316
657.352	6559
657.408	4927
657.464	7819
657.519	5478
657.575	4699
657.630	4801
657.686	5337
657.742	4516
657.797	5401
657.853	4863
657.908	6737
657.964	4575
658.019	5806
658.075	4426
658.130	5789
658.186	4007
658.241	4937
658.297	4229
658.352	5686
658.407	4879
658.463	5060
658.518	5601
658.573	4855
658.629	3845
658.684	4642
658.739	5146
658.795	4757
658.850	4737
658.905	4828
658.960	4858
659.016	4761
659.071	5297
659.126	6502
659.181	5899
659.236	13012
659.291	12088
659.346	7473
659.401	6210
659.457	6222
659.512	5131
659.567	6834
659.622	5437
659.677	4694
659.732	4722
659.787	6385
659.842	6242
659.897	8336
659.952	5984
660.007	5819
660.061	4264
660.116	4833
660.171	4378
660.226	4815
660.281	5750
660.336	5247
660.391	5035
660.445	4182
660.500	5013
660.555	4837
660.610	4673
660.664	5705
660.719	4807
660.774	5241
660.828	4644
660.883	5496
660.938	5303
660.992	4553
661.047	5549
661.101	4311
661.156	4726
661.211	4694
661.265	4653
661.320	4728
661.374	4910
661.429	4354
661.483	5402
661.538	5330
661.592	4811
661.647	4935
661.701	5529
661.755	6009
661.810	4656
661.864	4957
661.919	4345
661.973	5263
662.027	3576
662.081	4470
662.136	4779
662.190	5760
662.244	5200
662.299	5331
662.353	5010
662.407	5100
662.461	5565
662.515	5657
662.569	5417
662.624	6264
662.678	4041
662.732	5407
662.786	5286
662.840	5298
662.894	5502
662.948	4913
663.002	4608
663.056	5701
663.110	5451
663.164	4660
663.218	4800
663.272	5742
663.326	5609
663.380	6263
663.434	6637
663.488	4751
663.542	4927
663.595	6373
663.649	4831
663.703	6214
663.757	5824
663.811	5822
663.864	5101
663.918	5547
663.972	4977
664.026	5472
664.079	5314
664.133	5734
664.187	5081
664.240	5132
664.294	5129
664.348	5215
664.401	5248
664.455	5244
664.508	4396
664.562	5842
664.615	4288
664.669	5075
664.722	5155
664.776	5129
664.829	5239
664.883	6256
664.936	5198
664.990	6490
665.043	5730
665.097	6458
665.150	6862
665.203	5972
665.257	5566
665.310	5998
665.363	6060
665.417	6821
665.470	5646
665.523	5351
665.576	5821
665.630	5518
665.683	5756
665.736	6291
665.789	6185
665.842	5294
665.895	5178
665.949	6260
666.002	5621
666.055	5794
666.108	7164
666.161	6728
666.214	7085
666.267	6905
666.320	7647
666.373	7343
666.426	6489
666.479	6341
666.532	6959
666.585	7512
666.638	8479
666.691	7618
666.744	8543
666.796	8883
666.849	6878
666.902	6503
666.955	5136
667.008	6075
667.060	4994
667.113	5270
667.166	5218
667.219	5945
667.271	6027
667.324	5870
667.377	5392
667.430	5742
667.482	5966
667.535	6399
667.587	7029
667.640	7275
667.693	8663
667.745	14900
667.798	15297
667.850	7606
667.903	7032
667.955	5957
668.008	5279
668.060	7179
668.113	7152
668.165	7404
668.218	7564
668.270	7595
668.322	6762
668.375	6868
668.427	6420
668.479	6711
668.532	6724
668.584	6978
668.636	6207
668.689	6436
668.741	6562
668.793	7116
668.845	5757
668.898	6690
668.950	6581
669.002	6752
669.054	6087
669.106	6079
669.158	7516
669.211	6538
669.263	6160
669.315	7910
669.367	7100
669.419	7562
669.471	8379
669.523	8541
669.575	11116
669.627	9464
669.679	7145
669.731	8133
669.783	7837
669.835	9237
669.886	7971
669.938	8758
669.990	7732
670.042	7709
670.094	8418
670.146	8878
670.197	10634
670.249	12625
670.301	15471
670.353	20308
670.404	28418
670.456	42847
670.508	64179
670.560	104577
670.611	178234
670.663	318048
670.715	778029
670.766	1202808
670.818	390389
670.869	71094
670.921	36524
670.972	25847
671.024	20249
671.075	15708
671.127	13330
671.178	12049
671.230	10869
671.281	10775
671.333	11018
671.384	10256
671.436	11234
671.487	11835
671.538	13100
671.590	17065
671.641	23114
671.692	36076
671.744	66086
671.795	45586
671.846	18525
671.897	12685
671.949	10202
672.000	9668
672.051	8831
672.102	8137
672.153	7312
672.204	9127
672.256	7710
672.307	8257
672.358	7852
672.409	8490
672.460	7966
672.511	7078
672.562	7604
672.613	8146
672.664	6957
672.715	7820
672.766	6302
672.817	7321
672.868	6842
672.919	7227
672.970	7182
673.021	7090
673.071	6531
673.122	7280
673.173	6881
673.224	7592
673.275	7331
673.326	6573
673.376	6588
673.427	6164
673.478	6084
673.528	6937
673.579	6526
673.630	6789
673.680	7335
673.731	5953
673.782	5704
673.832	6711
673.883	7151
673.934	7313
673.984	5885
674.035	6010
674.085	6792
674.136	7979
674.186	7577
674.237	8995
674.287	12600
674.338	8940
674.388	6510
674.438	6475
674.489	6767
674.539	7858
674.589	7078
674.640	7416
674.690	6681
674.740	7480
674.791	7509
674.841	6658
674.891	6906
674.942	6533
674.992	7379
675.042	6422
675.092	5965
675.142	6826
675.193	6636
675.243	6581
675.293	7172
675.343	7148
675.393	6098
675.443	7144
675.493	5732
675.543	6000
675.593	5900
675.643	6087
675.693	5730
675.743	5632
675.793	6630
675.843	5977
675.893	6130
675.943	6252
675.993	5555
676.043	7391
676.093	6204
676.142	5815
676.192	6143
676.242	6312
676.292	5909
676.341	6335
676.391	6985
676.441	5955
676.491	5794
676.540	6611
676.590	5743
676.640	6013
676.689	5739
676.739	5948
676.789	5429
676.838	6039
676.888	5782
676.937	5712
676.987	5193
677.037	5107
677.086	3931
677.136	5746
677.185	4625
677.235	4905
677.284	4961
677.333	5799
677.383	5347
677.432	4663
677.482	5602
677.531	5529
677.580	4584
677.630	5995
677.679	4111
677.728	5352
677.778	5465
677.827	5528
677.876	6111
677.925	5419
677.975	5917
678.024	5454
678.073	5403
678.122	5910
678.171	6068
678.220	5878
678.269	6707
678.319	7129
678.368	6712
678.417	6435
678.466	5833
678.515	6423
678.564	6490
678.613	6529
678.662	5408
678.711	6300
678.760	5177
678.809	5471
678.857	6531
678.906	6946
678.955	5948
679.004	6395
679.053	5684
679.102	6082
679.151	6487
679.199	6354
679.248	5437
679.297	6386
679.346	6044
679.394	5900
679.443	5493
679.492	5543
679.540	5505
679.589	6030
679.638	5412
679.686	5531
679.735	5562
679.784	6133
679.832	6101
679.881	5548
679.929	5102
679.978	5120
680.026	4910
680.075	5707
680.123	5073
680.172	5581
680.220	4385
680.268	5565
680.317	4850
680.365	5334
680.414	5031
680.462	6004
680.510	5954
680.559	4854
680.607	4598
680.655	5294
680.703	5018
680.752	5169
680.800	4341
680.848	5542
680.896	4059
680.945	4849
680.993	4630
681.041	5334
681.089	4681
681.137	5450
681.185	4918
681.233	4634
681.258	4894
681.281	5086
681.329	5085
681.377	4651
681.380	4752
681.425	5588
681.473	5785
681.502	6048
681.521	6128
681.569	5206
681.617	6381
681.624	6283
681.665	5270
681.713	6844
681.745	6090
681.761	5641
681.809	6614
681.857	6226
681.867	6285
681.904	6284
681.952	6566
681.989	7494
682.000	7700
682.048	6436
682.096	6781
682.111	6797
682.143	6663
682.191	7078
682.233	7382
682.239	7378
682.286	6758
682.334	6894
682.354	7005
682.382	7053
682.430	7466
682.476	8076
682.477	8041
682.525	7716
682.572	7876
682.598	7569
682.620	7225
682.667	7842
682.715	7658
682.720	7837
682.763	9089
682.810	8570
682.841	8869
682.857	8907
682.905	7484
682.952	8906
682.963	8712
683.000	7898
683.047	9607
683.085	9644
683.095	9607
683.142	8382
683.190	8381
683.206	8503
683.237	8574
683.284	8661
683.328	9147
683.332	9151
683.379	8738
683.426	9010
683.449	9352
683.473	9621
683.521	9319
683.568	10005
683.571	9993
683.615	9326
683.662	9762
683.693	10006
683.709	10092
683.757	9869
683.804	10943
683.814	10881
683.851	10517
683.898	10395
683.936	10823
683.945	10890
683.992	11263
684.039	10965
684.057	11388
684.086	11974
684.133	11317
684.179	11710
684.180	11685
684.227	11754
684.274	12038
684.300	12053
684.321	11993
684.368	11661
684.415	11830
684.422	11784
684.462	11244
684.509	11015
684.543	11859
684.556	12190
684.603	11434
684.649	11400
684.665	11587
684.696	11933
684.743	11996
684.786	12873
684.790	12921
684.837	13067
684.883	13496
684.908	13877
684.930	14171
684.977	14468
685.023	13952
685.029	13929
685.070	13178
685.117	13402
685.150	13409
685.164	13550
685.210	14867
685.257	15253
685.272	15326
685.303	15197
685.350	14692
685.393	14867
685.396	14880
685.443	15268
685.490	17683
685.514	17200
685.536	16435
685.583	16131
685.629	15735
685.636	15695
685.675	15569
685.722	15641
685.757	15859
685.768	15923
685.815	15658
685.861	16055
685.878	16247
685.908	16603
685.954	15724
686.000	16738
686.000	16754
686.047	17717
686.093	20105
686.121	20682
686.139	20274
686.185	17886
686.232	17956
686.242	17636
686.278	16913
686.324	16466
686.363	14943
686.370	14724
686.416	15520
686.463	16577
686.484	16410
686.509	16194
686.555	16192
686.601	15712
686.606	15783
686.647	16348
686.693	15893
686.727	15993
686.739	16053
686.785	16611
686.831	16225
686.848	16297
686.877	16276
686.923	16010
686.969	15994
686.969	15993
687.015	16239
687.061	16828
687.090	16578
687.107	16282
687.153	16970
687.199	16604
687.211	16485
687.245	16482
687.291	17138
687.332	17773
687.336	17827
687.382	18332
687.428	17453
687.453	17699
687.474	17655
687.520	17019
687.565	17351
687.574	17174
687.611	17101
687.657	17749
687.695	18198
687.702	18299
687.748	18429
687.794	19589
687.816	19630
687.839	19051
687.885	18179
687.931	17509
687.937	17322
687.976	17317
688.022	17909
688.058	18806
688.067	18874
688.113	18137
688.158	17178
688.179	17160
688.204	17613
688.249	18709
688.295	18731
688.300	18833
688.340	19474
688.386	19602
688.421	19805
688.431	19794
688.477	19656
688.522	20104
688.542	19862
688.567	19619
688.613	19492
688.658	19211
688.663	19182
688.703	19402
688.749	19643
688.784	20357
688.794	20428
688.839	19408
688.884	19417
688.905	19223
688.930	19139
688.975	18680
689.020	18892
689.026	18863
689.065	19305
689.110	19524
689.146	20347
689.155	20426
689.201	19579
689.246	19301
689.267	19145
689.291	19278
689.336	19588
689.381	19819
689.388	19866
689.426	19912
689.471	19565
689.509	19221
689.516	19183
689.561	19483
689.606	18814
689.630	18979
689.651	19427
689.696	19579
689.741	19908
689.750	20052
689.785	20138
689.830	19799
689.871	19015
689.875	18984
689.920	19305
689.965	19807
689.992	19210
690.010	18919
690.054	19904
690.099	19900
690.112	19825
690.144	19639
690.189	19433
690.233	19547
690.233	19572
690.278	19132
690.323	19350
690.354	19095
690.367	19207
690.412	19990
690.457	20105
690.474	20362
690.501	20235
690.546	19335
690.590	18792
690.595	18700
690.635	19090
690.680	19777
690.716	19748
690.724	19668
690.769	20333
690.813	20241
690.836	19993
690.857	19985
690.902	19818
690.946	20346
690.957	20344
690.991	20536
691.035	21247
691.077	21247
691.080	21293
691.124	22425
691.168	22844
691.198	23189
691.213	23099
691.257	22698
691.301	22393
691.318	22135
691.346	21768
691.390	21182
691.434	20872
691.439	20780
691.478	21107
691.522	21653
691.559	22070
691.567	22163
691.611	22565
691.655	22428
691.680	22485
691.699	22553
691.743	22826
691.787	22601
691.800	22756
691.831	23347
691.875	23462
691.919	23857
691.921	23822
691.964	24033
692.008	24489
692.041	24378
692.052	24306
692.096	24332
692.139	24305
692.162	24177
692.183	24100
692.227	23514
692.271	23563
692.282	23520
692.315	23731
692.359	23858
692.402	23623
692.403	23664
692.447	23762
692.490	23759
692.523	24037
692.534	24236
692.578	24343
692.622	24410
692.643	24293
692.666	23866
692.709	23482
692.753	22944
692.763	22777
692.797	22960
692.840	23003
692.884	23016
692.884	23063
692.928	23682
692.971	24054
693.004	24059
693.015	23969
693.059	24099
693.102	23728
693.124	23783
693.146	24147
693.189	23999
693.233	24380
693.245	24496
693.276	25005
693.320	25258
693.363	25169
693.365	25138
693.407	25281
693.450	25221
693.485	24872
693.493	24925
693.537	25240
693.580	25451
693.605	25586
693.624	25493
693.667	25010
693.710	24610
693.725	24503
693.753	25340
693.797	25994
693.840	27139
693.845	27214
693.883	26905
693.926	26528
693.966	25683
693.970	25601
694.013	24656
694.056	23561
694.086	22977
694.099	23318
694.142	23519
694.185	24630
694.206	24818
694.229	25118
694.272	25674
694.315	26481
694.326	26598
694.358	26828
694.401	26853
694.444	27270
694.446	27217
694.487	27297
694.530	27265
694.566	27437
694.573	27281
694.616	25717
694.659	24225
694.686	23146
694.702	23229
694.745	23445
694.787	23618
694.806	23566
694.830	23618
694.873	24085
694.916	24240
694.926	24189
694.959	24247
695.002	24490
695.044	24598
695.046	24550
695.087	24776
695.130	25177
695.166	25082
695.172	25113
695.215	24974
695.258	25110
695.286	25061
695.301	25185
695.343	25410
695.386	25686
695.406	25625
695.428	25395
695.471	25127
695.514	24705
695.526	24591
695.556	25155
695.599	25746
695.641	26458
695.646	26435
695.684	25981
695.726	25677
695.766	25189
695.769	25239
695.811	25311
695.854	25188
695.886	25238
695.896	25374
695.938	25427
695.981	25557
696.005	25407
696.023	25462
696.065	26038
696.108	26163
696.125	26282
696.150	26602
696.192	26827
696.235	27001
696.245	26974
696.277	26610
696.319	26162
696.361	25678
696.365	25590
696.404	25615
696.446	25208
696.485	25090
696.488	25192
696.530	25536
696.572	26013
696.604	26205
696.614	26195
696.656	25923
696.698	25633
696.724	25438
696.740	25542
696.783	25539
696.825	25668
696.844	25637
696.867	25794
696.909	26001
696.951	25868
696.964	25928
696.992	26009
697.034	25670
697.076	25591
697.083	25485
697.118	26043
697.160	26674
697.202	27308
697.203	27255
697.244	26791
697.286	26368
697.323	25849
697.327	25960
697.369	26376
697.411	26831
697.442	27094
697.453	27267
697.494	27731
697.536	28137
697.562	28306
697.578	28404
697.620	28549
697.661	28607
697.682	28527
697.703	28917
697.744	29773
697.786	30555
697.801	30769
697.828	30987
697.869	31069
697.911	31196
697.921	31137
697.952	30214
697.994	29076
698.035	27745
698.040	27526
698.077	27085
698.118	26419
698.160	25820
698.160	25750
698.201	26048
698.243	26329
698.279	26515
698.284	26626
698.325	26998
698.367	27399
698.399	27602
698.408	27601
698.449	27297
698.491	27031
698.518	26734
698.532	26846
698.573	27030
698.614	27183
698.638	27199
698.656	27456
698.697	27886
698.738	28335
698.757	28467
698.779	28741
698.820	29115
698.862	29497
698.877	29563
698.903	29947
698.944	30422
698.985	30917
698.996	30972
699.026	30579
699.067	29925
699.116	29070
699.235	28285
699.354	27483
699.474	28550
699.593	31614
699.713	30740
699.832	29145
699.951	30566
700.070	28116
700.190	26982
700.309	28002
700.428	29713
700.547	27598
700.667	27882
700.786	30619
700.905	26678
701.024	29278
701.143	26939
701.262	25929
701.381	25588
701.500	27898
701.619	29806
701.738	26326
701.857	24934
701.976	24718
702.095	24338
702.214	26880
702.333	28507
702.452	26002
702.571	23304
702.690	24343
702.809	24727
702.928	23497
703.047	24485
703.165	23387
703.284	23390
703.403	23593
703.522	27488
703.640	26255
703.759	31154
703.878	37284
703.997	23398
704.115	22612
704.234	23471
704.353	23017
704.471	22676
704.590	21067
704.708	21878
704.827	22149
704.946	22675
705.064	24363
705.183	23130
705.301	28357
705.420	37521
705.538	34130
705.656	28666
705.775	27365
705.893	29869
706.012	32273
706.130	29851
706.249	29708
706.367	31217
706.485	30921
706.604	29879
706.722	31437
706.840	36553
706.958	35814
707.077	29472
707.195	27325
707.313	27315
707.431	27670
707.549	26690
707.668	27672
707.786	27415
707.904	26087
708.022	25496
708.140	25289
708.258	25889
708.376	27287
708.494	26149
708.612	30050
708.730	42134
708.848	39186
708.966	35442
709.084	34183
709.202	32575
709.320	33199
709.438	33370
709.556	33844
709.674	32585
709.791	33869
709.909	30615
710.027	31537
710.145	30315
710.263	32944
710.380	31721
710.498	30376
710.616	30824
710.733	31029
710.851	31238
710.969	33176
711.086	30614
711.204	29914
711.322	30381
711.439	30732
711.557	30724
711.674	29274
711.792	29187
711.909	28218
712.027	27645
712.144	27402
712.262	28832
712.379	33636
712.497	45689
712.614	44559
712.732	37008
712.849	36606
712.966	39294
713.084	46394
713.201	37754
713.318	37811
713.436	36110
713.553	36845
713.670	38277
713.787	40797
713.905	40685
714.022	35217
714.139	35644
714.256	40768
714.373	48283
714.490	68881
714.608	158099
714.725	624942
714.842	528282
714.959	54992
715.076	38957
715.193	35342
715.310	32908
715.427	31926
715.544	30533
715.661	32033
715.778	31682
715.895	35140
716.011	34756
716.128	31608
716.245	32572
716.362	36846
716.479	36284
716.596	30629
716.713	30835
716.829	30220
716.946	29450
717.063	29174
717.180	28659
717.296	28560
717.413	27025
717.530	28172
717.646	27459
717.763	25735
717.880	25398
717.996	26832
718.113	27263
718.229	26878
718.346	25092
718.462	27094
718.579	34059
718.695	52101
718.812	39362
718.928	37445
719.045	26600
719.161	25114
719.277	24159
719.394	24497
719.510	25431
719.626	25552
719.743	32503
719.859	36303
719.975	54517
720.092	178902
720.208	346071
720.324	49409
720.440	29114
720.557	32036
720.673	43982
720.789	57311
720.905	109246
721.021	37088
721.137	24733
721.253	25366
721.369	25172
721.486	27971
721.602	36459
721.718	23157
721.834	20472
721.950	23056
722.066	20685
722.181	21354
722.297	23282
722.413	20853
722.529	20987
722.645	21106
722.761	20122
722.877	19853
722.993	19348
723.108	22244
723.224	20417
723.340	21134
723.456	19282
723.571	20243
723.687	18578
723.803	19841
723.918	18794
724.034	20431
724.150	18531
724.265	22632
724.381	44619
724.497	48186
724.612	19108
724.728	18429
724.843	18380
724.959	22193
725.074	43461
725.190	42761
725.305	20467
725.421	18497
725.536	16456
725.651	17705
725.767	15780
725.882	16883
725.997	16538
726.113	17699
726.228	16048
726.343	16288
726.459	15663
726.574	17466
726.689	16324
726.804	16913
726.920	16260
727.035	17846
727.150	16852
727.265	16011
727.380	16688
727.495	16286
727.610	15212
727.725	15950
727.841	15026
727.956	17201
728.071	19265
728.186	15975
728.301	14083
728.416	16230
728.531	14599
728.645	14024
728.760	15723
728.875	17461
728.990	16398
729.105	15751
729.220	15922
729.335	15153
729.449	14392
729.564	13479
729.679	13275
729.794	13620
729.908	14772
730.023	13605
730.138	12403
730.253	13391
730.367	14008
730.482	12696
730.596	13563
730.711	14614
730.826	14748
730.940	13866
731.055	14946
731.169	12826
731.284	12539
731.398	12753
731.513	16396
731.627	15385
731.742	17735
731.856	18232
731.970	13739
732.085	16214
732.199	19334
732.313	28791
732.428	66103
732.542	191659
732.656	97657
732.771	22788
732.885	16887
732.999	16422
733.113	17160
733.227	16209
733.342	14728
733.456	15128
733.570	14036
733.684	14035
733.798	13401
733.912	13644
734.026	12746
734.140	13373
734.254	15512
734.368	25665
734.482	27584
734.596	13412
734.710	11972
734.824	12427
734.938	12889
735.052	13640
735.166	15992
735.280	13558
735.393	12030
735.507	13922
735.621	17444
735.735	29395
735.849	13954
735.962	12387
736.076	13409
736.190	14176
736.303	19869
736.417	22929
736.531	13111
736.644	13513
736.758	10778
736.872	11516
736.985	11501
737.099	11105
737.212	11073
737.326	11270
737.439	11763
737.553	11777
737.666	12083
737.780	10320
737.893	10974
738.007	11297
738.120	10824
738.233	10996
738.347	11506
738.460	11308
738.573	11790
738.687	11633
738.800	12600
738.913	14827
739.026	11513
739.140	10455
739.253	9909
739.366	10096
739.479	8972
739.592	9184
739.705	9499
739.818	10588
739.932	9886
740.045	10989
740.158	10577
740.271	10318
740.384	10091
740.497	11401
740.610	10566
740.723	11181
740.836	11135
740.949	12149
741.062	16304
741.174	12816
741.287	10634
741.400	9682
741.513	10518
741.626	11290
741.739	10758
741.851	10228
741.964	10387
742.077	10090
742.189	10591
742.302	12645
742.415	10790
742.527	9619
742.640	9861
742.753	9735
742.865	7454
742.978	8873
743.090	9426
743.203	9675
743.316	8670
743.428	8986
743.541	8557
743.653	8566
743.766	8339
743.878	10021
743.990	12794
744.103	13467
744.215	11266
744.327	9803
744.440	11901
744.552	18385
744.664	9771
744.777	8829
744.889	8040
745.001	9385
745.113	8146
745.226	7014
745.338	7717
745.450	7909
745.562	8487
745.674	7824
745.786	8435
745.898	7073
746.010	7402
746.122	8203
746.234	7081
746.347	8019
746.459	8028
746.570	7771
746.682	8771
746.794	11082
746.906	8430
747.018	6970
747.130	7488
747.242	8321
747.354	8057
747.466	8915
747.577	7461
747.689	7867
747.801	7330
747.913	6526
748.024	7461
748.136	6620
748.248	7212
748.359	8135
748.471	7462
748.583	6391
748.694	7492
748.806	8932
748.918	9677
749.029	8395
749.141	8548
749.252	7993
749.364	11681
749.475	21646
749.587	12352
749.698	7552
749.809	6671
749.921	6072
750.032	6320
750.144	6865
750.255	6613
750.366	7278
750.478	7086
750.589	7615
750.700	8196
750.811	8813
750.923	10134
751.034	24378
751.145	18801
751.256	7333
751.367	6474
751.479	7014
751.590	5370
751.701	7029
751.812	5640
751.923	6555
752.034	6873
752.145	5612
752.256	5971
752.367	6063
752.478	6080
752.589	6113
752.700	5671
752.811	7141
752.922	6633
753.032	7635
753.143	8938
753.254	6042
753.365	5979
753.476	6575
753.586	6002
753.697	6160
753.808	5650
753.919	6128
754.029	5589
754.140	6264
754.251	6024
754.361	6142
754.472	6542
754.582	7495
754.693	5522
754.804	6283
754.914	5768
755.025	5657
755.135	5466
755.246	6308
755.356	5216
755.466	5733
755.577	5505
755.687	5996
755.798	4954
755.908	5974
756.018	5612
756.129	6440
756.239	6651
756.349	6331
756.460	5495
756.570	5691
756.680	5840
756.790	7238
756.900	7368
757.011	5490
757.121	5080
757.231	5674
757.341	5739
757.451	5194
757.561	5451
757.671	5351
757.781	4093
757.891	7232
758.001	5041
758.111	6621
758.221	6055
758.331	7824
758.441	6800
758.551	11361
758.661	8671
758.771	6998
758.880	7291
758.990	6843
759.100	5991
759.210	5974
759.320	5559
759.429	6305
759.539	6294
759.649	6405
759.758	7091
759.868	7231
759.978	6431
760.087	6847
760.197	7173
760.307	7312
760.416	6854
760.526	6397
760.635	7815
760.745	6622
760.854	7199
760.964	7611
761.073	7821
761.182	7993
761.292	6248
761.401	8937
761.511	5797
761.620	6078
761.729	6608
761.839	6625
761.948	7508
762.057	7069
762.166	6654
762.276	6368
762.385	6902
762.494	6689
762.603	6188
762.712	6972
762.822	7297
762.931	5665
763.040	5805
763.149	5881
763.258	5524
763.367	6091
763.476	6319
763.585	6101
763.694	5443
763.803	6507
763.912	6072
764.021	6639
764.130	6109
764.238	6487
764.347	6140
764.456	6414
764.565	6055
764.674	7227
764.783	5861
764.891	5668
765.000	6960
765.109	6761
765.217	6708
765.326	8524
765.435	10649
765.543	9289
765.652	7901
765.761	8663
765.869	11858
765.978	16154
766.086	28858
766.195	55683
766.303	169539
766.412	604459
766.520	411116
766.629	59976
766.737	24529
766.846	15812
766.954	13118
767.062	12924
767.171	10571
767.279	10280
767.387	8161
767.496	8337
767.604	7994
767.712	7369
767.820	7378
767.928	8014
768.037	7305
768.145	8219
768.253	7215
768.361	7840
768.469	7301
768.577	6892
768.685	7841
768.793	7566
768.901	6915
769.009	8054
769.117	7226
769.225	9061
769.333	11018
769.441	14902
769.549	25473
769.657	59525
769.765	222883
769.873	479595
769.981	98522
770.088	19823
770.196	12329
770.304	10607
770.412	10988
770.519	9568
770.627	7447
770.735	7774
770.842	7682
770.950	7888
771.058	8031
771.165	7876
771.273	8145
771.380	8454
771.488	7680
771.595	8631
771.703	7356
771.810	8265
771.918	7570
772.025	9212
772.133	7725
772.240	7687
772.348	9071
772.455	8437
772.562	8378
772.670	7938
772.777	7657
772.884	8288
772.991	7776
773.099	8019
773.206	7250
773.313	8386
773.420	7111
773.528	7463
773.635	7231
773.742	8276
773.849	7714
773.956	7431
774.063	6712
774.170	7886
774.277	7621
774.384	7617
774.491	7482
774.598	8308
774.705	8399
774.812	10571
774.919	8441
775.026	8884
775.133	8010
775.239	7195
775.346	7236
775.453	6617
775.560	7066
775.667	7927
775.773	5844
775.880	7314
775.987	7149
776.093	7286
776.200	6997
776.307	5723
776.413	7128
776.520	7185
776.627	7210
776.733	7834
776.840	7228
776.946	9338
777.053	10770
777.159	15058
777.266	8969
777.372	14110
777.478	10297
777.585	9431
777.691	6418
777.798	7074
777.904	7685
778.010	11948
778.117	9113
778.223	7217
778.329	6416
778.435	6599
778.542	6565
778.648	6733
778.754	5776
778.860	6753
778.966	6829
779.072	6993
779.178	6077
779.284	6539
779.391	6608
779.497	5161
779.603	6717
779.708	5261
779.815	6713
779.920	9759
780.026	9490
780.132	7558
780.238	5506
780.344	5829
780.450	7001
780.556	6133
780.661	5784
780.767	7059
780.873	6144
780.979	7084
781.085	5721
781.190	6461
781.296	5620
781.402	5926
781.507	5778
781.613	5371
781.719	5711
781.824	5631
781.930	5826
782.035	6048
782.141	5856
782.246	5309
782.352	5501
782.457	5952
782.563	5549
782.668	6224
782.773	4997
782.879	6458
782.984	6187
783.090	8017
783.195	11211
783.300	8541
783.405	6330
783.511	5982
783.616	7032
783.721	5734
783.826	6047
783.932	6808
784.037	6375
784.142	5776
784.247	6351
784.352	6064
784.457	5649
784.562	6038
784.667	6513
784.772	5187
784.877	4676
784.982	5846
785.087	5861
785.192	6314
785.297	5033
785.402	5797
785.507	5227
785.611	5097
785.716	4743
785.821	5112
785.926	5251
786.031	5891
786.135	4773
786.240	5529
786.345	3859
786.450	5002
786.554	4823
786.659	5028
786.763	4017
786.868	4702
786.973	6427
787.077	4337
787.182	4504
787.286	5500
787.391	4122
787.495	4023
787.600	4065
787.704	4459
787.809	4359
787.913	3899
788.017	4184
788.122	5112
788.226	4722
788.330	3505
788.435	3479
788.539	5711
788.643	4520
788.747	4672
788.852	4300
788.956	4126
789.060	5303
789.164	4100
789.268	3719
789.372	5231
789.476	3174
789.580	4268
789.684	3965
789.788	5522
789.892	3729
789.996	4612
790.100	3844
790.204	4735
790.308	4323
790.412	4546
790.516	4433
790.620	4508
790.724	5031
790.828	4452
790.931	3719
791.035	5366
791.139	4123
791.242	3097
791.346	5293
791.450	3885
791.554	4103
791.657	2387
791.761	5684
791.864	6414
791.968	3366
792.072	4197
792.175	3997
792.279	4654
792.382	4084
792.486	4835
792.589	4631
792.693	5415
792.796	3116
792.899	4346
793.003	4605
793.106	3512
793.209	3949
793.313	5078
793.416	3349
793.519	6215
793.623	8271
793.726	10803
793.829	4786
793.932	3557
794.035	3251
794.138	5288
794.242	4961
794.345	5982
794.448	7007
794.551	8987
794.654	8975
794.757	6595
794.860	6647
794.963	5132
795.066	2719
795.169	4552
795.272	3396
795.375	4459
795.477	3075
795.580	4224
795.683	2679
795.786	3673
795.889	2983
795.991	4805
796.094	5979
796.197	3539
796.300	5028
796.402	4063
796.505	3258
796.608	4280
796.710	3643
796.813	3245
796.915	3767
797.018	4057
797.120	3218
797.223	2506
797.326	4354
797.428	3274
797.530	2420
797.633	4037
797.735	5803
797.838	7911
797.940	6792
798.042	3227
798.145	3701
798.247	3981
798.349	1966
798.452	4379
798.554	3135
798.656	2273
798.758	4613
798.860	3381
798.962	2630
799.065	2810
799.167	2781
799.269	4485
799.371	4971
799.473	5404
799.575	5029
799.677	5685
799.779	7600
799.881	7740
799.983	4943
800.085	3326
800.187	3693
800.289	2753
800.390	3394
800.492	3786
800.594	4373
800.696	2581
800.798	2108
800.899	3040
801.001	2710
801.103	2087
801.205	2687
801.306	3820
801.408	1378
801.509	2940
801.611	2797
801.713	2998
801.814	2368
801.916	3397
802.017	2446
802.119	2092
802.220	2968
802.322	2329
802.423	6917
802.525	3487
802.626	2716
802.727	3742
802.829	3690
802.930	1782
803.031	4010
803.133	2542
803.234	2985
803.335	2738
803.436	1831
803.538	2781
803.639	1989
803.740	3426
803.841	1679
803.942	3059
804.043	3286
804.144	2279
804.245	2212
804.346	2925
804.447	3239
804.548	6170
804.649	6151
804.750	2828
804.851	2551
804.952	2294
805.053	2615
805.154	1547
805.255	3078
805.355	2041
805.456	1439
805.557	2545
805.658	1429
805.758	2931
805.859	3023
805.960	2834
806.061	2020
806.161	1815
806.262	2044
806.362	2281
806.463	2165
806.564	2746
806.664	2470
806.765	4679
806.865	2510
806.966	3038
807.066	2125
807.166	2874
807.267	2841
807.367	2193
807.468	2378
807.568	1257
807.668	2024
807.769	2812
807.869	2676
807.969	2437
808.069	1526
808.170	2466
808.270	2129
808.370	3643
808.470	4686
808.570	3580
808.670	1764
808.770	2263
808.870	1751
808.970	2187
809.070	2202
809.170	2537
809.271	1970
809.370	2619
809.470	2743
809.570	1593
809.670	998
809.770	3331
809.870	2857
809.970	2205
810.070	1905
810.169	3004
810.269	1008
810.369	2733
810.469	2352
810.568	1934
810.668	1338
810.768	2244
810.867	2819
810.967	1598
811.066	2011
811.166	1882
811.265	2507
811.365	1367
811.464	2643
811.564	2958
811.663	2496
811.763	1504
811.862	2003
811.962	2189
812.061	2500
812.160	1914
812.260	3362
812.359	3772
812.458	5053
812.557	13657
812.657	15972
812.756	5309
812.855	2903
812.954	2381
813.053	2109
813.153	2367
813.252	1723
813.351	3228
813.450	2343
813.549	2501
813.648	2233
813.747	1708
813.846	2417
813.945	2166
814.044	1875
814.143	2190
814.242	3088
814.341	2266
814.439	2619
814.538	2759
814.637	2761
814.736	1818
814.835	3734
814.933	2475
815.032	2970
815.131	3648
815.229	3184
815.328	4513
815.427	3418
815.525	4064
815.624	3770
815.722	3423
815.821	5063
815.919	4380
816.018	3520
816.116	5534
816.215	4185
816.313	4892
816.412	4906
816.510	5224
816.609	6859
816.707	6158
816.805	5795
816.904	5934
817.002	6477
817.100	6721
817.198	8636
817.296	8017
817.395	9001
817.493	11048
817.591	12068
817.689	16197
817.787	20983
817.885	35336
817.983	64117
818.081	139377
818.179	341357
818.277	800568
818.375	573281
818.473	148735
818.571	59676
818.669	41880
818.767	36971
818.865	37349
818.963	45723
819.061	69572
819.158	121825
819.256	265137
819.354	633186
819.452	1163603
819.549	673388
819.647	198277
819.745	83343
819.842	52235
819.940	36039
820.038	26549
820.135	20914
820.233	17835
820.330	14401
820.428	12230
820.525	11954
820.623	10049
820.720	8516
820.818	9308
820.915	8744
821.012	7810
821.110	6529
821.207	6778
821.304	6002
821.402	6091
821.499	7296
821.596	8643
821.693	5913
821.791	7106
821.888	7936
821.985	15016
822.082	10134
822.179	6949
822.276	5287
822.373	4835
822.470	4204
822.567	4237
822.664	3493
822.761	4777
822.858	3112
822.955	3573
823.052	3971
823.149	3855
823.246	3759
823.343	2895
823.440	3212
823.536	3887
823.633	2516
823.730	3286
823.827	3438
823.923	3625
824.020	4307
824.117	3906
824.213	2500
824.310	3946
824.407	2753
824.503	3266
824.600	3065
824.696	2969
824.793	4378
824.889	2480
824.986	2109
825.082	1965
825.179	2752
825.275	4062
825.371	2492
825.468	3697
825.564	1769
825.660	3255
825.757	2903
825.853	3067
825.949	2739
826.045	2996
826.142	1965
826.238	2745
826.334	2615
826.430	2458
826.526	2895
826.622	1955
826.718	1853
826.814	2597
826.910	2244
827.006	2170
827.102	1402
827.198	3606
827.294	2480
827.390	2560
827.486	2729
827.582	1840
827.678	993
827.774	3702
827.869	1688
827.965	3077
828.061	1644
828.157	2224
828.252	2378
828.348	1421
828.444	1733
828.539	1102
828.635	1512
828.731	2389
828.826	881
828.922	3091
829.017	2023
829.113	2636
829.208	1649
829.304	2229
829.399	3286
829.495	2691
829.590	2229
829.685	1435
829.781	1613
829.876	2080
829.971	1148
830.066	1853
830.162	1760
830.257	2217
830.352	1763
830.447	2078
830.543	2551
830.638	1247
830.733	2587
830.828	1777
830.923	2301
831.018	2472
831.113	2796
831.208	1632
831.303	1346
831.398	2127
831.493	2784
831.588	2991
831.683	2044
831.778	2150
831.873	1518
831.967	3136
832.062	1459
832.157	2397
832.252	2822
832.346	2630
832.441	3354
832.536	6039
832.631	12162
832.725	8991
832.820	1543
832.914	1651
833.009	2446
833.104	3910
833.198	3985
833.293	1698
833.387	2224
833.482	2420
833.576	1540
833.670	3402
833.765	2071
833.859	2543
833.954	3495
834.048	1777
834.142	1763
834.237	1968
834.331	2776
834.425	2006
834.519	1063
834.613	2728
834.708	662
834.802	2278
834.896	1586
834.990	1864
835.084	1483
835.178	1824
835.272	1342
835.366	1991
835.460	2384
835.554	1722
835.648	1620
835.742	1755
835.836	1735
835.930	866
836.024	2005
836.117	3119
836.211	2472
836.305	3924
836.399	4901
836.493	2598
836.586	2867
836.680	695
836.774	784
836.867	2202
836.961	1746
837.055	933
837.148	1595
837.242	2167
837.335	1464
837.429	1657
837.522	2126
837.616	2937
837.709	6649
837.803	4948
837.896	2217
837.989	2509
838.083	4434
838.176	10055
838.269	6908
838.363	2962
838.456	1918
838.549	4323
838.642	8623
838.735	14137
838.829	4946
838.922	1942
839.015	1481
839.108	1952
839.201	977
839.294	2710
839.387	2303
839.480	2023
839.573	4023
839.666	4506
839.759	1992
839.852	815
839.945	1366
840.038	1391
840.131	446
840.223	931
840.316	1999
840.409	1735
840.502	371
840.594	2810
840.687	365
840.780	1440
840.873	1193
840.965	2318
841.058	3280
841.150	8427
841.243	4195
841.336	2366
841.428	1137
841.521	2115
841.613	1769
841.706	2532
841.798	1943
841.890	1535
841.983	908
842.075	2972
842.167	1285
842.260	1530
842.352	3940
842.444	5112
842.537	10470
842.629	13142
842.721	2570
842.813	2212
842.905	341
842.997	3010
843.090	3056
843.182	5595
843.274	10127
843.366	23335
843.458	40070
843.550	21295
843.642	3835
843.734	3112
843.826	3612
843.918	4403
844.009	2330
844.101	1282
844.193	1566
844.285	1625
844.377	1280
844.469	2736
844.560	2314
844.652	1895
844.744	1132
844.835	1483
844.927	1701
845.019	2345
845.110	1988
845.202	947
845.293	1853
845.385	704
845.476	1559
845.568	1725
845.659	1266
845.751	2511
845.842	1183
845.934	1365
846.025	1240
846.116	1775
846.208	1625
846.299	1686
846.390	1022
846.482	2073
846.573	2585
846.664	4526
846.755	5712
846.846	4990
846.937	720
847.029	2076
847.120	1379
847.211	1829
847.302	2088
847.393	947
847.484	1610
847.575	1459
847.666	1556
847.757	1765
847.847	2156
847.938	2122
848.029	1795
848.120	-73
848.211	1452
848.302	1245
848.392	967
848.483	1773
848.574	669
848.664	1111
848.755	1111
848.846	1438
848.936	780
849.027	2165
849.118	1785
849.208	2200
849.299	3240
849.389	5967
849.480	12161
849.570	23488
849.661	43801
849.751	63270
849.841	17335
849.932	2953
850.022	2310
850.112	2868
850.203	1318
850.293	1613
850.383	1542
850.474	780
850.564	1398
850.654	1481
850.744	1474
850.834	1140
850.924	1117
851.014	1259
851.104	1753
851.194	2279
851.284	3505
851.374	3513
851.464	1899
851.554	2451
851.644	2578
851.734	4326
851.824	3485
851.914	1145
852.004	1302
852.094	1020
852.183	1879
852.273	1724
852.363	964
852.452	2499
852.542	1347
852.632	946
852.721	1044
852.811	1481
852.901	2124
852.990	1792
853.080	1973
853.169	1511
853.259	1964
853.348	3141
853.438	3638
853.527	5979
853.617	8079
853.706	16964
853.795	31942
853.885	72432
853.974	132528
854.063	257890
854.152	345140
854.242	101323
854.331	16390
854.420	7549
854.509	5079
854.598	5829
854.687	5209
854.777	5401
854.866	2544
854.955	3671
855.044	648
855.133	1962
855.222	1504
855.311	863
855.400	1283
855.488	1950
855.577	1428
855.666	2097
855.755	1565
855.844	2366
855.933	1684
856.021	2045
856.110	2598
856.199	290
856.288	290
856.376	1264
856.465	824
856.554	1630
856.642	1228
856.731	1511
856.819	1539
856.908	1001
856.996	371
857.085	1239
857.173	1359
857.262	1494
857.350	1387
857.438	1039
857.527	1155
857.615	1643
857.703	2261
857.792	747
857.880	593
857.968	615
858.056	918
858.145	1281
858.233	821
858.321	751
858.409	1450
858.497	259
858.585	408
858.673	1088
858.761	383
858.849	246
858.937	612
859.025	1655
859.113	1382
859.201	1798
859.289	1932
859.377	1525
859.465	591
859.552	425
859.640	942
859.728	1565
859.816	1444
859.903	1653
859.991	911
860.079	1265
860.166	708
860.254	650
860.342	953
860.429	993
860.517	975
860.604	1585
860.692	1534
860.779	545
860.867	1478
860.954	1715
861.042	1892
861.129	2793
861.216	1571
861.304	1132
861.391	641
861.478	268
861.565	1419
861.653	2165
861.740	1143
861.827	440
861.914	1526
862.001	1132
862.089	953
862.176	1338
862.263	572
862.350	314
862.437	873
862.524	323
862.611	369
862.698	1705
862.785	1833
862.871	2006
862.958	849
863.045	1278
863.132	1254
863.219	1931
863.306	-202
863.392	1360
863.479	1407
863.566	1241
863.652	1143
863.739	704
863.826	1895
863.912	1410
863.999	95
864.086	1311
864.172	540
864.259	792
864.345	1887
864.432	1458
864.518	1887
864.604	1329
864.691	1224
864.777	2138
864.863	2118
864.950	3596
865.036	2738
865.122	4465
865.209	3746
865.295	4625
865.381	4640
865.467	4866
865.553	7015
865.639	10588
865.726	18094
865.812	37622
865.898	69623
865.984	102167
866.070	205548
866.156	176310
866.242	37194
866.328	8983
866.414	5317
866.499	5775
866.585	4512
866.671	3634
866.757	4165
866.843	4571
866.928	2754
867.014	2730
867.100	3338
867.186	4350
867.271	4893
867.357	6267
867.442	6450
867.528	3459
867.614	2752
867.699	3614
867.785	4147
867.870	4948
867.956	5070
868.041	4886
868.127	3845
868.212	5750
868.297	4337
868.383	4132
868.468	5501
868.553	8546
868.639	9486
868.724	20388
868.809	15146
868.894	4066
868.979	2379
869.065	3441
869.150	2619
869.235	1818
869.320	1970
869.405	1937
869.490	1643
869.575	1857
869.660	1432
869.745	2679
869.830	1650
869.915	1944
870.000	1907
870.085	2697
870.169	3325
870.254	3324
870.339	1609
870.424	1354
870.509	1586
870.593	2312
870.678	3358
870.763	1629
870.847	2385
870.932	2340
871.016	2009
871.101	1196
871.186	2067
871.270	2123
871.355	1875
871.439	2060
871.523	1339
871.608	1497
871.692	1495
871.777	2631
871.861	3264
871.945	1318
872.030	1373
872.114	2276
872.198	1186
872.282	1156
872.367	1192
872.451	1830
872.535	1640
872.619	2596
872.703	1329
872.787	2341
872.871	2116
872.955	1468
873.039	1053
873.123	1857
873.207	1835
873.291	1766
873.375	1404
873.459	2057
873.543	1483
873.627	1399
873.711	995
873.794	2452
873.878	1610
873.962	1699
874.045	1900
874.129	1876
874.137	1863
874.213	1736
874.245	1826
874.296	1973
874.352	1096
874.380	661
874.460	1418
874.464	1449
874.547	885
874.568	1167
874.631	1995
874.676	1554
874.714	1183
874.784	1584
874.798	1659
874.881	2022
874.892	1906
874.965	1108
874.999	1430
875.048	1887
875.107	2356
875.131	2540
875.215	1577
875.215	1578
875.298	2006
875.323	1859
875.381	1507
875.430	1759
875.465	1915
875.538	1466
875.548	1403
875.631	2319
875.646	2103
875.714	1081
875.753	1527
875.798	2092
875.861	1843
875.881	1734
875.964	2034
875.968	1974
876.047	1068
876.076	1436
876.130	2052
876.183	2335
876.213	2499
876.291	2705
876.296	2714
876.379	2026
876.398	1974
876.462	1797
876.506	1632
876.545	1473
876.613	1516
876.628	1540
876.711	2170
876.721	2143
876.794	1979
876.828	1669
876.877	1220
876.935	2368
876.960	2860
877.043	2192
877.043	2194
877.125	2901
877.150	3201
877.208	3754
877.258	3572
877.291	3544
877.365	2901
877.374	2820
877.456	3677
877.472	3384
877.539	2127
877.579	2655
877.622	3212
877.687	3196
877.704	3189
877.787	3070
877.794	3047
877.869	2684
877.901	2574
877.952	2523
878.008	1999
878.034	1706
878.115	2160
878.117	2173
878.199	1840
878.222	2002
878.282	2462
878.329	2932
878.364	3204
878.437	2113
878.447	1965
878.529	1280
878.544	1503
878.611	2592
878.651	2448
878.694	2300
878.758	1997
878.776	1942
878.858	2175
878.865	2194
878.941	2233
878.972	1951
879.023	1564
879.078	2103
879.105	2442
879.185	2823
879.187	2824
879.269	2850
879.292	2644
879.351	2060
879.399	1926
879.433	1906
879.506	1989
879.516	2001
879.598	1698
879.613	1608
879.680	1444
879.720	1874
879.762	2229
879.827	1529
879.844	1353
879.926	2603
879.933	2629
880.007	3109
880.040	3188
880.089	3278
880.147	4668
880.171	5368
880.253	8879
880.254	8897
880.335	13081
880.360	14578
880.417	20981
880.467	30611
880.499	37718
880.574	44132
880.580	42827
880.662	15783
880.680	11810
880.744	5757
880.787	2730
880.825	1743
880.893	1218
880.907	1314
880.989	1574
881.000	1644
881.070	1919
881.106	1876
881.152	1631
881.213	1602
881.233	1692
881.315	1132
881.319	1152
881.396	1697
881.426	1770
881.478	1657
881.532	2057
881.559	2334
881.639	1558
881.641	1529
881.722	1461
881.745	1315
881.803	1749
881.852	2296
881.885	2307
881.958	1998
881.966	2036
882.047	3379
882.064	3340
882.129	3170
882.171	4268
882.210	6305
882.277	8576
882.291	8370
882.372	5054
882.383	4778
882.454	3048
882.489	2330
882.535	2021
882.596	1482
882.616	1505
882.697	1546
882.702	1553
882.778	1195
882.808	1153
882.859	1288
882.914	1549
882.940	1625
883.020	1452
883.021	1455
883.102	2048
883.127	1916
883.183	1593
883.233	1376
883.264	1310
883.339	1666
883.345	1666
883.426	1707
883.445	1599
883.507	1633
883.551	1930
883.587	2143
883.657	2310
883.668	2340
883.749	2287
883.763	2299
883.830	2071
883.869	1819
883.910	1456
883.975	1411
883.991	1589
884.072	2150
884.081	2169
884.152	1988
884.187	1870
884.233	1653
884.292	1957
884.314	1948
884.394	1148
884.398	1117
884.475	1456
884.504	1675
884.555	1763
884.610	1567
884.636	1435
884.716	1371
884.716	1379
884.797	1869
884.821	2017
884.877	1647
884.927	1228
884.958	1335
885.033	1494
885.038	1453
885.118	1001
885.139	818
885.199	1246
885.244	1753
885.279	1976
885.350	2237
885.359	2212
885.439	1871
885.456	1773
885.520	1228
885.561	1023
885.600	1333
885.667	1727
885.680	1789
885.760	2386
885.773	2392
885.840	1874
885.878	1834
885.920	1972
885.984	1937
886.000	1995
886.080	2039
886.089	2098
886.160	2095
886.195	1984
886.240	2248
886.300	2492
886.320	2524
886.400	2887
886.406	2898
886.480	3446
886.511	3701
886.560	4236
886.616	4514
886.640	4166
886.720	3183
886.722	3151
886.800	2438
886.827	2241
886.879	2112
886.932	1792
886.959	1851
887.038	2293
887.039	2307
887.119	2784
887.143	2922
887.198	2340
887.248	1856
887.278	1836
887.354	1614
887.358	1625
887.437	1855
887.459	1940
887.517	2679
887.564	3100
887.596	2655
887.669	1774
887.676	1782
887.755	1841
887.774	1829
887.835	1777
887.880	1773
887.914	1809
887.985	1845
887.994	1852
888.073	1836
888.090	1824
888.153	2288
888.195	2627
888.232	2435
888.300	2031
888.311	2004
888.391	1753
888.405	1719
888.470	2127
888.510	2275
888.549	2355
888.615	2695
888.628	2616
888.708	1911
888.720	1809
888.787	2689
888.825	3151
888.866	2527
888.930	1588
888.945	1742
889.024	2487
889.035	2589
889.103	2374
889.140	2231
889.182	2722
889.245	3463
889.261	3311
889.340	2525
889.349	2431
889.419	2600
889.454	2667
889.498	2171
889.559	1504
889.577	1728
889.656	2698
889.664	2791
889.735	2672
889.768	2609
889.814	2792
889.873	3021
889.978	1942
890.083	2787
890.187	2596
890.292	3278
890.397	1699
890.501	2587
890.606	1616
890.710	2740
890.815	3009
890.919	2705
891.024	3031
891.128	3910
891.233	3014
891.337	2413
891.442	2414
891.546	3200
891.650	2152
891.755	2862
891.859	4033
891.963	3370
892.068	2389
892.172	2276
892.276	2184
892.380	2570
892.484	2649
892.589	4304
892.693	4786
892.797	2871
892.901	2422
893.005	2367
893.109	2048
893.213	3119
893.317	2425
893.421	1931
893.525	1675
893.629	2772
893.733	1938
893.837	1628
893.941	2187
894.045	3248
894.148	1165
894.252	2718
894.356	2975
894.460	4479
894.564	3144
894.667	2129
894.771	1387
894.875	1744
894.978	1864
895.082	2162
895.186	2314
895.289	2847
895.393	2273
895.496	3239
895.600	1870
895.703	2775
895.807	2036
895.910	2051
896.014	2247
896.117	1691
896.221	2023
896.324	2100
896.427	1795
896.531	2319
896.634	2053
896.737	1804
896.840	1752
896.944	2632
897.047	1612
897.150	2490
897.253	1661
897.356	2397
897.460	2156
897.563	1821
897.666	2501
897.769	2275
897.872	1693
897.975	1804
898.078	1923
898.181	2761
898.284	1756
898.387	2291
898.490	2694
898.593	1935
898.695	1310
898.798	2284
898.901	2753
899.004	2457
899.107	2243
899.209	2269
899.312	2162
899.415	2032
899.518	1285
899.620	2781
899.723	2756
899.826	6604
899.928	8680
900.031	3407
900.133	2406
900.236	1737
900.338	1478
900.441	2438
900.543	1572
900.646	2046
900.748	2137
900.851	2589
900.953	2083
901.055	2256
901.158	3310
901.260	2981
901.362	1599
901.465	1896
901.567	2115
901.669	1879
901.771	2592
901.873	2607
901.976	1288
902.078	2141
902.180	1867
902.282	2511
902.384	2072
902.486	3017
902.588	3059
902.690	3598
902.792	3001
902.894	3512
902.996	2471
903.098	1669
903.200	2581
903.302	1383
903.404	1455
903.505	2152
903.607	1739
903.709	2972
903.811	2292
903.913	2024
904.014	1592
904.116	2388
904.218	1469
904.319	2325
904.421	2812
904.523	4259
904.624	3397
904.726	1904
904.827	2866
904.929	2974
905.030	1412
905.132	2769
905.233	2225
905.335	2948
905.436	1561
905.537	2700
905.639	2380
905.740	1699
905.841	2210
905.943	3481
906.044	3234
906.145	3197
906.247	2228
906.348	2946
906.449	1801
906.550	2401
906.651	2100
906.752	1118
906.854	1408
906.955	1326
907.056	2181
907.157	2447
907.258	1218
907.359	1991
907.460	2121
907.561	2278
907.662	1144
907.762	1733
907.863	1564
907.964	2602
908.065	1914
908.166	1111
908.267	1801
908.367	1463
908.468	2127
908.569	3290
908.670	2860
908.770	4631
908.871	4528
908.971	4971
909.072	4275
909.173	2586
909.273	2079
909.374	2301
909.474	1596
909.575	2066
909.675	2030
909.776	3034
909.876	2611
909.977	2402
910.077	1898
910.177	2194
910.278	1831
910.378	1969
910.478	1227
910.579	1679
910.679	1716
910.779	2063
910.879	2039
910.980	2208
911.080	1830
911.180	1783
911.280	1810
911.380	1268
911.480	2450
911.580	1988
911.680	2698
911.780	2277
911.880	3065
911.980	2336
912.080	1807
912.180	2608
912.280	2220
912.380	1727
912.480	1479
912.580	2457
912.679	1397
912.779	2434
912.879	2307
912.979	942
913.078	1236
913.178	1608
913.278	1911
913.377	1870
913.477	1302
913.577	2380
913.676	2113
913.776	1590
913.875	1852
913.975	2501
914.074	1913
914.174	1812
914.273	1380
914.373	2085
914.472	1304
914.572	1754
914.671	1827
914.770	1871
914.870	1354
914.969	1145
915.068	1354
915.167	2115
915.267	1006
915.366	2117
915.465	1589
915.564	2036
915.663	1578
915.763	1951
915.862	1881
915.961	2040
916.060	926
916.159	1316
916.258	729
916.357	1890
916.456	2303
916.555	2192
916.654	2090
916.752	2278
916.851	1498
916.950	2143
917.049	1584
917.148	2036
917.247	691
917.345	1643
917.444	1707
917.543	1723
917.642	1334
917.740	1920
917.839	1471
917.937	2586
918.036	1879
918.135	2622
918.233	933
918.332	1693
918.430	1337
918.529	1494
918.627	1733
918.726	2051
918.824	1664
918.923	2411
919.021	842
919.119	2535
919.218	1124
919.316	1670
919.414	1828
919.512	1677
919.611	1901
919.709	1428
919.807	1865
919.905	1823
920.003	1204
920.102	2680
920.200	2057
920.298	2019
920.396	1925
920.494	2214
920.592	915
920.690	2413
920.788	1246
920.886	2042
920.984	3172
921.082	2066
921.180	2163
921.277	2157
921.375	2495
921.473	3020
921.571	2197
921.669	2941
921.766	2109
921.864	2696
921.962	2770
922.060	2986
922.157	1870
922.255	2291
922.352	2542
922.450	3037
922.548	2173
922.645	3275
922.743	3026
922.840	4960
922.938	4692
923.035	4859
923.133	3927
923.230	5134
923.327	5031
923.425	4781
923.522	5283
923.619	5641
923.717	4096
923.814	5034
923.911	4513
924.008	5113
924.106	3673
924.203	4925
924.300	3840
924.397	4827
924.494	4660
924.591	5611
924.688	4410
924.786	4549
924.883	3949
924.979	4529
925.077	4501
925.173	5171
925.270	4433
925.367	4998
925.464	5318
925.561	6132
925.658	6093
925.755	6418
925.852	7685
925.948	7071
926.045	7256
926.142	8427
926.239	8883
926.335	8286
926.432	7001
926.529	8258
926.625	9063
926.722	6915
926.818	5051
926.915	6727
927.011	4250
927.108	4591
927.204	4926
927.301	3490
927.397	4074
927.494	4737
927.590	3321
927.687	4403
927.783	3821
927.879	5080
927.976	3449
928.072	4036
928.168	3428
928.264	4152
928.361	3332
928.457	5034
928.553	3986
928.649	3873
928.745	3911
928.841	3648
928.937	2883
929.033	4202
929.129	3841
929.225	4358
929.321	3571
929.417	3760
929.513	3691
929.609	3569
929.705	3409
929.801	4007
929.897	2904
929.993	3491
930.089	3266
930.184	3059
930.280	3564
930.376	4949
930.471	3158
930.567	3166
930.663	3148
930.758	3399
930.854	3599
930.950	4078
931.045	2870
931.141	2973
931.236	4153
931.332	4151
931.427	3751
931.523	3645
931.618	3909
931.714	2198
931.809	3473
931.905	4710
932.000	2641
932.095	2976
932.191	2829
932.286	4891
932.381	2487
932.476	3239
932.572	3015
932.667	2706
932.762	2265
932.857	3671
932.952	3249
933.047	2842
933.142	2751
933.237	3224
933.332	3165
933.427	4027
933.522	2192
933.617	2538
933.712	2132
933.807	3261
933.902	3206
933.997	4479
934.092	2609
934.187	3809
934.282	2933
934.376	3194
934.471	3157
934.566	2830
934.661	2914
934.755	3301
934.850	3640
934.945	2976
935.039	2459
935.134	3459
935.228	2640
935.323	4197
935.417	2539
935.512	1622
935.606	2206
935.701	2585
935.795	2963
935.890	3567
935.984	2872
936.079	2175
936.173	2688
936.267	3407
936.362	2430
936.456	3099
936.550	2706
936.644	4415
936.738	2252
936.833	2940
936.927	2622
937.021	1832
937.115	2916
937.209	3145
937.303	3268
937.397	1864
937.491	2482
937.585	3588
937.679	2405
937.773	3226
937.867	1901
937.961	2965
938.055	3433
938.149	4618
938.243	2991
938.337	2323
938.430	2337
938.524	5661
938.618	7525
938.712	6701
938.805	3035
938.899	3790
938.993	4319
939.086	4890
939.180	7830
939.274	10601
939.367	5368
939.461	4536
939.554	2045
939.648	2418
939.741	1625
939.835	2904
939.928	3387
940.022	3820
940.115	2963
940.208	3319
940.302	3266
940.395	3458
940.488	2483
940.582	2686
940.675	1998
940.768	2778
940.861	2718
940.954	4011
941.048	3100
941.141	3345
941.234	4874
941.327	8738
941.420	9538
941.513	6014
941.606	2956
941.699	4008
941.792	3269
941.885	2711
941.978	3077
942.071	2097
942.164	1353
942.257	2508
942.349	2274
942.442	2917
942.535	2506
942.628	1904
942.721	2218
942.813	2725
942.906	2792
942.999	3057
943.091	2242
943.184	2499
943.277	2443
943.369	2640
943.462	1341
943.554	3068
943.647	2406
943.739	3600
943.832	2497
943.924	1357
944.017	2005
944.109	1750
944.201	1858
944.294	3111
944.386	2323
944.478	2578
944.571	2512
944.663	992
944.755	1933
944.847	2621
944.940	2752
945.032	1385
945.124	1705
945.216	3135
945.308	2296
945.400	2872
945.492	2252
945.584	2685
945.676	2370
945.768	1865
945.860	3013
945.952	3311
946.044	3591
946.136	2063
946.228	1969
946.320	2560
946.412	1681
946.503	2138
946.595	2813
946.687	1875
946.779	1851
946.870	2517
946.962	1280
947.054	1812
947.145	1360
947.237	2119
947.329	2495
947.420	2541
947.512	2089
947.603	895
947.695	1230
947.786	1211
947.878	1858
947.969	2263
948.061	1170
948.152	2818
948.243	1696
948.335	2439
948.426	1884
948.517	1831
948.609	1869
948.700	2204
948.791	805
948.882	2110
948.973	1437
949.065	1721
949.156	1725
949.247	1279
949.338	2009
949.429	1191
949.520	1544
949.611	1150
949.702	1911
949.793	2126
949.884	1129
949.975	1153
950.066	1285
950.157	1688
950.247	1505
950.338	1847
950.429	892
950.520	2383
950.611	2488
950.701	2506
950.792	2254
950.883	2931
950.973	2647
951.064	2750
951.155	2495
951.245	2108
951.336	2250
951.427	1454
951.517	2025
951.608	2249
951.698	1522
951.788	1074
951.879	1097
951.969	1498
952.060	1607
952.150	2035
952.240	1664
952.331	446
952.421	2936
952.511	1148
952.602	2187
952.692	1818
952.782	1671
952.872	1671
952.962	1549
953.052	1386
953.143	772
953.233	1657
953.323	2516
953.413	2097
953.503	1459
953.593	1519
953.683	1346
953.773	659
953.863	1064
953.953	1466
954.042	417
954.132	2524
954.222	1866
954.312	1719
954.402	2301
954.492	3372
954.581	6173
954.671	3020
954.761	1251
954.850	1438
954.940	739
955.030	1603
955.119	913
955.209	1152
955.298	906
955.388	1651
955.477	2228
955.567	823
955.656	383
955.746	2204
955.835	645
955.925	1088
956.014	1376
956.103	2430
956.193	1360
956.282	2500
956.371	1437
956.461	2220
956.550	1502
956.639	1485
956.728	1345
956.817	1521
956.906	797
956.995	2544
957.085	1397
957.174	1475
957.263	885
957.352	1618
957.441	1378
957.530	1585
957.619	1874
957.708	1174
957.796	532
957.885	1147
957.974	358
958.063	2009
958.152	646
958.241	1462
958.329	-69
958.418	1640
958.507	366
958.596	1622
958.684	341
958.773	1615
958.861	1342
958.950	1649
959.039	1232
959.127	1618
959.216	1603
959.304	1955
959.393	1409
959.481	1506
959.570	1580
959.658	1510
959.746	1019
959.835	4377
959.923	6558
960.011	3077
960.100	1615
960.188	2152
960.276	1320
960.365	1314
960.453	616
960.541	767
960.629	1017
960.717	351
960.805	10
960.893	1726
960.981	1023
961.069	2472
961.158	968
961.245	1687
961.333	1321
961.421	1749
961.509	1101
961.597	797
961.685	1631
961.773	741
961.861	458
961.949	2018
962.036	-256
962.124	1764
962.212	505
962.299	775
962.387	616
962.475	1645
962.562	-29
962.650	1835
962.738	1283
962.825	919
962.913	1082
963.000	798
963.088	724
963.175	1754
963.263	1765
963.350	2559
963.438	2276
963.525	3690
963.612	6352
963.700	16212
963.787	35415
963.874	16003
963.962	1349
964.049	1106
964.136	135
964.223	547
964.310	1014
964.398	1498
964.485	1154
964.572	2869
964.659	5984
964.746	4800
964.833	1223
964.920	1843
965.007	1369
965.094	970
965.181	519
965.268	1537
965.355	746
965.441	601
965.528	749
965.615	2354
965.702	937
965.789	745
965.875	965
965.962	1155
966.049	220
966.136	2242
966.222	192
966.309	1745
966.395	1339
966.482	1515
966.569	452
966.655	372
966.742	1318
966.828	735
966.915	-61
967.001	1469
967.087	358
967.174	1360
967.260	2934
967.347	5960
967.433	12518
967.519	23496
967.605	7992
967.692	1878
967.778	531
967.864	2374
967.950	185
968.036	1001
968.123	721
968.209	683
968.295	-391
968.381	1017
968.467	785
968.553	145
968.639	1533
968.725	1987
968.811	4743
968.897	3563
968.983	569
969.069	1087
969.154	489
969.240	1076
969.326	652
969.412	326
969.497	352
969.583	492
969.669	629
969.755	1494
969.840	723
969.926	1592
970.012	1525
970.097	3794
970.183	2848
970.268	3100
970.354	3322
970.439	6392
970.525	14214
970.610	4972
970.696	1550
970.781	1368
970.866	-156
970.952	742
971.037	68
971.122	237
971.208	5
971.293	855
971.378	-852
971.463	924
971.549	1095
971.634	570
971.719	929
971.804	2719
971.889	3013
971.974	239
972.059	-402
972.144	569
972.229	-404
972.314	230
972.399	144
972.484	904
972.569	1460
972.654	2218
972.739	7118
972.824	8056
972.908	1168
972.993	65
973.078	327
973.163	419
973.247	553
973.332	-1367
973.417	1108
973.501	944
973.586	473
973.671	952
973.755	1565
973.840	1994
973.924	1173
974.009	1592
974.093	1337
974.178	3816
974.262	5745
974.346	5396
974.431	1108
974.515	-174
974.600	574
974.684	1216
974.768	510
974.852	1605
974.937	27
975.021	1053
975.105	314
975.189	672
975.273	361
975.358	895
975.442	-244
975.526	784
975.610	-709
975.694	-357
975.778	-107
975.862	257
975.946	-1441
976.030	1831
976.114	125
976.198	687
976.281	-26
976.365	1777
976.449	-46
976.533	634
976.617	-244
976.700	1083
976.784	753
976.868	1345
976.951	3039
977.035	2497
977.119	998
977.202	235
977.286	142
977.369	313
977.453	806
977.536	847
977.620	571
977.703	634
977.787	410
977.870	1012
977.953	692
978.037	672
978.120	2745
978.203	4170
978.287	7211
978.370	4178
978.453	787
978.536	1695
978.620	2399
978.703	4845
978.786	1674
978.869	-94
978.952	-251
979.035	1406
979.118	133
979.201	-197
979.284	573
979.367	-401
979.450	224
979.533	-340
979.616	429
979.699	467
979.782	356
979.865	282
979.948	-445
980.030	564
980.113	-155
980.196	-629
980.279	1215
980.361	694
980.444	197
980.526	316
980.609	729
980.692	977
980.774	708
980.857	-688
980.939	801
981.022	764
981.104	-199
981.187	60
981.269	1131
981.352	755
981.434	-948
981.516	941
981.599	418
981.681	-263
981.763	300
981.846	360
981.928	-95
982.010	534
982.092	-429
982.174	1265
982.256	-610
982.339	-259
982.421	277
982.503	692
982.585	-468
982.667	343
982.749	278
982.831	370
982.913	-1465
982.995	833
983.077	-367
983.158	2544
983.240	-922
983.322	1030
983.404	643
983.486	331
983.568	597
983.649	-292
983.731	538
983.813	640
983.894	655
983.976	520
984.058	-104
984.139	1256
984.221	-1188
984.302	1092
984.384	547
984.465	-818
984.547	598
984.628	36
984.710	986
984.791	131
984.872	-79
984.954	-17
985.035	451
985.116	133
985.198	145
985.279	819
985.360	29
985.441	951
985.522	-197
985.604	495
985.685	-1959
985.766	1210
985.847	888
985.928	-455
986.009	-44
986.090	178
986.171	1115
986.252	504
986.333	638
986.414	723
986.495	96
986.576	-741
986.656	-865
986.737	415
986.818	440
986.899	684
986.980	-1130
987.060	592
987.141	-256
987.222	1630
987.302	222
987.383	1058
987.464	-288
987.544	1213
987.625	-9
987.705	1732
987.786	-240
987.866	734
987.947	-296
988.027	732
988.108	-268
988.188	1026
988.268	466
988.349	1109
988.429	-186
988.509	687
988.589	-1089
988.670	-1517
988.750	965
988.830	550
988.910	1018
988.990	68
989.070	-196
989.151	518
989.231	-530
989.311	507
989.391	703
989.471	132
989.551	-279
989.631	-45
989.711	642
989.791	-1078
989.870	-486
989.950	1214
990.030	-198
990.110	-327
990.190	-738
990.269	911
990.349	-554
990.429	269
990.509	-420
990.588	-59
990.668	-511
990.747	209
990.827	-1274
990.907	378
990.986	294
991.066	385
991.145	-365
991.225	140
991.304	-602
991.383	476
991.463	294
991.542	1091
991.622	-851
991.701	278
991.780	-100
991.859	339
991.939	-476
992.018	305
992.097	39
992.176	115
992.256	-369
992.335	-195
992.414	424
992.493	-503
992.572	229
992.651	1907
992.730	123
992.809	-95
992.888	-1187
992.967	124
993.046	501
993.125	-1247
993.203	-150
993.282	-445
993.361	-37
993.440	128
993.519	-1827
993.597	-58
993.676	-852
993.755	-193
993.834	-544
993.912	-559
993.991	418
994.069	-736
994.148	-391
994.226	-440
994.305	-382
994.384	-641
994.462	250
994.540	-1758
994.619	-866
994.697	363
994.776	-1356
994.854	866
994.932	-1618
995.011	-202
995.089	-794
995.167	-28
995.245	-508
995.324	-709
995.402	-714
995.480	-542
995.558	-626
995.636	-1719
995.714	-1615
995.792	458
995.870	-882
995.948	190
996.026	-72
996.104	-1602
996.182	-570
996.260	126
996.338	15
996.416	-1219
996.494	-1410
996.572	-602
996.649	-661
996.727	-806
996.805	-696
996.883	-838
996.960	-1302
997.038	3
997.116	-552
997.193	-1234
997.271	-815
997.348	-543
997.426	-865
997.504	-1066
997.581	-621
997.658	37
997.736	-2096
997.813	-692
997.891	-482
997.968	-52
998.046	-1157
998.123	-189
998.200	86
998.277	-1661
998.355	-526
998.432	-1738
998.509	-1528
998.586	-939
998.663	-1106
998.741	-1099
998.818	-1026
998.895	-932
998.972	-656
999.049	-647
999.126	-1389
999.203	-1351
999.280	-1294
999.357	-822
999.434	-950
999.511	-641
999.587	-619
999.664	-1368
999.741	-645
999.818	-889
999.895	-1246
999.971	-1090
1000.048	-1015
1000.125	410
1000.202	-1461
1000.278	-663
1000.355	-882
1000.431	-1181
1000.508	-2337
1000.584	-1130
1000.661	-1109
1000.738	-773
1000.814	-969
1000.890	-337
1000.967	-1311
1001.043	-783
1001.120	-1571
1001.196	-1221
1001.272	-1851
1001.349	-890
1001.425	-866
1001.501	-1748
1001.577	-1372
1001.654	-175
1001.730	-1640
1001.806	-1280
1001.882	-1753
1001.958	-830
1002.034	-1650
1002.110	-1156
1002.186	-1324
1002.262	-1676
1002.338	-2214
1002.414	-340
1002.490	-1283
1002.566	-1038
1002.642	-1628
1002.718	-146
1002.794	-1274
1002.870	-1224
1002.945	-1948
1003.021	-1143
1003.097	-2407
1003.173	-655
1003.248	-1626
1003.324	-1229
1003.400	-714
1003.475	-1774
1003.551	-1434
1003.626	-276
1003.702	-2062
1003.777	-1227
1003.853	-950
1003.928	-2286
1004.004	-1614
1004.079	-990
1004.155	-1693
1004.230	-2508
1004.305	-666
1004.381	-1389
1004.456	-1762
1004.531	-1562
1004.607	-1302
1004.682	-1341
1004.757	-1557
1004.832	-927
1004.907	-1345
1004.982	-1174
1005.057	-1337
1005.133	-1392
1005.208	-1353
1005.283	-2352
1005.358	-1596
1005.433	-1705
1005.508	-1380
1005.583	-1186
1005.657	-1437
1005.732	-618
1005.807	-2455
1005.882	-1230
1005.957	-2182
1006.032	-1134
1006.106	-906
1006.181	-1580
1006.256	-1743
1006.331	-1583
1006.405	-1965
1006.480	-499
1006.554	-1756
1006.629	-1697
1006.704	-1964
1006.778	-763
1006.853	-1171
1006.927	-1747
1007.002	-1946
1007.076	-802
1007.150	-1702
1007.225	-1406
1007.299	-2566
1007.373	-1360
1007.448	-2253
1007.522	-293
1007.596	-2104
1007.671	-1909
1007.745	-964
1007.819	-1444
1007.893	-651
1007.967	-1365
1008.041	-2409
1008.115	-858
1008.190	-2103
1008.264	-672
1008.338	-2653
1008.412	-1543
1008.486	-1736
1008.560	-2479
1008.633	-2631
1008.707	-1897
1008.781	-1019
1008.855	-1654
1008.929	-1838
1009.003	-1836
1009.076	-1647
1009.150	-1513
1009.224	-2122
1009.298	-1314
1009.371	-1541
1009.445	-1238
1009.519	-1412
1009.592	-2435
1009.666	-2083
1009.739	-1291
1009.813	-2436
1009.886	-77
1009.960	-2373
1010.033	-708
1010.107	-1404
1010.180	-2588
1010.253	-1600
1010.327	-2007
1010.400	-1986
1010.473	-959
1010.547	-1163
1010.620	-1103
1010.693	-1839
1010.766	-1749
1010.840	-520
1010.913	-1207
1010.986	-1744
1011.059	-1462
1011.132	-1002
1011.205	-540
1011.278	-605
1011.351	-893
1011.424	-1369
1011.497	-1312
1011.570	-1532
1011.643	-1010
1011.716	-2349
1011.789	-1719
1011.862	-1180
1011.934	-1545
1012.007	-2790
1012.080	-1005
1012.153	-1430
1012.225	-1659
1012.298	-2488
1012.371	-1476
1012.443	-1675
1012.516	-2136
1012.588	-1269
1012.661	-1208
1012.733	-1925
1012.806	-700
1012.879	-1781
1012.951	-1467
1013.023	-2359
1013.096	-1319
1013.168	-2503
1013.241	-915
1013.313	-2055
1013.385	-2293
1013.458	-2602
1013.530	-952
1013.602	-2569
1013.674	-1695
1013.746	-2039
1013.819	-2315
1013.891	-1623
1013.963	-1386
1014.035	-1328
1014.107	-562
1014.179	-1439
1014.251	-2033
1014.323	-1875
1014.395	-1641
1014.467	-1983
1014.539	-1544
1014.611	-2399
1014.683	-1148
1014.754	-1826
1014.826	-2438
1014.898	-1732
1014.970	-1602
1015.042	-1687
1015.113	-1241
1015.185	-1950
1015.257	-2267
1015.328	-1631
1015.400	-2404
1015.471	-1986
1015.543	-2201
1015.615	-2027
1015.686	-1311
1015.757	-1493
1015.829	-1543
1015.901	-1919
1015.972	-1856
1016.043	-1656
1016.115	-1987
1016.186	-1352
1016.257	-2473
1016.328	-1868
1016.400	-1333
1016.471	-2626
1016.542	-1840
1016.613	-2063
1016.685	-1399
1016.756	-2382
1016.827	-1840
1016.898	-2044
1016.969	-1552
1017.040	-2345
1017.111	-2260
1017.182	-1623
1017.253	-1981
1017.324	-2432
1017.395	-1650
1017.466	-1412
1017.537	-1643
1017.608	-2465
1017.678	-1938
1017.749	-2798
1017.820	-1705
1017.891	-2169
1017.961	-1935
1018.032	-2677
1018.103	-1966
1018.173	-2108
1018.244	-1291
1018.315	-2466
1018.385	-1753
1018.456	-2899
1018.526	-2304
1018.597	-1863
1018.667	-2250
1018.738	-2017
1018.808	-2012
1018.878	-2254
1018.949	-2119
1019.019	-2739
1019.089	-2019
1019.160	-1981
1019.230	-2114
1019.300	-1657
1019.371	-2622
1019.441	-2361
1019.511	-1695
1019.581	-2424
1019.651	-1845
1019.721	-2489
1019.791	-2208
1019.861	-2354
1019.931	-1735
1020.001	-1660
1020.071	-3040
1020.141	-3446
1020.211	-1705
1020.281	-2713
1020.351	-2851
1020.421	-1820
1020.491	-1640
1020.560	-2825
1020.630	-1403
1020.700	-2618
1020.770	-2007
1020.839	-2694
1020.909	-2127
1020.979	-2101
1021.048	-1520
1021.118	-2536
1021.187	-2368
1021.257	-2018
1021.326	-1394
1021.396	-2689
1021.465	-1564
1021.535	-1844
1021.604	-2424
1021.674	-2207
1021.743	-2505
1021.812	-1903
1021.882	-2047
1021.951	-1325
1022.020	-1329
1022.089	-1668
1022.159	-1921
1022.228	-2274
1022.297	-2578
1022.366	-2179
1022.435	-1649
1022.504	-2758
1022.573	-1816
1022.642	-2367
1022.711	-2747
1022.781	-1864
1022.849	-1302
1022.918	-2847
1022.987	-2000
1023.056	-2596
1023.125	-2165
1023.194	-2315
1023.263	-2477
1023.331	-3077
1023.400	-2644
1023.469	-3228
1023.538	-1816
1023.606	-3197
1023.675	-1084
1023.744	-3315
1023.812	-2100
1023.881	-2572
1023.949	-2245
1024.018	-3062
1024.086	-2237
1024.155	-1660
1024.223	-2525
1024.292	-2170
1024.360	-1831
1024.429	-2832
1024.497	-2704
1024.565	-2222
1024.634	-3618
1024.702	-2499
1024.770	-1667
1024.838	-2664
1024.907	-1531
1024.975	-2367
1025.043	-1485
1025.111	-3531
1025.179	-1792
1025.247	-1779
1025.315	-1651
1025.383	-2250
1025.451	-1400
1025.519	-2710
1025.587	-2401
1025.655	-2851
1025.723	-2227
1025.791	-2079
1025.859	-1929
1025.927	-1853
1025.995	-2212
1026.062	-2425
1026.130	-2190
1026.198	-2397
1026.266	-2405
1026.333	-2362
1026.401	-2426
1026.469	-2998
1026.536	-2433
1026.604	-2542
1026.671	-2383
1026.739	-2620
1026.806	-2022
1026.874	-3170
1026.941	-2115
1027.009	-2755
1027.076	-2811
1027.144	-2055
1027.211	-1621
1027.278	-1928
1027.345	-1890
1027.413	-2764
1027.480	-2567
1027.547	-2514
1027.614	-1725
1027.682	-2429
1027.749	-2494
1027.816	-2142
1027.883	-1457
1027.950	-3201
1028.017	-2969
1028.084	-2062
1028.151	-2455
1028.218	-2331
1028.285	-2308
1028.352	-3631
1028.419	-2273
1028.486	-2473
1028.553	-2469
1028.619	-3288
1028.686	-1614
1028.753	-2525
1028.820	-2829
1028.886	-2909
1028.953	-2471
1029.020	-1392
1029.086	-2399
1029.153	-2564
1029.220	-2568
1029.286	-1907
1029.353	-2134
1029.419	-2401
1029.486	-2549
1029.552	-2539
1029.619	-1696
1029.685	-2046
1029.751	-2194
1029.818	-2150
1029.884	-2554
1029.951	-1925
1030.017	-2582
1030.083	-2235
1030.149	-2385
1030.216	-3386
1030.282	-2325
1030.348	-2671
1030.414	-2232
1030.480	-2505
1030.546	-2990
1030.612	-2301
1030.678	-2182
1030.744	-2606
1030.810	-2272
1030.876	-1945
1030.942	-2414
1031.008	-2499
1031.074	-2597
1031.140	-1991
1031.206	-1711
1031.272	-3092
1031.337	-1406
1031.403	-2827
1031.469	-2464
1031.534	-2205
1031.600	-1770
1031.666	-3056
1031.731	-2868
1031.797	-3128
1031.863	-2078
1031.928	-2772
1031.994	-2425
1032.059	-2783
1032.125	-2113
1032.190	-2278
1032.256	-1411
1032.321	-3097
1032.386	-3092
1032.452	-1825
1032.517	-1872
1032.582	-2549
1032.647	-2290
1032.713	-1695
1032.778	-2503
1032.843	-2610
1032.908	-2036
1032.974	-1733
1033.039	-2045
1033.104	-1592
1033.169	-2049
1033.234	-2388
1033.299	-1354
1033.364	-1068
1033.429	131
1033.494	-1993
1033.559	-851
1033.624	-1939
1033.688	-1030
1033.753	-1842
1033.818	-1862
1033.883	-1578
1033.948	-1875
1034.013	-1309
1034.077	-1057
1034.142	-741
1034.207	-406
1034.271	1078
1034.336	2871
1034.400	586
1034.465	1593
1034.530	412
1034.594	-1316
1034.658	-1651
1034.723	-1648
1034.787	-2147
1034.852	-1881
1034.916	-3229
1034.981	-2277
1035.045	-1714
1035.109	-2127
1035.173	-2111
1035.238	-3125
1035.302	-1958
1035.366	-2543
1035.430	-2753
1035.495	-2807
1035.559	-2546
1035.623	-2457
1035.687	-2855
1035.751	-2062
1035.815	-2888
1035.879	-2431
1035.943	-2605
1036.007	-1840
1036.071	-2312
1036.135	-2266
1036.198	-1681
1036.262	-1976
1036.326	-1741
1036.390	-1932
1036.454	-445
1036.517	-1238
1036.581	-596
1036.645	1259
1036.709	1863
1036.772	-858
1036.836	-1758
1036.900	-2079
1036.963	-2645
1037.026	-1274
1037.090	-2302
1037.154	-2128
1037.217	-2591
1037.280	-2770
1037.344	-2179
1037.407	-2410
1037.471	-2215
1037.534	-2561
1037.597	-1823
1037.661	-1628
1037.724	-2705
1037.787	-1879
1037.850	-2363
1037.913	-1923
1037.977	-2256
1038.040	-2250
1038.103	-2205
1038.166	-2084
1038.229	-1985
1038.292	-1994
1038.355	-2131
1038.418	-1050
1038.481	-1659
1038.544	-1791
1038.607	-2173
1038.670	-2394
1038.732	-2563
1038.795	-2975
1038.858	-2865
1038.921	-1618
1038.984	-2243
1039.046	-2213
1039.109	-3456
1039.172	-3382
1039.234	-2489
1039.297	-2126
1039.360	-2133
1039.422	-2443
1039.485	-2874
1039.547	-2068
1039.610	-2425
1039.672	-2917
1039.734	-2431
1039.797	-2289
1039.859	-1963
1039.922	-2552
1039.984	-2179
1040.046	-2603
1040.109	-2480
1040.171	-1848
1040.233	-3007
1040.295	-3151
1040.358	-3268
1040.420	-1876
1040.482	-2502
1040.544	-1895
1040.606	-2910
1040.668	-2202
1040.730	-2927
1040.792	-2206
1040.854	-3192
1040.916	-2901
1040.978	-2636
1041.040	-2173
1041.102	-2921
1041.164	-2064
1041.225	-3222
1041.287	-2567
1041.349	-3034
1041.411	-2428
1041.472	-2854
1041.534	-2203
1041.596	-2462
1041.657	-1973
1041.719	-2404
1041.781	-2433
1041.842	-2447
1041.904	-1769
1041.965	-2106
1042.027	-1992
1042.088	-1656
1042.150	-2042
1042.211	-3162
1042.272	-1840
1042.334	-2804
1042.395	-2109
1042.456	-2640
1042.518	-2074
1042.579	-2209
1042.640	-1610
1042.701	-2192
1042.763	-2532
1042.824	-2799
1042.885	-2273
1042.946	-2106
1043.007	-2957
1043.068	-2939
1043.129	-3015
1043.190	-2954
1043.251	-1473
1043.312	-2215
1043.373	-2099
1043.434	-2181
1043.495	-1744
1043.556	-2768
1043.616	-2372
1043.677	-2202
1043.738	-1663
1043.799	-2250
1043.859	-2318
1043.920	-2386
1043.981	-1848
1044.041	-2356
1044.102	-2067
1044.162	-2591
1044.223	-2785
1044.284	-2054
1044.344	-1842
1044.405	-2772
1044.465	-2541
1044.525	-2135
1044.586	-2286
1044.646	-2056
1044.707	-1889
1044.767	-2322
1044.827	-1605
1044.887	-2399
1044.948	-2293
1045.008	-1918
1045.068	-1983
1045.128	-1762
1045.188	-2680
1045.249	-1965
1045.309	-1696
1045.369	-2316
1045.429	-1565
1045.489	-2251
1045.549	-2369
1045.609	-2905
1045.669	-2377
1045.729	-2247
1045.789	-2111
1045.848	-2471
1045.908	-1848
1045.968	-1871
1046.028	-1350
1046.088	-1976
1046.147	-2411
1046.207	-2710
1046.267	-1429
1046.326	-1127
1046.386	-1562
1046.446	-1339
1046.505	-1706
1046.565	-1606
1046.624	-1102
1046.684	-1326
1046.743	-884
1046.803	-871
1046.862	-957
1046.922	0
