'Start Wavelength	183.907
'End Wavelength	1046.922
'Gate Delay	5.000
'Gate Width (ms)	1.050
'Laser Output Level	0.000
'X Position	0.000
'Y Position	0.000
'Z Position	0.000
'Grid Point Number	1.000
'Shot Number	100.000
183.907	139.000
183.977	-513.000
184.047	-570
184.116	482
184.186	-236
184.256	-266
184.325	-449
184.395	-625
184.465	126
184.534	-345
184.604	-164
184.674	438
184.743	-675
184.813	-3
184.883	102
184.952	-241
185.022	-204
185.092	-147
185.161	112
185.231	-1188
185.301	227
185.370	38
185.440	-763
185.509	-236
185.579	-715
185.649	-339
185.718	-260
185.788	558
185.857	-728
185.927	105
185.996	31
186.066	-844
186.136	-776
186.205	-316
186.275	-353
186.344	-989
186.414	-213
186.483	-516
186.553	374
186.622	-353
186.692	-258
186.761	306
186.831	-121
186.900	-84
186.970	-148
187.039	-235
187.109	578
187.178	322
187.248	23
187.317	237
187.387	-1108
187.456	-129
187.526	128
187.595	-74
187.664	-246
187.734	151
187.803	-556
187.873	-253
187.942	282
188.012	-199
188.081	-406
188.150	-908
188.220	187
188.289	84
188.358	229
188.428	-346
188.497	7
188.567	-348
188.636	317
188.705	-762
188.775	207
188.844	103
188.913	-353
188.983	558
189.052	-792
189.121	-506
189.191	-144
189.260	-95
189.329	-199
189.399	-543
189.468	396
189.537	-171
189.606	-288
189.676	-252
189.745	-45
189.814	72
189.883	-88
189.953	-259
190.022	8
190.091	485
190.161	10
190.230	-757
190.299	4
190.368	-1028
190.437	4
190.507	-225
190.576	-508
190.645	241
190.714	-175
190.783	-491
190.853	-40
190.922	-355
190.991	-306
191.060	-112
191.129	-424
191.198	-146
191.268	-147
191.337	20
191.406	543
191.475	110
191.544	-1235
191.613	1075
191.682	-662
191.752	-37
191.821	58
191.890	164
191.959	-406
192.028	-705
192.097	275
192.166	-1
192.235	-949
192.304	261
192.373	-260
192.442	196
192.511	-38
192.580	-624
192.650	186
192.719	-654
192.788	376
192.857	-194
192.926	-324
192.995	49
193.064	-678
193.133	-248
193.202	223
193.271	-352
193.340	242
193.409	-114
193.478	262
193.547	447
193.615	-162
193.684	239
193.753	563
193.822	652
193.891	194
193.960	321
194.029	-690
194.098	-834
194.167	-111
194.236	-678
194.305	-595
194.374	-252
194.443	471
194.512	323
194.580	-403
194.649	-236
194.718	237
194.787	82
194.856	-623
194.925	-179
194.994	-227
195.062	-283
195.131	13
195.200	-363
195.269	-279
195.338	-780
195.407	388
195.475	-188
195.544	489
195.613	64
195.682	161
195.751	70
195.819	134
195.888	-875
195.957	814
196.026	-90
196.094	740
196.163	43
196.232	465
196.301	-745
196.369	-464
196.438	222
196.507	-62
196.576	-534
196.644	-91
196.713	-410
196.782	-243
196.850	231
196.919	410
196.988	-309
197.056	-688
197.125	-346
197.194	-64
197.262	-263
197.331	-213
197.400	-438
197.468	-195
197.537	-382
197.606	-12
197.674	-243
197.743	638
197.812	-549
197.880	336
197.949	-41
198.017	316
198.086	326
198.155	214
198.223	-330
198.292	-500
198.360	-362
198.429	-611
198.497	-526
198.566	-314
198.635	382
198.703	684
198.772	859
198.840	946
198.909	132
198.977	-77
199.046	77
199.114	-63
199.183	-232
199.251	91
199.320	-279
199.388	234
199.457	-137
199.525	-310
199.594	-24
199.662	-500
199.731	-890
199.799	45
199.867	644
199.936	154
200.004	-112
200.073	-35
200.141	-343
200.210	-797
200.278	-123
200.346	483
200.415	-292
200.483	289
200.552	775
200.620	554
200.688	-491
200.757	377
200.825	-406
200.893	-69
200.962	36
201.030	-310
201.098	-818
201.167	270
201.235	322
201.303	-120
201.372	-430
201.440	109
201.508	363
201.577	0
201.645	223
201.713	-38
201.781	-116
201.850	417
201.918	-279
201.986	51
202.055	-94
202.123	225
202.191	36
202.259	145
202.327	-262
202.396	-291
202.464	139
202.532	141
202.600	597
202.669	-319
202.737	926
202.805	207
202.873	362
202.941	-388
203.009	-133
203.078	-107
203.146	350
203.214	60
203.282	-644
203.350	-431
203.418	-77
203.487	-20
203.555	387
203.623	5
203.691	359
203.759	-428
203.827	81
203.895	8
203.963	-764
204.031	-108
204.099	782
204.168	93
204.236	659
204.304	-217
204.372	-543
204.440	95
204.508	-78
204.576	-408
204.644	512
204.712	430
204.780	35
204.848	246
204.916	-497
204.984	-841
205.052	98
205.120	133
205.188	-5
205.256	562
205.324	-134
205.392	-168
205.460	586
205.528	330
205.596	-494
205.664	328
205.732	-301
205.799	410
205.867	1332
205.935	-175
206.003	-137
206.071	532
206.139	147
206.207	423
206.275	-385
206.343	89
206.411	-535
206.478	181
206.546	368
206.614	657
206.682	484
206.750	-85
206.818	663
206.885	-158
206.953	-728
207.021	913
207.089	-246
207.157	-245
207.225	-501
207.292	267
207.360	-450
207.428	479
207.496	-169
207.563	435
207.631	206
207.699	-299
207.767	-113
207.834	-225
207.902	390
207.970	-209
208.038	-285
208.105	-713
208.173	531
208.241	624
208.309	80
208.376	1105
208.444	409
208.512	-115
208.579	-618
208.647	410
208.715	466
208.782	-68
208.850	-227
208.918	-459
208.985	-106
209.053	210
209.120	713
209.188	-269
209.256	-136
209.323	904
209.391	133
209.459	609
209.526	-78
209.594	424
209.661	140
209.729	10
209.796	-327
209.864	839
209.932	-609
209.999	1468
210.067	-23
210.134	486
210.202	621
210.269	843
210.337	261
210.404	-144
210.472	534
210.539	734
210.607	440
210.674	926
210.742	354
210.809	-140
210.877	-408
210.944	-18
211.012	-42
211.079	964
211.146	739
211.214	731
211.281	167
211.349	342
211.416	287
211.484	418
211.551	-376
211.618	6
211.686	497
211.753	111
211.821	1059
211.888	158
211.955	7
212.023	364
212.090	258
212.157	-351
212.225	422
212.292	805
212.359	1178
212.427	3611
212.494	1260
212.561	961
212.629	-403
212.696	-182
212.763	503
212.831	-56
212.898	396
212.965	574
213.032	-314
213.100	580
213.167	551
213.234	616
213.301	387
213.369	218
213.436	684
213.503	440
213.570	186
213.638	159
213.705	396
213.772	-470
213.839	305
213.906	430
213.973	265
214.041	126
214.108	-120
214.175	199
214.242	306
214.309	660
214.376	612
214.444	252
214.511	574
214.578	-347
214.645	859
214.712	261
214.779	789
214.846	248
214.913	1234
214.980	562
215.048	844
215.115	656
215.182	1144
215.249	369
215.316	-34
215.383	745
215.450	431
215.517	938
215.584	1196
215.651	437
215.718	202
215.785	639
215.852	257
215.919	703
215.986	12
216.053	248
216.120	47
216.187	640
216.254	212
216.321	24
216.388	99
216.455	980
216.522	838
216.589	553
216.656	1094
216.722	960
216.789	1028
216.856	1200
216.923	806
216.990	1217
217.057	745
217.124	1251
217.191	-214
217.258	1758
217.324	1086
217.391	1908
217.458	967
217.525	276
217.592	1258
217.659	465
217.725	914
217.792	842
217.859	1331
217.926	-313
217.993	386
218.059	625
218.126	-50
218.193	419
218.260	-511
218.327	279
218.393	-386
218.460	-340
218.527	-333
218.594	748
218.660	369
218.727	972
218.794	-273
218.860	89
218.927	205
218.994	-121
219.061	-244
219.127	357
219.194	-110
219.261	119
219.327	540
219.394	682
219.461	-44
219.527	523
219.594	731
219.661	-38
219.727	-462
219.794	518
219.860	-641
219.927	976
219.994	922
220.060	1595
220.127	1593
220.193	972
220.260	387
220.326	1367
220.393	1987
220.460	2641
220.526	757
220.593	859
220.659	2063
220.726	876
220.792	2445
220.859	2487
220.925	3647
220.992	4772
221.058	3927
221.125	3675
221.191	2283
221.258	518
221.324	333
221.391	823
221.457	14
221.524	169
221.590	487
221.657	3149
221.723	1134
221.789	1333
221.856	1113
221.922	809
221.989	1216
222.055	879
222.121	168
222.188	1334
222.254	130
222.321	943
222.387	-73
222.453	16
222.520	60
222.586	119
222.652	823
222.719	220
222.785	124
222.851	-193
222.918	-340
222.984	239
223.050	192
223.116	-518
223.183	415
223.249	-127
223.315	-544
223.382	-648
223.448	153
223.514	121
223.580	-485
223.647	-495
223.713	41
223.779	-180
223.845	-155
223.911	23
223.978	-199
224.044	115
224.110	-581
224.176	131
224.242	359
224.309	-165
224.375	-100
224.441	206
224.507	-21
224.573	109
224.639	262
224.705	416
224.772	142
224.838	-314
224.904	354
224.970	1094
225.036	-435
225.102	-119
225.168	994
225.234	514
225.300	-294
225.366	-231
225.432	359
225.499	-735
225.565	334
225.631	523
225.697	156
225.763	707
225.829	741
225.895	756
225.961	762
226.027	1606
226.093	796
226.159	1590
226.225	1773
226.291	5005
226.357	7162
226.423	3223
226.489	1387
226.554	1054
226.620	1594
226.686	1246
226.752	2437
226.818	4020
226.884	9335
226.950	7646
227.016	2403
227.082	2519
227.148	803
227.214	1812
227.279	-158
227.345	805
227.411	679
227.477	1692
227.543	2310
227.609	2437
227.674	1611
227.740	322
227.806	658
227.872	599
227.938	554
228.003	699
228.069	401
228.135	78
228.201	399
228.267	143
228.332	605
228.398	-666
228.464	601
228.530	-161
228.595	159
228.661	-496
228.727	863
228.792	493
228.858	-287
228.924	-693
228.990	801
229.055	-303
229.121	-219
229.187	351
229.252	-309
229.318	-67
229.384	-78
229.449	584
229.515	-872
229.581	-793
229.646	1448
229.712	-189
229.777	705
229.843	398
229.909	898
229.974	885
230.040	889
230.105	-146
230.171	264
230.236	1029
230.302	539
230.368	181
230.433	210
230.499	649
230.564	648
230.630	273
230.695	46
230.761	1153
230.826	-881
230.892	672
230.957	285
231.023	346
231.088	452
231.154	-486
231.219	518
231.284	119
231.350	259
231.415	-185
231.481	677
231.546	-295
231.612	267
231.677	-21
231.742	-877
231.808	1130
231.873	-89
231.939	-359
232.004	615
232.069	382
232.135	43
232.200	-100
232.265	452
232.331	711
232.396	-388
232.461	608
232.527	-110
232.592	-840
232.657	596
232.723	-1252
232.788	199
232.853	-594
232.918	250
232.984	-237
233.049	-434
233.114	7
233.179	162
233.245	1146
233.310	504
233.375	-561
233.440	-679
233.506	-268
233.571	-488
233.636	602
233.701	-546
233.766	25
233.832	-266
233.897	-211
233.962	-201
234.027	339
234.092	-18
234.157	421
234.222	-205
234.288	497
234.353	1806
234.418	2127
234.483	1078
234.548	654
234.613	509
234.678	1003
234.743	255
234.808	2052
234.873	1289
234.938	945
235.004	943
235.069	68
235.134	474
235.199	-370
235.264	320
235.329	-142
235.394	584
235.459	814
235.524	323
235.589	683
235.654	-234
235.719	-540
235.784	511
235.849	739
235.913	901
235.978	1695
236.043	1358
236.108	732
236.173	539
236.238	168
236.303	228
236.368	519
236.433	1247
236.498	2100
236.563	1321
236.627	4474
236.692	12008
236.757	7341
236.822	2672
236.887	2503
236.952	1771
237.017	1092
237.081	2452
237.146	1826
237.211	5476
237.276	12548
237.341	16125
237.405	7489
237.470	3329
237.535	2182
237.600	1654
237.664	1539
237.729	576
237.794	1601
237.859	3653
237.923	1695
237.988	1104
238.053	1068
238.118	1544
238.182	3301
238.247	3146
238.312	902
238.376	686
238.441	-473
238.506	1509
238.570	-712
238.635	742
238.700	575
238.764	201
238.829	1578
238.893	829
238.958	908
239.023	655
239.087	623
239.152	66
239.216	186
239.281	286
239.346	56
239.410	899
239.475	1028
239.539	2931
239.604	912
239.668	1194
239.733	1337
239.797	2223
239.862	4826
239.926	3513
239.991	1375
240.055	119
240.120	535
240.184	521
240.249	-115
240.313	-434
240.378	54
240.442	1685
240.507	1749
240.571	938
240.635	374
240.700	1387
240.764	597
240.829	71
240.893	-331
240.957	607
241.022	1902
241.086	2640
241.151	647
241.215	-287
241.279	1355
241.344	848
241.408	1287
241.472	785
241.537	1575
241.601	732
241.665	143
241.730	-609
241.794	854
241.858	534
241.922	540
241.987	762
242.051	1048
242.115	100
242.179	1210
242.244	-275
242.308	1029
242.372	162
242.436	672
242.501	335
242.565	497
242.629	371
242.693	1066
242.757	111
242.822	-643
242.886	-76
242.950	622
243.014	125
243.078	1027
243.142	624
243.206	183
243.271	667
243.335	336
243.399	1224
243.463	5625
243.527	11850
243.591	3285
243.655	1379
243.719	-86
243.783	822
243.847	1606
243.911	1542
243.975	2372
244.040	289
244.104	1876
244.168	948
244.232	487
244.296	1362
244.360	1702
244.424	-596
244.488	622
244.552	1556
244.615	-1067
244.679	144
244.743	473
244.807	-203
244.871	197
244.935	392
244.999	-772
245.063	156
245.127	445
245.191	1315
245.255	1354
245.319	1036
245.383	-759
245.446	1271
245.510	-607
245.574	570
245.638	957
245.702	-152
245.766	1455
245.829	783
245.893	-225
245.957	812
246.021	1434
246.085	204
246.149	382
246.212	2614
246.276	3674
246.340	775
246.404	-12
246.467	715
246.531	804
246.595	1287
246.659	1373
246.722	107
246.786	1577
246.850	537
246.913	1158
246.977	311
247.041	451
247.104	685
247.168	1270
247.232	2708
247.295	5190
247.359	1819
247.423	940
247.486	1623
247.550	1921
247.614	708
247.677	1849
247.741	295
247.804	423
247.868	991
247.932	1634
247.995	4991
248.059	1049
248.122	185
248.186	1827
248.249	2828
248.313	9336
248.376	8290
248.440	5291
248.503	883
248.567	2266
248.630	1665
248.694	3132
248.757	5169
248.821	9731
248.884	6075
248.948	5253
249.011	7136
249.075	10785
249.138	9204
249.202	4070
249.265	1934
249.328	3210
249.392	1560
249.455	2165
249.519	921
249.582	1991
249.645	2613
249.709	2154
249.772	1697
249.835	1426
249.899	1461
249.962	2221
250.025	1774
250.089	4640
250.152	4771
250.215	2213
250.279	1749
250.342	1709
250.405	2309
250.468	1243
250.532	2935
250.595	3835
250.658	14435
250.721	20183
250.785	6298
250.848	4852
250.911	2357
250.974	2628
251.038	3312
251.101	5284
251.164	3066
251.227	3812
251.290	2387
251.354	6049
251.417	19368
251.480	15846
251.543	12542
251.606	33478
251.669	21367
251.732	8735
251.795	9566
251.859	10275
251.922	20894
251.985	11409
252.048	4858
252.111	3515
252.174	3115
252.237	5648
252.300	11186
252.363	12591
252.426	25458
252.489	8546
252.552	5104
252.615	2917
252.678	5055
252.741	9356
252.804	12766
252.867	26630
252.930	14333
252.993	7253
253.056	4645
253.119	3376
253.182	2052
253.245	3999
253.308	3281
253.371	1890
253.434	2397
253.497	3790
253.559	5588
253.622	3505
253.685	3157
253.748	3403
253.811	1526
253.874	2921
253.937	1051
254.000	1228
254.062	3635
254.125	4781
254.188	5835
254.251	3718
254.314	1401
254.376	2810
254.439	3471
254.502	3288
254.565	3575
254.628	6041
254.690	3127
254.753	1661
254.816	198
254.878	1234
254.941	4466
255.004	3563
255.067	1871
255.129	1088
255.192	353
255.255	571
255.317	1026
255.380	745
255.443	880
255.505	521
255.568	161
255.631	526
255.693	978
255.756	-296
255.819	1637
255.881	-352
255.944	749
256.006	-11
256.069	729
256.132	-595
256.194	863
256.257	1912
256.319	1861
256.382	1380
256.444	1177
256.507	1789
256.569	1110
256.632	547
256.694	1654
256.757	8333
256.819	19147
256.882	5816
256.944	2804
257.007	2823
257.069	1419
257.132	1684
257.194	1305
257.257	1045
257.319	665
257.381	1149
257.444	5963
257.506	24213
257.569	21868
257.631	8512
257.693	4358
257.756	2372
257.818	437
257.880	1085
257.943	1092
258.005	693
258.067	541
258.130	690
258.192	628
258.254	1775
258.317	921
258.379	1065
258.441	3369
258.503	2907
258.566	2798
258.628	3971
258.690	417
258.753	2043
258.815	2246
258.877	547
258.939	795
259.001	996
259.064	591
259.126	585
259.188	1109
259.250	1370
259.312	1342
259.375	2475
259.437	1164
259.499	1203
259.561	995
259.623	781
259.685	651
259.747	1242
259.809	3020
259.872	6019
259.934	9543
259.996	8245
260.058	2118
260.120	890
260.182	429
260.244	39
260.306	472
260.368	755
260.430	-124
260.492	2205
260.554	3043
260.616	1540
260.678	5033
260.740	4849
260.802	978
260.864	1058
260.926	-44
260.988	1276
261.050	982
261.112	3240
261.174	8645
261.236	3985
261.298	889
261.359	1932
261.421	2877
261.483	-136
261.545	824
261.607	584
261.669	764
261.731	957
261.793	3745
261.854	866
261.916	1274
261.978	1469
262.040	1230
262.102	719
262.164	844
262.225	1182
262.287	257
262.349	2455
262.411	578
262.472	815
262.534	1191
262.596	2354
262.658	597
262.719	102
262.781	1184
262.843	1976
262.904	836
262.966	524
263.028	1392
263.090	7972
263.151	16477
263.213	5093
263.275	2619
263.336	649
263.398	676
263.459	184
263.521	781
263.583	2307
263.644	1448
263.706	-290
263.767	-302
263.829	779
263.891	-238
263.952	-135
264.014	-520
264.075	1572
264.137	3578
264.198	1348
264.260	-36
264.321	713
264.383	1628
264.444	6173
264.506	1685
264.567	132
264.629	3561
264.690	3965
264.752	1287
264.813	1266
264.875	-264
264.936	656
264.998	344
265.059	78
265.120	513
265.182	1578
265.243	11532
265.305	9288
265.366	1879
265.427	1349
265.489	1115
265.550	-297
265.611	962
265.673	1106
265.734	308
265.795	556
265.857	-242
265.918	51
265.979	3234
266.040	18855
266.102	12367
266.163	3240
266.224	2537
266.286	976
266.347	-168
266.408	43
266.469	211
266.530	193
266.592	-638
266.653	1190
266.714	1803
266.775	638
266.836	-139
266.898	-25
266.959	25
267.020	528
267.081	913
267.142	-221
267.203	662
267.264	-654
267.326	506
267.387	172
267.448	-942
267.509	469
267.570	-30
267.631	-168
267.692	-1146
267.753	-255
267.814	-979
267.875	896
267.936	3043
267.997	2068
268.058	1728
268.119	621
268.180	925
268.241	-369
268.302	261
268.363	84
268.424	-394
268.485	81
268.546	-542
268.607	-372
268.668	-109
268.729	-591
268.790	254
268.851	458
268.912	920
268.972	2063
269.033	185
269.094	-418
269.155	401
269.216	-327
269.277	54
269.338	-214
269.398	196
269.459	-617
269.520	979
269.581	660
269.642	1640
269.702	202
269.763	599
269.824	151
269.885	736
269.945	1201
270.006	308
270.067	-312
270.128	-338
270.188	456
270.249	-241
270.310	-472
270.370	-269
270.431	457
270.492	30
270.553	437
270.613	916
270.674	3164
270.734	-389
270.795	406
270.856	587
270.916	257
270.977	197
271.038	500
271.098	205
271.159	950
271.219	686
271.280	175
271.340	297
271.401	-671
271.462	773
271.522	587
271.583	319
271.643	-37
271.704	237
271.764	757
271.825	2284
271.885	10701
271.946	11041
272.006	3039
272.066	6470
272.127	9669
272.187	2721
272.248	1349
272.308	1487
272.369	6310
272.429	2374
272.489	1694
272.550	1110
272.610	3085
272.671	1133
272.731	1676
272.791	1904
272.852	585
272.912	656
272.972	15
273.033	562
273.093	537
273.153	705
273.214	555
273.274	1070
273.334	5562
273.394	8501
273.455	3625
273.515	4178
273.575	7396
273.635	2460
273.696	4614
273.756	7759
273.816	2776
273.876	1554
273.936	3876
273.997	6211
274.057	1281
274.117	1023
274.177	2561
274.237	11654
274.297	9064
274.358	5689
274.418	6978
274.478	5290
274.538	1762
274.598	1119
274.658	5626
274.718	5574
274.778	2048
274.838	948
274.898	3644
274.958	9223
275.018	9821
275.078	4755
275.138	1525
275.198	950
275.258	482
275.318	457
275.378	2024
275.438	2063
275.498	1505
275.558	4575
275.618	10114
275.678	5806
275.738	4035
275.798	2416
275.858	1562
275.918	89
275.978	1027
276.038	1176
276.098	-260
276.157	822
276.217	7043
276.277	2587
276.337	1120
276.397	745
276.457	1005
276.517	435
276.576	1114
276.636	-138
276.696	959
276.756	4549
276.815	2373
276.875	393
276.935	556
276.995	813
277.055	107
277.114	314
277.174	1271
277.234	4974
277.293	1390
277.353	932
277.413	172
277.472	-35
277.532	22
277.592	979
277.651	3147
277.711	6822
277.771	2079
277.830	9725
277.890	7216
277.950	6429
278.009	17595
278.069	5053
278.128	5962
278.188	6584
278.248	2962
278.307	8758
278.367	5191
278.426	1176
278.486	1351
278.545	285
278.605	1107
278.664	319
278.724	1169
278.783	4219
278.843	10267
278.902	2461
278.962	1457
279.021	1364
279.081	2447
279.140	1754
279.199	2381
279.259	1834
279.318	2103
279.378	2533
279.437	6384
279.496	19777
279.556	53274
279.615	37808
279.675	9618
279.734	6032
279.793	8456
279.853	13076
279.912	4566
279.971	2898
280.031	3607
280.090	5744
280.149	9471
280.208	8246
280.268	38237
280.327	34971
280.386	7557
280.445	5899
280.505	4810
280.564	2161
280.623	1862
280.682	3462
280.742	4957
280.801	748
280.860	622
280.919	692
280.978	792
281.037	374
281.097	447
281.156	106
281.215	399
281.274	486
281.333	7406
281.392	5168
281.451	614
281.510	841
281.569	322
281.628	246
281.688	458
281.747	634
281.806	840
281.865	-252
281.924	-234
281.983	-66
282.042	-373
282.101	176
282.160	197
282.219	303
282.278	749
282.337	3124
282.396	2308
282.454	334
282.513	956
282.572	5715
282.631	2473
282.690	725
282.749	-21
282.808	829
282.867	521
282.926	536
282.985	-270
283.043	216
283.102	-415
283.161	16
283.220	3033
283.279	7168
283.338	1586
283.396	198
283.455	422
283.514	674
283.573	1230
283.631	469
283.690	812
283.749	-139
283.808	2341
283.866	2931
283.925	1012
283.984	1177
284.043	1037
284.101	860
284.160	333
284.219	1655
284.277	1590
284.336	2839
284.395	8814
284.453	6840
284.512	2134
284.570	2597
284.629	1801
284.688	1709
284.746	2085
284.805	2416
284.863	3505
284.922	3545
284.981	5559
285.039	8075
285.098	16109
285.156	37819
285.215	71326
285.273	68674
285.332	39869
285.390	19644
285.449	10925
285.507	8106
285.566	6127
285.624	3902
285.683	3494
285.741	2264
285.799	2314
285.858	1949
285.916	1922
285.975	979
286.033	449
286.091	677
286.150	857
286.208	432
286.267	926
286.325	942
286.383	2107
286.442	1506
286.500	660
286.558	823
286.616	745
286.675	1330
286.733	1620
286.791	219
286.850	1366
286.908	1711
286.966	3681
287.024	867
287.083	749
287.141	329
287.199	1125
287.257	2033
287.315	1613
287.374	757
287.432	4089
287.490	2343
287.548	1350
287.606	617
287.664	1368
287.723	996
287.781	2123
287.839	1352
287.897	1058
287.955	1562
288.013	4604
288.071	13050
288.129	45093
288.187	106143
288.245	49407
288.303	15491
288.361	8633
288.419	5966
288.477	4593
288.535	2472
288.593	1673
288.651	1708
288.709	943
288.767	552
288.825	586
288.883	920
288.941	354
288.999	572
289.057	963
289.115	182
289.173	-39
289.231	947
289.289	455
289.346	-188
289.404	716
289.462	1477
289.520	2200
289.578	850
289.636	829
289.694	-351
289.751	-233
289.809	-313
289.867	238
289.925	397
289.983	1406
290.040	509
290.098	679
290.156	601
290.214	873
290.271	-298
290.329	564
290.387	-260
290.444	726
290.502	-218
290.560	-56
290.617	-403
290.675	766
290.733	454
290.790	845
290.848	222
290.906	39
290.963	235
291.021	78
291.078	186
291.136	474
291.194	4130
291.251	9608
291.309	3077
291.366	133
291.424	565
291.481	63
291.539	-15
291.596	934
291.654	-659
291.711	165
291.769	184
291.826	1359
291.884	1025
291.941	-325
291.999	352
292.056	947
292.114	226
292.171	-576
292.228	348
292.286	1673
292.343	1535
292.401	2656
292.458	1822
292.515	371
292.573	1305
292.630	648
292.687	601
292.745	623
292.802	1912
292.859	5328
292.917	9884
292.974	5535
293.031	1418
293.089	839
293.146	-338
293.203	952
293.260	1163
293.318	1133
293.375	2405
293.432	1367
293.489	699
293.546	862
293.604	1421
293.661	6505
293.718	15429
293.775	8319
293.832	3763
293.889	2657
293.947	2076
294.004	1759
294.061	1646
294.118	4546
294.175	11017
294.232	14786
294.289	5692
294.346	2528
294.403	2679
294.460	1951
294.517	1032
294.574	376
294.631	1211
294.688	2223
294.745	5706
294.802	20604
294.859	22254
294.916	9361
294.973	3947
295.030	2903
295.087	2288
295.144	2025
295.201	1689
295.258	1007
295.315	1869
295.372	7049
295.429	12942
295.486	6599
295.542	3964
295.599	10754
295.656	18167
295.713	12380
295.770	13528
295.827	5104
295.883	2956
295.940	1706
295.997	3416
296.054	4114
296.111	2217
296.167	1264
296.224	527
296.281	792
296.338	987
296.394	1281
296.451	1566
296.508	6748
296.564	10924
296.621	8347
296.678	15137
296.734	21459
296.791	8655
296.848	3969
296.904	4108
296.961	10147
297.018	16014
297.074	12376
297.131	5206
297.187	3251
297.244	4230
297.301	15781
297.357	26183
297.414	9983
297.470	3901
297.527	2458
297.583	1991
297.640	2259
297.696	1892
297.753	796
297.809	379
297.866	808
297.922	1817
297.979	796
298.035	1630
298.092	2935
298.148	8447
298.204	8857
298.261	5095
298.317	8139
298.374	17985
298.430	11850
298.486	5808
298.543	3280
298.599	4308
298.656	4116
298.712	7206
298.768	16928
298.824	12632
298.881	5621
298.937	2504
298.993	2224
299.050	1910
299.106	2779
299.162	2247
299.218	2152
299.275	1680
299.331	2579
299.387	5073
299.443	17340
299.500	21978
299.556	10855
299.612	4368
299.668	4092
299.724	7161
299.780	8778
299.837	4644
299.893	5253
299.949	16934
300.005	21161
300.061	18762
300.117	26410
300.173	13838
300.229	6401
300.285	6013
300.341	6822
300.397	3911
300.453	2173
300.510	1381
300.566	2933
300.622	4171
300.678	15691
300.734	23511
300.790	18673
300.845	18506
300.901	15093
300.957	20150
301.013	14119
301.069	5806
301.125	3539
301.181	2952
301.237	3244
301.293	2127
301.349	1309
301.405	1307
301.461	750
301.516	2365
301.572	3059
301.628	3912
301.684	4221
301.740	6835
301.796	10435
301.851	8398
301.907	11643
301.963	13264
302.019	20755
302.074	46963
302.130	46881
302.186	23285
302.242	9512
302.297	5597
302.353	5692
302.409	10351
302.464	9683
302.520	9550
302.576	16998
302.631	20841
302.687	12332
302.743	5798
302.798	2665
302.854	3128
302.910	2951
302.965	3982
303.021	6446
303.076	6153
303.132	6833
303.187	8759
303.243	4820
303.299	3056
303.354	1766
303.410	2122
303.465	2096
303.521	1530
303.576	2030
303.632	2755
303.687	5285
303.743	15070
303.798	14048
303.853	5962
303.909	3115
303.964	2500
304.020	3695
304.075	6358
304.130	6114
304.186	10203
304.241	11327
304.297	8612
304.352	4630
304.358	4423
304.407	2748
304.449	3024
304.463	3118
304.518	2371
304.539	2302
304.573	2191
304.629	3499
304.630	3519
304.684	4516
304.720	9148
304.739	11485
304.794	18707
304.811	15995
304.850	9505
304.902	5393
304.905	5132
304.960	2963
304.992	3446
305.015	3806
305.071	3503
305.083	3293
305.126	2545
305.173	1736
305.181	1602
305.236	965
305.264	1177
305.292	1389
305.347	2251
305.354	2317
305.402	2768
305.445	3030
305.457	3084
305.512	3533
305.535	3766
305.567	4105
305.622	3888
305.626	4089
305.678	8031
305.716	15390
305.733	18240
305.788	21759
305.807	19464
305.843	15191
305.897	15554
305.898	15546
305.953	16125
305.988	11721
306.008	9133
306.063	5156
306.078	4575
306.118	3433
306.168	2352
306.173	2259
306.228	2205
306.259	1865
306.283	1545
306.338	2184
306.349	2162
306.393	2142
306.440	3203
306.448	3401
306.503	3576
306.530	3724
306.558	4235
306.613	9101
306.620	9720
306.668	13670
306.711	16997
306.723	17435
306.778	13744
306.801	10776
306.833	7262
306.888	3765
306.892	3639
306.943	2392
306.982	2318
306.997	2335
307.052	2088
307.072	2242
307.107	2708
307.162	3722
307.163	3743
307.217	5565
307.253	6885
307.272	7401
307.327	7997
307.343	7480
307.381	6289
307.434	4807
307.436	4830
307.491	9349
307.524	13991
307.546	15988
307.600	16237
307.614	14786
307.655	9832
307.704	5817
307.710	5580
307.765	5737
307.795	6982
307.819	8068
307.874	13625
307.885	13576
307.929	11951
307.975	9912
307.984	9930
308.038	12784
308.065	16614
308.093	26344
308.148	53022
308.156	59354
308.202	91128
308.246	108590
308.257	107295
308.312	67298
308.336	49989
308.366	36651
308.421	21142
308.426	20116
308.475	13200
308.517	9566
308.530	8783
308.585	7703
308.607	7354
308.639	7239
308.694	7780
308.697	7873
308.748	10761
308.787	15252
308.803	15934
308.857	13913
308.877	12223
308.912	10164
308.967	8851
308.967	8873
309.021	11493
309.058	14868
309.076	18540
309.130	32851
309.148	39279
309.185	67364
309.238	117055
309.239	117328
309.293	128881
309.328	119011
309.348	105705
309.402	57518
309.418	45539
309.457	30832
309.508	18584
309.511	18097
309.566	14398
309.598	13555
309.620	13732
309.674	15019
309.688	15631
309.729	15424
309.778	13055
309.783	12796
309.837	10426
309.868	9448
309.892	10179
309.946	13076
309.959	14334
310.001	18801
310.049	22818
310.055	22286
310.109	14576
310.139	9888
310.163	7785
310.218	4925
310.229	4485
310.272	4111
310.319	4081
310.326	3909
310.381	2911
310.409	2489
310.435	2487
310.489	2315
310.499	2294
310.543	2733
310.589	3316
310.598	3244
310.652	2837
310.679	2639
310.706	2415
310.760	1795
310.769	1690
310.814	1728
310.859	1983
310.868	2031
310.923	2174
310.948	2285
310.977	2370
311.031	2577
311.038	2610
311.085	2358
311.128	2043
311.139	2049
311.193	2014
311.218	1990
311.247	1972
311.301	2004
311.308	2008
311.356	2189
311.398	2368
311.410	2305
311.464	1951
311.488	1796
311.518	1959
311.572	2263
311.578	2296
311.626	2810
311.668	3280
311.680	3281
311.734	3181
311.758	3168
311.788	2974
311.842	2556
311.847	2520
311.896	3494
311.937	4344
311.950	4197
312.004	3545
312.027	3257
312.058	2860
312.112	2175
312.117	2112
312.165	2166
312.207	2225
312.297	2893
312.386	2619
312.476	2919
312.566	4405
312.656	2315
312.745	2388
312.835	2464
312.925	3161
313.015	2753
313.104	2023
313.194	2556
313.284	1922
313.374	2493
313.463	2304
313.553	2728
313.643	2189
313.732	2472
313.822	1235
313.912	2471
314.001	2807
314.091	3143
314.180	4150
314.270	3375
314.360	3586
314.449	2293
314.539	2662
314.628	2651
314.718	2681
314.808	3234
314.897	2284
314.987	2250
315.076	3469
315.166	3484
315.255	3289
315.345	2567
315.434	2312
315.524	2843
315.613	3528
315.703	4205
315.792	7193
315.881	16845
315.971	6495
316.060	4955
316.150	6597
316.239	6631
316.328	3503
316.418	2960
316.507	2237
316.597	3044
316.686	2682
316.775	3963
316.865	7465
316.954	3394
317.043	2237
317.133	2777
317.222	1943
317.311	2641
317.400	1108
317.490	3335
317.579	2871
317.668	2876
317.757	3694
317.847	9616
317.936	28382
318.025	11713
318.114	6552
318.203	4087
318.293	4704
318.382	7864
318.471	7018
318.560	10434
318.649	18628
318.738	6199
318.828	2481
318.917	3599
319.006	4572
319.095	9345
319.184	23253
319.273	13115
319.362	6459
319.451	2429
319.540	1988
319.629	4325
319.718	7929
319.807	4926
319.896	9106
319.985	29514
320.074	11480
320.163	2756
320.252	4767
320.341	3991
320.430	3157
320.519	4549
320.608	2992
320.697	2890
320.786	2983
320.875	3174
320.964	3621
321.053	5691
321.142	7936
321.230	7780
321.319	6646
321.408	13639
321.497	6903
321.586	6227
321.675	7624
321.764	8267
321.852	5193
321.941	7796
322.030	6466
322.119	6491
322.207	13683
322.296	10304
322.385	6365
322.474	7435
322.562	15965
322.651	9270
322.740	7348
322.829	9149
322.917	8837
323.006	5775
323.095	5210
323.183	4426
323.272	6299
323.361	11574
323.449	27493
323.538	10862
323.626	19901
323.715	12197
323.804	6690
323.892	16877
323.981	8675
324.069	4771
324.158	10183
324.246	9061
324.335	3908
324.424	5725
324.512	2891
324.601	4118
324.689	6067
324.778	10213
324.866	6377
324.954	2526
325.043	3333
325.131	5250
325.220	7712
325.308	7551
325.397	6547
325.485	4626
325.574	1935
325.662	2473
325.750	2606
325.839	2407
325.927	1876
326.015	2984
326.104	3024
326.192	4795
326.280	1857
326.369	2397
326.457	2442
326.545	4181
326.634	3018
326.722	1609
326.810	2743
326.898	2260
326.987	2396
327.075	3820
327.163	4034
327.251	3031
327.340	3905
327.428	6255
327.516	2356
327.604	2565
327.692	1530
327.781	3573
327.869	2713
327.957	2581
328.045	2419
328.133	3060
328.221	2171
328.309	3076
328.397	2229
328.485	2393
328.574	3877
328.662	8406
328.750	5448
328.838	3161
328.926	2227
329.014	1870
329.102	2902
329.190	6230
329.278	3215
329.366	2354
329.454	2053
329.542	2533
329.630	1121
329.718	2360
329.806	2926
329.893	3644
329.981	3528
330.069	6084
330.157	19948
330.245	53338
330.333	32951
330.421	7647
330.509	5255
330.597	10462
330.684	7175
330.772	3759
330.860	3725
330.948	5429
331.036	3285
331.123	2242
331.211	2553
331.299	3121
331.387	4491
331.475	7513
331.562	2493
331.650	2652
331.738	1657
331.825	2758
331.913	1700
332.001	2437
332.089	3108
332.176	3781
332.264	9089
332.352	7292
332.439	2537
332.527	2574
332.614	1812
332.702	2623
332.790	2337
332.877	5005
332.965	8256
333.052	2602
333.140	2468
333.228	4761
333.315	2517
333.403	2691
333.490	5248
333.578	4366
333.665	4746
333.753	3596
333.840	1550
333.928	2901
334.015	6864
334.103	12196
334.190	29802
334.278	9949
334.365	5410
334.452	4924
334.540	3330
334.627	3953
334.715	4937
334.802	10372
334.889	37823
334.977	36158
335.064	7639
335.151	4096
335.239	3061
335.326	4668
335.413	17811
335.501	22002
335.588	5011
335.675	3709
335.762	3732
335.850	6572
335.937	6024
336.024	14953
336.111	40555
336.199	21044
336.286	6512
336.373	4443
336.460	1727
336.547	2366
336.635	2471
336.722	2511
336.809	2974
336.896	3646
336.983	10233
337.070	23860
337.157	34029
337.245	24026
337.332	15405
337.419	2596
337.506	1895
337.593	2803
337.680	8334
337.767	21084
337.854	6799
337.941	7074
338.028	7337
338.115	3819
338.202	4719
338.289	7539
338.376	20353
338.463	7853
338.550	13492
338.637	13613
338.724	5342
338.811	6784
338.898	2494
338.984	1355
339.071	2275
339.158	3322
339.245	5579
339.332	3888
339.419	4749
339.506	4797
339.593	1270
339.679	1914
339.766	1474
339.853	2049
339.940	4155
340.027	2425
340.113	2417
340.200	2525
340.287	1898
340.374	2319
340.460	3499
340.547	2099
340.634	3259
340.720	9469
340.807	5769
340.894	1512
340.980	1583
341.067	1739
341.154	1588
341.240	2808
341.327	5063
341.414	2853
341.500	1886
341.587	2286
341.674	2293
341.760	4430
341.847	3837
341.933	2138
342.020	810
342.106	1931
342.193	2189
342.279	3569
342.366	2462
342.452	4010
342.539	2308
342.625	4155
342.712	10400
342.798	5152
342.885	3106
342.971	725
343.058	704
343.144	1662
343.230	1092
343.317	1974
343.403	2006
343.490	2022
343.576	884
343.662	1483
343.749	1593
343.835	3286
343.921	4270
344.008	26541
344.094	49217
344.180	12534
344.267	5075
344.353	13798
344.439	14181
344.525	6440
344.612	5674
344.698	7187
344.784	4391
344.870	2240
344.957	2126
345.043	3363
345.129	2019
345.215	3949
345.301	2886
345.387	2087
345.474	1108
345.560	2102
345.646	1799
345.732	1705
345.818	2083
345.904	2205
345.990	2389
346.076	3055
346.162	3382
346.249	2430
346.335	1759
346.421	2660
346.507	6446
346.593	19449
346.679	5579
346.765	3253
346.851	2115
346.937	1921
347.023	2147
347.108	2680
347.194	1689
347.280	2135
347.366	2659
347.452	7527
347.538	24468
347.624	18374
347.710	13907
347.796	3313
347.882	2166
347.967	1671
348.053	2369
348.139	1628
348.225	1206
348.311	1291
348.397	1486
348.482	2281
348.568	2771
348.654	1850
348.740	3632
348.825	3213
348.911	4282
348.997	12076
349.083	21378
349.168	4055
349.254	2421
349.340	3527
349.425	1857
349.511	1848
349.597	3132
349.682	4152
349.768	12998
349.854	6849
349.939	2484
350.025	2361
350.110	2395
350.196	1655
350.282	982
350.367	1852
350.453	2774
350.538	2439
350.624	1657
350.709	2511
350.795	1902
350.880	1373
350.966	2061
351.051	3642
351.137	2321
351.222	1486
351.308	3996
351.393	11212
351.479	3415
351.564	2290
351.649	1482
351.735	2264
351.820	1320
351.906	1544
351.991	1770
352.076	7610
352.162	10973
352.247	3026
352.332	1965
352.418	3316
352.503	4781
352.588	16010
352.673	12419
352.759	3603
352.844	2214
352.929	2067
353.014	2214
353.100	2544
353.185	3368
353.270	4154
353.355	3829
353.441	2289
353.526	2096
353.611	3892
353.696	4100
353.781	3311
353.866	1954
353.952	2637
354.037	4215
354.122	6079
354.207	6479
354.292	3028
354.377	1977
354.462	1930
354.547	2069
354.632	2201
354.717	2766
354.802	3749
354.887	2165
354.972	1559
355.057	847
355.142	1485
355.227	1819
355.312	2950
355.397	4834
355.482	11118
355.567	5507
355.652	5470
355.737	5370
355.822	15646
355.907	12314
355.991	3794
356.076	1924
356.161	2142
356.246	2152
356.331	1926
356.416	4551
356.501	27729
356.585	27310
356.670	4641
356.755	3206
356.840	4850
356.924	19608
357.009	61185
357.094	23824
357.179	5794
357.263	4303
357.348	4206
357.433	3991
357.517	3393
357.602	3528
357.687	2882
357.771	3748
357.856	10211
357.941	8152
358.025	17029
358.110	61548
358.195	27283
358.279	4783
358.364	3894
358.448	10338
358.533	27859
358.617	20775
358.702	20447
358.787	7673
358.871	4066
358.956	3774
359.040	2325
359.125	2298
359.209	2703
359.294	4925
359.378	8617
359.462	5070
359.547	3312
359.631	1957
359.716	2398
359.800	2024
359.885	2738
359.969	1861
360.053	2834
360.138	1266
360.222	2737
360.306	3575
360.391	3655
360.475	6033
360.559	12468
360.644	10552
360.728	8754
360.812	16017
360.896	40417
360.981	14928
361.065	7900
361.149	3524
361.233	3236
361.318	2535
361.402	2494
361.486	2786
361.570	2459
361.654	3246
361.739	6724
361.823	27171
361.907	39215
361.991	8398
362.075	4821
362.159	7905
362.243	8110
362.327	9266
362.411	14106
362.495	7021
362.580	3468
362.664	3203
362.748	2894
362.832	4454
362.916	7760
363.000	23731
363.084	53351
363.168	52355
363.252	13511
363.336	5828
363.420	6665
363.503	23822
363.587	27763
363.671	6370
363.755	3654
363.839	5094
363.923	3821
364.007	5872
364.091	7243
364.175	11627
364.258	42854
364.342	38083
364.426	52885
364.510	28119
364.594	11744
364.677	10868
364.761	37168
364.845	25233
364.929	8030
365.013	6733
365.096	6291
365.180	6367
365.264	11667
365.347	39803
365.431	16736
365.515	5073
365.598	2183
365.682	3377
365.766	5082
365.849	5172
365.933	2814
366.017	3926
366.100	3255
366.184	1984
366.267	3075
366.351	1713
366.435	1692
366.518	2145
366.602	1516
366.685	1271
366.769	1729
366.852	4115
366.936	6041
367.019	4147
367.103	2873
367.186	5512
367.270	2738
367.353	1676
367.436	3269
367.520	1849
367.603	2636
367.687	2699
367.770	5428
367.853	3070
367.937	10980
368.020	17710
368.104	5002
368.187	3964
368.270	5819
368.353	5458
368.437	7038
368.520	14045
368.603	8769
368.687	11433
368.770	21555
368.853	6266
368.936	5731
369.020	5069
369.103	2428
369.186	1263
369.269	2612
369.352	3557
369.436	4793
369.519	3078
369.602	1326
369.685	3248
369.768	1544
369.851	2842
369.934	1871
370.018	2024
370.101	4026
370.184	5462
370.267	3285
370.350	4448
370.433	6814
370.516	18437
370.599	24523
370.682	7275
370.765	12003
370.848	16280
370.931	26181
371.014	10496
371.097	2026
371.180	2861
371.263	2173
371.346	584
371.429	2578
371.511	2011
371.594	2587
371.677	4780
371.760	7464
371.843	6272
371.926	26963
372.009	51571
372.091	19052
372.174	12198
372.257	27271
372.340	10990
372.423	7636
372.505	8725
372.588	4339
372.671	8679
372.754	27171
372.836	13957
372.919	11489
373.002	21140
373.085	6654
373.167	5044
373.250	12056
373.332	27446
373.415	38744
373.498	71330
373.580	27278
373.663	39805
373.746	49204
373.828	11001
373.911	5967
373.993	5311
374.076	21845
374.159	19426
374.241	8701
374.324	21276
374.406	16130
374.489	24009
374.571	60071
374.654	24324
374.736	12455
374.819	38095
374.901	54414
374.983	51065
375.066	11079
375.148	5624
375.231	18317
375.313	32654
375.395	12073
375.478	3849
375.560	3439
375.643	3819
375.725	13535
375.807	46693
375.890	35495
375.972	13651
376.054	8877
376.136	13387
376.219	5155
376.301	15092
376.383	39070
376.465	14566
376.548	7891
376.630	11592
376.712	31769
376.794	14634
376.877	3103
376.959	1574
377.041	3329
377.123	4505
377.205	5592
377.287	2898
377.369	2478
377.452	1280
377.534	2169
377.616	1600
377.698	1855
377.780	1400
377.862	2423
377.944	1748
378.026	1805
378.108	1733
378.190	2220
378.272	1771
378.354	1898
378.436	1478
378.518	2432
378.600	7755
378.682	7304
378.764	14825
378.846	12416
378.928	3970
379.010	4741
379.091	3465
379.173	2152
379.255	1682
379.337	2540
379.419	7366
379.501	22860
379.583	9225
379.664	2792
379.746	5175
379.828	14734
379.910	20594
379.991	19231
380.073	4142
380.155	2840
380.237	2410
380.318	2286
380.400	1997
380.482	4277
380.564	4959
380.645	4248
380.727	4744
380.809	3591
380.890	2007
380.972	961
381.053	2207
381.135	3496
381.217	4912
381.298	15707
381.380	7665
381.461	7835
381.543	31759
381.624	38870
381.706	7510
381.787	5227
381.869	4832
381.951	17849
382.032	56813
382.113	33137
382.195	6517
382.276	5568
382.358	10109
382.439	29558
382.521	35465
382.602	51403
382.684	21639
382.765	36454
382.846	33850
382.928	36548
383.009	19407
383.090	15247
383.172	52977
383.253	80980
383.334	33670
383.416	44182
383.497	21511
383.578	8075
383.659	13790
383.741	49314
383.822	128906
383.903	65430
383.984	28002
384.066	50998
384.147	30784
384.228	7604
384.309	4605
384.390	4255
384.471	3973
384.553	3652
384.634	3879
384.715	4558
384.796	2437
384.877	4096
384.958	14335
385.039	16578
385.120	6295
385.201	4282
385.282	3389
385.363	4310
385.444	3306
385.525	7228
385.606	23179
385.687	19541
385.768	5834
385.849	7319
385.930	27946
386.011	46219
386.092	12249
386.173	4328
386.254	3109
386.335	3488
386.416	3326
386.496	10218
386.577	15519
386.658	6234
386.739	3825
386.820	4344
386.901	3189
386.981	3394
387.062	3187
387.143	4810
387.224	14198
387.304	15582
387.385	7147
387.466	3650
387.547	5474
387.627	4255
387.708	8009
387.789	27564
387.869	34264
387.950	11087
388.031	2798
388.111	1850
388.192	6388
388.273	9110
388.353	4597
388.434	3925
388.514	6949
388.595	29056
388.676	33317
388.756	16192
388.837	14181
388.917	8920
388.998	1976
389.078	3356
389.159	2667
389.239	1707
389.320	3684
389.400	2531
389.480	6575
389.561	17747
389.641	9889
389.722	3907
389.802	4690
389.883	8495
389.963	21449
390.043	13505
390.124	3761
390.204	6490
390.284	17139
390.365	11836
390.445	14390
390.525	38140
390.605	32315
390.686	10396
390.766	4696
390.846	3536
390.927	1687
391.007	2036
391.087	2644
391.167	3069
391.247	2070
391.328	4376
391.408	5620
391.488	5563
391.568	1455
391.648	3565
391.728	3902
391.808	4712
391.888	4010
391.969	9682
392.049	15304
392.129	8140
392.209	7702
392.289	20868
392.369	12413
392.449	10355
392.529	6562
392.609	6462
392.689	8795
392.769	21121
392.849	20208
392.929	15723
393.009	30846
393.089	27457
393.169	30705
393.248	97188
393.328	322325
393.408	327140
393.488	102385
393.568	31308
393.648	15859
393.728	10733
393.807	6754
393.887	7491
393.967	6706
394.047	6933
394.127	7453
394.206	11924
394.286	42486
394.366	168726
394.446	174316
394.525	45652
394.605	12806
394.685	8901
394.764	14209
394.844	24186
394.924	17806
395.003	7363
395.083	4670
395.163	4670
395.242	3997
395.322	5038
395.402	3505
395.481	6677
395.561	9836
395.640	26893
395.720	25473
395.799	32848
395.879	24998
395.958	18567
396.038	60593
396.117	217926
396.197	227622
396.276	73659
396.356	23530
396.435	17342
396.515	13199
396.594	13617
396.673	26999
396.753	101135
396.832	293404
396.912	207365
396.991	51878
397.070	16749
397.150	8473
397.229	8005
397.308	9786
397.388	19363
397.467	10784
397.546	5011
397.625	2357
397.705	4619
397.784	4273
397.863	2875
397.942	2621
398.022	3421
398.101	8462
398.180	24779
398.259	12532
398.338	4216
398.417	1977
398.497	2607
398.576	2591
398.655	1425
398.734	1991
398.813	3122
398.892	8876
398.971	26334
399.050	12131
399.129	2519
399.208	1213
399.287	2760
399.366	1100
399.445	1544
399.524	2312
399.603	989
399.682	2528
399.761	7979
399.840	29091
399.919	22513
399.998	3917
400.077	919
400.156	-224
400.235	3020
400.313	1733
400.392	1285
400.471	7362
400.550	12338
400.629	3315
400.708	1632
400.786	1731
400.865	5482
400.944	4769
401.023	3470
401.102	751
401.180	1262
401.259	1256
401.338	1418
401.416	1992
401.495	1034
401.574	1936
401.652	1598
401.731	2014
401.810	1589
401.888	1203
401.967	392
402.046	256
402.124	1928
402.203	1374
402.281	2114
402.360	1474
402.438	6787
402.517	3953
402.596	2756
402.674	1687
402.753	1386
402.831	1259
402.910	2214
402.988	5466
403.066	18652
403.145	12634
403.223	7319
403.302	15686
403.380	13031
403.459	11606
403.537	4886
403.615	2297
403.694	323
403.772	1709
403.850	1102
403.929	1124
404.007	1473
404.085	3000
404.164	2140
404.242	2647
404.320	8683
404.398	29860
404.477	34778
404.555	47327
404.633	41872
404.711	25304
404.789	17898
404.868	4144
404.946	2484
405.024	1282
405.102	872
405.180	131
405.258	217
405.336	1608
405.415	1138
405.493	2709
405.571	2988
405.649	599
405.727	195
405.805	2426
405.883	1823
405.961	1806
406.039	1092
406.117	-126
406.195	2484
406.273	7474
406.351	34377
406.429	21644
406.507	3518
406.585	1442
406.663	1643
406.740	1674
406.818	1839
406.896	1053
406.974	1606
407.052	3312
407.130	19290
407.208	28136
407.285	6093
407.363	923
407.441	1523
407.519	992
407.596	2239
407.674	6895
407.752	26917
407.830	23647
407.907	6403
407.985	1250
408.063	1632
408.141	264
408.218	2459
408.296	1249
408.373	860
408.451	1926
408.529	1766
408.606	1172
408.684	845
408.762	811
408.839	512
408.917	654
408.994	2040
409.072	921
409.149	1226
409.227	2819
409.304	2667
409.382	2934
409.459	2628
409.537	3942
409.614	4073
409.692	3107
409.769	2498
409.846	4361
409.924	5574
410.001	2813
410.079	2389
410.156	2379
410.233	2062
410.311	1498
410.388	1276
410.465	1593
410.543	1297
410.620	1923
410.697	2068
410.775	1137
410.852	389
410.929	1383
411.006	2999
411.083	788
411.161	2428
411.238	3283
411.315	1946
411.392	973
411.469	1483
411.547	1622
411.624	672
411.701	481
411.778	1181
411.855	1961
411.932	1122
412.009	1115
412.086	798
412.163	1259
412.240	244
412.317	1485
412.394	1044
412.471	1052
412.548	755
412.625	15
412.702	1175
412.779	2255
412.856	1702
412.933	336
413.010	695
413.087	1877
413.164	6489
413.241	10760
413.318	1816
413.395	2032
413.471	1514
413.548	1539
413.625	1832
413.702	796
413.779	56
413.855	729
413.932	318
414.009	263
414.086	466
414.162	1740
414.239	1685
414.316	6067
414.393	16088
414.469	5230
414.546	1374
414.623	405
414.699	413
414.776	399
414.853	54
414.929	715
415.006	102
415.082	1113
415.159	291
415.236	1037
415.312	1447
415.389	1052
415.465	2212
415.542	1551
415.618	431
415.695	1399
415.771	406
415.848	292
415.924	1219
416.000	551
416.077	1405
416.153	-801
416.230	-612
416.306	367
416.383	382
416.459	-141
416.535	-382
416.612	372
416.688	614
416.764	-237
416.841	419
416.917	655
416.993	1671
417.069	455
417.146	1198
417.222	1442
417.298	1342
417.374	171
417.451	398
417.527	1067
417.603	327
417.679	1025
417.755	696
417.831	-190
417.908	-154
417.984	348
418.060	-78
418.136	1083
418.212	1784
418.288	980
418.364	864
418.440	-155
418.516	1626
418.592	989
418.668	3113
418.744	4060
418.820	4004
418.896	1001
418.972	-22
419.048	315
419.124	2011
419.200	637
419.276	929
419.352	-567
419.428	676
419.504	-217
419.579	1164
419.655	-48
419.731	405
419.807	2951
419.883	4119
419.959	4034
420.034	1360
420.110	2211
420.186	9789
420.262	7847
420.337	2231
420.413	1302
420.489	996
420.565	1514
420.640	509
420.716	1513
420.792	327
420.867	1625
420.943	1239
421.019	1994
421.094	1968
421.170	1494
421.245	1338
421.321	1382
421.397	1431
421.472	5555
421.548	16468
421.623	11287
421.699	4808
421.774	3400
421.850	2898
421.925	5133
422.001	5081
422.076	5423
422.152	6866
422.227	9151
422.302	13032
422.378	18195
422.453	32952
422.529	72520
422.604	175943
422.679	241667
422.755	181236
422.830	95071
422.905	43527
422.981	24196
423.056	15788
423.131	12219
423.207	9139
423.282	6882
423.357	6776
423.432	6056
423.508	5696
423.583	6281
423.658	6254
423.733	2923
423.808	3948
423.883	3910
423.959	3176
424.034	2295
424.109	3586
424.184	1454
424.259	2061
424.334	1913
424.409	1273
424.484	1180
424.559	1233
424.634	436
424.709	2088
424.784	2056
424.859	1486
424.934	1178
425.009	6722
425.084	11711
425.159	5127
425.234	2035
425.309	1177
425.384	2961
425.459	5024
425.534	1638
425.609	642
425.683	905
425.758	1323
425.833	1076
425.908	1623
425.983	3281
426.058	10930
426.132	5671
426.207	903
426.282	2053
426.357	1761
426.431	407
426.506	1511
426.581	810
426.655	1263
426.730	1041
426.805	114
426.879	1177
426.954	605
427.029	1370
427.103	11676
427.178	30051
427.253	16206
427.327	2419
427.402	1944
427.476	5762
427.551	3353
427.625	1298
427.700	1953
427.774	644
427.849	1419
427.923	471
427.998	773
428.072	1070
428.147	3223
428.221	14371
428.296	52775
428.370	34026
428.444	5491
428.519	3458
428.593	5245
428.667	4320
428.742	5868
428.816	7202
428.890	29463
428.965	56101
429.039	19284
429.113	6778
429.188	3177
429.262	678
429.336	1814
429.410	5449
429.485	4546
429.559	4688
429.633	4170
429.707	2027
429.781	5245
429.855	30008
429.930	54046
430.004	25721
430.078	26175
430.152	30315
430.226	69344
430.300	79179
430.374	17993
430.448	4719
430.522	9114
430.596	24987
430.670	20393
430.744	46995
430.818	74285
430.892	18172
430.966	2885
431.040	1754
431.114	319
431.188	536
431.262	772
431.336	829
431.410	3180
431.484	5976
431.557	5540
431.631	1362
431.705	2558
431.779	9559
431.853	47392
431.927	41660
432.000	7263
432.074	1533
432.148	1210
432.222	1000
432.295	1297
432.369	969
432.443	1379
432.516	10595
432.590	32717
432.664	15079
432.737	2012
432.811	625
432.885	-143
432.958	740
433.032	705
433.106	176
433.179	462
433.253	76
433.326	745
433.400	-81
433.473	725
433.547	-286
433.620	523
433.694	1171
433.767	1707
433.841	-39
433.914	583
433.988	-449
434.061	754
434.134	114
434.208	739
434.281	-346
434.355	-744
434.428	-80
434.501	385
434.575	-674
434.648	-145
434.721	-157
434.795	115
434.868	69
434.941	304
435.014	-537
435.088	12
435.161	943
435.234	1097
435.307	1742
435.381	1364
435.454	1260
435.527	1793
435.600	2082
435.673	2156
435.746	1415
435.819	1427
435.892	1088
435.966	763
436.039	499
436.112	1558
436.185	552
436.258	194
436.331	-616
436.404	526
436.477	296
436.550	314
436.623	452
436.696	486
436.769	285
436.842	533
436.915	-74
436.987	514
437.060	47
437.133	350
437.206	-648
437.279	859
437.352	708
437.425	358
437.498	348
437.570	1689
437.643	1540
437.716	1331
437.789	303
437.861	272
437.934	3272
438.007	2847
438.080	-162
438.152	779
438.225	1862
438.298	15981
438.370	50781
438.443	26680
438.516	5074
438.588	794
438.661	60
438.734	891
438.806	328
438.879	1303
438.951	452
439.024	1227
439.096	1539
439.169	372
439.241	44
439.314	-612
439.386	1304
439.459	1697
439.531	1953
439.604	659
439.676	372
439.749	76
439.821	137
439.893	356
439.966	786
440.038	487
440.110	307
440.183	322
440.255	-158
440.327	1402
440.400	6796
440.472	27896
440.544	25373
440.617	4582
440.689	2350
440.761	1859
440.833	3531
440.905	2176
440.978	1044
441.050	938
441.122	897
441.194	-72
441.266	-27
441.338	524
441.411	1824
441.483	7043
441.555	14280
441.627	5159
441.699	2245
441.771	1551
441.843	881
441.915	134
441.987	426
442.059	331
442.131	1441
442.203	2341
442.275	2582
442.347	3487
442.419	5167
442.491	25713
442.563	79079
442.635	53412
442.706	15231
442.778	10285
442.850	3343
442.922	1948
442.994	2120
443.066	3271
443.137	3140
443.209	3560
443.281	4542
443.353	9506
443.425	33968
443.496	124420
443.568	156605
443.640	82137
443.711	20975
443.783	6638
443.855	3213
443.926	2357
443.998	1610
444.070	3066
444.141	1652
444.213	2488
444.285	2528
444.356	1915
444.428	2483
444.499	1668
444.571	851
444.642	1717
444.714	1594
444.785	1805
444.857	2957
444.928	6427
445.000	4978
445.071	4955
445.143	6645
445.214	6056
445.285	8887
445.357	23740
445.428	78310
445.500	196701
445.571	159634
445.642	99898
445.714	43065
445.785	20361
445.856	8260
445.928	4506
445.999	2885
446.070	2647
446.141	2580
446.213	3707
446.284	1618
446.355	2113
446.426	1310
446.497	1108
446.569	1507
446.640	2911
446.711	2380
446.782	1223
446.853	1902
446.924	1590
446.995	1318
447.066	1213
447.138	1832
447.209	2005
447.280	-472
447.351	328
447.422	-24
447.493	714
447.564	946
447.635	806
447.706	1478
447.777	969
447.847	565
447.918	664
447.989	1145
448.060	1599
448.131	3402
448.202	4452
448.273	2220
448.344	1895
448.414	373
448.485	761
448.556	917
448.627	-52
448.698	1212
448.768	158
448.839	197
448.910	1401
448.981	2145
449.051	1909
449.122	550
449.193	923
449.263	446
449.334	340
449.405	561
449.475	3255
449.546	2878
449.616	3097
449.687	2646
449.758	1322
449.828	1089
449.899	756
449.969	739
450.040	562
450.110	1094
450.181	970
450.251	-493
450.322	842
450.392	1257
450.463	614
450.533	947
450.604	949
450.674	295
450.744	1317
450.815	1547
450.885	1387
450.955	604
451.026	706
451.096	672
451.166	1433
451.237	1973
451.307	6673
451.377	4446
451.447	1353
451.518	429
451.588	1016
451.658	602
451.728	1508
451.799	6073
451.869	10411
451.939	4145
452.009	1208
452.079	1231
452.149	1283
452.219	1325
452.289	7793
452.360	8112
452.430	3399
452.500	1805
452.570	2338
452.640	4105
452.710	9578
452.780	15759
452.850	12834
452.920	8945
452.990	5309
453.060	2592
453.129	2125
453.199	3379
453.269	8836
453.339	25383
453.409	41980
453.479	31709
453.549	47066
453.619	53244
453.688	29999
453.758	6365
453.828	1785
453.898	1319
453.968	591
454.037	1120
454.087	1222
454.107	1246
454.168	322
454.177	166
454.247	810
454.249	814
454.316	480
454.330	730
454.386	1616
454.411	2339
454.456	3096
454.492	5749
454.525	8033
454.574	4914
454.595	3610
454.655	1668
454.665	1381
454.734	1934
454.736	2025
454.804	3833
454.817	4931
454.873	8335
454.898	9725
454.943	11433
454.979	8238
455.013	5593
455.060	3343
455.082	2652
455.141	3933
455.152	4150
455.221	7459
455.222	7690
455.291	17387
455.303	18558
455.360	22244
455.384	29084
455.430	36439
455.465	31400
455.499	27315
455.546	16710
455.569	11712
455.627	8498
455.638	8067
455.707	2254
455.708	2267
455.777	1651
455.789	1806
455.846	2322
455.869	2119
455.916	1728
455.950	1913
455.985	2097
456.031	1744
456.054	1453
456.112	1882
456.124	2014
456.193	2401
456.193	2384
456.262	1961
456.274	2221
456.332	3399
456.355	3346
456.401	2545
456.436	2709
456.470	2836
456.516	1708
456.540	1312
456.597	1146
456.609	1049
456.678	2261
456.678	2254
456.747	1680
456.759	1656
456.817	1525
456.840	1551
456.886	1437
456.920	1548
456.955	1646
457.001	2178
457.024	2626
457.082	2986
457.093	3114
457.162	4800
457.163	4837
457.232	4596
457.243	4628
457.301	3784
457.324	2910
457.370	2024
457.405	2189
457.439	2446
457.485	2133
457.508	2038
457.566	3049
457.577	3279
457.646	4065
457.647	4100
457.715	7782
457.727	8499
457.784	14488
457.808	18318
457.853	23246
457.889	28592
457.922	27984
457.969	22215
457.991	23921
458.050	24411
458.060	25103
458.129	38756
458.130	39302
458.198	41259
458.211	40026
458.267	30132
458.292	21451
458.336	14124
458.372	11796
458.405	13272
458.453	17554
458.474	22122
458.533	39473
458.543	41410
458.611	65257
458.614	66233
458.680	50101
458.694	42130
458.749	25755
458.775	18001
458.818	10202
458.855	7918
458.887	6539
458.936	5474
458.955	5006
459.016	4423
459.024	4311
459.093	4237
459.097	4221
459.162	4386
459.177	4401
459.230	4374
459.257	4576
459.299	4611
459.338	4751
459.368	5002
459.418	5045
459.437	4694
459.499	3802
459.505	3833
459.574	3711
459.579	3737
459.643	3595
459.659	3598
459.711	3628
459.740	3654
459.780	4054
459.820	4374
459.849	4451
459.900	4771
459.917	4792
459.981	4790
459.986	4776
460.054	4907
460.061	4898
460.123	4933
460.141	4895
460.191	5326
460.222	5677
460.260	6000
460.302	7011
460.328	6938
460.382	6336
460.397	6552
460.462	6673
460.465	6796
460.534	10460
460.543	11013
460.602	33179
460.623	41380
460.671	68943
460.703	92933
460.739	88440
460.783	82549
460.808	70764
460.864	20713
460.876	17616
460.944	6281
460.945	6156
461.013	5158
461.024	5045
461.081	5441
461.104	5771
461.150	5361
461.184	4857
461.218	4815
461.264	4899
461.286	4839
461.345	4704
461.355	4709
461.423	4421
461.425	4420
461.491	4881
461.505	5093
461.559	8197
461.585	9355
461.628	15435
461.665	21401
461.696	24881
461.745	31646
461.764	26908
461.825	9227
461.832	9076
461.901	5834
461.905	5746
461.969	5243
461.985	5170
462.037	5079
462.065	5004
462.105	5345
462.145	5681
462.173	7924
462.225	12226
462.241	13711
462.305	20352
462.310	19832
462.378	11242
462.385	10200
462.446	6762
462.465	5563
462.514	5375
462.545	5534
462.582	5258
462.625	5112
462.650	4992
462.705	4391
462.718	4513
462.785	5385
462.786	5422
462.854	7408
462.865	7760
462.922	10171
462.945	11272
462.990	8706
463.025	6296
463.058	5678
463.104	4803
463.126	4584
463.184	4240
463.194	4445
463.262	5525
463.264	5574
463.330	5287
463.344	5199
463.398	5401
463.424	5510
463.466	5702
463.504	5930
463.533	6005
463.583	5781
463.601	5992
463.663	6939
463.669	7098
463.737	8993
463.743	9156
463.805	12914
463.823	14037
463.873	21854
463.903	26526
463.940	28947
463.982	32377
464.008	26201
464.062	11816
464.076	10904
464.142	5637
464.144	5627
464.211	5844
464.221	5931
464.279	5672
464.301	5549
464.347	6305
464.381	6914
464.414	7561
464.461	8400
464.482	8785
464.540	9745
464.550	9358
464.617	6799
464.620	6691
464.685	7792
464.699	8080
464.753	10204
464.779	11194
464.820	12180
464.859	13210
464.888	12785
464.938	11802
464.956	12092
465.018	13099
465.023	12863
465.091	9565
465.098	9212
465.158	8783
465.177	8651
465.226	9423
465.257	9919
465.293	9821
465.336	9637
465.361	10375
465.416	11976
465.428	12556
465.495	15704
465.496	15790
465.563	25525
465.575	27223
465.631	35256
465.654	38750
465.698	25495
465.734	14160
465.765	12397
465.813	9244
465.833	9077
465.893	9143
465.900	9199
465.968	9600
465.972	9614
466.035	9370
466.052	9264
466.102	9471
466.131	9624
466.170	9822
466.210	9949
466.237	10100
466.290	10468
466.304	10698
466.369	11413
466.372	11458
466.439	12465
466.449	12567
466.506	13118
466.528	13314
466.573	16863
466.607	19506
466.641	27500
466.687	38524
466.708	43366
466.766	56634
466.775	52749
466.842	22847
466.845	21383
466.909	15549
466.925	14152
466.977	13519
467.004	13215
467.044	13362
467.083	13466
467.111	14521
467.163	16437
467.178	17284
467.242	20705
467.245	20632
467.312	18383
467.321	18056
467.379	16929
467.400	16471
467.446	17870
467.480	18829
467.559	17249
467.638	14791
467.717	13571
467.796	15633
467.875	17934
467.955	16858
468.034	20669
468.113	44032
468.192	69711
468.271	25251
468.350	17737
468.429	20985
468.508	21149
468.588	17232
468.667	14702
468.746	15121
468.825	14506
468.904	13154
468.983	13696
469.062	20577
469.141	25851
469.220	13493
469.299	11459
469.378	13454
469.456	16262
469.535	15193
469.614	13801
469.693	13788
469.772	17218
469.851	22501
469.930	18259
470.009	13057
470.088	12507
470.166	13761
470.245	16622
470.324	20710
470.403	16689
470.482	13559
470.560	12492
470.639	12265
470.718	15061
470.797	12484
470.875	14153
470.954	18694
471.033	22106
471.111	11382
471.190	10453
471.269	9629
471.347	10671
471.426	10105
471.505	12305
471.583	14197
471.662	13765
471.740	11806
471.819	11864
471.898	11759
471.976	10967
472.055	10892
472.133	13196
472.212	16758
472.290	16934
472.369	12537
472.447	10294
472.526	10631
472.604	10182
472.683	11302
472.761	12034
472.839	10456
472.918	10759
472.996	10962
473.075	12029
473.153	12401
473.231	9962
473.310	12025
473.388	12800
473.466	11692
473.545	12607
473.623	16039
473.701	15629
473.780	11367
473.858	10055
473.936	12220
474.014	11378
474.093	12644
474.171	18548
474.249	24232
474.327	17597
474.405	10299
474.484	10177
474.562	9741
474.640	10201
474.718	10315
474.796	10905
474.874	9841
474.952	10102
475.030	8313
475.108	9459
475.187	11763
475.265	11498
475.343	13478
475.421	15185
475.499	10447
475.577	11492
475.655	13704
475.733	25633
475.811	44580
475.889	43204
475.966	31975
476.044	9969
476.122	10458
476.200	13259
476.278	11679
476.356	8756
476.434	9611
476.512	10266
476.590	13273
476.667	13007
476.745	7767
476.823	9584
476.901	8398
476.979	10637
477.056	9536
477.134	9502
477.212	10298
477.290	9024
477.367	8554
477.445	9108
477.523	7977
477.601	7726
477.678	7951
477.756	10663
477.834	12565
477.911	9030
477.989	8557
478.066	8352
478.144	9877
478.222	10209
478.299	12884
478.377	14874
478.454	8882
478.532	7597
478.609	8280
478.687	8674
478.764	7075
478.842	8604
478.919	9324
478.997	8644
479.074	7339
479.152	9540
479.229	13174
479.307	8512
479.384	7030
479.461	7766
479.539	7648
479.616	10379
479.694	7061
479.771	8927
479.848	9414
479.926	12512
480.003	14459
480.080	8157
480.157	7128
480.235	8267
480.312	8119
480.389	8606
480.467	13799
480.544	19982
480.621	10921
480.698	8553
480.775	9370
480.853	10776
480.930	9003
481.007	8745
481.084	11661
481.161	15198
481.238	12905
481.315	7801
481.392	6904
481.470	7505
481.547	8222
481.624	7583
481.701	7237
481.778	7851
481.855	9601
481.932	13328
482.009	23023
482.086	18392
482.163	9405
482.240	11451
482.317	16532
482.393	15044
482.470	8817
482.547	9891
482.624	9173
482.701	8277
482.778	8044
482.855	6589
482.932	8131
483.009	7168
483.085	9373
483.162	12714
483.239	12928
483.316	9371
483.393	9797
483.469	9485
483.546	10043
483.623	10847
483.699	8823
483.776	8375
483.853	9808
483.930	13460
484.006	33059
484.083	63067
484.160	35063
484.236	49271
484.313	39902
484.389	29080
484.466	25822
484.543	25758
484.619	26019
484.696	27872
484.772	26571
484.849	28459
484.925	23677
485.002	22102
485.078	23474
485.155	23505
485.231	22189
485.308	21678
485.384	21325
485.461	25770
485.537	40154
485.614	51091
485.690	22971
485.766	20877
485.843	20352
485.919	26570
485.995	29636
486.072	19331
486.148	18364
486.224	18760
486.301	19170
486.377	22242
486.453	21140
486.530	21466
486.606	28250
486.682	33017
486.758	37430
486.835	44290
486.911	32940
486.987	51196
487.063	51927
487.139	61109
487.215	48821
487.292	29186
487.368	24728
487.444	26329
487.520	31498
487.596	37001
487.672	53956
487.748	135549
487.824	240109
487.900	100940
487.976	34336
488.052	26126
488.128	27525
488.204	24114
488.280	21729
488.356	25369
488.432	42575
488.508	72080
488.584	28090
488.660	19172
488.736	18804
488.812	18489
488.888	24244
488.964	28373
489.039	50072
489.115	82402
489.191	56287
489.267	20931
489.343	17496
489.418	15673
489.494	15565
489.570	14378
489.646	16066
489.722	15615
489.797	16864
489.873	22746
489.949	50464
490.024	48596
490.100	15874
490.176	15417
490.251	17176
490.327	22961
490.403	15493
490.478	13513
490.554	12959
490.629	13683
490.705	11802
490.781	14528
490.856	13699
490.932	16125
491.007	15569
491.083	16314
491.158	13599
491.234	16160
491.309	36768
491.385	42326
491.460	14911
491.536	15446
491.611	14312
491.686	14522
491.762	19265
491.837	32469
491.913	56483
491.988	74425
492.063	104983
492.139	34059
492.214	21727
492.289	11812
492.365	11980
492.440	13527
492.515	13089
492.590	13793
492.666	10896
492.741	15107
492.816	22763
492.891	15097
492.967	13061
493.042	10873
493.117	13504
493.192	15884
493.267	26323
493.342	92499
493.418	159664
493.493	29083
493.568	10834
493.643	9650
493.718	12855
493.793	17772
493.868	20695
493.943	13697
494.018	10308
494.093	9432
494.168	10188
494.243	8853
494.318	8634
494.393	8324
494.468	8747
494.543	8927
494.618	10175
494.693	8930
494.768	8122
494.842	10577
494.917	8115
494.992	8825
495.067	8041
495.142	7814
495.217	9044
495.292	8828
495.366	10729
495.441	12130
495.516	15768
495.591	20710
495.665	57713
495.740	160703
495.815	78256
495.890	15289
495.964	10577
496.039	11654
496.114	11175
496.188	16511
496.263	15530
496.338	10367
496.412	12136
496.487	14262
496.561	14062
496.636	15999
496.710	11665
496.785	13587
496.860	15902
496.934	12629
497.009	12448
497.083	12748
497.158	12889
497.232	14455
497.307	17794
497.381	14743
497.455	17073
497.530	24822
497.604	18951
497.679	18358
497.753	28631
497.827	38718
497.902	36663
497.976	41744
498.050	76898
498.125	307636
498.199	384300
498.273	60489
498.348	39894
498.422	33311
498.496	29728
498.570	27796
498.645	21406
498.719	21912
498.793	25657
498.867	36029
498.941	45335
499.016	111102
499.090	356907
499.164	151470
499.238	17141
499.312	13645
499.386	15350
499.460	15629
499.534	14504
499.609	17135
499.683	26205
499.757	27527
499.831	46893
499.905	209461
499.979	244653
500.053	34445
500.127	31132
500.201	22876
500.275	14738
500.349	14246
500.422	15922
500.496	22229
500.570	42910
500.644	104347
500.718	244893
500.792	63277
500.866	13788
500.940	17146
501.013	15959
501.087	14614
501.161	22724
501.235	30537
501.309	61315
501.382	184111
501.456	194599
501.530	37380
501.603	62643
501.677	28356
501.751	11000
501.825	14299
501.898	22060
501.972	72974
502.046	56371
502.119	14677
502.193	28697
502.266	83019
502.340	45661
502.413	30689
502.487	71800
502.561	45635
502.634	15597
502.708	10534
502.781	9325
502.855	8536
502.928	6506
503.002	7271
503.075	6761
503.149	8959
503.222	9247
503.295	9725
503.369	13161
503.442	17046
503.516	48477
503.589	147540
503.662	106143
503.736	29847
503.809	65312
503.882	60090
503.956	74405
504.029	87108
504.102	72898
504.175	113932
504.249	49633
504.322	21666
504.395	16091
504.468	11067
504.542	8743
504.615	6892
504.688	7036
504.761	6211
504.834	9167
504.907	9524
504.980	15289
505.053	8233
505.127	8885
505.200	11979
505.273	12330
505.346	9094
505.419	7105
505.492	6359
505.565	5791
505.638	5154
505.711	5723
505.784	4385
505.857	5240
505.930	6550
506.003	5216
506.076	7370
506.149	9084
506.221	12595
506.294	11182
506.367	22716
506.440	93956
506.513	61860
506.586	12895
506.659	7564
506.731	5464
506.804	7264
506.877	10538
506.950	8247
507.022	6133
507.095	7381
507.168	11398
507.241	7213
507.313	4823
507.386	6020
507.459	9729
507.531	7433
507.604	3832
507.677	5424
507.749	4055
507.822	6575
507.894	14757
507.967	20380
508.040	11704
508.112	10396
508.185	9208
508.257	8596
508.330	11647
508.402	8827
508.475	7863
508.547	9197
508.620	9152
508.692	14259
508.765	10458
508.837	6790
508.909	7337
508.982	7558
509.054	7957
509.127	7558
509.199	6813
509.271	6543
509.344	5085
509.416	6471
509.488	7356
509.560	6821
509.633	7564
509.705	8787
509.777	8487
509.849	11574
509.922	8568
509.994	8353
510.066	7424
510.138	7632
510.210	17158
510.283	17426
510.355	13212
510.427	11478
510.499	10353
510.571	10172
510.643	10138
510.715	14271
510.787	12488
510.859	10140
510.931	11584
511.003	12894
511.076	14348
511.148	8712
511.219	9718
511.291	14409
511.363	18227
511.435	9426
511.507	8276
511.579	8278
511.651	8505
511.723	8526
511.795	7918
511.867	7922
511.939	10561
512.010	20240
512.082	18698
512.154	9550
512.226	9371
512.298	12096
512.369	20093
512.441	16200
512.513	14308
512.585	11810
512.656	12461
512.728	12270
512.800	9897
512.871	10495
512.943	9184
513.015	8166
513.086	10312
513.158	11243
513.230	10904
513.301	14472
513.373	16927
513.444	11165
513.516	8628
513.588	9202
513.659	9465
513.731	12185
513.802	10846
513.874	16926
513.945	33376
514.016	14291
514.088	8599
514.159	9215
514.231	11930
514.302	17704
514.374	12992
514.445	12698
514.516	23339
514.588	19129
514.659	12190
514.730	19999
514.802	17665
514.873	12426
514.944	14717
515.016	12703
515.087	12613
515.158	14967
515.229	22803
515.301	13579
515.372	19019
515.443	13917
515.514	10964
515.585	10029
515.656	9346
515.728	8335
515.799	8972
515.870	9605
515.941	8850
516.012	9486
516.083	13018
516.154	14279
516.225	17193
516.296	15646
516.367	13295
516.438	15126
516.509	18105
516.580	22990
516.651	51572
516.722	204538
516.793	117855
516.864	26362
516.935	25219
517.006	28122
517.077	34458
517.148	62882
517.219	197542
517.289	404125
517.360	134798
517.431	51687
517.502	15158
517.573	14014
517.643	13166
517.714	14733
517.785	15236
517.856	14520
517.926	19409
517.997	22119
518.068	26206
518.138	34803
518.209	44807
518.280	130637
518.350	575266
518.421	276508
518.492	37082
518.562	24541
518.633	26657
518.703	28691
518.774	50705
518.845	122047
518.915	137583
518.986	47107
519.056	27620
519.127	33372
519.197	45274
519.268	101017
519.338	79255
519.408	18842
519.479	19869
519.549	16195
519.620	12081
519.690	9816
519.760	9063
519.831	9201
519.901	8846
519.971	8481
520.042	9330
520.112	9875
520.182	10554
520.253	11929
520.323	9665
520.393	10838
520.463	16937
520.534	10398
520.604	23266
520.674	13833
520.744	13066
520.814	23405
520.885	25260
520.955	27864
521.025	118441
521.095	59566
521.165	11370
521.235	9749
521.305	8449
521.375	7722
521.445	8609
521.515	11106
521.585	11892
521.655	11383
521.725	10674
521.795	10705
521.865	6955
521.935	12074
522.005	11323
522.075	7663
522.145	8643
522.215	9592
522.285	14167
522.355	17007
522.424	32874
522.494	31660
522.564	15229
522.634	22338
522.704	65743
522.774	30736
522.843	10138
522.913	9340
522.983	11045
523.053	8335
523.122	9089
523.192	10796
523.262	33969
523.331	41853
523.401	9969
523.471	6806
523.540	8429
523.610	6338
523.680	5280
523.749	6585
523.819	8999
523.888	9076
523.958	5713
524.027	6473
524.097	7819
524.166	6512
524.236	6860
524.305	8275
524.375	6147
524.444	5613
524.514	8578
524.583	7251
524.653	9080
524.722	10503
524.791	7601
524.861	7358
524.930	5750
524.999	7085
525.069	9673
525.138	7235
525.207	10495
525.277	8530
525.346	7626
525.415	7398
525.484	7639
525.554	9584
525.623	10880
525.692	11745
525.761	11750
525.830	14752
525.900	18622
525.969	27523
526.038	45758
526.107	77608
526.176	258178
526.245	250187
526.314	73697
526.383	124146
526.452	195990
526.522	274222
526.591	348232
526.660	77995
526.729	43809
526.797	43611
526.867	65550
526.935	235615
527.004	594906
527.073	440174
527.142	47529
527.211	18908
527.280	14695
527.349	13716
527.418	8262
527.487	8397
527.555	7261
527.624	6652
527.693	4944
527.762	7295
527.831	5822
527.899	7418
527.968	6640
528.037	5379
528.106	7197
528.174	12499
528.243	11052
528.312	13587
528.380	21582
528.449	7740
528.518	7014
528.586	4474
528.655	5661
528.723	4652
528.792	4008
528.861	5723
528.929	5047
528.998	5942
529.066	5050
529.135	6854
529.203	5770
529.272	6878
529.340	10765
529.409	10190
529.477	8620
529.545	9145
529.614	12600
529.682	10163
529.751	14636
529.819	14640
529.887	13468
529.956	11570
530.024	12070
530.092	9520
530.161	11972
530.229	15120
530.297	11551
530.365	11618
530.434	10662
530.502	9912
530.570	10866
530.638	8389
530.707	9805
530.775	9734
530.843	8512
530.911	10718
530.979	9165
531.047	10836
531.115	10909
531.183	10017
531.252	9128
531.320	10068
531.388	8514
531.456	10488
531.524	8989
531.592	10622
531.660	13515
531.728	11266
531.796	10210
531.864	10102
531.932	11603
532.000	10731
532.067	11297
532.135	13267
532.203	13746
532.271	14106
532.339	19028
532.407	35907
532.475	27146
532.542	17430
532.610	15936
532.678	17512
532.746	43795
532.814	128417
532.881	42252
532.949	14658
533.017	13384
533.084	12752
533.152	11476
533.220	10577
533.287	11565
533.355	11147
533.423	11916
533.490	11693
533.558	11668
533.625	11872
533.693	12460
533.761	11953
533.828	12202
533.896	11127
533.963	17457
534.031	20680
534.098	24510
534.166	16276
534.233	10964
534.300	13657
534.368	13129
534.435	13037
534.503	13022
534.570	13978
534.637	14843
534.705	16649
534.772	19066
534.840	25913
534.907	104770
534.974	176194
535.041	26506
535.109	16276
535.176	11224
535.243	10563
535.310	10037
535.378	9813
535.445	9487
535.512	9434
535.579	9712
535.646	8813
535.714	9191
535.781	10755
535.848	10362
535.915	11309
535.982	10984
536.049	11719
536.116	11851
536.183	10507
536.250	10013
536.317	10262
536.384	10976
536.451	13194
536.518	15238
536.585	10706
536.652	13269
536.719	16983
536.786	14100
536.853	11385
536.920	15285
536.987	21601
537.053	19646
537.120	54670
537.187	59964
537.254	11507
537.321	9312
537.388	10832
537.454	8194
537.521	7783
537.588	8071
537.654	9377
537.721	11367
537.788	10723
537.855	9196
537.921	9609
537.988	9261
538.055	9434
538.121	9320
538.188	9141
538.254	11885
538.321	21752
538.388	15983
538.454	9757
538.521	9042
538.587	9359
538.654	8090
538.720	7657
538.787	7375
538.853	9220
538.920	10024
538.986	10269
539.053	8984
539.119	8813
539.185	8777
539.252	10442
539.318	13652
539.385	12592
539.451	10927
539.517	11258
539.583	11300
539.650	17680
539.716	46062
539.782	17732
539.849	8401
539.915	9436
539.981	8681
540.047	11722
540.114	10330
540.180	10593
540.246	10345
540.312	12744
540.378	20528
540.444	22410
540.510	17753
540.576	49845
540.643	21365
540.709	8606
540.775	8842
540.841	8971
540.907	10464
540.973	16622
541.039	14709
541.105	15065
541.171	9655
541.237	9634
541.303	9838
541.369	11588
541.435	12588
541.500	19219
541.566	12917
541.632	8392
541.698	8498
541.764	8810
541.830	8054
541.896	6765
541.961	8402
542.027	8077
542.093	9206
542.159	9415
542.224	9482
542.290	13636
542.356	18127
542.421	22436
542.487	11913
542.553	9285
542.618	9434
542.684	9609
542.750	8574
542.815	9663
542.881	15067
542.947	39479
543.012	37172
543.078	9342
543.143	7934
543.209	9309
543.274	8217
543.340	10699
543.405	15967
543.471	28211
543.536	9862
543.602	9111
543.667	7838
543.732	9738
543.798	7633
543.863	8250
543.928	8158
543.994	7552
544.059	8847
544.124	7916
544.190	7932
544.255	8851
544.320	8225
544.386	8891
544.451	13010
544.516	13575
544.581	11544
544.646	26547
544.712	46384
544.777	13255
544.842	10879
544.907	10666
544.972	9410
545.037	9546
545.102	10960
545.168	10432
545.233	10715
545.298	11468
545.363	13185
545.428	13703
545.493	17622
545.558	36716
545.623	21193
545.688	10528
545.753	11282
545.818	9209
545.883	12006
545.947	11898
546.012	12166
546.077	12407
546.142	13248
546.207	12421
546.272	15617
546.337	15652
546.401	14032
546.466	14025
546.531	13063
546.596	14256
546.661	14784
546.725	14930
546.790	15834
546.855	15830
546.919	15507
546.984	18721
547.049	18685
547.113	22924
547.178	22713
547.243	27794
547.307	29213
547.372	34258
547.436	36462
547.501	32783
547.565	37317
547.630	36577
547.695	35315
547.759	36296
547.823	35208
547.888	33346
547.952	34526
548.017	36260
548.081	40316
548.146	41867
548.210	39637
548.274	38710
548.339	37814
548.403	34989
548.468	33004
548.532	32189
548.596	34179
548.660	33301
548.725	37024
548.789	40611
548.853	42411
548.917	37798
548.982	40126
549.046	39763
549.110	30619
549.174	30913
549.238	34012
549.303	37065
549.367	39897
549.431	37984
549.495	35585
549.559	34369
549.623	38436
549.687	45330
549.751	46582
549.815	49672
549.879	52519
549.943	47885
550.007	52709
550.071	53271
550.135	49998
550.199	45674
550.263	45029
550.327	42672
550.391	47882
550.455	50292
550.519	49602
550.582	52231
550.646	60610
550.710	63100
550.774	59789
550.838	60028
550.901	60439
550.965	65846
551.029	67503
551.093	73117
551.156	82708
551.220	103562
551.284	119430
551.347	86203
551.411	86260
551.475	90548
551.538	66936
551.602	61157
551.666	55803
551.729	52916
551.793	51947
551.856	52287
551.920	52167
551.983	50871
552.047	49689
552.110	50194
552.174	50993
552.237	51788
552.301	48552
552.364	46503
552.428	45320
552.491	45864
552.554	47351
552.618	46517
552.681	48758
552.745	47487
552.808	52295
552.871	58646
552.934	53756
552.998	49273
553.061	48346
553.124	48628
553.187	46637
553.251	49692
553.314	50100
553.377	51018
553.440	59097
553.503	92525
553.567	149901
553.630	66251
553.693	52077
553.756	50360
553.819	50339
553.882	48348
553.945	48163
554.008	47921
554.071	46143
554.134	48612
554.197	45941
554.260	43922
554.323	45986
554.386	45814
554.449	47279
554.512	49244
554.575	45281
554.638	45854
554.701	45205
554.764	44425
554.827	43720
554.889	42633
554.952	39264
555.015	39222
555.078	39663
555.141	40837
555.203	38061
555.266	38501
555.329	38800
555.391	37266
555.454	37776
555.517	37635
555.580	34833
555.642	33887
555.705	34073
555.768	33509
555.830	32994
555.893	30644
555.955	28948
556.018	29165
556.080	29474
556.143	30492
556.206	29599
556.268	30116
556.330	28956
556.393	29160
556.455	28217
556.518	31489
556.580	31664
556.643	25910
556.705	25196
556.767	24865
556.830	24620
556.892	25231
556.955	28134
557.017	26867
557.079	24435
557.142	23016
557.204	23480
557.266	30619
557.328	29052
557.391	20761
557.453	20973
557.515	20588
557.577	22137
557.639	22906
557.701	20767
557.764	20057
557.826	21426
557.888	23529
557.950	24975
558.012	26669
558.074	31122
558.136	62251
558.198	175785
558.260	77399
558.322	27728
558.384	28181
558.446	32017
558.508	36960
558.570	45290
558.632	57834
558.694	79249
558.756	98529
558.818	256141
558.880	755448
558.942	297623
559.003	186533
559.065	112642
559.127	43026
559.189	41877
559.251	44906
559.312	60703
559.374	127043
559.436	467144
559.498	297642
559.559	50911
559.621	41357
559.683	45020
559.744	67376
559.806	199575
559.868	375442
559.929	85190
559.991	42225
560.052	55134
560.114	160347
560.176	125198
560.237	84027
560.299	165275
560.360	45250
560.422	17625
560.483	15651
560.545	14459
560.606	13328
560.667	12464
560.729	11762
560.790	10879
560.852	12079
560.913	11577
560.974	11893
561.036	10793
561.097	11909
561.158	11691
561.220	12090
561.281	11393
561.342	11804
561.403	13407
561.465	13467
561.526	24728
561.587	33379
561.648	13419
561.709	11032
561.771	10599
561.832	10184
561.893	11310
561.954	10491
562.015	10224
562.076	10619
562.137	9940
562.198	11139
562.259	9858
562.320	10036
562.381	11595
562.442	13402
562.503	13819
562.564	11091
562.625	9941
562.686	10499
562.747	10200
562.808	10166
562.869	9979
562.930	11822
562.991	10875
563.051	10108
563.112	8773
563.173	10159
563.234	8753
563.294	9568
563.355	9827
563.416	10029
563.477	9632
563.537	9993
563.598	10628
563.659	9900
563.720	9643
563.780	10618
563.841	10598
563.901	10872
563.962	9448
564.023	9772
564.083	10002
564.144	10585
564.204	10229
564.265	10274
564.325	11186
564.386	17523
564.446	18940
564.507	10390
564.567	9782
564.628	10713
564.688	9473
564.749	9660
564.809	11261
564.869	12422
564.930	10400
564.990	9714
565.050	9451
565.111	10850
565.171	11043
565.231	9671
565.292	10567
565.352	9210
565.412	9999
565.472	10537
565.532	9990
565.593	10020
565.653	9870
565.713	9390
565.773	10391
565.833	11406
565.893	13296
565.953	11095
566.013	9832
566.074	10582
566.134	14081
566.194	16777
566.254	18757
566.314	14583
566.374	10688
566.434	10892
566.494	11852
566.554	11734
566.614	11614
566.673	12955
566.733	12863
566.793	13952
566.853	13801
566.913	12967
566.973	13122
567.033	13924
567.092	13496
567.152	13678
567.212	14197
567.272	14740
567.331	16021
567.391	14760
567.451	15733
567.511	19465
567.570	20872
567.630	15418
567.690	14048
567.749	14789
567.809	15994
567.868	17624
567.928	18733
567.988	21245
568.047	24118
568.107	27854
568.166	36907
568.226	52032
568.285	75251
568.345	70357
568.404	58570
568.464	49020
568.523	44506
568.582	44132
568.642	48216
568.701	56805
568.761	76008
568.820	119760
568.879	132611
568.939	102111
568.998	74382
569.057	57935
569.116	45085
569.176	35644
569.235	30425
569.294	26925
569.353	23645
569.413	22503
569.472	19563
569.531	17472
569.590	16360
569.649	15804
569.708	15089
569.767	14737
569.827	14134
569.886	14714
569.945	12805
570.004	12287
570.063	12537
570.122	12444
570.181	13019
570.240	12805
570.299	13049
570.358	12712
570.417	11509
570.475	11014
570.534	11261
570.593	12280
570.652	11188
570.711	11800
570.770	11459
570.829	10975
570.887	10794
570.946	12083
571.005	10440
571.064	10823
571.122	10593
571.181	11119
571.240	10471
571.299	9499
571.357	10034
571.416	10885
571.475	11379
571.533	11886
571.592	10252
571.650	11113
571.709	9285
571.768	10099
571.826	11352
571.885	11077
571.943	9537
572.002	9311
572.060	10380
572.119	10363
572.177	9431
572.236	8900
572.294	8850
572.352	9795
572.411	9407
572.469	9025
572.528	8695
572.586	9664
572.644	8588
572.703	10414
572.761	9775
572.819	8752
572.877	8532
572.936	8778
572.994	8974
573.052	8523
573.110	9366
573.169	8986
573.227	8757
573.285	9281
573.343	8994
573.401	8576
573.459	9195
573.517	8596
573.576	8786
573.634	9382
573.692	9054
573.750	9111
573.808	8403
573.866	9251
573.924	10426
573.982	10843
574.040	9426
574.098	7978
574.155	8007
574.213	8347
574.271	7817
574.329	9297
574.387	7561
574.445	8366
574.503	7975
574.560	6551
574.618	8097
574.676	7383
574.734	8113
574.792	8294
574.849	8643
574.907	7059
574.965	7039
575.022	6575
575.080	7710
575.138	7085
575.195	7138
575.253	7784
575.311	8438
575.368	7980
575.426	6389
575.483	6765
575.541	7940
575.598	7222
575.656	7343
575.713	7613
575.771	7781
575.828	7698
575.886	7500
575.943	8434
576.001	7123
576.058	7077
576.115	8075
576.173	9430
576.230	10064
576.287	11112
576.345	9788
576.402	7814
576.459	8814
576.517	8636
576.574	8178
576.631	8896
576.688	8030
576.746	7433
576.803	7687
576.860	7367
576.917	7243
576.974	7663
577.031	7922
577.089	8331
577.146	8150
577.203	7735
577.260	9072
577.317	8505
577.374	8520
577.431	9099
577.488	8070
577.545	8535
577.602	7919
577.659	7474
577.716	9147
577.773	9888
577.830	9123
577.886	8318
577.943	8761
578.000	8477
578.057	9156
578.114	9255
578.171	10019
578.227	12054
578.284	12098
578.341	11918
578.398	10044
578.454	9399
578.511	10014
578.568	10793
578.625	10052
578.681	8255
578.738	8630
578.794	8279
578.851	8125
578.908	8546
578.964	9143
579.021	9147
579.077	8980
579.134	9211
579.190	9056
579.247	8600
579.303	7761
579.360	7872
579.416	7533
579.473	7920
579.529	8342
579.586	8635
579.642	8853
579.698	9715
579.755	9633
579.811	9357
579.867	9334
579.924	10425
579.980	10496
580.036	12111
580.093	11973
580.149	17086
580.205	19285
580.261	15838
580.317	12279
580.374	12644
580.430	12164
580.486	12540
580.542	10349
580.598	10374
580.619	10488
580.654	10693
580.692	10422
580.710	10294
580.765	10221
580.767	10224
580.823	10828
580.838	10949
580.879	11262
580.911	11142
580.935	11059
580.984	10408
580.991	10325
581.047	11216
581.057	11112
581.103	10716
581.130	11354
581.159	12001
581.203	12689
581.215	12858
581.270	12467
581.276	12418
581.326	12046
581.349	11852
581.382	11544
581.422	11606
581.438	11620
581.494	11643
581.494	11634
581.550	10758
581.567	11298
581.606	12407
581.640	11303
581.661	10651
581.713	11560
581.717	11631
581.773	11517
581.786	11647
581.829	12009
581.859	11712
581.885	11497
581.932	12417
581.940	12597
581.996	12520
582.004	12558
582.052	12553
582.077	12325
582.107	12168
582.150	12794
582.163	12941
582.219	12906
582.223	12920
582.274	13164
582.296	13081
582.330	12889
582.368	13521
582.386	13861
582.441	13360
582.441	13356
582.497	13881
582.514	13908
582.552	14108
582.587	15240
582.608	15851
582.659	15643
582.663	15623
582.719	15717
582.732	15520
582.774	15036
582.805	15398
582.830	15661
582.877	15934
582.885	15992
582.941	16506
582.950	16798
582.996	18613
583.023	19440
583.052	20261
583.095	20926
583.107	21101
583.162	23629
583.168	23653
583.218	23068
583.240	22456
583.273	21562
583.313	19919
583.328	19316
583.384	18602
583.385	18561
583.439	17513
583.458	17767
583.494	18220
583.531	17933
583.549	17947
583.603	18147
583.605	18138
583.660	17914
583.676	17986
583.715	18449
583.748	18367
583.770	18367
583.820	18280
583.825	18272
583.881	19013
583.893	19019
583.936	18923
583.965	18599
583.991	18388
584.038	19029
584.046	19134
584.101	19750
584.110	19702
584.156	19578
584.183	19526
584.211	19621
584.255	20481
584.266	20676
584.321	20379
584.328	20477
584.376	21369
584.400	21636
584.431	21965
584.472	22109
584.486	22234
584.541	22898
584.545	22921
584.596	23458
584.617	23600
584.651	23631
584.689	23680
584.706	23911
584.761	25273
584.762	25261
584.816	25508
584.834	25724
584.871	26132
584.906	25798
584.926	25682
584.978	27370
584.980	27469
585.035	28003
585.051	28419
585.090	29371
585.123	30037
585.145	30433
585.195	31120
585.200	31274
585.254	33472
585.267	34145
585.309	36634
585.340	39369
585.364	41266
585.412	42188
585.419	42371
585.473	44409
585.484	45424
585.528	51162
585.556	56355
585.583	64175
585.628	86732
585.637	94636
585.692	167054
585.700	184418
585.747	280045
585.772	260557
585.801	194586
585.845	96278
585.856	78732
585.910	51508
585.917	48981
585.965	44537
585.989	43235
586.019	42558
586.061	41599
586.074	41422
586.128	41710
586.133	41702
586.183	42096
586.205	42086
586.237	42324
586.277	42621
586.292	42929
586.346	43000
586.349	43015
586.401	44272
586.421	44317
586.455	44572
586.493	45390
586.509	46126
586.564	48613
586.565	48661
586.618	54828
586.637	55950
586.672	56453
586.709	53892
586.727	52911
586.781	53516
586.781	53600
586.835	53403
586.853	53434
586.889	53511
586.925	53513
586.944	54041
586.996	55833
586.998	56005
587.052	58290
587.068	59065
587.106	60847
587.140	61724
587.161	62528
587.212	65180
587.215	65438
587.269	67950
587.284	68425
587.323	70656
587.356	72972
587.377	74665
587.427	77494
587.431	77930
587.485	82653
587.499	83697
587.539	86740
587.571	88810
587.593	91500
587.643	97783
587.648	98535
587.702	103961
587.715	105369
587.755	111386
587.786	115894
587.810	119758
587.858	126109
587.864	127295
587.917	137902
587.930	140203
587.971	150617
588.001	157669
588.025	164777
588.073	179459
588.079	181814
588.133	199640
588.145	203526
588.187	222903
588.217	235950
588.241	249302
588.288	275811
588.295	280699
588.348	319659
588.360	327710
588.402	366439
588.431	393529
588.456	422753
588.503	478788
588.510	490127
588.564	578624
588.575	597338
588.617	696163
588.646	765080
588.671	845158
588.718	1002070
588.725	1031678
588.778	1259970
588.789	1305861
588.832	1468743
588.861	1570858
588.886	1558289
588.932	1470972
588.939	1447108
588.993	1183193
589.004	1158175
589.047	1429989
589.075	1586995
589.100	1610860
589.147	1578894
589.154	1553852
589.207	1337419
589.218	1294243
589.261	1189972
589.290	1124182
589.314	1125510
589.361	1137108
589.368	1155063
589.421	1301373
589.433	1333096
589.475	1460552
589.504	1540001
589.528	1499576
589.576	1341974
589.582	1346391
589.635	1425338
589.647	1435835
589.689	1442519
589.718	1411905
589.742	1277452
589.790	1009269
589.795	987850
589.849	778635
589.861	730130
589.902	629988
589.932	555414
589.955	518229
590.004	437676
590.009	433338
590.062	376816
590.075	362177
590.115	331426
590.146	306272
590.168	293915
590.218	264986
590.222	263994
590.275	242064
590.289	235660
590.328	222118
590.360	210081
590.381	204469
590.431	189605
590.435	189406
590.488	176863
590.503	172866
590.541	166705
590.574	160485
590.594	157852
590.645	149977
590.647	150133
590.700	142109
590.716	139269
590.753	135967
590.787	132214
590.806	130618
590.859	124729
590.859	125046
590.912	121017
590.930	119263
590.965	117109
591.001	114491
591.018	113815
591.071	110582
591.072	110202
591.124	106586
591.143	104819
591.177	104028
591.214	102532
591.230	102263
591.283	100481
591.285	100083
591.336	97942
591.356	96685
591.389	95537
591.427	93421
591.442	93005
591.495	90336
591.498	89854
591.547	88094
591.569	86863
591.600	86131
591.640	84592
591.653	84763
591.706	84313
591.711	83974
591.759	84153
591.782	83924
591.811	84241
591.853	84014
591.864	84084
591.917	82878
591.924	82437
591.969	80634
591.995	79163
592.022	79375
592.066	79077
592.075	79301
592.127	79058
592.137	78763
592.180	79840
592.208	80050
592.233	79197
592.279	76815
592.285	76999
592.338	76452
592.350	76064
592.390	75433
592.421	74541
592.443	74724
592.491	74308
592.495	74553
592.548	74471
592.562	74200
592.600	74028
592.633	73411
592.653	73237
592.704	71743
592.705	72151
592.775	71807
592.846	72696
592.916	72220
592.987	71109
593.058	71465
593.128	69847
593.199	70123
593.270	68737
593.341	69413
593.411	68517
593.482	69308
593.553	71007
593.623	69006
593.694	69269
593.764	70454
593.835	68486
593.906	70805
593.976	69041
594.047	70582
594.117	72606
594.188	72733
594.258	71474
594.329	71349
594.399	70622
594.470	72105
594.540	72484
594.611	74598
594.681	73367
594.751	73769
594.822	75116
594.892	77411
594.963	77366
595.033	77542
595.103	79876
595.174	79628
595.244	83799
595.314	87924
595.384	84228
595.455	84135
595.525	85525
595.595	87061
595.665	88155
595.736	86891
595.806	86250
595.876	88350
595.946	87977
596.016	89762
596.087	91829
596.157	93249
596.227	92750
596.297	95782
596.367	101082
596.437	106129
596.507	108421
596.577	109739
596.647	108199
596.717	112377
596.787	114079
596.857	113753
596.927	112768
596.997	113951
597.067	116427
597.137	118822
597.207	119986
597.277	120089
597.347	116311
597.417	114542
597.487	113922
597.557	116517
597.626	120141
597.696	121485
597.766	123438
597.836	119580
597.906	113487
597.975	110172
598.045	111889
598.115	115380
598.185	120576
598.254	131869
598.324	142866
598.394	144209
598.464	144277
598.533	142775
598.603	136280
598.672	132287
598.742	133959
598.812	136805
598.881	137879
598.951	139863
599.020	140207
599.090	144353
599.159	148095
599.229	144782
599.299	142799
599.368	147232
599.437	147776
599.507	139547
599.576	138859
599.646	139482
599.715	141538
599.785	137923
599.854	136300
599.924	137248
599.993	138378
600.062	140044
600.132	144983
600.201	149035
600.270	163426
600.340	176320
600.409	175070
600.478	174809
600.547	179350
600.617	177669
600.686	156708
600.755	150282
600.824	146308
600.894	147176
600.963	147498
601.032	148433
601.101	149117
601.170	150835
601.239	150135
601.308	153389
601.378	156838
601.447	158407
601.516	161173
601.585	163821
601.654	169759
601.723	171140
601.792	176008
601.861	183456
601.930	193229
601.999	199936
602.068	198142
602.137	197542
602.206	200987
602.275	203285
602.343	206359
602.412	208669
602.481	209310
602.550	211320
602.619	215915
602.688	216438
602.756	219048
602.825	219647
602.894	222035
602.963	223631
603.032	223572
603.100	230024
603.169	221362
603.238	231080
603.307	225397
603.375	219312
603.444	234907
603.513	221343
603.581	220240
603.650	236520
603.719	206733
603.787	187086
603.856	190583
603.924	196001
603.993	201411
604.061	206628
604.130	212240
604.198	220167
604.267	222332
604.335	227007
604.404	226523
604.472	235516
604.541	236895
604.609	241814
604.678	251399
604.746	250185
604.815	263941
604.883	262317
604.951	248101
605.020	256189
605.088	247654
605.156	230192
605.225	229670
605.293	231155
605.361	229977
605.429	231911
605.498	235935
605.566	233658
605.634	241069
605.702	251179
605.771	248720
605.839	260868
605.907	244632
605.975	249925
606.043	247128
606.111	231004
606.180	249549
606.248	240609
606.316	225331
606.384	244423
606.452	219300
606.520	173943
606.588	175163
606.656	174598
606.724	177213
606.792	167372
606.860	154613
606.928	142126
606.996	134384
607.064	131206
607.132	133464
607.200	139391
607.267	147026
607.335	149570
607.403	153821
607.471	150868
607.539	143978
607.607	146157
607.674	129304
607.742	127476
607.810	126093
607.878	126641
607.946	125267
608.013	132753
608.081	134896
608.149	135955
608.216	138300
608.284	144680
608.352	142399
608.419	142934
608.487	141174
608.555	135830
608.622	138370
608.690	144510
608.757	154990
608.825	162831
608.893	157918
608.960	152727
609.028	143598
609.095	146277
609.163	144284
609.230	133429
609.298	118714
609.365	120498
609.432	131743
609.500	142321
609.567	161493
609.635	185467
609.702	201875
609.769	196761
609.837	161800
609.904	127549
609.971	127520
610.039	134084
610.106	149718
610.173	212597
610.241	403292
610.308	411026
610.375	211014
610.442	148386
610.509	132299
610.577	132112
610.644	133345
610.711	135544
610.778	140775
610.845	145671
610.912	153612
610.980	163428
611.047	165979
611.114	163129
611.181	155968
611.248	153273
611.315	159969
611.382	164999
611.449	168815
611.516	175741
611.583	173057
611.650	173544
611.717	173954
611.784	175665
611.851	179563
611.918	185301
611.984	197307
612.051	234459
612.118	349781
612.185	715652
612.252	747333
612.319	273447
612.386	219752
612.452	206960
612.519	198520
612.586	195042
612.653	195504
612.719	203453
612.786	201446
612.853	188294
612.919	178728
612.986	184819
613.053	173718
613.120	165200
613.186	157071
613.253	157503
613.319	159045
613.386	158530
613.453	161792
613.519	162219
613.586	161266
613.652	165688
613.719	163318
613.785	163725
613.852	164220
613.918	166270
613.985	163507
614.051	176469
614.118	186598
614.184	192924
614.250	165458
614.317	166335
614.383	163289
614.449	168476
614.516	168202
614.582	167617
614.648	167450
614.715	166516
614.781	163359
614.847	161866
614.914	162695
614.980	158773
615.046	157864
615.112	160715
615.179	163191
615.245	168358
615.311	169204
615.377	183155
615.443	198804
615.509	181618
615.575	175398
615.642	173296
615.708	174579
615.774	179668
615.840	188927
615.906	196677
615.972	219343
616.038	293569
616.104	454562
616.170	828329
616.236	1045226
616.302	365621
616.368	245417
616.434	208725
616.500	193172
616.565	191387
616.631	210768
616.697	206709
616.763	199691
616.829	223777
616.895	311650
616.961	361599
617.026	236143
617.092	180863
617.158	173599
617.224	174245
617.289	164145
617.355	157439
617.421	154313
617.487	156463
617.552	148007
617.618	147795
617.684	145905
617.749	149570
617.815	142654
617.880	139688
617.946	139889
618.012	142661
618.077	147405
618.143	143676
618.208	142362
618.274	150182
618.339	156861
618.405	136045
618.470	129404
618.536	131556
618.601	129732
618.667	125953
618.732	117438
618.798	115983
618.863	115374
618.928	114263
618.994	114792
619.059	114839
619.124	119162
619.190	116716
619.255	114511
619.320	114884
619.386	115267
619.451	114810
619.516	112679
619.581	114162
619.647	116607
619.712	120508
619.777	113909
619.842	114200
619.907	115138
619.972	117716
620.038	118461
620.103	115586
620.168	114994
620.233	117336
620.298	118193
620.363	117620
620.428	120099
620.493	122518
620.558	125415
620.623	127179
620.688	126318
620.753	125183
620.818	126985
620.883	128800
620.948	129017
621.013	127026
621.078	126371
621.143	125700
621.207	128689
621.272	126792
621.337	125954
621.402	123810
621.467	124477
621.532	126241
621.596	125376
621.661	121490
621.726	119933
621.791	121877
621.855	123211
621.920	122226
621.985	122169
622.049	124555
622.114	126566
622.179	127901
622.243	128950
622.308	132179
622.373	137066
622.437	136210
622.502	130105
622.566	129648
622.631	126785
622.695	129918
622.760	129492
622.824	129024
622.889	128699
622.953	130114
623.018	135966
623.082	142414
623.147	134518
623.211	134188
623.276	132521
623.340	130362
623.404	127072
623.469	127883
623.533	127654
623.597	125823
623.662	123687
623.726	118490
623.790	113141
623.854	109599
623.919	110064
623.983	112107
624.047	113125
624.111	113098
624.176	113954
624.240	114804
624.304	119125
624.368	115347
624.432	113894
624.496	115162
624.560	119088
624.625	123639
624.689	119199
624.753	124547
624.817	121830
624.881	117973
624.945	110750
625.009	107606
625.073	105630
625.137	107465
625.201	112434
625.265	115615
625.329	111126
625.393	111137
625.456	109892
625.520	110571
625.584	112739
625.648	117178
625.712	119735
625.776	130962
625.839	133640
625.903	109516
625.967	89863
626.031	97702
626.095	115673
626.158	108762
626.222	88075
626.286	81053
626.349	79297
626.413	74869
626.477	73685
626.540	72306
626.604	71914
626.668	72704
626.731	71017
626.795	71050
626.858	70327
626.922	69758
626.986	67668
627.049	68569
627.113	69930
627.176	69752
627.240	67884
627.303	66296
627.366	64215
627.430	65105
627.493	65455
627.557	65478
627.620	64883
627.684	65701
627.747	65115
627.810	62527
627.874	57116
627.937	54456
628.000	56329
628.064	56648
628.127	50129
628.190	49127
628.253	48415
628.317	48280
628.380	46332
628.443	44691
628.506	45460
628.569	43917
628.632	41155
628.696	40887
628.759	40077
628.822	40496
628.885	38151
628.948	38754
629.011	38248
629.074	38099
629.137	36095
629.200	36049
629.263	36491
629.326	35178
629.389	34588
629.452	34443
629.515	33881
629.578	34355
629.641	34019
629.704	33560
629.767	34541
629.830	34251
629.892	32824
629.955	32100
630.018	32666
630.081	33378
630.144	33106
630.207	32472
630.269	32426
630.332	31202
630.395	32382
630.458	30919
630.520	29103
630.583	31264
630.646	29616
630.708	29506
630.771	28803
630.834	31307
630.896	30375
630.959	29900
631.021	29300
631.084	29832
631.146	28872
631.209	30495
631.272	29236
631.334	29398
631.397	28805
631.459	28559
631.522	29714
631.584	30413
631.646	30546
631.709	30301
631.771	29866
631.834	30440
631.896	28867
631.958	28431
632.021	28485
632.083	27894
632.145	28089
632.208	28584
632.270	27485
632.332	26548
632.395	26865
632.457	27784
632.519	27106
632.581	28848
632.643	26410
632.706	28051
632.768	25416
632.830	26738
632.892	27962
632.954	28781
633.016	27187
633.078	27270
633.141	26321
633.203	27369
633.265	26766
633.327	26858
633.389	26583
633.451	27588
633.513	27718
633.575	27674
633.637	26597
633.698	26928
633.760	27235
633.822	28506
633.884	28194
633.946	28300
634.008	28242
634.070	28808
634.132	29802
634.193	31083
634.255	30029
634.317	30054
634.379	30337
634.441	28259
634.502	27834
634.564	26435
634.626	25716
634.687	25574
634.749	25184
634.811	26165
634.873	23836
634.934	24956
634.996	24549
635.057	25081
635.119	24717
635.181	25550
635.242	26300
635.304	23682
635.365	26724
635.427	26157
635.488	25218
635.550	25130
635.611	24419
635.673	24141
635.734	25976
635.796	26259
635.857	26632
635.918	26967
635.980	27375
636.041	27813
636.102	28409
636.164	29860
636.225	28748
636.286	26827
636.348	26064
636.409	25682
636.470	24431
636.531	25172
636.593	23517
636.654	24640
636.715	24082
636.776	23368
636.838	22702
636.899	24389
636.960	23026
637.021	22694
637.082	21994
637.143	22749
637.204	21509
637.265	20970
637.326	22064
637.387	23366
637.448	21370
637.509	23272
637.570	22831
637.631	23251
637.692	22486
637.753	21605
637.814	21140
637.875	21807
637.936	22171
637.997	21442
638.058	21782
638.119	21666
638.179	21072
638.240	21032
638.301	21560
638.362	20395
638.423	20037
638.483	21184
638.544	19781
638.605	20793
638.666	21021
638.726	22146
638.787	20888
638.848	20569
638.908	21243
638.969	19828
639.030	19746
639.090	19947
639.151	19839
639.211	20666
639.272	20974
639.332	22503
639.393	21823
639.453	20038
639.514	20750
639.574	19641
639.635	18976
639.695	20042
639.756	17595
639.816	19647
639.877	19662
639.937	20983
639.997	21891
640.058	19614
640.118	18419
640.178	19643
640.239	18803
640.299	18277
640.359	18135
640.420	19291
640.480	18953
640.540	19951
640.600	19653
640.661	20481
640.721	18595
640.781	21989
640.841	21479
640.901	20597
640.961	19224
641.021	19173
641.082	18852
641.142	19352
641.202	19276
641.262	17051
641.322	18136
641.382	18479
641.442	18364
641.502	18401
641.562	18345
641.622	17901
641.682	18950
641.742	19137
641.802	19262
641.861	18341
641.921	17390
641.981	17339
642.041	17484
642.101	17361
642.161	17074
642.221	17629
642.280	16977
642.340	17123
642.400	17381
642.460	18081
642.519	17093
642.579	17646
642.639	17844
642.698	15846
642.758	19559
642.818	17978
642.877	16374
642.937	17556
642.997	16881
643.056	19041
643.116	17711
643.175	18360
643.235	16727
643.294	17756
643.354	17869
643.414	19322
643.473	20115
643.532	22506
643.592	25790
643.651	33610
643.711	50524
643.770	86727
643.830	180888
643.889	485118
643.948	238509
644.008	40124
644.067	24555
644.126	21779
644.186	19320
644.245	18476
644.304	15823
644.363	18302
644.423	15393
644.482	16588
644.541	16858
644.600	16148
644.659	19137
644.719	19596
644.778	23721
644.837	32270
644.896	53830
644.955	129010
645.014	86982
645.073	25012
645.132	18372
645.191	18037
645.250	16738
645.309	18271
645.368	16339
645.427	19175
645.486	22700
645.545	36340
645.604	23898
645.663	16931
645.722	15573
645.781	17290
645.840	17640
645.898	19400
645.957	23303
646.016	30209
646.075	47609
646.134	82752
646.192	178384
646.251	405768
646.310	120798
646.369	28839
646.427	21892
646.486	18582
646.545	16740
646.603	16932
646.662	15292
646.721	15286
646.779	13527
646.838	13802
646.896	15509
646.955	18294
647.014	23023
647.072	32787
647.131	77187
647.189	73972
647.248	18109
647.306	15098
647.365	13805
647.423	11908
647.481	13439
647.540	12082
647.598	12258
647.657	12738
647.715	12458
647.773	11685
647.832	12911
647.890	11429
647.948	11156
648.007	12625
648.065	10501
648.123	11879
648.181	12821
648.240	12464
648.298	11833
648.356	10757
648.414	11391
648.472	11048
648.531	11724
648.589	10808
648.647	9473
648.705	11030
648.763	9669
648.821	10634
648.879	10190
648.937	12000
648.995	12114
649.053	13110
649.111	17141
649.169	22694
649.227	36645
649.285	64973
649.343	184646
649.401	177174
649.459	29246
649.516	19964
649.574	15022
649.632	19587
649.690	26565
649.748	19146
649.806	19545
649.863	32988
649.921	52479
649.979	62765
650.037	15413
650.094	9642
650.152	9442
650.210	8470
650.268	8970
650.325	9659
650.383	10155
650.440	7967
650.498	8027
650.556	8123
650.613	7354
650.671	8632
650.728	7765
650.786	8857
650.843	8314
650.901	7264
650.958	7491
651.016	7351
651.073	6792
651.131	7534
651.188	6253
651.246	7123
651.303	7231
651.360	8118
651.418	6779
651.475	6994
651.532	5616
651.590	7640
651.647	6019
651.704	6302
651.762	6776
651.819	7223
651.876	5763
651.933	6144
651.990	6840
652.048	5480
652.105	5952
652.162	7218
652.219	6154
652.276	7596
652.333	5946
652.390	5442
652.448	6580
652.505	6206
652.562	7201
652.619	6944
652.676	8106
652.733	11148
652.790	6018
652.847	5660
652.904	5895
652.961	5377
653.017	5024
653.074	7381
653.131	5661
653.188	5539
653.245	5887
653.302	5686
653.359	5446
653.415	6255
653.472	5688
653.529	6369
653.586	4762
653.642	5671
653.699	5656
653.756	5515
653.813	4563
653.869	6027
653.926	5450
653.983	5312
654.039	5610
654.096	5689
654.152	6059
654.209	4774
654.266	5310
654.322	5499
654.379	5532
654.435	6214
654.492	5196
654.548	6156
654.605	6321
654.661	7199
654.717	5416
654.774	5812
654.830	5581
654.887	5384
654.943	5603
655.000	6654
655.056	6002
655.112	5616
655.168	4205
655.225	5028
655.281	5393
655.337	5404
655.394	6369
655.450	6463
655.506	5097
655.562	6435
655.618	6842
655.675	5329
655.731	4121
655.787	5397
655.843	5681
655.899	5040
655.955	5840
656.011	5296
656.067	4370
656.123	5805
656.179	4243
656.235	6708
656.291	4496
656.347	5724
656.403	4865
656.459	4133
656.515	5181
656.571	5656
656.627	5253
656.683	5181
656.739	5943
656.795	5379
656.850	5141
656.906	5327
656.962	5344
657.018	4980
657.074	4664
657.129	6042
657.185	8065
657.241	12470
657.297	11886
657.352	5572
657.408	3735
657.464	6039
657.519	4833
657.575	4956
657.630	4729
657.686	6072
657.742	3537
657.797	5234
657.853	3584
657.908	5259
657.964	3751
658.019	4981
658.075	4650
658.130	5043
658.186	3995
658.241	6072
658.297	3813
658.352	4341
658.407	4651
658.463	4189
658.518	5188
658.573	5424
658.629	3793
658.684	5348
658.739	5671
658.795	4638
658.850	4398
658.905	4298
658.960	5057
659.016	4716
659.071	4464
659.126	4821
659.181	4381
659.236	5302
659.291	6097
659.346	4767
659.401	5932
659.457	5961
659.512	5946
659.567	7453
659.622	4491
659.677	4733
659.732	3835
659.787	4580
659.842	4882
659.897	5153
659.952	5159
660.007	5500
660.061	4488
660.116	4124
660.171	3349
660.226	4467
660.281	6036
660.336	3611
660.391	5489
660.445	4229
660.500	3550
660.555	4193
660.610	3868
660.664	5129
660.719	4033
660.774	4930
660.828	4628
660.883	4832
660.938	5612
660.992	3452
661.047	4683
661.101	3943
661.156	4039
661.211	4265
661.265	3855
661.320	4430
661.374	4425
661.429	4644
661.483	4940
661.538	4875
661.592	4666
661.647	4966
661.701	4919
661.755	5813
661.810	5217
661.864	3752
661.919	3494
661.973	4783
662.027	4127
662.081	4190
662.136	3514
662.190	4083
662.244	4551
662.299	4908
662.353	4441
662.407	4935
662.461	3976
662.515	4918
662.569	4346
662.624	4274
662.678	3284
662.732	4025
662.786	4028
662.840	4761
662.894	4872
662.948	3700
663.002	4385
663.056	4390
663.110	2893
663.164	3667
663.218	3911
663.272	4573
663.326	4067
663.380	4253
663.434	3711
663.488	4201
663.542	4016
663.595	4533
663.649	3650
663.703	5026
663.757	3467
663.811	2775
663.864	3624
663.918	4712
663.972	3678
664.026	4510
664.079	3683
664.133	4103
664.187	4090
664.240	4249
664.294	3609
664.348	5113
664.401	3951
664.455	3745
664.508	2898
664.562	3447
664.615	3852
664.669	3389
664.722	3831
664.776	3961
664.829	3129
664.883	4265
664.936	3094
664.990	3840
665.043	3304
665.097	4014
665.150	4181
665.203	3711
665.257	3643
665.310	4252
665.363	3768
665.417	4855
665.470	4164
665.523	3210
665.576	3884
665.630	4583
665.683	4199
665.736	3959
665.789	3815
665.842	3938
665.895	3672
665.949	3720
666.002	2904
666.055	4659
666.108	3787
666.161	4722
666.214	4275
666.267	4891
666.320	3879
666.373	4344
666.426	4083
666.479	3812
666.532	3769
666.585	5025
666.638	3992
666.691	4079
666.744	5027
666.796	4532
666.849	3341
666.902	4908
666.955	3632
667.008	4332
667.060	3199
667.113	4118
667.166	3512
667.219	4784
667.271	4827
667.324	4171
667.377	3416
667.430	3777
667.482	4837
667.535	5748
667.587	3740
667.640	4580
667.693	2983
667.745	5069
667.798	5778
667.850	5051
667.903	3846
667.955	3813
668.008	3970
668.060	5484
668.113	3484
668.165	4630
668.218	3169
668.270	4661
668.322	3990
668.375	4012
668.427	4747
668.479	4316
668.532	4340
668.584	4455
668.636	3570
668.689	4821
668.741	3637
668.793	4286
668.845	3643
668.898	3684
668.950	3912
669.002	4879
669.054	3811
669.106	3676
669.158	4559
669.211	3737
669.263	3657
669.315	4989
669.367	5139
669.419	5090
669.471	4448
669.523	3934
669.575	3912
669.627	4753
669.679	3490
669.731	4713
669.783	4630
669.835	4452
669.886	3986
669.938	5281
669.990	4568
670.042	4190
670.094	5076
670.146	4781
670.197	5311
670.249	6473
670.301	6684
670.353	10287
670.404	12629
670.456	18445
670.508	27506
670.560	45564
670.611	77193
670.663	135422
670.715	270328
670.766	545242
670.818	314160
670.869	60924
670.921	24743
670.972	15799
671.024	11835
671.075	9176
671.127	7908
671.178	6453
671.230	5783
671.281	6944
671.333	4341
671.384	4956
671.436	5559
671.487	6129
671.538	6444
671.590	9374
671.641	11941
671.692	17088
671.744	33186
671.795	35657
671.846	15432
671.897	8814
671.949	5808
672.000	4389
672.051	4181
672.102	4382
672.153	3373
672.204	3874
672.256	3543
672.307	4087
672.358	3511
672.409	3835
672.460	3376
672.511	3752
672.562	1637
672.613	2721
672.664	2734
672.715	3272
672.766	2948
672.817	3265
672.868	2740
672.919	3063
672.970	3250
673.021	3675
673.071	2131
673.122	2860
673.173	2553
673.224	3277
673.275	3482
673.326	2682
673.376	1747
673.427	2109
673.478	2661
673.528	3909
673.579	2391
673.630	2998
673.680	2904
673.731	3296
673.782	1836
673.832	3118
673.883	2977
673.934	2392
673.984	2098
674.035	2868
674.085	2507
674.136	3614
674.186	2582
674.237	2801
674.287	3330
674.338	3661
674.388	2552
674.438	2308
674.489	2374
674.539	3006
674.589	2783
674.640	3127
674.690	2918
674.740	2976
674.791	2225
674.841	3646
674.891	2370
674.942	2685
674.992	1729
675.042	2411
675.092	1648
675.142	1628
675.193	1455
675.243	1523
675.293	2476
675.343	2083
675.393	2058
675.443	3388
675.493	1973
675.543	2081
675.593	2823
675.643	2497
675.693	1895
675.743	2454
675.793	2598
675.843	2220
675.893	2066
675.943	2617
675.993	1778
676.043	1903
676.093	2743
676.142	2212
676.192	2509
676.242	2314
676.292	1540
676.341	2958
676.391	1958
676.441	1973
676.491	1725
676.540	1619
676.590	2068
676.640	1780
676.689	1149
676.739	1305
676.789	1316
676.838	1572
676.888	2119
676.937	1646
676.987	1234
677.037	2698
677.086	1904
677.136	2000
677.185	2088
677.235	1883
677.284	2080
677.333	2116
677.383	878
677.432	1286
677.482	1788
677.531	2354
677.580	931
677.630	1338
677.679	2065
677.728	1562
677.778	1834
677.827	1944
677.876	1330
677.925	1902
677.975	986
678.024	2515
678.073	1642
678.122	2314
678.171	2534
678.220	2441
678.269	1606
678.319	2136
678.368	1330
678.417	2919
678.466	1689
678.515	2153
678.564	1418
678.613	2223
678.662	1721
678.711	2225
678.760	1723
678.809	1224
678.857	1408
678.906	2352
678.955	996
679.004	2131
679.053	1946
679.102	1788
679.151	1834
679.199	1393
679.248	2103
679.297	1434
679.346	802
679.394	1093
679.443	1505
679.492	2392
679.540	1157
679.589	946
679.638	1827
679.686	1993
679.735	1552
679.784	1766
679.832	1936
679.881	2614
679.929	1737
679.978	1744
680.026	824
680.075	1438
680.123	1322
680.172	2171
680.220	831
680.268	1652
680.317	1163
680.365	963
680.414	649
680.462	1473
680.510	1747
680.559	1035
680.607	962
680.655	1980
680.703	1053
680.752	1725
680.800	1316
680.848	1140
680.896	705
680.945	2013
680.993	1045
681.041	1497
681.089	1308
681.137	1460
681.185	1060
681.233	1028
681.258	879
681.281	693
681.329	998
681.377	1290
681.380	1355
681.425	1656
681.473	1533
681.502	1562
681.521	1503
681.569	2382
681.617	1848
681.624	1890
681.665	1791
681.713	2494
681.745	2102
681.761	1845
681.809	1987
681.857	2850
681.867	2924
681.904	2982
681.952	2544
681.989	2618
682.000	2589
682.048	2457
682.096	2905
682.111	2765
682.143	2312
682.191	3285
682.233	2997
682.239	2907
682.286	3186
682.334	2368
682.354	2752
682.382	3177
682.430	3244
682.476	4132
682.477	4109
682.525	2850
682.572	3410
682.598	3324
682.620	3161
682.667	3714
682.715	3894
682.720	4053
682.763	5183
682.810	3513
682.841	4281
682.857	4610
682.905	3562
682.952	5220
682.963	5189
683.000	4942
683.047	4747
683.085	5169
683.095	5231
683.142	4897
683.190	5275
683.206	5283
683.237	5190
683.284	4798
683.328	5544
683.332	5574
683.379	4888
683.426	4666
683.449	4936
683.473	5165
683.521	5957
683.568	5687
683.571	5693
683.615	5235
683.662	6126
683.693	6078
683.709	6024
683.757	5863
683.804	6512
683.814	6551
683.851	6484
683.898	6819
683.936	6534
683.945	6440
683.992	7435
684.039	6606
684.057	6871
684.086	7210
684.133	6907
684.179	6383
684.180	6338
684.227	6844
684.274	7187
684.300	6910
684.321	6645
684.368	7429
684.415	7728
684.422	7804
684.462	8014
684.509	6940
684.543	7258
684.556	7372
684.603	7513
684.649	8259
684.665	8282
684.696	8287
684.743	8763
684.786	7975
684.790	7882
684.837	8311
684.883	8980
684.908	9008
684.930	9018
684.977	8877
685.023	9037
685.029	9131
685.070	9384
685.117	8452
685.150	8645
685.164	8808
685.210	9505
685.257	9521
685.272	9830
685.303	10228
685.350	9760
685.393	10019
685.396	10027
685.443	9770
685.490	10019
685.514	9767
685.536	9538
685.583	9910
685.629	9917
685.636	9996
685.675	10342
685.722	10063
685.757	10227
685.768	10263
685.815	10323
685.861	10653
685.878	10627
685.908	10591
685.954	10273
686.000	10715
686.000	10710
686.047	10772
686.093	11270
686.121	11603
686.139	11819
686.185	11263
686.232	11285
686.242	11344
686.278	11413
686.324	11976
686.363	11266
686.370	11119
686.416	12043
686.463	10965
686.484	11106
686.509	11447
686.555	12162
686.601	12426
686.606	12424
686.647	12027
686.693	12063
686.727	11676
686.739	11531
686.785	12001
686.831	11812
686.848	11691
686.877	11500
686.923	11561
686.969	11874
686.969	11876
687.015	12666
687.061	12573
687.090	12805
687.107	12757
687.153	13077
687.199	12546
687.211	12587
687.245	12834
687.291	11991
687.332	12674
687.336	12766
687.382	12899
687.428	13208
687.453	13309
687.474	13206
687.520	13776
687.565	13524
687.574	13489
687.611	13844
687.657	13939
687.695	14465
687.702	14644
687.748	16284
687.794	17849
687.816	18002
687.839	17490
687.885	17749
687.931	16549
687.937	16532
687.976	15930
688.022	14454
688.058	14276
688.067	14439
688.113	14079
688.158	14397
688.179	14160
688.204	13888
688.249	14441
688.295	14433
688.300	14436
688.340	14809
688.386	14778
688.421	15082
688.431	15078
688.477	14548
688.522	15189
688.542	14977
688.567	14974
688.613	15217
688.658	15205
688.663	15222
688.703	15224
688.749	15753
688.784	15783
688.794	15832
688.839	15465
688.884	15873
688.905	15982
688.930	15972
688.975	15574
689.020	15478
689.026	15434
689.065	15710
689.110	15715
689.146	15945
689.155	16009
689.201	16478
689.246	17275
689.267	17222
689.291	16912
689.336	16608
689.381	16005
689.388	16004
689.426	16331
689.471	16237
689.509	16125
689.516	16175
689.561	16007
689.606	16624
689.630	16528
689.651	16367
689.696	16898
689.741	16968
689.750	16984
689.785	17100
689.830	17011
689.871	17343
689.875	17385
689.920	16915
689.965	17114
689.992	16506
690.010	16287
690.054	17051
690.099	16893
690.112	17056
690.144	17515
690.189	17408
690.233	17757
690.233	17783
690.278	17567
690.323	17864
690.354	18098
690.367	18334
690.412	18432
690.457	18640
690.474	18901
690.501	19264
690.546	19549
690.590	19724
690.595	19655
690.635	19681
690.680	20841
690.716	20937
690.724	21244
690.769	23595
690.813	25842
690.836	27038
690.857	29613
690.902	34143
690.946	39766
690.957	41077
690.991	54778
691.035	73825
691.077	92212
691.080	92842
691.124	98634
691.168	103097
691.198	107100
691.213	99645
691.257	77216
691.301	55175
691.318	46398
691.346	42277
691.390	35708
691.434	29015
691.439	28206
691.478	26525
691.522	25004
691.559	23355
691.567	23324
691.611	23052
691.655	22730
691.680	22548
691.699	22397
691.743	21892
691.787	21493
691.800	21289
691.831	21232
691.875	20681
691.919	21164
691.921	21114
691.964	20890
692.008	21094
692.041	20881
692.052	20816
692.096	20780
692.139	20751
692.162	20806
692.183	21002
692.227	20568
692.271	20598
692.282	20504
692.315	20367
692.359	20778
692.402	20499
692.403	20537
692.447	20524
692.490	20220
692.523	20578
692.534	20790
692.578	20853
692.622	20705
692.643	20779
692.666	20848
692.709	21244
692.753	21026
692.763	21004
692.797	21184
692.840	20956
692.884	21108
692.884	21155
692.928	21510
692.971	22075
693.004	22416
693.015	22542
693.059	22585
693.102	22806
693.124	22884
693.146	23206
693.189	23581
693.233	24347
693.245	24392
693.276	24819
693.320	26069
693.363	26417
693.365	26389
693.407	28413
693.450	30541
693.485	32179
693.493	33203
693.537	37899
693.580	43242
693.605	45973
693.624	51039
693.667	63155
693.710	75336
693.725	79775
693.753	107019
693.797	148931
693.840	193306
693.845	197852
693.883	209064
693.926	220097
693.966	231157
693.970	226560
694.013	174471
694.056	121897
694.086	85980
694.099	81568
694.142	66396
694.185	51725
694.206	44380
694.229	42153
694.272	38141
694.315	33749
694.326	32626
694.358	31697
694.401	30292
694.444	28944
694.446	28798
694.487	27810
694.530	26940
694.566	26122
694.573	26096
694.616	25550
694.659	24696
694.686	24388
694.702	24422
694.745	24119
694.787	23964
694.806	23679
694.830	23641
694.873	24045
694.916	23899
694.926	23893
694.959	23607
695.002	22983
695.044	22353
695.046	22284
695.087	23092
695.130	23574
695.166	24070
695.172	24096
695.215	23641
695.258	23507
695.286	23224
695.301	23451
695.343	23957
695.386	24685
695.406	24845
695.428	24780
695.471	24653
695.514	24464
695.526	24354
695.556	24991
695.599	26139
695.641	26980
695.646	26995
695.684	26607
695.726	26209
695.766	25855
695.769	25912
695.811	25809
695.854	25573
695.886	25497
695.896	25597
695.938	25481
695.981	25615
696.005	25542
696.023	25794
696.065	26314
696.108	26663
696.125	26925
696.150	27269
696.192	27294
696.235	27488
696.245	27485
696.277	27786
696.319	27965
696.361	28188
696.365	28142
696.404	28878
696.446	29448
696.485	29991
696.488	30029
696.530	29524
696.572	29089
696.604	28480
696.614	28453
696.656	28300
696.698	28090
696.724	27912
696.740	27917
696.783	27512
696.825	27416
696.844	27212
696.867	27175
696.909	27043
696.951	26757
696.964	26685
696.992	26996
697.034	27037
697.076	27486
697.083	27427
697.118	27781
697.160	28262
697.202	28779
697.203	28718
697.244	28786
697.286	28791
697.323	28615
697.327	28680
697.369	28649
697.411	28617
697.442	28501
697.453	28558
697.494	28513
697.536	28496
697.562	28401
697.578	28371
697.620	28014
697.661	27704
697.682	27471
697.703	28114
697.744	29336
697.786	30484
697.801	30834
697.828	30910
697.869	30817
697.911	30775
697.921	30678
697.952	30054
697.994	29122
698.035	28220
698.040	28037
698.077	28643
698.118	29224
698.160	29808
698.160	29733
698.201	30200
698.243	30604
698.279	30948
698.284	31017
698.325	30818
698.367	30661
698.399	30441
698.408	30631
698.449	31121
698.491	31655
698.518	31899
698.532	31988
698.573	32024
698.614	32049
698.638	31991
698.656	31987
698.697	31759
698.738	31529
698.757	31335
698.779	31633
698.820	32044
698.862	32459
698.877	32528
698.903	32716
698.944	32869
698.985	33025
698.996	32980
699.026	32738
699.067	32283
699.116	31654
699.235	32193
699.354	31424
699.474	30940
699.593	30503
699.713	30551
699.832	30831
699.951	32376
700.070	30690
700.190	29571
700.309	29586
700.428	28613
700.547	29039
700.667	28971
700.786	28012
700.905	28342
701.024	28480
701.143	28263
701.262	27237
701.381	28737
701.500	29008
701.619	28814
701.738	27552
701.857	28503
701.976	27090
702.095	27315
702.214	28722
702.333	28112
702.452	27207
702.571	28182
702.690	28501
702.809	27883
702.928	26172
703.047	26798
703.165	26374
703.284	26540
703.403	25083
703.522	26354
703.640	26655
703.759	25836
703.878	27695
703.997	25584
704.115	25227
704.234	24696
704.353	25633
704.471	24264
704.590	23544
704.708	24270
704.827	23923
704.946	24569
705.064	24174
705.183	25625
705.301	26199
705.420	29817
705.538	29978
705.656	27716
705.775	27931
705.893	38399
706.012	58991
706.130	30313
706.249	27201
706.367	27452
706.485	26237
706.604	25780
706.722	25501
706.840	28204
706.958	35757
707.077	35358
707.195	25990
707.313	25226
707.431	24385
707.549	24050
707.668	23466
707.786	25877
707.904	23698
708.022	24312
708.140	23969
708.258	23284
708.376	24362
708.494	23854
708.612	24191
708.730	28717
708.848	28114
708.966	27924
709.084	26034
709.202	26300
709.320	26359
709.438	25748
709.556	25927
709.674	25134
709.791	25790
709.909	24886
710.027	25311
710.145	25799
710.263	24578
710.380	24433
710.498	24292
710.616	24565
710.733	23290
710.851	24031
710.969	24372
711.086	24058
711.204	22829
711.322	23318
711.439	22600
711.557	23400
711.674	22737
711.792	22853
711.909	24567
712.027	27013
712.144	22423
712.262	22602
712.379	23606
712.497	25698
712.614	29215
712.732	26182
712.849	25318
712.966	24477
713.084	26111
713.201	25246
713.318	25139
713.436	25546
713.553	25485
713.670	25913
713.787	26746
713.905	26425
714.022	25390
714.139	24576
714.256	27463
714.373	30882
714.490	42855
714.608	77483
714.725	287066
714.842	549864
714.959	72981
715.076	30776
715.193	26597
715.310	25641
715.427	22874
715.544	22617
715.661	23061
715.778	23107
715.895	24220
716.011	23126
716.128	22273
716.245	22173
716.362	22984
716.479	22159
716.596	21513
716.713	23471
716.829	21450
716.946	21317
717.063	20441
717.180	20363
717.296	20760
717.413	21862
717.530	20454
717.646	20775
717.763	20105
717.880	19445
717.996	19244
718.113	19265
718.229	18962
718.346	19350
718.462	18273
718.579	20516
718.695	20658
718.812	21174
718.928	19706
719.045	19963
719.161	19358
719.277	18088
719.394	18393
719.510	19655
719.626	19572
719.743	22148
719.859	25763
719.975	36030
720.092	92305
720.208	302362
720.324	83885
720.440	22946
720.557	20511
720.673	20491
720.789	22013
720.905	29971
721.021	24352
721.137	18523
721.253	17626
721.369	17336
721.486	17946
721.602	19610
721.718	17496
721.834	16775
721.950	17044
722.066	16410
722.181	16172
722.297	16570
722.413	16440
722.529	17343
722.645	15391
722.761	16044
722.877	16701
722.993	15588
723.108	17405
723.224	16747
723.340	16711
723.456	16431
723.571	16105
723.687	15881
723.803	16313
723.918	16101
724.034	15331
724.150	15365
724.265	14830
724.381	17774
724.497	21782
724.612	15665
724.728	14105
724.843	13425
724.959	14528
725.074	16818
725.190	20405
725.305	14667
725.421	14414
725.536	14150
725.651	14379
725.767	15063
725.882	14295
725.997	14045
726.113	14570
726.228	14177
726.343	14046
726.459	13507
726.574	13548
726.689	13585
726.804	13491
726.920	13632
727.035	13167
727.150	14138
727.265	13573
727.380	13788
727.495	13575
727.610	13812
727.725	14588
727.841	15394
727.956	22166
728.071	25264
728.186	13870
728.301	12998
728.416	13073
728.531	13641
728.645	11853
728.760	13413
728.875	12793
728.990	12720
729.105	12691
729.220	12550
729.335	12718
729.449	12911
729.564	11966
729.679	13052
729.794	12873
729.908	12744
730.023	13085
730.138	12794
730.253	12990
730.367	12330
730.482	12508
730.596	12023
730.711	12796
730.826	15439
730.940	17255
731.055	13926
731.169	13083
731.284	13707
731.398	12354
731.513	13892
731.627	13856
731.742	14676
731.856	16606
731.970	15647
732.085	17478
732.199	19793
732.313	26328
732.428	50607
732.542	139615
732.656	142612
732.771	33746
732.885	21004
732.999	18170
733.113	18568
733.227	18352
733.342	17708
733.456	16884
733.570	16651
733.684	15950
733.798	16197
733.912	15156
734.026	16198
734.140	16437
734.254	16145
734.368	16284
734.482	19868
734.596	16312
734.710	15736
734.824	15437
734.938	15124
735.052	15112
735.166	15615
735.280	15527
735.393	14654
735.507	14018
735.621	15385
735.735	17224
735.849	15485
735.962	13648
736.076	14530
736.190	14498
736.303	14770
736.417	16317
736.531	13327
736.644	14504
736.758	14008
736.872	14230
736.985	14212
737.099	13605
737.212	12861
737.326	14329
737.439	13339
737.553	13254
737.666	13723
737.780	12959
737.893	13539
738.007	13217
738.120	13951
738.233	12574
738.347	13086
738.460	13391
738.573	13407
738.687	12623
738.800	13237
738.913	13257
739.026	13722
739.140	13578
739.253	14616
739.366	12479
739.479	12925
739.592	12497
739.705	11908
739.818	12177
739.932	12725
740.045	12257
740.158	12509
740.271	12248
740.384	13360
740.497	11676
740.610	12685
740.723	11645
740.836	12168
740.949	12510
741.062	13164
741.174	12335
741.287	12129
741.400	11864
741.513	12304
741.626	12981
741.739	12516
741.851	12115
741.964	12286
742.077	11797
742.189	10960
742.302	12310
742.415	11661
742.527	11223
742.640	11909
742.753	10923
742.865	12348
742.978	11613
743.090	11526
743.203	11335
743.316	11591
743.428	10825
743.541	12282
743.653	10809
743.766	10868
743.878	11808
743.990	10330
744.103	12000
744.215	11833
744.327	10689
744.440	12350
744.552	12367
744.664	11094
744.777	11110
744.889	11783
745.001	11191
745.113	11486
745.226	11178
745.338	11358
745.450	11434
745.562	12072
745.674	10787
745.786	11625
745.898	12021
746.010	11370
746.122	11110
746.234	11790
746.347	10966
746.459	11918
746.570	10330
746.682	11268
746.794	11219
746.906	9993
747.018	10340
747.130	10560
747.242	11398
747.354	10633
747.466	11269
747.577	10829
747.689	11893
747.801	11162
747.913	9714
748.024	10549
748.136	10707
748.248	10956
748.359	10539
748.471	10858
748.583	10093
748.694	10432
748.806	12436
748.918	11339
749.029	10672
749.141	11335
749.252	11205
749.364	10236
749.475	11388
749.587	11386
749.698	10287
749.809	10748
749.921	10173
750.032	11686
750.144	9586
750.255	10610
750.366	10127
750.478	10005
750.589	11019
750.700	10109
750.811	11712
750.923	11262
751.034	11253
751.145	13644
751.256	10778
751.367	10709
751.479	10384
751.590	10922
751.701	10992
751.812	10257
751.923	10961
752.034	10800
752.145	10705
752.256	10425
752.367	10763
752.478	10838
752.589	10262
752.700	11654
752.811	10265
752.922	10890
753.032	10143
753.143	12029
753.254	10611
753.365	11678
753.476	11366
753.586	11021
753.697	10338
753.808	11157
753.919	10628
754.029	10555
754.140	10783
754.251	10562
754.361	10587
754.472	11769
754.582	11366
754.693	10357
754.804	11391
754.914	10822
755.025	10941
755.135	10656
755.246	10745
755.356	11661
755.466	11701
755.577	11535
755.687	10793
755.798	11250
755.908	12111
756.018	10757
756.129	11640
756.239	10676
756.349	12287
756.460	11508
756.570	11700
756.680	10977
756.790	12460
756.900	12665
757.011	11212
757.121	11357
757.231	12690
757.341	12689
757.451	12366
757.561	11738
757.671	12131
757.781	13029
757.891	12479
758.001	12871
758.111	13078
758.221	14036
758.331	13038
758.441	13375
758.551	13912
758.661	13936
758.771	13924
758.880	14045
758.990	13394
759.100	14155
759.210	14312
759.320	14638
759.429	15137
759.539	15682
759.649	14925
759.758	16248
759.868	15705
759.978	15641
760.087	16614
760.197	16296
760.307	16759
760.416	17277
760.526	17111
760.635	17228
760.745	17535
760.854	17822
760.964	17970
761.073	19323
761.182	19467
761.292	19420
761.401	19984
761.511	18988
761.620	19437
761.729	21195
761.839	20874
761.948	21493
762.057	22529
762.166	22958
762.276	22141
762.385	24375
762.494	24478
762.603	24608
762.712	25664
762.822	25592
762.931	26481
763.040	27640
763.149	28860
763.258	30640
763.367	31084
763.476	32955
763.585	34539
763.694	35693
763.803	38445
763.912	41636
764.021	42205
764.130	44490
764.238	47508
764.347	50899
764.456	54132
764.565	58177
764.674	63000
764.783	67921
764.891	75706
765.000	84240
765.109	94295
765.217	107843
765.326	124543
765.435	147365
765.543	177958
765.652	216332
765.761	272996
765.869	354216
765.978	471879
766.086	651062
766.195	895780
766.303	1135346
766.412	1006610
766.520	823316
766.629	1071538
766.737	959713
766.846	724854
766.954	531722
767.062	398967
767.171	305646
767.279	241503
767.387	195981
767.496	161244
767.604	140136
767.712	121875
767.820	108147
767.928	98373
768.037	91136
768.145	85307
768.253	82693
768.361	78551
768.469	79631
768.577	79318
768.685	81704
768.793	86432
768.901	94841
769.009	107656
769.117	127006
769.225	159290
769.333	208403
769.441	295186
769.549	447793
769.657	720037
769.765	1028333
769.873	890788
769.981	914708
770.088	821390
770.196	549698
770.304	371083
770.412	268042
770.519	203162
770.627	159505
770.735	130663
770.842	109747
770.950	94551
771.058	82470
771.165	73743
771.273	66602
771.380	60274
771.488	55709
771.595	52501
771.703	48666
771.810	45790
771.918	42132
772.025	40940
772.133	39504
772.240	36635
772.348	36800
772.455	35021
772.562	33045
772.670	31367
772.777	29919
772.884	29336
772.991	27665
773.099	26861
773.206	26024
773.313	26304
773.420	24652
773.528	23964
773.635	22870
773.742	23420
773.849	22509
773.956	21735
774.063	21533
774.170	20899
774.277	20736
774.384	19286
774.491	19451
774.598	19785
774.705	19481
774.812	19463
774.919	19155
775.026	18961
775.133	17675
775.239	17479
775.346	17169
775.453	16568
775.560	16571
775.667	16393
775.773	17114
775.880	15988
775.987	15819
776.093	15888
776.200	15824
776.307	14881
776.413	14482
776.520	14938
776.627	14636
776.733	13671
776.840	13521
776.946	14871
777.053	13770
777.159	13364
777.266	12823
777.372	13906
777.478	13331
777.585	13830
777.691	12745
777.798	13343
777.904	14023
778.010	13852
778.117	13965
778.223	11971
778.329	12609
778.435	12016
778.542	13059
778.648	11612
778.754	11099
778.860	11706
778.966	11000
779.072	11325
779.178	11270
779.284	11273
779.391	12148
779.497	12789
779.603	16875
779.708	21336
779.815	39388
779.920	118153
780.026	312692
780.132	101816
780.238	21332
780.344	14695
780.450	14039
780.556	12718
780.661	10510
780.767	11631
780.873	10029
780.979	9937
781.085	9678
781.190	10357
781.296	9419
781.402	9274
781.507	9361
781.613	9489
781.719	9458
781.824	9863
781.930	8581
782.035	8554
782.141	9736
782.246	8042
782.352	8837
782.457	8460
782.563	8646
782.668	8979
782.773	8678
782.879	8632
782.984	8278
783.090	9072
783.195	8474
783.300	8733
783.405	8798
783.511	8256
783.616	8377
783.721	8020
783.826	7723
783.932	8070
784.037	7677
784.142	7938
784.247	7847
784.352	7542
784.457	7772
784.562	8033
784.667	7692
784.772	7008
784.877	7363
784.982	8034
785.087	8209
785.192	7256
785.297	6958
785.402	7158
785.507	7741
785.611	6977
785.716	6275
785.821	6456
785.926	7145
786.031	6994
786.135	7500
786.240	6809
786.345	6412
786.450	6607
786.554	7100
786.659	6429
786.763	6259
786.868	6464
786.973	7355
787.077	6206
787.182	6973
787.286	6440
787.391	7396
787.495	6931
787.600	6639
787.704	5505
787.809	6906
787.913	5925
788.017	7180
788.122	6101
788.226	7283
788.330	5239
788.435	5927
788.539	6468
788.643	7099
788.747	6099
788.852	5816
788.956	5409
789.060	5827
789.164	5782
789.268	5359
789.372	5701
789.476	5344
789.580	5813
789.684	5907
789.788	5774
789.892	6212
789.996	5961
790.100	5672
790.204	5670
790.308	5746
790.412	5235
790.516	4823
790.620	5729
790.724	6893
790.828	5903
790.931	4893
791.035	5738
791.139	6119
791.242	5420
791.346	6057
791.450	5548
791.554	5469
791.657	4150
791.761	5827
791.864	5188
791.968	4911
792.072	5382
792.175	5856
792.279	4892
792.382	5551
792.486	5138
792.589	5024
792.693	4735
792.796	4974
792.899	5239
793.003	5381
793.106	4586
793.209	5031
793.313	5679
793.416	3725
793.519	5665
793.623	4974
793.726	5829
793.829	5238
793.932	5299
794.035	4592
794.138	5667
794.242	6726
794.345	7595
794.448	11385
794.551	22249
794.654	67098
794.757	188306
794.860	67493
794.963	11582
795.066	7103
795.169	6289
795.272	6067
795.375	6026
795.477	4333
795.580	4268
795.683	3922
795.786	4722
795.889	3878
795.991	5540
796.094	5262
796.197	3955
796.300	4966
796.402	3589
796.505	4248
796.608	4429
796.710	4051
796.813	4339
796.915	5288
797.018	4825
797.120	4275
797.223	3586
797.326	4838
797.428	4490
797.530	4448
797.633	3285
797.735	5081
797.838	4575
797.940	5097
798.042	4331
798.145	3789
798.247	3988
798.349	3339
798.452	4473
798.554	4369
798.656	3713
798.758	4750
798.860	4301
798.962	4205
799.065	3863
799.167	3312
799.269	4536
799.371	4469
799.473	4470
799.575	3590
799.677	4803
799.779	4389
799.881	3955
799.983	4864
800.085	3929
800.187	4065
800.289	3082
800.390	3025
800.492	3589
800.594	4315
800.696	3086
800.798	4196
800.899	3362
801.001	4252
801.103	3122
801.205	3879
801.306	3055
801.408	3304
801.509	4055
801.611	3473
801.713	4128
801.814	3413
801.916	2554
802.017	3388
802.119	3389
802.220	3178
802.322	2694
802.423	3769
802.525	3350
802.626	3565
802.727	3234
802.829	4416
802.930	2205
803.031	3936
803.133	3313
803.234	3609
803.335	3508
803.436	2778
803.538	3115
803.639	2717
803.740	4344
803.841	3573
803.942	3254
804.043	3635
804.144	3001
804.245	3225
804.346	2436
804.447	3709
804.548	3086
804.649	4817
804.750	2990
804.851	2536
804.952	2833
805.053	3459
805.154	2486
805.255	4121
805.355	2867
805.456	3873
805.557	3440
805.658	2678
805.758	3654
805.859	3044
805.960	3386
806.061	3307
806.161	3397
806.262	3186
806.362	3004
806.463	2308
806.564	3443
806.664	3929
806.765	3035
806.865	3614
806.966	2971
807.066	3081
807.166	3670
807.267	3250
807.367	3238
807.468	4029
807.568	2328
807.668	3918
807.769	3165
807.869	3594
807.969	3451
808.069	3975
808.170	3030
808.270	3114
808.370	3479
808.470	3279
808.570	3149
808.670	2790
808.770	2837
808.870	2666
808.970	3661
809.070	3464
809.170	3044
809.271	2751
809.370	3430
809.470	3222
809.570	2401
809.670	2032
809.770	2448
809.870	2859
809.970	2938
810.070	2811
810.169	3487
810.269	2309
810.369	3698
810.469	3192
810.568	3214
810.668	2738
810.768	2577
810.867	2820
810.967	2712
811.066	3138
811.166	2065
811.265	2748
811.365	2092
811.464	3313
811.564	2772
811.663	3379
811.763	2404
811.862	3325
811.962	3130
812.061	3313
812.160	1824
812.260	2908
812.359	2654
812.458	3666
812.557	6711
812.657	11512
812.756	7057
812.855	4435
812.954	2951
813.053	2859
813.153	2830
813.252	2816
813.351	3263
813.450	2987
813.549	2336
813.648	3573
813.747	2704
813.846	3314
813.945	2885
814.044	2028
814.143	3265
814.242	4312
814.341	3111
814.439	3067
814.538	3397
814.637	3397
814.736	3675
814.835	4393
814.933	3095
815.032	3785
815.131	3909
815.229	5585
815.328	7371
815.427	6344
815.525	6320
815.624	6194
815.722	5432
815.821	6085
815.919	5693
816.018	5929
816.116	6714
816.215	6395
816.313	6731
816.412	7088
816.510	8147
816.609	8847
816.707	9191
816.805	9005
816.904	7750
817.002	10197
817.100	9198
817.198	10597
817.296	11770
817.395	11841
817.493	13846
817.591	15178
817.689	18291
817.787	23462
817.885	30968
817.983	49356
818.081	87479
818.179	176054
818.277	364709
818.375	431065
818.473	226696
818.571	102311
818.669	61242
818.767	48169
818.865	45063
818.963	48019
819.061	61713
819.158	90809
819.256	154887
819.354	290322
819.452	501695
819.549	462702
819.647	270915
819.745	140353
819.842	81130
819.940	55725
820.038	39648
820.135	30234
820.233	24715
820.330	21543
820.428	16921
820.525	16509
820.623	14896
820.720	11695
820.818	11215
820.915	11136
821.012	10312
821.110	8260
821.207	8952
821.304	7673
821.402	7758
821.499	8150
821.596	7472
821.693	7578
821.791	7927
821.888	6551
821.985	8192
822.082	7189
822.179	6095
822.276	6693
822.373	5940
822.470	5148
822.567	6173
822.664	5403
822.761	4701
822.858	5113
822.955	5496
823.052	4977
823.149	4165
823.246	5416
823.343	4696
823.440	4692
823.536	4314
823.633	5329
823.730	3885
823.827	4969
823.923	4851
824.020	5544
824.117	4090
824.213	4403
824.310	3926
824.407	3968
824.503	4201
824.600	4636
824.696	4000
824.793	5120
824.889	4331
824.986	3765
825.082	3607
825.179	4071
825.275	4180
825.371	4433
825.468	4411
825.564	3448
825.660	3270
825.757	4338
825.853	3853
825.949	3050
826.045	2960
826.142	3706
826.238	4627
826.334	3977
826.430	3450
826.526	2937
826.622	3500
826.718	3863
826.814	3856
826.910	3998
827.006	2355
827.102	2958
827.198	3561
827.294	4247
827.390	3625
827.486	3613
827.582	2204
827.678	2651
827.774	3429
827.869	2388
827.965	3655
828.061	3385
828.157	2902
828.252	3838
828.348	3287
828.444	3910
828.539	1654
828.635	2565
828.731	3319
828.826	2356
828.922	2505
829.017	3517
829.113	3512
829.208	2507
829.304	2517
829.399	4017
829.495	3043
829.590	3953
829.685	3237
829.781	3467
829.876	3890
829.971	2965
830.066	3200
830.162	1701
830.257	3566
830.352	3220
830.447	2602
830.543	3269
830.638	1758
830.733	4203
830.828	2437
830.923	2903
831.018	2630
831.113	3199
831.208	1478
831.303	3115
831.398	2718
831.493	2392
831.588	4210
831.683	2723
831.778	2140
831.873	3303
831.967	3223
832.062	3177
832.157	2339
832.252	3308
832.346	2731
832.441	3709
832.536	3789
832.631	4130
832.725	4400
832.820	2500
832.914	2828
833.009	2106
833.104	2851
833.198	2213
833.293	1651
833.387	3034
833.482	2905
833.576	3109
833.670	2785
833.765	3082
833.859	2096
833.954	3052
834.048	2368
834.142	2976
834.237	1926
834.331	2892
834.425	3142
834.519	1839
834.613	3027
834.708	3082
834.802	2249
834.896	2116
834.990	2962
835.084	2251
835.178	1893
835.272	2546
835.366	2889
835.460	3786
835.554	2884
835.648	2229
835.742	1887
835.836	1840
835.930	1031
836.024	3200
836.117	3234
836.211	2865
836.305	1960
836.399	2947
836.493	1828
836.586	3448
836.680	1945
836.774	3219
836.867	3190
836.961	1684
837.055	1884
837.148	1265
837.242	2257
837.335	1953
837.429	1962
837.522	1946
837.616	2022
837.709	2695
837.803	3351
837.896	2581
837.989	2196
838.083	2638
838.176	1534
838.269	3301
838.363	1878
838.456	1940
838.549	2573
838.642	2489
838.735	4146
838.829	3828
838.922	1980
839.015	1834
839.108	1297
839.201	2472
839.294	2127
839.387	1628
839.480	1619
839.573	2558
839.666	2279
839.759	1986
839.852	1513
839.945	1258
840.038	2369
840.131	2434
840.223	1965
840.316	2008
840.409	2292
840.502	2017
840.594	1692
840.687	1530
840.780	1082
840.873	1932
840.965	1047
841.058	1809
841.150	2081
841.243	2173
841.336	2775
841.428	1396
841.521	1895
841.613	1132
841.706	1829
841.798	2376
841.890	1027
841.983	1772
842.075	2049
842.167	1902
842.260	1793
842.352	2120
842.444	2306
842.537	2427
842.629	3084
842.721	2537
842.813	1723
842.905	335
842.997	2047
843.090	1634
843.182	2393
843.274	1115
843.366	3380
843.458	5788
843.550	7832
843.642	2732
843.734	2165
843.826	2754
843.918	1797
844.009	1328
844.101	1659
844.193	1894
844.285	847
844.377	1616
844.469	1482
844.560	1759
844.652	1098
844.744	1776
844.835	1002
844.927	1726
845.019	1632
845.110	1450
845.202	1660
845.293	1415
845.385	1472
845.476	1738
845.568	1991
845.659	1085
845.751	1715
845.842	1821
845.934	1151
846.025	1076
846.116	1209
846.208	1876
846.299	1105
846.390	1224
846.482	796
846.573	873
846.664	818
846.755	1101
846.846	2113
846.937	631
847.029	1348
847.120	601
847.211	1358
847.302	1840
847.393	1024
847.484	1985
847.575	420
847.666	872
847.757	1011
847.847	543
847.938	1478
848.029	1246
848.120	760
848.211	1160
848.302	1197
848.392	1034
848.483	1034
848.574	1213
848.664	1208
848.755	1280
848.846	1986
848.936	1342
849.027	1615
849.118	749
849.208	1191
849.299	1671
849.389	2261
849.480	3844
849.570	5284
849.661	8469
849.751	17590
849.841	12328
849.932	2130
850.022	2132
850.112	1825
850.203	1719
850.293	1413
850.383	2603
850.474	974
850.564	815
850.654	1314
850.744	1083
850.834	947
850.924	1207
851.014	1757
851.104	2056
851.194	1123
851.284	1285
851.374	2114
851.464	1334
851.554	1715
851.644	1387
851.734	2594
851.824	3703
851.914	4853
852.004	8509
852.094	12387
852.183	5322
852.273	1885
852.363	665
852.452	1305
852.542	1699
852.632	1045
852.721	1678
852.811	1484
852.901	2456
852.990	1350
853.080	1486
853.169	1096
853.259	1553
853.348	866
853.438	2392
853.527	2186
853.617	2572
853.706	4042
853.795	6371
853.885	15240
853.974	28144
854.063	47804
854.152	91842
854.242	56090
854.331	11215
854.420	4301
854.509	2883
854.598	3214
854.687	2566
854.777	1785
854.866	1670
854.955	1848
855.044	1511
855.133	1598
855.222	1200
855.311	954
855.400	1809
855.488	2319
855.577	1411
855.666	596
855.755	2068
855.844	1800
855.933	2487
856.021	2079
856.110	1547
856.199	1260
856.288	1326
856.376	975
856.465	1002
856.554	2095
856.642	1820
856.731	2198
856.819	1163
856.908	1172
856.996	1595
857.085	816
857.173	1523
857.262	1089
857.350	1386
857.438	1047
857.527	1212
857.615	887
857.703	1864
857.792	1359
857.880	1406
857.968	657
858.056	894
858.145	1023
858.233	2164
858.321	684
858.409	2759
858.497	1215
858.585	1644
858.673	1206
858.761	1153
858.849	808
858.937	1440
859.025	645
859.113	1466
859.201	504
859.289	1789
859.377	964
859.465	1160
859.552	723
859.640	150
859.728	1921
859.816	1162
859.903	1491
859.991	926
860.079	1717
860.166	1270
860.254	1280
860.342	1423
860.429	1163
860.517	1283
860.604	1447
860.692	1693
860.779	1568
860.867	1555
860.954	1176
861.042	1209
861.129	1146
861.216	1197
861.304	920
861.391	989
861.478	1282
861.565	1523
861.653	1559
861.740	1186
861.827	253
861.914	1204
862.001	485
862.089	1480
862.176	1160
862.263	1179
862.350	1017
862.437	812
862.524	1366
862.611	941
862.698	1197
862.785	1335
862.871	1165
862.958	1176
863.045	855
863.132	1532
863.219	611
863.306	938
863.392	1499
863.479	1444
863.566	680
863.652	1425
863.739	870
863.826	1050
863.912	1209
863.999	1010
864.086	1230
864.172	1639
864.259	1561
864.345	1287
864.432	1903
864.518	1119
864.604	1621
864.691	1686
864.777	1052
864.863	2232
864.950	2052
865.036	3048
865.122	4585
865.209	5890
865.295	4261
865.381	3772
865.467	4196
865.553	4667
865.639	4374
865.726	6731
865.812	9372
865.898	16173
865.984	24398
866.070	39027
866.156	58975
866.242	25270
866.328	7238
866.414	3983
866.499	5388
866.585	4006
866.671	3803
866.757	4312
866.843	4346
866.928	4071
867.014	3597
867.100	3969
867.186	3157
867.271	4042
867.357	4180
867.442	3607
867.528	3800
867.614	3768
867.699	3401
867.785	3248
867.870	2727
867.956	3070
868.041	3932
868.127	2823
868.212	3407
868.297	3113
868.383	4014
868.468	3699
868.553	4180
868.639	3901
868.724	4454
868.809	6053
868.894	4199
868.979	2908
869.065	3386
869.150	2028
869.235	3361
869.320	2677
869.405	2528
869.490	3401
869.575	3412
869.660	2045
869.745	2557
869.830	3188
869.915	2506
870.000	2507
870.085	2611
870.169	3148
870.254	3523
870.339	3115
870.424	1783
870.509	2602
870.593	2749
870.678	3384
870.763	2498
870.847	2889
870.932	2745
871.016	2638
871.101	2521
871.186	2446
871.270	3322
871.355	2581
871.439	2317
871.523	2988
871.608	2416
871.692	1967
871.777	2237
871.861	2543
871.945	2783
872.030	1617
872.114	1964
872.198	2435
872.282	1151
872.367	1816
872.451	1916
872.535	2198
872.619	2178
872.703	1993
872.787	2263
872.871	2677
872.955	2226
873.039	1746
873.123	1976
873.207	2671
873.291	1481
873.375	1723
873.459	2425
873.543	2105
873.627	2333
873.711	2020
873.794	2468
873.878	2347
873.962	1711
874.045	2719
874.129	2498
874.137	2401
874.213	1431
874.245	1646
874.296	2001
874.352	1882
874.380	1824
874.460	2635
874.464	2668
874.547	1690
874.568	1579
874.631	1266
874.676	1680
874.714	2006
874.784	2064
874.798	2082
874.881	2800
874.892	2557
874.965	836
874.999	1154
875.048	1648
875.107	2037
875.131	2169
875.215	1954
875.215	1953
875.298	1596
875.323	1671
875.381	1871
875.430	2035
875.465	2153
875.538	1556
875.548	1462
875.631	1492
875.646	1406
875.714	1052
875.753	1279
875.798	1565
875.861	1796
875.881	1860
875.964	1589
875.968	1564
876.047	1173
876.076	1378
876.130	1654
876.183	1997
876.213	2256
876.291	1523
876.296	1468
876.379	1425
876.398	1394
876.462	1253
876.506	1216
876.545	1225
876.613	1141
876.628	1092
876.711	1288
876.721	1318
876.794	1694
876.828	1536
876.877	1362
876.935	961
876.960	749
877.043	1910
877.043	1908
877.125	1305
877.150	1429
877.208	1903
877.258	1841
877.291	1685
877.365	1284
877.374	1247
877.456	1594
877.472	1499
877.539	1077
877.579	1357
877.622	1635
877.687	1625
877.704	1633
877.787	1880
877.794	1833
877.869	1362
877.901	1569
877.952	1835
878.008	1396
878.034	1231
878.115	950
878.117	941
878.199	1475
878.222	1327
878.282	1125
878.329	1689
878.364	1974
878.437	1301
878.447	1234
878.529	1088
878.544	1057
878.611	913
878.651	1081
878.694	1184
878.758	1250
878.776	1287
878.858	1827
878.865	1774
878.941	1202
878.972	1388
879.023	1588
879.078	909
879.105	663
879.185	1454
879.187	1468
879.269	1906
879.292	2029
879.351	2188
879.399	1532
879.433	1084
879.506	1084
879.516	1115
879.598	750
879.613	853
879.680	912
879.720	830
879.762	975
879.827	1312
879.844	1330
879.926	609
879.933	654
880.007	1171
880.040	1152
880.089	1325
880.147	1127
880.171	986
880.253	1995
880.254	1993
880.335	1064
880.360	1181
880.417	1881
880.467	2256
880.499	2418
880.574	3163
880.580	3186
880.662	2237
880.680	2011
880.744	1148
880.787	1088
880.825	1287
880.893	894
880.907	779
880.989	1099
881.000	1100
881.070	982
881.106	609
881.152	381
881.213	708
881.233	759
881.315	1106
881.319	1081
881.396	335
881.426	460
881.478	1239
881.532	1372
881.559	1196
881.639	846
881.641	843
881.722	478
881.745	637
881.803	901
881.852	803
881.885	811
881.958	749
881.966	748
882.047	760
882.064	827
882.129	1204
882.171	1303
882.210	1212
882.277	1108
882.291	1098
882.372	1125
882.383	1110
882.454	1213
882.489	1208
882.535	970
882.596	1180
882.616	1302
882.697	875
882.702	887
882.778	995
882.808	771
882.859	318
882.914	468
882.940	702
883.020	739
883.021	734
883.102	532
883.127	434
883.183	579
883.233	803
883.264	821
883.339	442
883.345	431
883.426	444
883.445	509
883.507	485
883.551	554
883.587	683
883.657	603
883.668	636
883.749	1121
883.763	1182
883.830	1073
883.869	889
883.910	738
883.975	786
883.991	799
884.072	807
884.081	768
884.152	408
884.187	508
884.233	889
884.292	1161
884.314	1105
884.394	586
884.398	567
884.475	246
884.504	292
884.555	464
884.610	207
884.636	99
884.716	335
884.716	334
884.797	111
884.821	212
884.877	565
884.927	423
884.958	369
885.033	177
885.038	147
885.118	235
885.139	203
885.199	241
885.244	313
885.279	277
885.350	153
885.359	244
885.439	1182
885.456	1289
885.520	767
885.561	502
885.600	485
885.667	791
885.680	805
885.760	427
885.773	436
885.840	551
885.878	607
885.920	626
885.984	375
886.000	338
886.080	150
886.089	163
886.160	348
886.195	407
886.240	524
886.300	438
886.320	411
886.400	721
886.406	721
886.480	599
886.511	748
886.560	971
886.616	921
886.640	892
886.720	918
886.722	914
886.800	205
886.827	27
886.879	475
886.932	906
886.959	828
887.038	688
887.039	681
887.119	14
887.143	-113
887.198	200
887.248	465
887.278	516
887.354	635
887.358	638
887.437	630
887.459	639
887.517	339
887.564	161
887.596	390
887.669	841
887.676	822
887.755	555
887.774	490
887.835	647
887.880	788
887.914	837
887.985	845
887.994	853
888.073	1111
888.090	1138
888.153	1008
888.195	850
888.232	708
888.300	620
888.311	598
888.391	367
888.405	318
888.470	350
888.510	394
888.549	444
888.615	550
888.628	569
888.708	728
888.720	742
888.787	349
888.825	108
888.866	192
888.930	400
888.945	392
889.024	352
889.035	344
889.103	448
889.140	508
889.182	251
889.245	-130
889.261	-44
889.340	422
889.349	477
889.419	642
889.454	727
889.498	677
889.559	620
889.577	535
889.656	186
889.664	158
889.735	1234
889.768	1749
889.814	1243
889.873	568
889.978	480
890.083	552
890.187	179
890.292	404
890.397	384
890.501	777
890.606	556
890.710	395
890.815	-1
890.919	323
891.024	38
891.128	435
891.233	1010
891.337	219
891.442	867
891.546	394
891.650	394
891.755	730
891.859	1152
891.963	1410
892.068	934
892.172	778
892.276	-191
892.380	-163
892.484	1176
892.589	4
892.693	125
892.797	402
892.901	1035
893.005	837
893.109	-155
893.213	969
893.317	368
893.421	560
893.525	762
893.629	313
893.733	473
893.837	-100
893.941	-138
894.045	717
894.148	961
894.252	938
894.356	2133
894.460	580
894.564	450
894.667	-485
894.771	-313
894.875	471
894.978	711
895.082	78
895.186	-504
895.289	802
895.393	496
895.496	-164
895.600	260
895.703	531
895.807	380
895.910	103
896.014	496
896.117	-22
896.221	270
896.324	-152
896.427	398
896.531	-16
896.634	-141
896.737	379
896.840	625
896.944	-360
897.047	644
897.150	425
897.253	597
897.356	-51
897.460	478
897.563	471
897.666	121
897.769	1006
897.872	-365
897.975	7
898.078	867
898.181	-447
898.284	-112
898.387	330
898.490	806
898.593	596
898.695	455
898.798	-12
898.901	162
899.004	297
899.107	-192
899.209	833
899.312	26
899.415	280
899.518	1280
899.620	-79
899.723	74
899.826	-236
899.928	277
900.031	-306
900.133	-33
900.236	-624
900.338	548
900.441	638
900.543	796
900.646	745
900.748	198
900.851	498
900.953	434
901.055	-408
901.158	261
901.260	-136
901.362	269
901.465	-85
901.567	460
901.669	512
901.771	178
901.873	43
901.976	-211
902.078	750
902.180	117
902.282	436
902.384	540
902.486	415
902.588	-63
902.690	39
902.792	405
902.894	183
902.996	623
903.098	-32
903.200	-52
903.302	-212
903.404	42
903.505	232
903.607	-26
903.709	870
903.811	385
903.913	471
904.014	38
904.116	-111
904.218	74
904.319	-258
904.421	189
904.523	723
904.624	717
904.726	-432
904.827	626
904.929	-219
905.030	89
905.132	154
905.233	651
905.335	117
905.436	608
905.537	-687
905.639	671
905.740	20
905.841	289
905.943	-362
906.044	178
906.145	-581
906.247	77
906.348	978
906.449	568
906.550	578
906.651	275
906.752	367
906.854	514
906.955	237
907.056	464
907.157	236
907.258	1154
907.359	-1238
907.460	773
907.561	660
907.662	173
907.762	182
907.863	167
907.964	420
908.065	435
908.166	703
908.267	469
908.367	-532
908.468	338
908.569	750
908.670	-476
908.770	431
908.871	746
908.971	447
909.072	653
909.173	-296
909.273	448
909.374	-404
909.474	668
909.575	-100
909.675	-258
909.776	772
909.876	-44
909.977	-629
910.077	1396
910.177	-303
910.278	-224
910.378	-446
910.478	-672
910.579	-375
910.679	32
910.779	-35
910.879	195
910.980	503
911.080	89
911.180	-227
911.280	-81
911.380	-256
911.480	400
911.580	-551
911.680	-371
911.780	562
911.880	71
911.980	-176
912.080	509
912.180	419
912.280	1139
912.380	-179
912.480	108
912.580	98
912.679	334
912.779	-783
912.879	279
912.979	-357
913.078	-649
913.178	-155
913.278	-9
913.377	110
913.477	-121
913.577	53
913.676	578
913.776	222
913.875	110
913.975	148
914.074	667
914.174	79
914.273	-108
914.373	-100
914.472	430
914.572	382
914.671	620
914.770	-121
914.870	-360
914.969	5
915.068	430
915.167	87
915.267	-1
915.366	658
915.465	543
915.564	-53
915.663	391
915.763	328
915.862	-31
915.961	-515
916.060	-116
916.159	404
916.258	174
916.357	-213
916.456	215
916.555	51
916.654	8
916.752	138
916.851	803
916.950	-493
917.049	-385
917.148	1059
917.247	460
917.345	-111
917.444	-463
917.543	-282
917.642	171
917.740	358
917.839	266
917.937	-357
918.036	91
918.135	36
918.233	-59
918.332	-27
918.430	-76
918.529	-21
918.627	-208
918.726	-77
918.824	184
918.923	-299
919.021	95
919.119	-173
919.218	514
919.316	360
919.414	-304
919.512	434
919.611	-29
919.709	-116
919.807	759
919.905	-429
920.003	195
920.102	18
920.200	440
920.298	-316
920.396	219
920.494	350
920.592	-281
920.690	862
920.788	756
920.886	-849
920.984	686
921.082	-725
921.180	579
921.277	445
921.375	-274
921.473	-175
921.571	184
921.669	-66
921.766	624
921.864	520
921.962	652
922.060	-234
922.157	390
922.255	319
922.352	166
922.450	621
922.548	404
922.645	504
922.743	1350
922.840	571
922.938	1409
923.035	1046
923.133	487
923.230	581
923.327	1363
923.425	941
923.522	1314
923.619	1434
923.717	260
923.814	1318
923.911	968
924.008	1646
924.106	931
924.203	576
924.300	1089
924.397	921
924.494	1207
924.591	943
924.688	792
924.786	974
924.883	408
924.979	1177
925.077	1068
925.173	896
925.270	1333
925.367	534
925.464	1466
925.561	1264
925.658	1464
925.755	1195
925.852	1540
925.948	636
926.045	407
926.142	1322
926.239	1232
926.335	1218
926.432	948
926.529	1548
926.625	1268
926.722	578
926.818	878
926.915	1713
927.011	1304
927.108	1113
927.204	829
927.301	836
927.397	493
927.494	1256
927.590	1235
927.687	867
927.783	1095
927.879	245
927.976	689
928.072	484
928.168	1391
928.264	1762
928.361	921
928.457	799
928.553	643
928.649	200
928.745	731
928.841	1692
928.937	1551
929.033	937
929.129	1427
929.225	559
929.321	1259
929.417	652
929.513	1025
929.609	235
929.705	614
929.801	736
929.897	366
929.993	394
930.089	1543
930.184	361
930.280	695
930.376	1367
930.471	950
930.567	322
930.663	300
930.758	169
930.854	369
930.950	359
931.045	760
931.141	508
931.236	1608
931.332	322
931.427	361
931.523	387
931.618	941
931.714	452
931.809	741
931.905	309
932.000	152
932.095	314
932.191	506
932.286	-9
932.381	608
932.476	1036
932.572	1112
932.667	183
932.762	736
932.857	1241
932.952	1760
933.047	561
933.142	256
933.237	287
933.332	650
933.427	1332
933.522	742
933.617	849
933.712	574
933.807	1001
933.902	1303
933.997	916
934.092	119
934.187	697
934.282	660
934.376	319
934.471	709
934.566	-242
934.661	412
934.755	915
934.850	459
934.945	815
935.039	566
935.134	543
935.228	940
935.323	671
935.417	792
935.512	-876
935.606	-134
935.701	165
935.795	73
935.890	47
935.984	329
936.079	-224
936.173	1205
936.267	252
936.362	-25
936.456	736
936.550	705
936.644	100
936.738	384
936.833	310
936.927	770
937.021	-11
937.115	234
937.209	806
937.303	1332
937.397	487
937.491	24
937.585	590
937.679	806
937.773	745
937.867	-430
937.961	-115
938.055	169
938.149	1065
938.243	-421
938.337	153
938.430	-104
938.524	519
938.618	302
938.712	1039
938.805	1151
938.899	-199
938.993	563
939.086	543
939.180	227
939.274	-234
939.367	668
939.461	667
939.554	671
939.648	-476
939.741	176
939.835	-117
939.928	387
940.022	-251
940.115	47
940.208	211
940.302	1021
940.395	918
940.488	-810
940.582	96
940.675	272
940.768	-137
940.861	193
940.954	25
941.048	275
941.141	-162
941.234	241
941.327	-619
941.420	526
941.513	162
941.606	-240
941.699	-380
941.792	280
941.885	696
941.978	930
942.071	-39
942.164	-241
942.257	-334
942.349	503
942.442	503
942.535	-328
942.628	105
942.721	819
942.813	-449
942.906	-336
942.999	-485
943.091	177
943.184	-741
943.277	-507
943.369	-716
943.462	-429
943.554	281
943.647	10
943.739	856
943.832	333
943.924	-1242
944.017	-45
944.109	-173
944.201	-38
944.294	-114
944.386	-673
944.478	-430
944.571	193
944.663	-104
944.755	383
944.847	-331
944.940	230
945.032	-68
945.124	53
945.216	-75
945.308	-495
945.400	491
945.492	-455
945.584	-1044
945.676	-113
945.768	-201
945.860	73
945.952	-22
946.044	146
946.136	-376
946.228	-187
946.320	-665
946.412	-789
946.503	94
946.595	-62
946.687	-945
946.779	-40
946.870	-176
946.962	133
947.054	-3
947.145	-285
947.237	-797
947.329	-886
947.420	-554
947.512	-541
947.603	-65
947.695	-515
947.786	-1078
947.878	80
947.969	-207
948.061	-184
948.152	-673
948.243	-528
948.335	-347
948.426	-904
948.517	-875
948.609	176
948.700	-810
948.791	-733
948.882	-726
948.973	-457
949.065	-995
949.156	-100
949.247	-1042
949.338	-640
949.429	-363
949.520	-733
949.611	-1397
949.702	-288
949.793	-1107
949.884	-124
949.975	90
950.066	-751
950.157	-697
950.247	186
950.338	-1167
950.429	-890
950.520	407
950.611	-6
950.701	-574
950.792	155
950.883	-502
950.973	332
951.064	-346
951.155	-793
951.245	145
951.336	-308
951.427	-1159
951.517	-98
951.608	-1167
951.698	-106
951.788	-940
951.879	-270
951.969	-574
952.060	-523
952.150	-1495
952.240	-405
952.331	-1590
952.421	-8
952.511	-749
952.602	-384
952.692	-680
952.782	-981
952.872	-588
952.962	-989
953.052	-781
953.143	-962
953.233	5
953.323	-217
953.413	-542
953.503	-664
953.593	-769
953.683	-924
953.773	-1620
953.863	-942
953.953	-862
954.042	206
954.132	-1289
954.222	-222
954.312	-171
954.402	-998
954.492	-240
954.581	191
954.671	-342
954.761	-341
954.850	616
954.940	-908
955.030	-882
955.119	-1369
955.209	-1256
955.298	-1039
955.388	-564
955.477	-308
955.567	-794
955.656	119
955.746	-866
955.835	-908
955.925	-848
956.014	-479
956.103	-1115
956.193	-419
956.282	-385
956.371	312
956.461	-626
956.550	-289
956.639	-506
956.728	-760
956.817	-83
956.906	-923
956.995	-283
957.085	-954
957.174	-986
957.263	-646
957.352	-977
957.441	-221
957.530	-873
957.619	-332
957.708	-1256
957.796	-901
957.885	-1251
957.974	-560
958.063	-453
958.152	-816
958.241	-476
958.329	-398
958.418	-921
958.507	-871
958.596	-816
958.684	-215
958.773	-826
958.861	-1140
958.950	-347
959.039	-40
959.127	115
959.216	-590
959.304	-303
959.393	76
959.481	-441
959.570	392
959.658	-1067
959.746	-725
959.835	-91
959.923	813
960.011	-526
960.100	32
960.188	-312
960.276	-1300
960.365	-135
960.453	-728
960.541	-1168
960.629	-591
960.717	-927
960.805	-911
960.893	-276
960.981	-431
961.069	283
961.158	-192
961.245	-269
961.333	-306
961.421	-81
961.509	-972
961.597	-837
961.685	-1037
961.773	-897
961.861	-379
961.949	-199
962.036	-528
962.124	-1573
962.212	-99
962.299	-1153
962.387	-659
962.475	-678
962.562	-1215
962.650	-175
962.738	-228
962.825	-979
962.913	-159
963.000	-466
963.088	-567
963.175	-1186
963.263	-280
963.350	-139
963.438	-866
963.525	-527
963.612	175
963.700	563
963.787	2033
963.874	1314
963.962	198
964.049	-692
964.136	-1009
964.223	-773
964.310	-265
964.398	31
964.485	-1385
964.572	-570
964.659	189
964.746	72
964.833	-445
964.920	-342
965.007	-149
965.094	-673
965.181	-1147
965.268	-18
965.355	-505
965.441	-1115
965.528	-925
965.615	-199
965.702	-743
965.789	-875
965.875	716
965.962	-1037
966.049	-744
966.136	-223
966.222	-706
966.309	-712
966.395	-19
966.482	-1307
966.569	-1119
966.655	-891
966.742	-766
966.828	-1061
966.915	-356
967.001	-752
967.087	-830
967.174	-965
967.260	209
967.347	-554
967.433	-84
967.519	1480
967.605	717
967.692	-364
967.778	-978
967.864	-536
967.950	-1262
968.036	-1261
968.123	-854
968.209	-1406
968.295	-1073
968.381	-601
968.467	60
968.553	-1274
968.639	-76
968.725	-1006
968.811	324
968.897	-130
968.983	-336
969.069	-1047
969.154	-452
969.240	-1230
969.326	-874
969.412	-1723
969.497	-982
969.583	-1108
969.669	-613
969.755	-1045
969.840	-947
969.926	-729
970.012	-587
970.097	44
970.183	-837
970.268	-1043
970.354	69
970.439	-375
970.525	458
970.610	-570
970.696	-209
970.781	-748
970.866	-1251
970.952	-1853
971.037	-627
971.122	-532
971.208	-768
971.293	-795
971.378	-1155
971.463	-1498
971.549	-97
971.634	-1091
971.719	-718
971.804	-1532
971.889	-365
971.974	-1581
972.059	-685
972.144	-630
972.229	-720
972.314	-874
972.399	-714
972.484	-553
972.569	147
972.654	-1824
972.739	28
972.824	-210
972.908	162
972.993	-875
973.078	-786
973.163	-564
973.247	-350
973.332	-2392
973.417	-751
973.501	-580
973.586	-753
973.671	-1379
973.755	-1349
973.840	-227
973.924	-1078
974.009	-975
974.093	-1126
974.178	-47
974.262	-13
974.346	-389
974.431	-618
974.515	-1336
974.600	-1024
974.684	-331
974.768	-1139
974.852	-843
974.937	-671
975.021	-718
975.105	-890
975.189	-1040
975.273	-1004
975.358	-1110
975.442	-292
975.526	-422
975.610	-848
975.694	-1286
975.778	-114
975.862	-874
975.946	-2470
976.030	-109
976.114	-1293
976.198	-1329
976.281	-794
976.365	-885
976.449	-1018
976.533	-727
976.617	-1132
976.700	-995
976.784	-647
976.868	-1547
976.951	-450
977.035	-559
977.119	-601
977.202	-682
977.286	-1253
977.369	-1324
977.453	-651
977.536	-614
977.620	-1333
977.703	-1598
977.787	-1331
977.870	-367
977.953	136
978.037	-1021
978.120	-398
978.203	-658
978.287	-330
978.370	-925
978.453	-740
978.536	-731
978.620	39
978.703	-1021
978.786	-214
978.869	-1520
978.952	-1853
979.035	-460
979.118	-1075
979.201	-461
979.284	-1066
979.367	-409
979.450	-1342
979.533	-1137
979.616	-498
979.699	-1062
979.782	-1009
979.865	-1780
979.948	-1692
980.030	-1786
980.113	-1044
980.196	-1041
980.279	-645
980.361	-2085
980.444	-1383
980.526	-623
980.609	-348
980.692	-869
980.774	-187
980.857	-1792
980.939	-12
981.022	-1344
981.104	-1303
981.187	-1374
981.269	-672
981.352	-1153
981.434	-1500
981.516	-1430
981.599	-775
981.681	-190
981.763	-1057
981.846	-959
981.928	-835
982.010	-1107
982.092	-1662
982.174	-1253
982.256	-1395
982.339	-1040
982.421	-1168
982.503	-980
982.585	-1549
982.667	-1796
982.749	-1180
982.831	-741
982.913	-2096
982.995	-678
983.077	-1927
983.158	-958
983.240	-2117
983.322	-1732
983.404	-1127
983.486	-1544
983.568	-1066
983.649	-1654
983.731	-684
983.813	-1674
983.894	-1164
983.976	-1496
984.058	-1039
984.139	-664
984.221	-1822
984.302	-475
984.384	-282
984.465	-1506
984.547	-529
984.628	-1204
984.710	-573
984.791	-994
984.872	-725
984.954	-472
985.035	-528
985.116	-999
985.198	-1366
985.279	99
985.360	-775
985.441	-757
985.522	-507
985.604	-868
985.685	-2139
985.766	-162
985.847	-406
985.928	-1258
986.009	-659
986.090	-1508
986.171	-1303
986.252	-1078
986.333	-1179
986.414	-1208
986.495	-1180
986.576	-411
986.656	-1976
986.737	-1011
986.818	-1409
986.899	-1318
986.980	-1005
987.060	-1237
987.141	-1435
987.222	-781
987.302	-1015
987.383	-459
987.464	-1513
987.544	-1095
987.625	-819
987.705	-753
987.786	-1062
987.866	-1286
987.947	-1004
988.027	-811
988.108	-844
988.188	293
988.268	-1615
988.349	-1112
988.429	-1155
988.509	-1073
988.589	-1441
988.670	-1928
988.750	-889
988.830	-988
988.910	-1214
988.990	-1366
989.070	-651
989.151	-1174
989.231	-1543
989.311	-182
989.391	-1123
989.471	-1516
989.551	-1260
989.631	-1821
989.711	-1198
989.791	-2159
989.870	-1715
989.950	-991
990.030	-1363
990.110	-1342
990.190	-1531
990.269	-1904
990.349	-1186
990.429	-567
990.509	-1139
990.588	-1231
990.668	-953
990.747	-939
990.827	-1128
990.907	-1984
990.986	-1572
991.066	-1221
991.145	-2146
991.225	-1399
991.304	-1461
991.383	-712
991.463	-681
991.542	-1131
991.622	-1647
991.701	-1793
991.780	-1437
991.859	-1915
991.939	-1515
992.018	-1017
992.097	-979
992.176	-1718
992.256	-1116
992.335	-1501
992.414	-1021
992.493	-1292
992.572	-1084
992.651	-235
992.730	-1270
992.809	-1921
992.888	-1807
992.967	-1877
993.046	-1721
993.125	-2204
993.203	-993
993.282	-1426
993.361	-1770
993.440	-708
993.519	-1827
993.597	-886
993.676	-1809
993.755	-672
993.834	-1489
993.912	-1917
993.991	-728
994.069	-1308
994.148	-648
994.226	-1456
994.305	-804
994.384	-1700
994.462	-1217
994.540	-1247
994.619	-1781
994.697	-1225
994.776	-2255
994.854	-861
994.932	-1003
995.011	-1541
995.089	-1663
995.167	-1641
995.245	-1868
995.324	-1972
995.402	-1610
995.480	-967
995.558	-1444
995.636	-2568
995.714	-1129
995.792	-1623
995.870	-1880
995.948	-2062
996.026	-1679
996.104	-2164
996.182	-1650
996.260	-2267
996.338	-774
996.416	-1824
996.494	-1917
996.572	-738
996.649	-879
996.727	-2540
996.805	-1155
996.883	-2082
996.960	-1252
997.038	-1525
997.116	-798
997.193	-2683
997.271	-285
997.348	-1030
997.426	-2075
997.504	-2185
997.581	-621
997.658	-1221
997.736	-2137
997.813	-1452
997.891	-1075
997.968	-1870
998.046	-1539
998.123	-1694
998.200	-1539
998.277	-2034
998.355	-1134
998.432	-2289
998.509	-1914
998.586	-1419
998.663	-1113
998.741	-2058
998.818	-1771
998.895	-1757
998.972	-1295
999.049	-1732
999.126	-1699
999.203	-1524
999.280	-1598
999.357	-2406
999.434	-2125
999.511	-1813
999.587	-1675
999.664	-1877
999.741	-1188
999.818	-1665
999.895	-1232
999.971	-1923
1000.048	-1387
1000.125	-1642
1000.202	-1583
1000.278	-1853
1000.355	-1535
1000.431	-2846
1000.508	-1735
1000.584	-1444
1000.661	-1480
1000.738	-1927
1000.814	-1453
1000.890	-1607
1000.967	-1857
1001.043	-1399
1001.120	-2544
1001.196	-985
1001.272	-1082
1001.349	-1790
1001.425	-778
1001.501	-1120
1001.577	-1858
1001.654	-1831
1001.730	-1699
1001.806	-2038
1001.882	-1711
1001.958	-1384
1002.034	-1964
1002.110	-2363
1002.186	-2219
1002.262	-2091
1002.338	-2079
1002.414	-1470
1002.490	-1194
1002.566	-2017
1002.642	-1911
1002.718	-1150
1002.794	-1862
1002.870	-1886
1002.945	-2312
1003.021	-1850
1003.097	-2006
1003.173	-1674
1003.248	-1715
1003.324	-1367
1003.400	-1468
1003.475	-1896
1003.551	-1487
1003.626	-2211
1003.702	-1649
1003.777	-2048
1003.853	-1850
1003.928	-3129
1004.004	-1709
1004.079	-1501
1004.155	-2266
1004.230	-2644
1004.305	-1528
1004.381	-2176
1004.456	-2108
1004.531	-1715
1004.607	-1323
1004.682	-1612
1004.757	-1925
1004.832	-1374
1004.907	-2048
1004.982	-1705
1005.057	-647
1005.133	-2871
1005.208	-1281
1005.283	-1575
1005.358	-1288
1005.433	-2325
1005.508	-1936
1005.583	-2894
1005.657	-2048
1005.732	-1803
1005.807	-1858
1005.882	-2575
1005.957	-1642
1006.032	-1864
1006.106	-2193
1006.181	-2167
1006.256	-1538
1006.331	-2790
1006.405	-1265
1006.480	-2013
1006.554	-1763
1006.629	-1966
1006.704	-1284
1006.778	-2573
1006.853	-1177
1006.927	-2280
1007.002	-2432
1007.076	-1898
1007.150	-1806
1007.225	-1958
1007.299	-1936
1007.373	-1827
1007.448	-1491
1007.522	-2175
1007.596	-1710
1007.671	-1558
1007.745	-1399
1007.819	-2311
1007.893	-1969
1007.967	-1351
1008.041	-1751
1008.115	-2181
1008.190	-2272
1008.264	-2369
1008.338	-2328
1008.412	-1708
1008.486	-1428
1008.560	-1914
1008.633	-2008
1008.707	-2391
1008.781	-1561
1008.855	-1684
1008.929	-1677
1009.003	-1877
1009.076	-2498
1009.150	-1491
1009.224	-1532
1009.298	-2123
1009.371	-2283
1009.445	-999
1009.519	-1946
1009.592	-3066
1009.666	-1967
1009.739	-2466
1009.813	-2368
1009.886	-1194
1009.960	-2338
1010.033	-2814
1010.107	-2128
1010.180	-3264
1010.253	-1843
1010.327	-3215
1010.400	-1884
1010.473	-2026
1010.547	-1015
1010.620	-2122
1010.693	-1711
1010.766	-2384
1010.840	-1626
1010.913	-1659
1010.986	-2399
1011.059	-2347
1011.132	-1830
1011.205	-2073
1011.278	-2349
1011.351	-2120
1011.424	-1487
1011.497	-1595
1011.570	-2219
1011.643	-2742
1011.716	-1415
1011.789	-1982
1011.862	-1460
1011.934	-1697
1012.007	-2519
1012.080	-1193
1012.153	-1965
1012.225	-2296
1012.298	-2754
1012.371	-2021
1012.443	-1469
1012.516	-2196
1012.588	-2034
1012.661	-1149
1012.733	-2204
1012.806	-2038
1012.879	-1645
1012.951	-1882
1013.023	-1885
1013.096	-2066
1013.168	-2158
1013.241	-1807
1013.313	-2527
1013.385	-2415
1013.458	-2525
1013.530	-1636
1013.602	-2736
1013.674	-1327
1013.746	-2155
1013.819	-2577
1013.891	-1452
1013.963	-2472
1014.035	-1700
1014.107	-1920
1014.179	-1576
1014.251	-2866
1014.323	-1139
1014.395	-2472
1014.467	-1809
1014.539	-1688
1014.611	-2018
1014.683	-2015
1014.754	-1683
1014.826	-3024
1014.898	-2568
1014.970	-1315
1015.042	-913
1015.113	-2025
1015.185	-1576
1015.257	-2746
1015.328	-2066
1015.400	-2497
1015.471	-2376
1015.543	-2359
1015.615	-1526
1015.686	-2074
1015.757	-2053
1015.829	-1520
1015.901	-2104
1015.972	-2724
1016.043	-2554
1016.115	-2173
1016.186	-1421
1016.257	-2508
1016.328	-2298
1016.400	-1070
1016.471	-2688
1016.542	-2012
1016.613	-1674
1016.685	-1683
1016.756	-1574
1016.827	-1661
1016.898	-2564
1016.969	-895
1017.040	-2257
1017.111	-2351
1017.182	-1638
1017.253	-2172
1017.324	-1921
1017.395	-2548
1017.466	-1687
1017.537	-2683
1017.608	-2011
1017.678	-2387
1017.749	-2372
1017.820	-2360
1017.891	-3064
1017.961	-1895
1018.032	-2143
1018.103	-1956
1018.173	-2013
1018.244	-2647
1018.315	-2841
1018.385	-1575
1018.456	-1732
1018.526	-2767
1018.597	-1971
1018.667	-1697
1018.738	-2094
1018.808	-1619
1018.878	-1857
1018.949	-2400
1019.019	-2230
1019.089	-2234
1019.160	-2500
1019.230	-2486
1019.300	-1298
1019.371	-2807
1019.441	-1620
1019.511	-2173
1019.581	-2158
1019.651	-2368
1019.721	-1691
1019.791	-2370
1019.861	-2230
1019.931	-1986
1020.001	-2360
1020.071	-1588
1020.141	-1753
1020.211	-2441
1020.281	-2022
1020.351	-2000
1020.421	-1607
1020.491	-1594
1020.560	-1936
1020.630	-2929
1020.700	-2473
1020.770	-2118
1020.839	-1517
1020.909	-2859
1020.979	-2123
1021.048	-2591
1021.118	-1774
1021.187	-1556
1021.257	-1749
1021.326	-1738
1021.396	-2135
1021.465	-1927
1021.535	-1715
1021.604	-2638
1021.674	-2042
1021.743	-2435
1021.812	-2251
1021.882	-2071
1021.951	-2267
1022.020	-2466
1022.089	-1871
1022.159	-2100
1022.228	-1536
1022.297	-2002
1022.366	-1871
1022.435	-2376
1022.504	-1718
1022.573	-2694
1022.642	-2032
1022.711	-2501
1022.781	-2497
1022.849	-1760
1022.918	-2388
1022.987	-2684
1023.056	-2446
1023.125	-2565
1023.194	-2424
1023.263	-1612
1023.331	-1856
1023.400	-2425
1023.469	-2425
1023.538	-2035
1023.606	-2353
1023.675	-1907
1023.744	-2307
1023.812	-2865
1023.881	-1916
1023.949	-2476
1024.018	-2427
1024.086	-2991
1024.155	-2331
1024.223	-3569
1024.292	-1598
1024.360	-1916
1024.429	-2114
1024.497	-2479
1024.565	-1907
1024.634	-1967
1024.702	-1579
1024.770	-1576
1024.838	-2492
1024.907	-1757
1024.975	-2250
1025.043	-2103
1025.111	-1941
1025.179	-1854
1025.247	-1549
1025.315	-3438
1025.383	-1906
1025.451	-1539
1025.519	-2265
1025.587	-1923
1025.655	-2480
1025.723	-2036
1025.791	-2584
1025.859	-2235
1025.927	-2210
1025.995	-2359
1026.062	-1904
1026.130	-2339
1026.198	-2021
1026.266	-2461
1026.333	-2208
1026.401	-1602
1026.469	-2087
1026.536	-1539
1026.604	-1625
1026.671	-2216
1026.739	-2153
1026.806	-1671
1026.874	-2059
1026.941	-2064
1027.009	-1728
1027.076	-1781
1027.144	-1936
1027.211	-2871
1027.278	-2970
1027.345	-2351
1027.413	-2159
1027.480	-1635
1027.547	-1578
1027.614	-2467
1027.682	-2407
1027.749	-1571
1027.816	-1154
1027.883	-2251
1027.950	-1473
1028.017	-2053
1028.084	-1824
1028.151	-2623
1028.218	-2239
1028.285	-1466
1028.352	-2006
1028.419	-2473
1028.486	-2792
1028.553	-1858
1028.619	-1697
1028.686	-2061
1028.753	-1732
1028.820	-2755
1028.886	-2161
1028.953	-2231
1029.020	-1794
1029.086	-2550
1029.153	-2479
1029.220	-2359
1029.286	-1190
1029.353	-1990
1029.419	-1967
1029.486	-2773
1029.552	-2642
1029.619	-1308
1029.685	-1815
1029.751	-2580
1029.818	-1534
1029.884	-1866
1029.951	-1797
1030.017	-3030
1030.083	-777
1030.149	-2703
1030.216	-2545
1030.282	-2794
1030.348	-2307
1030.414	-1937
1030.480	-2392
1030.546	-3021
1030.612	-2095
1030.678	-2323
1030.744	-1879
1030.810	-2699
1030.876	-2385
1030.942	-2087
1031.008	-2061
1031.074	-2051
1031.140	-1859
1031.206	-1940
1031.272	-2431
1031.337	-1901
1031.403	-1716
1031.469	-2310
1031.534	-1436
1031.600	-2690
1031.666	-2368
1031.731	-2309
1031.797	-2183
1031.863	-2142
1031.928	-2101
1031.994	-1992
1032.059	-2041
1032.125	-1791
1032.190	-2705
1032.256	-2090
1032.321	-2083
1032.386	-1902
1032.452	-1795
1032.517	-1902
1032.582	-1981
1032.647	-1731
1032.713	-1837
1032.778	-1978
1032.843	-3157
1032.908	-3225
1032.974	-1898
1033.039	-1600
1033.104	-2103
1033.169	-2477
1033.234	-1462
1033.299	-1948
1033.364	-1463
1033.429	-2333
1033.494	-2548
1033.559	-2506
1033.624	-1808
1033.688	-2155
1033.753	-2775
1033.818	-1629
1033.883	-2060
1033.948	-1423
1034.013	-1918
1034.077	-2510
1034.142	-1508
1034.207	-1893
1034.271	-1485
1034.336	-802
1034.400	-1505
1034.465	-1853
1034.530	-2117
1034.594	-2453
1034.658	-2409
1034.723	-2367
1034.787	-2189
1034.852	-1929
1034.916	-2461
1034.981	-2677
1035.045	-2208
1035.109	-2963
1035.173	-2382
1035.238	-2065
1035.302	-1560
1035.366	-2266
1035.430	-2548
1035.495	-2892
1035.559	-1990
1035.623	-2451
1035.687	-2760
1035.751	-2782
1035.815	-2241
1035.879	-2216
1035.943	-1848
1036.007	-2648
1036.071	-1505
1036.135	-2024
1036.198	-1429
1036.262	-2524
1036.326	-2863
1036.390	-1900
1036.454	-2140
1036.517	-1848
1036.581	-2322
1036.645	-2027
1036.709	-2136
1036.772	-2328
1036.836	-1896
1036.900	-2754
1036.963	-2665
1037.026	-2133
1037.090	-2449
1037.154	-2936
1037.217	-2627
1037.280	-3246
1037.344	-1447
1037.407	-2001
1037.471	-3514
1037.534	-2460
1037.597	-2292
1037.661	-2681
1037.724	-1974
1037.787	-3069
1037.850	-2207
1037.913	-2193
1037.977	-1757
1038.040	-1505
1038.103	-1985
1038.166	-2192
1038.229	-2366
1038.292	-2186
1038.355	-2282
1038.418	-1977
1038.481	-1684
1038.544	-2399
1038.607	-1925
1038.670	-2613
1038.732	-2320
1038.795	-2102
1038.858	-2247
1038.921	-2119
1038.984	-2052
1039.046	-2219
1039.109	-1913
1039.172	-2111
1039.234	-1921
1039.297	-2547
1039.360	-1911
1039.422	-2180
1039.485	-2173
1039.547	-3265
1039.610	-2188
1039.672	-1563
1039.734	-1887
1039.797	-2819
1039.859	-1299
1039.922	-2451
1039.984	-1891
1040.046	-1971
1040.109	-2346
1040.171	-3173
1040.233	-2087
1040.295	-1895
1040.358	-2233
1040.420	-2342
1040.482	-2455
1040.544	-2079
1040.606	-2303
1040.668	-2688
1040.730	-2599
1040.792	-2537
1040.854	-1965
1040.916	-1558
1040.978	-2387
1041.040	-1392
1041.102	-2335
1041.164	-2671
1041.225	-1957
1041.287	-2264
1041.349	-2167
1041.411	-2510
1041.472	-3036
1041.534	-2026
1041.596	-2563
1041.657	-2443
1041.719	-1991
1041.781	-2319
1041.842	-1725
1041.904	-2480
1041.965	-1616
1042.027	-2487
1042.088	-2051
1042.150	-2304
1042.211	-1744
1042.272	-2659
1042.334	-2139
1042.395	-3011
1042.456	-2762
1042.518	-2666
1042.579	-1582
1042.640	-2423
1042.701	-1737
1042.763	-2059
1042.824	-1993
1042.885	-1869
1042.946	-2404
1043.007	-2489
1043.068	-2432
1043.129	-2080
1043.190	-2429
1043.251	-2101
1043.312	-2366
1043.373	-2256
1043.434	-2202
1043.495	-2498
1043.556	-1510
1043.616	-2026
1043.677	-2062
1043.738	-2199
1043.799	-2224
1043.859	-2529
1043.920	-2196
1043.981	-1963
1044.041	-1830
1044.102	-2107
1044.162	-1791
1044.223	-2428
1044.284	-2052
1044.344	-2332
1044.405	-2198
1044.465	-2480
1044.525	-1557
1044.586	-1955
1044.646	-1867
1044.707	-1899
1044.767	-2468
1044.827	-2202
1044.887	-2053
1044.948	-2224
1045.008	-2253
1045.068	-2541
1045.128	-2243
1045.188	-1997
1045.249	-1680
1045.309	-1975
1045.369	-1868
1045.429	-1907
1045.489	-2367
1045.549	-2402
1045.609	-1422
1045.669	-2099
1045.729	-1801
1045.789	-1984
1045.848	-1864
1045.908	-2419
1045.968	-1664
1046.028	-1592
1046.088	-1782
1046.147	-2061
1046.207	-1759
1046.267	-2028
1046.326	-2170
1046.386	-2072
1046.446	-1708
1046.505	-1288
1046.565	-1620
1046.624	-1020
1046.684	-1668
1046.743	-869
1046.803	-1279
1046.862	-496
1046.922	0
