'Start Wavelength	183.907
'End Wavelength	1046.922
'Gate Delay	5.000
'Gate Width (ms)	1.050
'Laser Output Level	0.000
'X Position	0.000
'Y Position	0.000
'Z Position	0.000
'Grid Point Number	1.000
'Shot Number	100.000
183.907	619.000
183.977	-135.000
184.047	260
184.116	508
184.186	747
184.256	-188
184.325	-583
184.395	-735
184.465	26
184.534	-10
184.604	-496
184.674	-631
184.743	-181
184.813	682
184.883	-111
184.952	57
185.022	-201
185.092	615
185.161	-126
185.231	339
185.301	-325
185.370	-247
185.440	-443
185.509	319
185.579	-375
185.649	774
185.718	37
185.788	-57
185.857	370
185.927	-17
185.996	39
186.066	-368
186.136	340
186.205	-66
186.275	142
186.344	745
186.414	-549
186.483	-411
186.553	660
186.622	1413
186.692	-80
186.761	623
186.831	-281
186.900	-698
186.970	481
187.039	841
187.109	247
187.178	294
187.248	-27
187.317	853
187.387	9
187.456	625
187.526	-45
187.595	497
187.664	-240
187.734	474
187.803	487
187.873	214
187.942	840
188.012	-180
188.081	-550
188.150	-255
188.220	278
188.289	286
188.358	-59
188.428	481
188.497	-97
188.567	469
188.636	370
188.705	422
188.775	-385
188.844	-59
188.913	140
188.983	-161
189.052	-651
189.121	27
189.191	44
189.260	320
189.329	251
189.399	361
189.468	333
189.537	106
189.606	291
189.676	508
189.745	-233
189.814	655
189.883	-317
189.953	372
190.022	624
190.091	3473
190.161	4818
190.230	2370
190.299	535
190.368	702
190.437	-329
190.507	191
190.576	255
190.645	772
190.714	-410
190.783	-392
190.853	495
190.922	58
190.991	-1052
191.060	728
191.129	-941
191.198	284
191.268	-118
191.337	423
191.406	28
191.475	518
191.544	378
191.613	361
191.682	-159
191.752	869
191.821	279
191.890	485
191.959	-452
192.028	47
192.097	140
192.166	918
192.235	-304
192.304	862
192.373	-314
192.442	661
192.511	-469
192.580	890
192.650	258
192.719	69
192.788	-57
192.857	-33
192.926	163
192.995	1359
193.064	702
193.133	2370
193.202	1868
193.271	2542
193.340	1025
193.409	863
193.478	1838
193.547	2605
193.615	3630
193.684	3883
193.753	2082
193.822	2497
193.891	1085
193.960	1804
194.029	396
194.098	495
194.167	88
194.236	989
194.305	508
194.374	714
194.443	265
194.512	405
194.580	-226
194.649	560
194.718	60
194.787	87
194.856	-310
194.925	1190
194.994	755
195.062	835
195.131	-80
195.200	1088
195.269	-110
195.338	1130
195.407	925
195.475	981
195.544	200
195.613	1001
195.682	205
195.751	582
195.819	334
195.888	857
195.957	1343
196.026	380
196.094	439
196.163	862
196.232	252
196.301	986
196.369	287
196.438	913
196.507	919
196.576	458
196.644	579
196.713	688
196.782	60
196.850	985
196.919	68
196.988	588
197.056	149
197.125	1685
197.194	757
197.262	919
197.331	750
197.400	999
197.468	-124
197.537	219
197.606	933
197.674	2418
197.743	4127
197.812	1942
197.880	4132
197.949	2960
198.017	3774
198.086	3248
198.155	1327
198.223	2252
198.292	5341
198.360	2757
198.429	1159
198.497	1473
198.566	2709
198.635	6644
198.703	1604
198.772	2581
198.840	5428
198.909	6447
198.977	2328
199.046	2446
199.114	993
199.183	1359
199.251	685
199.320	318
199.388	425
199.457	1054
199.525	703
199.594	535
199.662	450
199.731	2057
199.799	870
199.867	1313
199.936	382
200.004	737
200.073	1125
200.141	964
200.210	456
200.278	447
200.346	987
200.415	1336
200.483	920
200.552	1345
200.620	751
200.688	1164
200.757	532
200.825	716
200.893	307
200.962	1396
201.030	452
201.098	1101
201.167	1357
201.235	1129
201.303	776
201.372	846
201.440	450
201.508	1766
201.577	839
201.645	1717
201.713	540
201.781	473
201.850	1058
201.918	1249
201.986	1160
202.055	1469
202.123	420
202.191	1309
202.259	854
202.327	1464
202.396	650
202.464	1733
202.532	1019
202.600	2229
202.669	832
202.737	896
202.805	164
202.873	990
202.941	1278
203.009	1333
203.078	1178
203.146	1252
203.214	505
203.282	415
203.350	1508
203.418	1282
203.487	1076
203.555	1006
203.623	910
203.691	962
203.759	776
203.827	1517
203.895	594
203.963	1454
204.031	426
204.099	1804
204.168	712
204.236	1096
204.304	1320
204.372	1781
204.440	1187
204.508	1692
204.576	197
204.644	883
204.712	261
204.780	1546
204.848	1207
204.916	1240
204.984	1210
205.052	2325
205.120	949
205.188	1593
205.256	949
205.324	1530
205.392	909
205.460	1613
205.528	1182
205.596	2679
205.664	1397
205.732	2167
205.799	5465
205.867	10496
205.935	2754
206.003	2465
206.071	603
206.139	2161
206.207	1706
206.275	2060
206.343	727
206.411	1728
206.478	1383
206.546	1931
206.614	2230
206.682	1554
206.750	1757
206.818	3104
206.885	1853
206.953	813
207.021	1947
207.089	2543
207.157	1279
207.225	2524
207.292	1961
207.360	2754
207.428	1700
207.496	1961
207.563	884
207.631	2152
207.699	1594
207.767	1916
207.834	1347
207.902	1815
207.970	1208
208.038	1783
208.105	1391
208.173	2054
208.241	2223
208.309	3305
208.376	2832
208.444	3557
208.512	2842
208.579	1507
208.647	2321
208.715	2396
208.782	1647
208.850	2140
208.918	1503
208.985	1989
209.053	1145
209.120	2149
209.188	460
209.256	2649
209.323	1702
209.391	1854
209.459	2161
209.526	2829
209.594	2177
209.661	1725
209.729	2325
209.796	2173
209.864	1669
209.932	923
209.999	2418
210.067	2412
210.134	1669
210.202	2165
210.269	2293
210.337	3206
210.404	1884
210.472	2569
210.539	1700
210.607	2203
210.674	1384
210.742	2209
210.809	2180
210.877	2239
210.944	2331
211.012	614
211.079	2658
211.146	2181
211.214	2109
211.281	3671
211.349	2643
211.416	2781
211.484	2018
211.551	2916
211.618	2183
211.686	2236
211.753	2620
211.821	3436
211.888	1602
211.955	2931
212.023	2049
212.090	3254
212.157	2564
212.225	3538
212.292	6214
212.359	12386
212.427	33347
212.494	16089
212.561	5674
212.629	4103
212.696	3010
212.763	3954
212.831	2541
212.898	2725
212.965	2352
213.032	2602
213.100	2715
213.167	2719
213.234	2603
213.301	2978
213.369	1807
213.436	1822
213.503	1884
213.570	2901
213.638	1850
213.705	1354
213.772	1827
213.839	2575
213.906	2774
213.973	3050
214.041	1019
214.108	3387
214.175	2906
214.242	2415
214.309	2791
214.376	3120
214.444	1977
214.511	2730
214.578	2513
214.645	4234
214.712	3296
214.779	3350
214.846	3059
214.913	3804
214.980	3623
215.048	3221
215.115	3625
215.182	2917
215.249	2879
215.316	2406
215.383	3105
215.450	2578
215.517	1451
215.584	2350
215.651	1553
215.718	1759
215.785	2249
215.852	1915
215.919	1541
215.986	3424
216.053	1600
216.120	1066
216.187	2161
216.254	2510
216.321	1446
216.388	1857
216.455	1806
216.522	2823
216.589	3372
216.656	3571
216.722	3679
216.789	4388
216.856	5021
216.923	4650
216.990	4130
217.057	4150
217.124	4144
217.191	3325
217.258	5568
217.324	6135
217.391	7089
217.458	5270
217.525	4406
217.592	3720
217.659	2300
217.725	4007
217.792	3157
217.859	3521
217.926	1115
217.993	2416
218.059	1878
218.126	2096
218.193	1875
218.260	1939
218.327	1031
218.393	2122
218.460	935
218.527	1648
218.594	1179
218.660	2030
218.727	2477
218.794	1346
218.860	2037
218.927	1279
218.994	1098
219.061	2114
219.127	1555
219.194	2190
219.261	1438
219.327	1124
219.394	1655
219.461	714
219.527	2022
219.594	1864
219.661	954
219.727	608
219.794	2212
219.860	1238
219.927	2155
219.994	2364
220.060	3314
220.127	4538
220.193	3560
220.260	4446
220.326	5758
220.393	10629
220.460	12469
220.526	9108
220.593	4673
220.659	6815
220.726	5339
220.792	16006
220.859	14248
220.925	15831
220.992	19021
221.058	20334
221.125	20895
221.191	15975
221.258	6491
221.324	5155
221.391	3666
221.457	3649
221.524	2193
221.590	5958
221.657	17027
221.723	12653
221.789	9449
221.856	11466
221.922	4608
221.989	4015
222.055	3161
222.121	1991
222.188	3082
222.254	3088
222.321	1896
222.387	1139
222.453	1230
222.520	1777
222.586	1651
222.652	1849
222.719	1216
222.785	1901
222.851	1510
222.918	2271
222.984	789
223.050	1503
223.116	-551
223.183	2537
223.249	434
223.315	1164
223.382	1136
223.448	1793
223.514	416
223.580	1478
223.647	608
223.713	1128
223.779	1262
223.845	972
223.911	1009
223.978	1154
224.044	1387
224.110	1144
224.176	1126
224.242	907
224.309	754
224.375	1806
224.441	393
224.507	1078
224.573	295
224.639	1215
224.705	66
224.772	1604
224.838	-508
224.904	556
224.970	597
225.036	1303
225.102	188
225.168	1923
225.234	1125
225.300	759
225.366	1330
225.432	1227
225.499	648
225.565	1256
225.631	593
225.697	2655
225.763	2115
225.829	3457
225.895	1981
225.961	3535
226.027	3362
226.093	4341
226.159	5741
226.225	8962
226.291	20182
226.357	31555
226.423	16708
226.489	9156
226.554	5575
226.620	5501
226.686	6203
226.752	9970
226.818	18526
226.884	40135
226.950	36452
227.016	16075
227.082	8545
227.148	5646
227.214	4238
227.279	3453
227.345	2305
227.411	2995
227.477	1634
227.543	4483
227.609	4075
227.674	3043
227.740	1862
227.806	2219
227.872	1685
227.938	2083
228.003	1273
228.069	1420
228.135	916
228.201	1628
228.267	844
228.332	1695
228.398	303
228.464	1130
228.530	1215
228.595	1473
228.661	28
228.727	785
228.792	1798
228.858	1386
228.924	32
228.990	2639
229.055	-267
229.121	2686
229.187	1118
229.252	505
229.318	589
229.384	1590
229.449	551
229.515	-26
229.581	-326
229.646	1954
229.712	833
229.777	334
229.843	614
229.909	1321
229.974	1403
230.040	1937
230.105	1547
230.171	1225
230.236	3742
230.302	6333
230.368	3344
230.433	2436
230.499	1788
230.564	2415
230.630	1684
230.695	2371
230.761	1400
230.826	-1
230.892	1955
230.957	768
231.023	951
231.088	1382
231.154	902
231.219	1731
231.284	1379
231.350	1973
231.415	282
231.481	2004
231.546	575
231.612	1273
231.677	1162
231.742	315
231.808	2142
231.873	1113
231.939	-68
232.004	1698
232.069	815
232.135	1634
232.200	1766
232.265	2352
232.331	293
232.396	931
232.461	239
232.527	1490
232.592	-31
232.657	1461
232.723	552
232.788	1152
232.853	980
232.918	952
232.984	-41
233.049	1048
233.114	155
233.179	1455
233.245	1270
233.310	1876
233.375	-514
233.440	1869
233.506	587
233.571	1077
233.636	725
233.701	932
233.766	-312
233.832	758
233.897	-166
233.962	-190
234.027	827
234.092	955
234.157	-189
234.222	150
234.288	584
234.353	3547
234.418	2634
234.483	2245
234.548	994
234.613	1759
234.678	2137
234.743	1794
234.808	3420
234.873	2098
234.938	2336
235.004	1644
235.069	1315
235.134	1432
235.199	1832
235.264	2014
235.329	375
235.394	2243
235.459	2042
235.524	1074
235.589	952
235.654	2224
235.719	-384
235.784	2525
235.849	1145
235.913	2590
235.978	2652
236.043	2684
236.108	1291
236.173	1069
236.238	1570
236.303	2398
236.368	1803
236.433	3619
236.498	3558
236.563	6321
236.627	13625
236.692	50288
236.757	45572
236.822	17584
236.887	9699
236.952	9166
237.017	6092
237.081	8009
237.146	8847
237.211	25716
237.276	51216
237.341	80723
237.405	38630
237.470	15984
237.535	8340
237.600	6112
237.664	4543
237.729	3716
237.794	4407
237.859	13430
237.923	6359
237.988	3587
238.053	3725
238.118	3045
238.182	6558
238.247	6806
238.312	1632
238.376	2969
238.441	269
238.506	2377
238.570	-138
238.635	2995
238.700	1182
238.764	1185
238.829	2075
238.893	1853
238.958	1762
239.023	1785
239.087	1110
239.152	2407
239.216	1250
239.281	2200
239.346	1172
239.410	1117
239.475	878
239.539	4605
239.604	3460
239.668	3090
239.733	1476
239.797	1894
239.862	7114
239.926	5792
239.991	1870
240.055	2167
240.120	918
240.184	908
240.249	241
240.313	964
240.378	938
240.442	2223
240.507	3550
240.571	474
240.635	1296
240.700	1883
240.764	330
240.829	922
240.893	-627
240.957	490
241.022	1140
241.086	4353
241.151	8
241.215	103
241.279	1213
241.344	1093
241.408	1493
241.472	1656
241.537	1889
241.601	2805
241.665	193
241.730	1331
241.794	2075
241.858	1159
241.922	1791
241.987	2579
242.051	980
242.115	1150
242.179	2139
242.244	1195
242.308	1757
242.372	1471
242.436	1455
242.501	1229
242.565	945
242.629	1234
242.693	1803
242.757	650
242.822	2181
242.886	2056
242.950	1833
243.014	497
243.078	380
243.142	1771
243.206	1039
243.271	2183
243.335	2243
243.399	6589
243.463	28510
243.527	84106
243.591	25765
243.655	7584
243.719	4368
243.783	4931
243.847	7087
243.911	10111
243.975	3633
244.040	768
244.104	2709
244.168	1220
244.232	640
244.296	3584
244.360	8198
244.424	2081
244.488	1699
244.552	1469
244.615	-13
244.679	2652
244.743	491
244.807	413
244.871	1010
244.935	1782
244.999	-417
245.063	1081
245.127	1303
245.191	5095
245.255	4562
245.319	2054
245.383	-93
245.446	2888
245.510	-281
245.574	308
245.638	747
245.702	-220
245.766	1827
245.829	2032
245.893	346
245.957	894
246.021	1953
246.085	868
246.149	971
246.212	2829
246.276	2565
246.340	1336
246.404	1027
246.467	2056
246.531	-262
246.595	2293
246.659	938
246.722	364
246.786	691
246.850	1445
246.913	1494
246.977	450
247.041	1186
247.104	1344
247.168	848
247.232	1338
247.295	4089
247.359	2386
247.423	334
247.486	565
247.550	1132
247.614	433
247.677	396
247.741	966
247.804	541
247.868	2140
247.932	389
247.995	4843
248.059	701
248.122	231
248.186	1741
248.249	2134
248.313	9105
248.376	9812
248.440	4168
248.503	1457
248.567	3009
248.630	1085
248.694	2024
248.757	4897
248.821	11855
248.884	7213
248.948	4305
249.011	7666
249.075	12058
249.138	10719
249.202	3593
249.265	2647
249.328	4108
249.392	2655
249.455	2482
249.519	2757
249.582	2505
249.645	3864
249.709	3591
249.772	4440
249.835	3461
249.899	3411
249.962	3108
250.025	3846
250.089	4624
250.152	6865
250.215	3763
250.279	3312
250.342	4827
250.405	4692
250.468	3584
250.532	7231
250.595	14242
250.658	68712
250.721	126520
250.785	35629
250.848	15544
250.911	9478
250.974	8849
251.038	7329
251.101	9747
251.164	6992
251.227	6974
251.290	9963
251.354	20237
251.417	98842
251.480	104220
251.543	66676
251.606	190264
251.669	151817
251.732	47353
251.795	29244
251.859	34725
251.922	114585
251.985	65655
252.048	21285
252.111	12764
252.174	9824
252.237	11863
252.300	22741
252.363	44529
252.426	136958
252.489	51844
252.552	18564
252.615	11284
252.678	11319
252.741	18536
252.804	49621
252.867	149716
252.930	59562
252.993	17993
253.056	11688
253.119	9362
253.182	8097
253.245	20611
253.308	13525
253.371	4450
253.434	4813
253.497	3546
253.559	4844
253.622	2283
253.685	2734
253.748	1516
253.811	2350
253.874	3602
253.937	2144
254.000	1327
254.062	2694
254.125	4121
254.188	3738
254.251	2138
254.314	2125
254.376	1813
254.439	2269
254.502	1893
254.565	2333
254.628	3472
254.690	1634
254.753	690
254.816	867
254.878	996
254.941	3139
255.004	2353
255.067	1471
255.129	3
255.192	736
255.255	-407
255.317	953
255.380	934
255.443	855
255.505	-16
255.568	28
255.631	145
255.693	927
255.756	282
255.819	1036
255.881	343
255.944	1141
256.006	662
256.069	936
256.132	446
256.194	700
256.257	1945
256.319	1862
256.382	1433
256.444	2728
256.507	2257
256.569	2774
256.632	3335
256.694	5843
256.757	24879
256.819	83093
256.882	36622
256.944	13729
257.007	7397
257.069	5374
257.132	7551
257.194	8428
257.257	3121
257.319	3288
257.381	5027
257.444	18848
257.506	86786
257.569	97107
257.631	28102
257.693	13049
257.756	8636
257.818	4708
257.880	3858
257.943	3326
258.005	1088
258.067	2323
258.130	2298
258.192	1661
258.254	1608
258.317	2055
258.379	1893
258.441	2491
258.503	1233
258.566	3484
258.628	4634
258.690	1806
258.753	1428
258.815	2670
258.877	1295
258.939	2359
259.001	1803
259.064	1326
259.126	1364
259.188	1991
259.250	1836
259.312	2307
259.375	2219
259.437	1310
259.499	1261
259.561	1440
259.623	1286
259.685	854
259.747	843
259.809	3258
259.872	5417
259.934	12040
259.996	10000
260.058	2608
260.120	917
260.182	1521
260.244	140
260.306	1472
260.368	562
260.430	-32
260.492	266
260.554	2587
260.616	939
260.678	3202
260.740	5031
260.802	613
260.864	1349
260.926	230
260.988	441
261.050	694
261.112	386
261.174	4609
261.236	4590
261.298	1406
261.359	1343
261.421	3932
261.483	-418
261.545	1566
261.607	-453
261.669	1462
261.731	738
261.793	1849
261.854	-371
261.916	864
261.978	554
262.040	1169
262.102	585
262.164	1055
262.225	448
262.287	644
262.349	241
262.411	448
262.472	985
262.534	415
262.596	2183
262.658	1553
262.719	-523
262.781	1711
262.843	1431
262.904	2122
262.966	2012
263.028	4691
263.090	29529
263.151	94419
263.213	26636
263.275	6407
263.336	3942
263.398	3215
263.459	826
263.521	1488
263.583	1634
263.644	472
263.706	77
263.767	317
263.829	72
263.891	971
263.952	542
264.014	233
264.075	389
264.137	541
264.198	-283
264.260	620
264.321	-630
264.383	219
264.444	280
264.506	560
264.567	160
264.629	1081
264.690	-968
264.752	818
264.813	794
264.875	571
264.936	788
264.998	1021
265.059	1350
265.120	2512
265.182	4729
265.243	37553
265.305	43194
265.366	9712
265.427	3099
265.489	3592
265.550	643
265.611	1170
265.673	650
265.734	1159
265.795	1293
265.857	1453
265.918	2288
265.979	10778
266.040	64647
266.102	59605
266.163	13156
266.224	5450
266.286	3141
266.347	1718
266.408	1344
266.469	1823
266.530	781
266.592	98
266.653	473
266.714	416
266.775	-219
266.836	729
266.898	-180
266.959	424
267.020	-571
267.081	1147
267.142	-120
267.203	342
267.264	-226
267.326	1366
267.387	-143
267.448	266
267.509	481
267.570	516
267.631	-627
267.692	-597
267.753	541
267.814	927
267.875	4836
267.936	3155
267.997	1345
268.058	2392
268.119	706
268.180	1185
268.241	-537
268.302	38
268.363	-443
268.424	384
268.485	-17
268.546	-116
268.607	-212
268.668	-135
268.729	-500
268.790	595
268.851	-186
268.912	136
268.972	38
269.033	293
269.094	-1086
269.155	441
269.216	364
269.277	477
269.338	791
269.398	1447
269.459	452
269.520	1149
269.581	364
269.642	1113
269.702	539
269.763	1250
269.824	216
269.885	218
269.945	1099
270.006	2259
270.067	1785
270.128	662
270.188	88
270.249	-181
270.310	-144
270.370	798
270.431	-593
270.492	776
270.553	984
270.613	772
270.674	1427
270.734	100
270.795	-386
270.856	343
270.916	-832
270.977	836
271.038	491
271.098	-19
271.159	-56
271.219	1290
271.280	230
271.340	434
271.401	-384
271.462	1946
271.522	630
271.583	523
271.643	-451
271.704	-447
271.764	515
271.825	843
271.885	6883
271.946	11074
272.006	1118
272.066	3547
272.127	7617
272.187	2741
272.248	3111
272.308	4983
272.369	3323
272.429	1972
272.489	181
272.550	1218
272.610	1256
272.671	2843
272.731	1633
272.791	861
272.852	-713
272.912	1082
272.972	-124
273.033	646
273.093	-117
273.153	777
273.214	19
273.274	1270
273.334	1780
273.394	3259
273.455	1016
273.515	5212
273.575	2141
273.635	1081
273.696	1259
273.756	3168
273.816	753
273.876	1048
273.936	1931
273.997	4305
274.057	46
274.117	922
274.177	1199
274.237	5418
274.297	7682
274.358	3230
274.418	1440
274.478	994
274.538	1222
274.598	2464
274.658	3978
274.718	4385
274.778	879
274.838	535
274.898	475
274.958	6230
275.018	4890
275.078	3110
275.138	107
275.198	586
275.258	2698
275.318	1177
275.378	-31
275.438	1000
275.498	-169
275.558	3651
275.618	5457
275.678	1178
275.738	763
275.798	723
275.858	5
275.918	1501
275.978	529
276.038	156
276.098	166
276.157	932
276.217	1471
276.277	636
276.337	-576
276.397	426
276.457	-436
276.517	373
276.576	-183
276.636	-523
276.696	-170
276.756	661
276.815	251
276.875	789
276.935	-786
276.995	-128
277.055	369
277.114	107
277.174	438
277.234	347
277.293	-561
277.353	-432
277.413	442
277.472	544
277.532	-1124
277.592	929
277.651	391
277.711	1244
277.771	185
277.830	1780
277.890	1812
277.950	1950
278.009	7818
278.069	2741
278.128	2031
278.188	1942
278.248	582
278.307	2714
278.367	1745
278.426	1266
278.486	-461
278.545	573
278.605	295
278.664	-65
278.724	438
278.783	1632
278.843	3695
278.902	1666
278.962	660
279.021	1375
279.081	2537
279.140	2454
279.199	957
279.259	2910
279.318	1889
279.378	3680
279.437	5882
279.496	20475
279.556	101312
279.615	84900
279.675	16376
279.734	9051
279.793	7868
279.853	11817
279.912	4722
279.971	2483
280.031	2196
280.090	3302
280.149	5897
280.208	8953
280.268	61049
280.327	69453
280.386	10598
280.445	4929
280.505	3115
280.564	2292
280.623	490
280.682	1392
280.742	1237
280.801	1041
280.860	353
280.919	729
280.978	-214
281.037	496
281.097	535
281.156	948
281.215	-718
281.274	472
281.333	1024
281.392	1453
281.451	525
281.510	2290
281.569	1690
281.628	1851
281.688	612
281.747	1557
281.806	-233
281.865	1287
281.924	642
281.983	458
282.042	-484
282.101	394
282.160	170
282.219	-201
282.278	-1136
282.337	-214
282.396	-165
282.454	-53
282.513	29
282.572	1834
282.631	607
282.690	8
282.749	-578
282.808	111
282.867	-22
282.926	27
282.985	-207
283.043	-66
283.102	-681
283.161	-168
283.220	170
283.279	626
283.338	-618
283.396	201
283.455	33
283.514	-350
283.573	-507
283.631	127
283.690	11
283.749	3650
283.808	712
283.866	1178
283.925	-329
283.984	272
284.043	-17
284.101	-375
284.160	-813
284.219	778
284.277	33
284.336	693
284.395	1177
284.453	2416
284.512	2005
284.570	316
284.629	525
284.688	176
284.746	-268
284.805	1361
284.863	2099
284.922	2721
284.981	1008
285.039	2604
285.098	4794
285.156	16078
285.215	78590
285.273	83511
285.332	27706
285.390	10853
285.449	6234
285.507	5172
285.566	2001
285.624	1571
285.683	558
285.741	1090
285.799	661
285.858	334
285.916	-290
285.975	862
286.033	-415
286.091	-117
286.150	196
286.208	1256
286.267	330
286.325	326
286.383	18
286.442	769
286.500	207
286.558	1524
286.616	239
286.675	1036
286.733	-122
286.791	153
286.850	737
286.908	168
286.966	947
287.024	1036
287.083	-167
287.141	-311
287.199	949
287.257	14
287.315	392
287.374	1258
287.432	657
287.490	1600
287.548	1210
287.606	2615
287.664	2485
287.723	2550
287.781	1994
287.839	3119
287.897	2797
287.955	6328
288.013	13485
288.071	36263
288.129	132410
288.187	357909
288.245	174975
288.303	53180
288.361	29388
288.419	20115
288.477	12646
288.535	9772
288.593	5992
288.651	5158
288.709	2736
288.767	2421
288.825	1695
288.883	2191
288.941	734
288.999	1733
289.057	1254
289.115	949
289.173	576
289.231	1725
289.289	155
289.346	1493
289.404	885
289.462	1063
289.520	-31
289.578	641
289.636	-310
289.694	829
289.751	-35
289.809	-129
289.867	948
289.925	1565
289.983	467
290.040	400
290.098	174
290.156	732
290.214	152
290.271	41
290.329	724
290.387	378
290.444	-510
290.502	906
290.560	719
290.617	190
290.675	-327
290.733	567
290.790	117
290.848	349
290.906	266
290.963	65
291.021	211
291.078	-30
291.136	-1022
291.194	-27
291.251	-209
291.309	-435
291.366	-410
291.424	-262
291.481	-321
291.539	-444
291.596	163
291.654	1159
291.711	374
291.769	-23
291.826	850
291.884	619
291.941	-1092
291.999	-353
292.056	-1102
292.114	13
292.171	-900
292.228	563
292.286	-365
292.343	-187
292.401	-354
292.458	-251
292.515	-894
292.573	566
292.630	-536
292.687	38
292.745	255
292.802	-413
292.859	-68
292.917	857
292.974	199
293.031	-197
293.089	-600
293.146	-136
293.203	-730
293.260	-284
293.318	-476
293.375	-12
293.432	-1270
293.489	-98
293.546	-707
293.604	300
293.661	1220
293.718	3929
293.775	878
293.832	297
293.889	240
293.947	-93
294.004	-466
294.061	-618
294.118	-1301
294.175	679
294.232	-1117
294.289	484
294.346	-760
294.403	496
294.460	294
294.517	-253
294.574	-235
294.631	57
294.688	-217
294.745	-17
294.802	2848
294.859	2769
294.916	375
294.973	453
295.030	-593
295.087	-266
295.144	-198
295.201	1032
295.258	-266
295.315	67
295.372	1017
295.429	1874
295.486	-4
295.542	832
295.599	814
295.656	146
295.713	255
295.770	1490
295.827	-282
295.883	-46
295.940	107
295.997	-519
296.054	-254
296.111	897
296.167	557
296.224	-442
296.281	187
296.338	-280
296.394	-632
296.451	238
296.508	-101
296.564	332
296.621	394
296.678	4847
296.734	6750
296.791	2288
296.848	725
296.904	1847
296.961	2584
297.018	4007
297.074	2613
297.131	1218
297.187	286
297.244	1334
297.301	3221
297.357	8277
297.414	1655
297.470	259
297.527	19
297.583	64
297.640	17
297.696	-212
297.753	-332
297.809	237
297.866	151
297.922	795
297.979	-339
298.035	-547
298.092	21
298.148	1242
298.204	37
298.261	443
298.317	1253
298.374	5665
298.430	3478
298.486	1526
298.543	3184
298.599	3484
298.656	2098
298.712	6057
298.768	26479
298.824	24636
298.881	5123
298.937	3256
298.993	1805
299.050	981
299.106	574
299.162	498
299.218	503
299.275	-217
299.331	251
299.387	842
299.443	4911
299.500	7413
299.556	3504
299.612	1603
299.668	1016
299.724	2888
299.780	3464
299.837	911
299.893	35
299.949	3286
300.005	4146
300.061	3419
300.117	8505
300.173	3138
300.229	668
300.285	219
300.341	37
300.397	1054
300.453	-289
300.510	662
300.566	1560
300.622	2308
300.678	6643
300.734	9329
300.790	3617
300.845	3909
300.901	2858
300.957	4559
301.013	1362
301.069	1032
301.125	712
301.181	3773
301.237	2894
301.293	145
301.349	-152
301.405	529
301.461	-424
301.516	-291
301.572	-748
301.628	35
301.684	-1263
301.740	254
301.796	121
301.851	42
301.907	4
301.963	1690
302.019	5146
302.074	20959
302.130	18400
302.186	6705
302.242	2154
302.297	899
302.353	598
302.409	1320
302.464	983
302.520	598
302.576	2276
302.631	3768
302.687	686
302.743	576
302.798	1480
302.854	1550
302.910	1763
302.965	6441
303.021	4623
303.076	2624
303.132	643
303.187	1450
303.243	665
303.299	1196
303.354	649
303.410	910
303.465	-198
303.521	316
303.576	74
303.632	1335
303.687	2085
303.743	4149
303.798	3281
303.853	1420
303.909	507
303.964	725
304.020	-159
304.075	1287
304.130	278
304.186	520
304.241	1534
304.297	694
304.352	237
304.358	286
304.407	676
304.449	28
304.463	-186
304.518	874
304.539	326
304.573	-583
304.629	740
304.630	753
304.684	1366
304.720	2474
304.739	3008
304.794	5498
304.811	4583
304.850	2441
304.902	1496
304.905	1443
304.960	1669
304.992	2905
305.015	3708
305.071	3208
305.083	2717
305.126	962
305.173	720
305.181	699
305.236	352
305.264	325
305.292	264
305.347	356
305.354	391
305.402	889
305.445	2260
305.457	2552
305.512	5049
305.535	3988
305.567	2576
305.622	1803
305.626	1905
305.678	4396
305.716	8731
305.733	10072
305.788	6428
305.807	5461
305.843	4260
305.897	5195
305.898	5203
305.953	6007
305.988	4179
306.008	3091
306.063	2205
306.078	1684
306.118	503
306.168	523
306.173	528
306.228	988
306.259	1043
306.283	1174
306.338	1753
306.349	1856
306.393	2302
306.440	4074
306.448	4317
306.503	3780
306.530	2985
306.558	2514
306.613	4839
306.620	4904
306.668	4726
306.711	3576
306.723	3239
306.778	2145
306.801	2060
306.833	2143
306.888	1616
306.892	1576
306.943	1067
306.982	1326
306.997	1454
307.052	1415
307.072	1223
307.107	859
307.162	1395
307.163	1394
307.217	1863
307.253	2222
307.272	2224
307.327	1705
307.343	1881
307.381	2462
307.434	1831
307.436	1827
307.491	2793
307.524	3283
307.546	3391
307.600	3834
307.614	3766
307.655	3526
307.704	3558
307.710	3617
307.765	3888
307.795	4178
307.819	4428
307.874	5768
307.885	6005
307.929	8355
307.975	11996
307.984	13350
308.038	24272
308.065	32452
308.093	59483
308.148	126676
308.156	141313
308.202	212760
308.246	259353
308.257	251720
308.312	131873
308.336	84103
308.366	56391
308.421	28896
308.426	27032
308.475	19797
308.517	15575
308.530	14538
308.585	11172
308.607	10217
308.639	9711
308.694	8954
308.697	8958
308.748	8855
308.787	8731
308.803	8821
308.857	9231
308.877	9711
308.912	11087
308.967	13194
308.967	13227
309.021	20312
309.058	26812
309.076	35568
309.130	66890
309.148	80109
309.185	161698
309.238	301767
309.239	302633
309.293	323019
309.328	293071
309.348	252305
309.402	118605
309.418	86275
309.457	58095
309.508	33289
309.511	32487
309.566	23969
309.598	19193
309.620	16963
309.674	12576
309.688	11661
309.729	10291
309.778	8723
309.783	8542
309.837	6956
309.868	6428
309.892	6453
309.946	6566
309.959	6659
310.001	6361
310.049	5688
310.055	5549
310.109	4642
310.139	3892
310.163	3387
310.218	2827
310.229	2685
310.272	2994
310.319	3319
310.326	3209
310.381	2472
310.409	2160
310.435	2314
310.489	2496
310.499	2519
310.543	3082
310.589	3719
310.598	3869
310.652	5021
310.679	5445
310.706	4525
310.760	2411
310.769	2077
310.814	2024
310.859	2311
310.868	2275
310.923	1728
310.948	1495
310.977	1802
311.031	2394
311.038	2511
311.085	2669
311.128	2469
311.139	2401
311.193	2251
311.218	2027
311.247	1959
311.301	2207
311.308	2199
311.356	2441
311.398	2825
311.410	2804
311.464	2442
311.488	2297
311.518	2188
311.572	2025
311.578	1993
311.626	1776
311.668	1560
311.680	1641
311.734	2052
311.758	2172
311.788	1951
311.842	1621
311.847	1575
311.896	1734
311.937	1902
311.950	2094
312.004	2898
312.027	3253
312.058	3558
312.112	4060
312.117	4098
312.165	3038
312.207	2116
312.297	2233
312.386	1462
312.476	2756
312.566	3373
312.656	3280
312.745	1832
312.835	3191
312.925	5201
313.015	5861
313.104	3426
313.194	4634
313.284	3744
313.374	5065
313.463	1643
313.553	2628
313.643	2417
313.732	4116
313.822	4354
313.912	5706
314.001	2445
314.091	2601
314.180	958
314.270	2925
314.360	1949
314.449	2523
314.539	1908
314.628	2379
314.718	2012
314.808	3131
314.897	2699
314.987	2776
315.076	1783
315.166	2230
315.255	2639
315.345	3204
315.434	2589
315.524	4503
315.613	4774
315.703	8676
315.792	20782
315.881	73338
315.971	25381
316.060	7766
316.150	3474
316.239	3327
316.328	2346
316.418	5328
316.507	4125
316.597	11177
316.686	4243
316.775	2588
316.865	2302
316.954	3037
317.043	1692
317.133	2368
317.222	1741
317.311	2510
317.400	1707
317.490	4765
317.579	4296
317.668	6006
317.757	11959
317.847	36111
317.936	128517
318.025	39347
318.114	23332
318.203	13469
318.293	9726
318.382	3853
318.471	2426
318.560	2756
318.649	2647
318.738	2050
318.828	1747
318.917	1847
319.006	2296
319.095	6399
319.184	4788
319.273	2981
319.362	2859
319.451	1481
319.540	1324
319.629	2138
319.718	1892
319.807	1784
319.896	1783
319.985	3051
320.074	1249
320.163	1999
320.252	1173
320.341	2386
320.430	1759
320.519	1813
320.608	622
320.697	1995
320.786	1747
320.875	1789
320.964	2212
321.053	3161
321.142	4475
321.230	9168
321.319	4612
321.408	8884
321.497	3887
321.586	3452
321.675	1517
321.764	2493
321.852	2333
321.941	2358
322.030	1481
322.119	3113
322.207	3282
322.296	3988
322.385	3132
322.474	3463
322.562	3644
322.651	3351
322.740	2168
322.829	4220
322.917	3089
323.006	2269
323.095	3908
323.183	7489
323.272	3351
323.361	7396
323.449	10071
323.538	3439
323.626	3755
323.715	2627
323.804	1475
323.892	2952
323.981	3300
324.069	5069
324.158	4344
324.246	2840
324.335	2157
324.424	2738
324.512	1600
324.601	1880
324.689	1601
324.778	3535
324.866	1728
324.954	2312
325.043	2148
325.131	1097
325.220	2038
325.308	2685
325.397	1836
325.485	2083
325.574	1065
325.662	1129
325.750	836
325.839	2636
325.927	2049
326.015	2677
326.104	1420
326.192	2321
326.280	1064
326.369	1711
326.457	1608
326.545	2014
326.634	855
326.722	1836
326.810	1016
326.898	3188
326.987	3027
327.075	3246
327.163	6876
327.251	17380
327.340	19803
327.428	3840
327.516	1926
327.604	1696
327.692	1405
327.781	3008
327.869	10062
327.957	14548
328.045	1832
328.133	2527
328.221	2271
328.309	3978
328.397	3663
328.485	10075
328.574	3248
328.662	3071
328.750	1678
328.838	2896
328.926	2833
329.014	2459
329.102	908
329.190	2310
329.278	1463
329.366	1219
329.454	542
329.542	2722
329.630	1633
329.718	2759
329.806	1590
329.893	3868
329.981	4620
330.069	13738
330.157	51271
330.245	135167
330.333	67252
330.421	11917
330.509	8044
330.597	11745
330.684	6521
330.772	2609
330.860	1348
330.948	2316
331.036	1374
331.123	1540
331.211	1418
331.299	1860
331.387	1492
331.475	2938
331.562	500
331.650	1852
331.738	698
331.825	2690
331.913	1871
332.001	2023
332.089	609
332.176	1510
332.264	2240
332.352	2539
332.439	289
332.527	1546
332.614	706
332.702	3010
332.790	1301
332.877	2124
332.965	1987
333.052	1495
333.140	1172
333.228	2371
333.315	734
333.403	3637
333.490	3812
333.578	1567
333.665	1560
333.753	1991
333.840	2123
333.928	2758
334.015	4757
334.103	4840
334.190	2837
334.278	3209
334.365	2611
334.452	5557
334.540	2213
334.627	2090
334.715	2965
334.802	4191
334.889	7445
334.977	9479
335.064	4756
335.151	2209
335.239	1613
335.326	2508
335.413	2801
335.501	3818
335.588	6415
335.675	6300
335.762	4082
335.850	3819
335.937	3852
336.024	9306
336.111	11355
336.199	10441
336.286	4631
336.373	3231
336.460	1168
336.547	1766
336.635	1896
336.722	2165
336.809	2185
336.896	1861
336.983	1483
337.070	3417
337.157	2840
337.245	3263
337.332	3312
337.419	3384
337.506	3481
337.593	2512
337.680	1734
337.767	2765
337.854	592
337.941	3073
338.028	2062
338.115	2190
338.202	1573
338.289	1617
338.376	2043
338.463	1776
338.550	1275
338.637	2386
338.724	3909
338.811	10862
338.898	4182
338.984	1445
339.071	3925
339.158	29893
339.245	27797
339.332	6521
339.419	1776
339.506	2041
339.593	824
339.679	3547
339.766	670
339.853	3004
339.940	2731
340.027	2369
340.113	1086
340.200	1960
340.287	1699
340.374	2596
340.460	4942
340.547	1318
340.634	1653
340.720	2912
340.807	2152
340.894	1963
340.980	3657
341.067	4978
341.154	1462
341.240	1441
341.327	1763
341.414	2763
341.500	1759
341.587	1892
341.674	1213
341.760	1649
341.847	1374
341.933	2098
342.020	1020
342.106	674
342.193	794
342.279	1169
342.366	808
342.452	1702
342.539	719
342.625	1945
342.712	2148
342.798	1671
342.885	399
342.971	2213
343.058	7717
343.144	2395
343.230	1871
343.317	1442
343.403	1140
343.490	1378
343.576	960
343.662	4171
343.749	12682
343.835	35732
343.921	6297
344.008	10181
344.094	15860
344.180	4210
344.267	1780
344.353	2711
344.439	2748
344.525	1666
344.612	2518
344.698	6773
344.784	3886
344.870	1518
344.957	1236
345.043	2049
345.129	492
345.215	1962
345.301	347
345.387	1158
345.474	1380
345.560	2140
345.646	1542
345.732	4663
345.818	2722
345.904	2732
345.990	976
346.076	2358
346.162	1403
346.249	3814
346.335	3374
346.421	3239
346.507	2971
346.593	4522
346.679	946
346.765	2761
346.851	1019
346.937	1364
347.023	2222
347.108	4973
347.194	2064
347.280	1363
347.366	1350
347.452	3596
347.538	4608
347.624	4618
347.710	2346
347.796	3525
347.882	9661
347.967	10651
348.053	6257
348.139	12113
348.225	3222
348.311	5599
348.397	2379
348.482	2153
348.568	1109
348.654	1569
348.740	2617
348.825	2211
348.911	2485
348.997	3709
349.083	4606
349.168	1530
349.254	459
349.340	1283
349.425	2053
349.511	4555
349.597	23872
349.682	14204
349.768	3337
349.854	2386
349.939	2342
350.025	1613
350.110	2523
350.196	2027
350.282	1036
350.367	1708
350.453	2002
350.538	9015
350.624	5062
350.709	1861
350.795	830
350.880	5889
350.966	8661
351.051	2708
351.137	1526
351.222	998
351.308	271
351.393	1965
351.479	953
351.564	588
351.649	1406
351.735	589
351.820	1398
351.906	8893
351.991	12457
352.076	3434
352.162	1871
352.247	2260
352.332	1423
352.418	912
352.503	338
352.588	4810
352.673	1629
352.759	1532
352.844	228
352.929	1671
353.014	1565
353.100	2460
353.185	967
353.270	3334
353.355	3955
353.441	2468
353.526	1857
353.611	1911
353.696	832
353.781	1966
353.866	222
353.952	2107
354.037	308
354.122	1612
354.207	1787
354.292	3778
354.377	1064
354.462	1422
354.547	593
354.632	1347
354.717	8212
354.802	11731
354.887	1975
354.972	5483
355.057	4840
355.142	4340
355.227	6913
355.312	1474
355.397	1261
355.482	2463
355.567	2438
355.652	12500
355.737	5389
355.822	3590
355.907	1936
355.991	1783
356.076	-200
356.161	2119
356.246	264
356.331	1262
356.416	653
356.501	8394
356.585	13704
356.670	5817
356.755	2800
356.840	3718
356.924	7407
357.009	18468
357.094	6966
357.179	8469
357.263	19339
357.348	6237
357.433	2000
357.517	6294
357.602	12172
357.687	10503
357.771	4200
357.856	2855
357.941	2040
358.025	7252
358.110	28859
358.195	10947
358.279	1832
358.364	1789
358.448	2268
358.533	5249
358.617	8688
358.702	6615
358.787	3370
358.871	2281
358.956	626
359.040	1111
359.125	971
359.209	1508
359.294	1479
359.378	1384
359.462	1031
359.547	1112
359.631	-390
359.716	290
359.800	723
359.885	2207
359.969	556
360.053	11244
360.138	21930
360.222	4913
360.306	913
360.391	946
360.475	637
360.559	1776
360.644	471
360.728	1838
360.812	4159
360.896	8532
360.981	2656
361.065	1035
361.149	3528
361.233	4740
361.318	5833
361.402	5678
361.486	8064
361.570	3200
361.654	453
361.739	952
361.823	6174
361.907	10926
361.991	1281
362.075	936
362.159	1309
362.243	4213
362.327	9438
362.411	19798
362.495	5549
362.580	2834
362.664	2003
362.748	1700
362.832	2856
362.916	5923
363.000	19074
363.084	30417
363.168	16898
363.252	4577
363.336	3288
363.420	4274
363.503	2115
363.587	2273
363.671	934
363.755	932
363.839	2463
363.923	1007
364.007	1733
364.091	2839
364.175	2100
364.258	9908
364.342	19570
364.426	42233
364.510	18969
364.594	6862
364.677	4898
364.761	8281
364.845	5258
364.929	1878
365.013	411
365.096	2200
365.180	129
365.264	795
365.347	1814
365.431	206
365.515	-166
365.598	476
365.682	922
365.766	-696
365.849	279
365.933	533
366.017	2251
366.100	1276
366.184	9
366.267	3668
366.351	10191
366.435	4707
366.518	957
366.602	1681
366.685	-42
366.769	1051
366.852	1170
366.936	1179
367.019	341
367.103	1509
367.186	2260
367.270	1386
367.353	-247
367.436	5299
367.520	2632
367.603	2367
367.687	-573
367.770	1396
367.853	2131
367.937	3106
368.020	2524
368.104	672
368.187	1277
368.270	1871
368.353	745
368.437	1741
368.520	1389
368.603	1265
368.687	505
368.770	3174
368.853	138
368.936	1288
369.020	961
369.103	1236
369.186	-426
369.269	814
369.352	1592
369.436	1809
369.519	942
369.602	-539
369.685	2824
369.768	5614
369.851	6282
369.934	732
370.018	299
370.101	124
370.184	2841
370.267	1495
370.350	538
370.433	1999
370.516	7192
370.599	22480
370.682	10045
370.765	4470
370.848	3289
370.931	6747
371.014	4156
371.097	188
371.180	1524
371.263	1944
371.346	-942
371.429	2672
371.511	991
371.594	973
371.677	783
371.760	1701
371.843	1077
371.926	12325
372.009	22933
372.091	7781
372.174	658
372.257	4469
372.340	525
372.423	707
372.505	1268
372.588	863
372.671	1803
372.754	2995
372.836	1840
372.919	1960
373.002	1711
373.085	1397
373.167	2260
373.250	2777
373.332	5183
373.415	14746
373.498	27717
373.580	14047
373.663	41650
373.746	44989
373.828	7178
373.911	3247
373.993	583
374.076	2337
374.159	1448
374.241	1846
374.324	2475
374.406	3737
374.489	6300
374.571	16202
374.654	4577
374.736	4002
374.819	7796
374.901	15962
374.983	14454
375.066	4361
375.148	5514
375.231	3207
375.313	1766
375.395	1489
375.478	406
375.560	1557
375.643	943
375.725	4288
375.807	10200
375.890	8336
375.972	-33
376.054	1668
376.136	1012
376.219	926
376.301	2894
376.383	9228
376.465	5760
376.548	2227
376.630	4854
376.712	9578
376.794	2416
376.877	1354
376.959	-84
377.041	1580
377.123	407
377.205	802
377.287	-79
377.369	812
377.452	62
377.534	1305
377.616	-39
377.698	1122
377.780	-653
377.862	617
377.944	1710
378.026	4174
378.108	4798
378.190	829
378.272	310
378.354	118
378.436	-230
378.518	-3
378.600	483
378.682	1753
378.764	1712
378.846	1619
378.928	131
379.010	881
379.091	3937
379.173	4850
379.255	376
379.337	1015
379.419	1001
379.501	3519
379.583	148
379.664	885
379.746	-672
379.828	3160
379.910	931
379.991	2318
380.073	102
380.155	1173
380.237	-29
380.318	718
380.400	-15
380.482	1270
380.564	-299
380.645	-55
380.727	-40
380.809	1654
380.890	50
380.972	6
381.053	-271
381.135	1405
381.217	903
381.298	2548
381.380	281
381.461	1523
381.543	5235
381.624	6643
381.706	1674
381.787	1947
381.869	1632
381.951	5751
382.032	16669
382.113	12009
382.195	2194
382.276	5464
382.358	1035
382.439	4693
382.521	8140
382.602	12724
382.684	4833
382.765	6415
382.846	4059
382.928	7060
383.009	3257
383.090	3666
383.172	10520
383.253	16089
383.334	5259
383.416	7841
383.497	6367
383.578	13691
383.659	14869
383.741	15656
383.822	25778
383.903	10768
383.984	4211
384.066	8636
384.147	2788
384.228	2100
384.309	2530
384.390	1314
384.471	322
384.553	1298
384.634	1573
384.715	4326
384.796	618
384.877	3282
384.958	4116
385.039	1575
385.120	67
385.201	1808
385.282	98
385.363	2195
385.444	348
385.525	3466
385.606	6215
385.687	4872
385.768	819
385.849	1521
385.930	10016
386.011	15732
386.092	3394
386.173	2467
386.254	3472
386.335	10479
386.416	14163
386.496	5123
386.577	1982
386.658	1600
386.739	398
386.820	1400
386.901	-261
386.981	1989
387.062	373
387.143	1309
387.224	2258
387.304	2797
387.385	1838
387.466	973
387.547	2201
387.627	1453
387.708	4656
387.789	9190
387.869	6197
387.950	4884
388.031	892
388.111	-392
388.192	1360
388.273	2574
388.353	799
388.434	2540
388.514	6791
388.595	10811
388.676	6319
388.756	2590
388.837	3057
388.917	3129
388.998	7997
389.078	14537
389.159	10997
389.239	2350
389.320	3456
389.400	1122
389.480	1739
389.561	2056
389.641	2500
389.722	1797
389.802	820
389.883	1886
389.963	4316
390.043	4331
390.124	1011
390.204	2787
390.284	3069
390.365	4387
390.445	23291
390.525	115298
390.605	95904
390.686	12191
390.766	3747
390.846	3047
390.927	928
391.007	1120
391.087	2061
391.167	1550
391.247	261
391.328	2529
391.408	2150
391.488	3055
391.568	1442
391.648	3273
391.728	2469
391.808	2734
391.888	1243
391.969	3750
392.049	2470
392.129	5771
392.209	5838
392.289	6660
392.369	3561
392.449	4513
392.529	3899
392.609	6688
392.689	6829
392.769	9756
392.849	10112
392.929	18753
393.009	20839
393.089	25533
393.169	54222
393.248	205193
393.328	683073
393.408	660382
393.488	175032
393.568	48951
393.648	23986
393.728	15346
393.807	10390
393.887	11593
393.967	10322
394.047	11617
394.127	14124
394.206	30082
394.286	116935
394.366	448488
394.446	439364
394.525	108132
394.605	27906
394.685	14971
394.764	11321
394.844	8316
394.924	7951
395.003	7179
395.083	6078
395.163	6707
395.242	4633
395.322	6407
395.402	4470
395.481	7875
395.561	6385
395.640	12528
395.720	17902
395.799	19604
395.879	23115
395.958	45013
396.038	177662
396.117	584943
396.197	580814
396.276	169946
396.356	48478
396.435	27758
396.515	22171
396.594	25015
396.673	51230
396.753	217885
396.832	606330
396.912	365301
396.991	67644
397.070	23256
397.150	11141
397.229	10639
397.308	13472
397.388	19939
397.467	8591
397.546	6380
397.625	1443
397.705	5448
397.784	3354
397.863	2723
397.942	2189
398.022	2467
398.101	2337
398.180	3763
398.259	2067
398.338	3160
398.417	1378
398.497	2193
398.576	1935
398.655	812
398.734	1119
398.813	2617
398.892	2632
398.971	3044
399.050	1528
399.129	2969
399.208	1578
399.287	2035
399.366	-188
399.445	562
399.524	714
399.603	-977
399.682	355
399.761	768
399.840	2824
399.919	4013
399.998	738
400.077	90
400.156	-609
400.235	3011
400.313	645
400.392	861
400.471	1388
400.550	2683
400.629	-1014
400.708	2052
400.786	-591
400.865	-30
400.944	-986
401.023	1772
401.102	-583
401.180	797
401.259	287
401.338	462
401.416	669
401.495	-395
401.574	-43
401.652	275
401.731	522
401.810	-121
401.888	-326
401.967	362
402.046	103
402.124	863
402.203	-855
402.281	1601
402.360	1269
402.438	3985
402.517	1794
402.596	1323
402.674	1526
402.753	3188
402.831	1095
402.910	3266
402.988	3589
403.066	3064
403.145	1596
403.223	2081
403.302	1739
403.380	2393
403.459	513
403.537	1213
403.615	1527
403.694	-259
403.772	144
403.850	738
403.929	-895
404.007	517
404.085	1138
404.164	1061
404.242	349
404.320	4897
404.398	12681
404.477	10197
404.555	10688
404.633	7867
404.711	5321
404.789	4072
404.868	1702
404.946	537
405.024	1605
405.102	780
405.180	-676
405.258	-1327
405.336	1268
405.415	859
405.493	4969
405.571	5130
405.649	-30
405.727	-692
405.805	1362
405.883	449
405.961	556
406.039	408
406.117	-784
406.195	2139
406.273	123
406.351	7309
406.429	8384
406.507	1805
406.585	-381
406.663	551
406.740	-49
406.818	-545
406.896	-291
406.974	1587
407.052	-1472
407.130	3636
407.208	6852
407.285	9419
407.363	2295
407.441	1716
407.519	1824
407.596	3694
407.674	21802
407.752	89371
407.830	59543
407.907	6922
407.985	357
408.063	6376
408.141	11141
408.218	4415
408.296	-490
408.373	424
408.451	652
408.529	-27
408.606	496
408.684	429
408.762	309
408.839	1050
408.917	-553
408.994	1196
409.072	-17
409.149	1531
409.227	659
409.304	1662
409.382	1750
409.459	2468
409.537	3179
409.614	3353
409.692	588
409.769	1246
409.846	2603
409.924	5037
410.001	768
410.079	1736
410.156	1891
410.233	1800
410.311	1724
410.388	900
410.465	-320
410.543	-435
410.620	532
410.697	804
410.775	197
410.852	1319
410.929	851
411.006	978
411.083	65
411.161	-590
411.238	-269
411.315	700
411.392	106
411.469	538
411.547	-126
411.624	-1048
411.701	-674
411.778	300
411.855	-138
411.932	3
412.009	-198
412.086	1166
412.163	1394
412.240	-264
412.317	-378
412.394	-261
412.471	174
412.548	136
412.625	-823
412.702	324
412.779	504
412.856	944
412.933	-715
413.010	1336
413.087	640
413.164	310
413.241	82
413.318	-631
413.395	-28
413.471	617
413.548	-178
413.625	990
413.702	-852
413.779	111
413.855	-675
413.932	-87
414.009	-842
414.086	-86
414.162	-452
414.239	505
414.316	14
414.393	2297
414.469	-1528
414.546	28
414.623	-689
414.699	-243
414.776	-1020
414.853	1998
414.929	4688
415.006	1654
415.082	-392
415.159	690
415.236	667
415.312	1125
415.389	131
415.465	-84
415.542	-495
415.618	140
415.695	683
415.771	2
415.848	-299
415.924	288
416.000	-392
416.077	1890
416.153	503
416.230	-631
416.306	-566
416.383	362
416.459	-248
416.535	-424
416.612	605
416.688	1295
416.764	-894
416.841	-389
416.917	-1259
416.993	-24
417.069	-153
417.146	1194
417.222	1032
417.298	1016
417.374	-631
417.451	132
417.527	-1533
417.603	-650
417.679	-466
417.755	-28
417.831	-657
417.908	-144
417.984	-248
418.060	-424
418.136	-13
418.212	-409
418.288	13
418.364	2130
418.440	-1612
418.516	143
418.592	132
418.668	1971
418.744	2460
418.820	1884
418.896	-450
418.972	-434
419.048	-405
419.124	1083
419.200	-689
419.276	206
419.352	-706
419.428	1036
419.504	193
419.579	55
419.655	-114
419.731	232
419.807	227
419.883	1788
419.959	1655
420.034	1042
420.110	1973
420.186	2195
420.262	644
420.337	-386
420.413	-387
420.489	411
420.565	175
420.640	-245
420.716	241
420.792	-130
420.867	2163
420.943	1414
421.019	295
421.094	50
421.170	1291
421.245	982
421.321	2092
421.397	4182
421.472	16606
421.548	49837
421.623	22733
421.699	3582
421.774	1713
421.850	815
421.925	2048
422.001	2642
422.076	2866
422.152	2734
422.227	3373
422.302	6997
422.378	11292
422.453	20850
422.529	59706
422.604	208898
422.679	353105
422.755	204646
422.830	62765
422.905	22120
422.981	9910
423.056	7890
423.131	5454
423.207	4610
423.282	2363
423.357	2777
423.432	2008
423.508	2841
423.583	1506
423.658	2190
423.733	1131
423.808	1917
423.883	5247
423.959	10276
424.034	5938
424.109	9578
424.184	7941
424.259	2183
424.334	215
424.409	261
424.484	-743
424.559	210
424.634	-450
424.709	-138
424.784	-44
424.859	549
424.934	-809
425.009	328
425.084	328
425.159	831
425.234	197
425.309	-19
425.384	74
425.459	-590
425.534	-383
425.609	-56
425.683	-879
425.758	560
425.833	101
425.908	42
425.983	-1977
426.058	1459
426.132	442
426.207	-312
426.282	267
426.357	-612
426.431	-716
426.506	882
426.581	-975
426.655	273
426.730	-353
426.805	1337
426.879	705
426.954	68
427.029	-1161
427.103	1504
427.178	2364
427.253	869
427.327	-507
427.402	-502
427.476	-305
427.551	-106
427.625	-55
427.700	583
427.774	-1166
427.849	-50
427.923	-1440
427.998	237
428.072	-334
428.147	2598
428.221	17151
428.296	55022
428.370	26253
428.444	2837
428.519	128
428.593	-134
428.667	-182
428.742	756
428.816	3576
428.890	29399
428.965	43725
429.039	8439
429.113	880
429.188	504
429.262	67
429.336	599
429.410	108
429.485	3110
429.559	143
429.633	370
429.707	-256
429.781	2811
429.855	23562
429.930	36337
430.004	6725
430.078	3377
430.152	15776
430.226	86014
430.300	80939
430.374	11057
430.448	2628
430.522	982
430.596	1325
430.670	8036
430.744	37467
430.818	40084
430.892	5506
430.966	1100
431.040	-2
431.114	-1290
431.188	-1094
431.262	169
431.336	92
431.410	531
431.484	-1028
431.557	658
431.631	-534
431.705	1596
431.779	11315
431.853	51084
431.927	30692
432.000	3148
432.074	494
432.148	584
432.222	-952
432.295	15
432.369	-611
432.443	58
432.516	764
432.590	4792
432.664	474
432.737	-393
432.811	-626
432.885	112
432.958	-52
433.032	-352
433.106	-1221
433.179	293
433.253	-115
433.326	33
433.400	-539
433.473	357
433.547	-1024
433.620	372
433.694	-1782
433.767	237
433.841	-430
433.914	-32
433.988	-965
434.061	1571
434.134	2173
434.208	-132
434.281	-422
434.355	-716
434.428	-334
434.501	-995
434.575	-685
434.648	203
434.721	339
434.795	5876
434.868	905
434.941	681
435.014	-682
435.088	-513
435.161	-1183
435.234	-312
435.307	-1025
435.381	284
435.454	-592
435.527	1393
435.600	204
435.673	578
435.746	117
435.819	518
435.892	-583
435.966	818
436.039	-56
436.112	1666
436.185	-249
436.258	-1000
436.331	-1320
436.404	-74
436.477	-152
436.550	413
436.623	210
436.696	529
436.769	-506
436.842	-1095
436.915	-1040
436.987	-386
437.060	-636
437.133	325
437.206	-1858
437.279	-501
437.352	-1164
437.425	-425
437.498	-747
437.570	-242
437.643	-312
437.716	728
437.789	-1137
437.861	-913
437.934	-432
438.007	600
438.080	-800
438.152	-304
438.225	-832
438.298	3274
438.370	6715
438.443	1908
438.516	-701
438.588	-701
438.661	-841
438.734	-330
438.806	-1308
438.879	122
438.951	-1131
439.024	-502
439.096	-1094
439.169	-965
439.241	-893
439.314	-1038
439.386	-689
439.459	1324
439.531	98
439.604	-52
439.676	-1131
439.749	-475
439.821	-1236
439.893	-591
439.966	-945
440.038	-955
440.110	-653
440.183	257
440.255	-921
440.327	354
440.400	-93
440.472	2416
440.544	869
440.617	-645
440.689	342
440.761	-491
440.833	-1027
440.905	-431
440.978	-2058
441.050	-810
441.122	-450
441.194	-202
441.266	-431
441.338	1856
441.411	-294
441.483	753
441.555	-46
441.627	-206
441.699	-530
441.771	-489
441.843	-472
441.915	460
441.987	28
442.059	1554
442.131	323
442.203	335
442.275	-416
442.347	987
442.419	2732
442.491	21120
442.563	46603
442.635	16414
442.706	1045
442.778	537
442.850	-263
442.922	529
442.994	-764
443.066	-115
443.137	884
443.209	2263
443.281	1217
443.353	4734
443.425	27502
443.496	99377
443.568	83081
443.640	24977
443.711	2761
443.783	1192
443.855	-122
443.926	365
443.998	237
444.070	733
444.141	-802
444.213	123
444.285	471
444.356	21
444.428	-633
444.499	93
444.571	-1341
444.642	-125
444.714	-549
444.785	238
444.857	134
444.928	-121
445.000	-137
445.071	663
445.143	-3
445.214	1194
445.285	2752
445.357	12446
445.428	69013
445.500	151605
445.571	76613
445.642	35520
445.714	7561
445.785	2587
445.856	108
445.928	460
445.999	-454
446.070	297
446.141	238
446.213	-327
446.284	-1126
446.355	238
446.426	-897
446.497	335
446.569	-883
446.640	-124
446.711	-312
446.782	-522
446.853	-501
446.924	102
446.995	477
447.066	1468
447.138	-467
447.209	-14
447.280	-1458
447.351	327
447.422	-1348
447.493	-106
447.564	-1177
447.635	-102
447.706	-818
447.777	-300
447.847	-345
447.918	-1193
447.989	-918
448.060	-174
448.131	-493
448.202	-140
448.273	-481
448.344	-120
448.414	-791
448.485	-197
448.556	-271
448.627	34
448.698	545
448.768	-154
448.839	-1476
448.910	-457
448.981	98
449.051	-243
449.122	-1028
449.193	-107
449.263	-218
449.334	178
449.405	1043
449.475	704
449.546	-354
449.616	1192
449.687	658
449.758	1307
449.828	107
449.899	-186
449.969	-987
450.040	283
450.110	155
450.181	-172
450.251	-682
450.322	476
450.392	-244
450.463	-47
450.533	38
450.604	166
450.674	-409
450.744	2890
450.815	-127
450.885	-89
450.955	-402
451.026	-783
451.096	-930
451.166	-570
451.237	-852
451.307	564
451.377	-835
451.447	-355
451.518	-1050
451.588	-921
451.658	-367
451.728	-410
451.799	-1429
451.869	84
451.939	-1632
452.009	162
452.079	-1140
452.149	293
452.219	-1188
452.289	-37
452.360	-811
452.430	-357
452.500	-526
452.570	689
452.640	733
452.710	2621
452.780	2301
452.850	1015
452.920	-15
452.990	490
453.060	-604
453.129	-449
453.199	-1350
453.269	-1425
453.339	-739
453.409	-64
453.479	-408
453.549	1096
453.619	2634
453.688	298
453.758	-630
453.828	298
453.898	-648
453.968	-224
454.037	-33
454.087	-190
454.107	-263
454.168	283
454.177	349
454.247	1158
454.249	1114
454.316	-187
454.330	-230
454.386	-438
454.411	-749
454.456	-1315
454.492	-820
454.525	-383
454.574	-432
454.595	-481
454.655	-240
454.665	-213
454.734	-902
454.736	-881
454.804	-366
454.817	-471
454.873	-972
454.898	-501
454.943	339
454.979	-127
455.013	-544
455.060	-94
455.082	64
455.141	-687
455.152	-760
455.221	758
455.222	797
455.291	3358
455.303	5141
455.360	11894
455.384	17399
455.430	25838
455.465	17636
455.499	10188
455.546	4280
455.569	1687
455.627	1145
455.638	1079
455.707	-762
455.708	-750
455.777	82
455.789	96
455.846	-106
455.869	80
455.916	477
455.950	-103
455.985	-637
456.031	-528
456.054	-517
456.112	-381
456.124	-336
456.193	247
456.193	237
456.262	-266
456.274	-191
456.332	123
456.355	-256
456.401	-954
456.436	-775
456.470	-581
456.516	-276
456.540	-187
456.597	88
456.609	148
456.678	-134
456.678	-143
456.747	-425
456.759	-516
456.817	-934
456.840	-726
456.886	-452
456.920	-511
456.955	-486
457.001	-498
457.024	-568
457.082	-425
457.093	-376
457.162	147
457.163	155
457.232	-448
457.243	-377
457.301	179
457.324	-99
457.370	-588
457.405	89
457.439	860
457.485	1363
457.508	1522
457.566	3185
457.577	3326
457.646	2104
457.647	2095
457.715	1520
457.727	1545
457.784	2230
457.808	3586
457.853	5504
457.889	6342
457.922	6310
457.969	4248
457.991	4150
458.050	4019
458.060	3958
458.129	8891
458.130	8992
458.198	10255
458.211	9435
458.267	4785
458.292	3020
458.336	1666
458.372	1645
458.405	2292
458.453	3083
458.474	3687
458.533	7688
458.543	8181
458.611	15007
458.614	15094
458.680	9876
458.694	7779
458.749	2805
458.775	2070
458.818	1464
458.855	1033
458.887	802
458.936	631
458.955	465
459.016	604
459.024	679
459.093	1017
459.097	1018
459.162	475
459.177	482
459.230	560
459.257	295
459.299	111
459.338	744
459.368	958
459.418	279
459.437	137
459.499	596
459.505	653
459.574	445
459.579	493
459.643	625
459.659	465
459.711	257
459.740	486
459.780	527
459.820	270
459.849	299
459.900	499
459.917	536
459.981	1101
459.986	1123
460.054	898
460.061	867
460.123	857
460.141	921
460.191	1631
460.222	2311
460.260	2572
460.302	2927
460.328	3141
460.382	2317
460.397	2089
460.462	2392
460.465	2525
460.534	5512
460.543	5920
460.602	20634
460.623	26311
460.671	41050
460.703	57850
460.739	57983
460.783	47085
460.808	38571
460.864	7578
460.876	4828
460.944	1482
460.945	1447
461.013	1690
461.024	1613
461.081	587
461.104	432
461.150	605
461.184	694
461.218	1100
461.264	1835
461.286	1823
461.345	1007
461.355	885
461.423	1110
461.425	1088
461.491	438
461.505	612
461.559	981
461.585	572
461.628	267
461.665	666
461.696	914
461.745	585
461.764	546
461.825	810
461.832	836
461.901	1183
461.905	1236
461.969	854
461.985	569
462.037	1289
462.065	1810
462.105	1112
462.145	340
462.173	530
462.225	908
462.241	956
462.305	872
462.310	834
462.378	1040
462.385	956
462.446	750
462.465	975
462.514	1527
462.545	1575
462.582	1972
462.625	2778
462.650	2591
462.705	1705
462.718	1612
462.785	1365
462.786	1367
462.854	949
462.865	996
462.922	1220
462.945	1214
462.990	1121
463.025	1080
463.058	1497
463.104	2065
463.126	1896
463.184	1514
463.194	1705
463.262	2542
463.264	2591
463.330	4148
463.344	4537
463.398	5758
463.424	6260
463.466	4310
463.504	2026
463.533	1791
463.583	1541
463.601	1430
463.663	1167
463.669	1151
463.737	1346
463.743	1321
463.805	1591
463.823	1844
463.873	2313
463.903	2249
463.940	1918
463.982	1983
464.008	2364
464.062	2795
464.076	2606
464.142	1820
464.144	1820
464.211	1417
464.221	1417
464.279	1415
464.301	1261
464.347	1389
464.381	1798
464.414	1972
464.461	1916
464.482	2129
464.540	2892
464.550	2839
464.617	2089
464.620	2066
464.685	3103
464.699	3301
464.753	4293
464.779	4904
464.820	6243
464.859	7364
464.888	6602
464.938	5373
464.956	5321
465.018	4614
465.023	4632
465.091	5114
465.098	5140
465.158	4646
465.177	4563
465.226	4556
465.257	4414
465.293	4534
465.336	4750
465.361	4942
465.416	5317
465.428	5289
465.495	5216
465.496	5225
465.563	5006
465.575	5026
465.631	5416
465.654	5541
465.698	5475
465.734	5462
465.765	5390
465.813	5094
465.833	5163
465.893	5442
465.900	5469
465.968	5624
465.972	5624
466.035	5399
466.052	5309
466.102	5842
466.131	6193
466.170	6176
466.210	6031
466.237	6189
466.290	6637
466.304	6753
466.369	7031
466.372	7044
466.439	7147
466.449	7144
466.506	6898
466.528	6815
466.573	7768
466.607	8392
466.641	8692
466.687	9175
466.708	9139
466.766	8896
466.775	9010
466.842	9789
466.845	9808
466.909	9383
466.925	9265
466.977	9367
467.004	9377
467.044	9554
467.083	9725
467.111	10389
467.163	11575
467.178	11703
467.242	12157
467.245	12091
467.312	10319
467.321	10070
467.379	9091
467.400	8711
467.446	8937
467.480	9077
467.559	8132
467.638	7932
467.717	7593
467.796	8168
467.875	7124
467.955	6154
468.034	6554
468.113	6543
468.192	7443
468.271	9432
468.350	11066
468.429	9072
468.508	9849
468.588	8730
468.667	17274
468.746	31598
468.825	27289
468.904	8398
468.983	5431
469.062	5658
469.141	5781
469.220	4729
469.299	5773
469.378	6138
469.456	9608
469.535	8074
469.614	7286
469.693	6625
469.772	7772
469.851	6501
469.930	6623
470.009	7082
470.088	5965
470.166	6517
470.245	6111
470.324	5356
470.403	5266
470.482	5757
470.560	5353
470.639	5798
470.718	6857
470.797	6069
470.875	11043
470.954	19580
471.033	22043
471.111	6895
471.190	6517
471.269	6065
471.347	5188
471.426	5419
471.505	6944
471.583	7237
471.662	7170
471.740	7782
471.819	6590
471.898	7326
471.976	6047
472.055	5337
472.133	5865
472.212	6262
472.290	5405
472.369	4236
472.447	5366
472.526	4432
472.604	5693
472.683	4987
472.761	3984
472.839	4820
472.918	4935
472.996	3618
473.075	6097
473.153	7052
473.231	6879
473.310	4715
473.388	4717
473.466	5040
473.545	5593
473.623	6000
473.701	5737
473.780	6331
473.858	13899
473.936	22275
474.014	9440
474.093	4279
474.171	5760
474.249	4917
474.327	4377
474.405	4021
474.484	4328
474.562	3541
474.640	4154
474.718	5076
474.796	5103
474.874	5919
474.952	4709
475.030	4846
475.108	6273
475.187	7957
475.265	7140
475.343	5997
475.421	5655
475.499	4594
475.577	4779
475.655	4416
475.733	4325
475.811	3674
475.889	3017
475.966	3697
476.044	3794
476.122	3613
476.200	4099
476.278	5486
476.356	5075
476.434	4020
476.512	3592
476.590	3391
476.667	4335
476.745	2343
476.823	3882
476.901	3780
476.979	3798
477.056	4486
477.134	9100
477.212	16298
477.290	8338
477.367	3615
477.445	2437
477.523	3313
477.601	2765
477.678	3788
477.756	2854
477.834	2928
477.911	2684
477.989	2838
478.066	2036
478.144	2863
478.222	2382
478.299	2528
478.377	5455
478.454	5973
478.532	4717
478.609	2509
478.687	3603
478.764	4110
478.842	6106
478.919	4204
478.997	2966
479.074	3115
479.152	2135
479.229	2487
479.307	2438
479.384	2677
479.461	2665
479.539	1935
479.616	2342
479.694	996
479.771	2638
479.848	2121
479.926	710
480.003	3110
480.080	2500
480.157	2655
480.235	2499
480.312	2620
480.389	2034
480.467	3331
480.544	5771
480.621	5317
480.698	3112
480.775	1627
480.853	3425
480.930	4357
481.007	4059
481.084	2600
481.161	6694
481.238	4905
481.315	2735
481.392	3227
481.470	10363
481.547	16437
481.624	6680
481.701	2416
481.778	1335
481.855	2155
481.932	1517
482.009	2196
482.086	1297
482.163	1714
482.240	2311
482.317	3533
482.393	6201
482.470	4324
482.547	2596
482.624	1475
482.701	3984
482.778	4443
482.855	3969
482.932	2330
483.009	1925
483.085	2045
483.162	3888
483.239	4334
483.316	1265
483.393	2239
483.469	2052
483.546	1069
483.623	2535
483.699	2021
483.776	2556
483.853	4773
483.930	4497
484.006	3148
484.083	5295
484.160	16537
484.236	32401
484.313	26008
484.389	17514
484.466	16905
484.543	13572
484.619	14440
484.696	15672
484.772	14114
484.849	14250
484.925	13299
485.002	13812
485.078	16075
485.155	16086
485.231	11722
485.308	12494
485.384	12353
485.461	12531
485.537	12634
485.614	12688
485.690	11676
485.766	11408
485.843	11262
485.919	11721
485.995	11455
486.072	11569
486.148	10722
486.224	10266
486.301	10522
486.377	11247
486.453	9822
486.530	14190
486.606	20427
486.682	20468
486.758	15477
486.835	14331
486.911	12620
486.987	14931
487.063	13141
487.139	15089
487.215	15456
487.292	14227
487.368	12819
487.444	12438
487.520	13514
487.596	15343
487.672	19999
487.748	37139
487.824	53793
487.900	26865
487.976	13601
488.052	12935
488.128	12552
488.204	9918
488.280	12058
488.356	14026
488.432	9801
488.508	10174
488.584	9894
488.660	8742
488.736	9370
488.812	8713
488.888	11889
488.964	11734
489.039	9928
489.115	11780
489.191	11903
489.267	10000
489.343	8923
489.418	9069
489.494	8076
489.570	6944
489.646	9390
489.722	8264
489.797	7809
489.873	7627
489.949	8599
490.024	8720
490.100	7347
490.176	7404
490.251	7086
490.327	7609
490.403	6388
490.478	6981
490.554	6799
490.629	7388
490.705	6057
490.781	7677
490.856	5783
490.932	7134
491.007	6461
491.083	7676
491.158	5816
491.234	7151
491.309	7873
491.385	6494
491.460	5893
491.536	7345
491.611	5915
491.686	6195
491.762	6620
491.837	5625
491.913	6480
491.988	6098
492.063	7264
492.139	5603
492.214	4382
492.289	5170
492.365	3892
492.440	5970
492.515	3705
492.590	4477
492.666	4324
492.741	4991
492.816	4532
492.891	3708
492.967	6089
493.042	5222
493.117	5600
493.192	6928
493.267	11607
493.342	43800
493.418	66163
493.493	12432
493.568	3605
493.643	3986
493.718	4619
493.793	3457
493.868	4408
493.943	3028
494.018	4087
494.093	3290
494.168	3899
494.243	3803
494.318	2934
494.393	3998
494.468	3171
494.543	3018
494.618	3676
494.693	3492
494.768	3052
494.842	3815
494.917	3755
494.992	3962
495.067	3643
495.142	3055
495.217	3197
495.292	3613
495.366	2953
495.441	2638
495.516	3488
495.591	3617
495.665	4454
495.740	7008
495.815	4743
495.890	3514
495.964	1838
496.039	6003
496.114	4602
496.188	6468
496.263	6974
496.338	3567
496.412	3544
496.487	5275
496.561	3543
496.636	4834
496.710	4360
496.785	4556
496.860	5811
496.934	4818
497.009	5214
497.083	5763
497.158	5453
497.232	5204
497.307	6578
497.381	8568
497.455	8486
497.530	9672
497.604	11120
497.679	9672
497.753	14650
497.827	19656
497.902	22765
497.976	22497
498.050	20520
498.125	22259
498.199	25852
498.273	29926
498.348	29767
498.422	25559
498.496	20931
498.570	16726
498.645	13826
498.719	10974
498.793	11091
498.867	9564
498.941	8005
499.016	8125
499.090	7504
499.164	7562
499.238	6502
499.312	4480
499.386	5178
499.460	5618
499.534	4271
499.609	4233
499.683	4446
499.757	4092
499.831	2769
499.905	4344
499.979	4510
500.053	2663
500.127	2967
500.201	2165
500.275	1953
500.349	2635
500.422	2469
500.496	2798
500.570	2733
500.644	3462
500.718	3052
500.792	2569
500.866	2883
500.940	1732
501.013	2038
501.087	1198
501.161	1931
501.235	605
501.309	2850
501.382	1809
501.456	2902
501.530	1852
501.603	580
501.677	2340
501.751	-113
501.825	2907
501.898	2426
501.972	1354
502.046	1354
502.119	687
502.193	2044
502.266	781
502.340	1380
502.413	2388
502.487	1571
502.561	488
502.634	1129
502.708	1573
502.781	909
502.855	2055
502.928	398
503.002	1362
503.075	781
503.149	746
503.222	1469
503.295	614
503.369	1341
503.442	1227
503.516	1532
503.589	1815
503.662	1639
503.736	1273
503.809	2810
503.882	2281
503.956	3167
504.029	5096
504.102	14860
504.175	24772
504.249	9119
504.322	4266
504.395	2507
504.468	1502
504.542	1741
504.615	2903
504.688	4226
504.761	-64
504.834	1845
504.907	695
504.980	739
505.053	746
505.127	-616
505.200	3962
505.273	1192
505.346	635
505.419	-531
505.492	2232
505.565	652
505.638	2018
505.711	433
505.784	611
505.857	1251
505.930	2398
506.003	457
506.076	3729
506.149	307
506.221	-416
506.294	1828
506.367	543
506.440	3364
506.513	6577
506.586	881
506.659	771
506.731	1243
506.804	-291
506.877	-238
506.950	1125
507.022	3455
507.095	-194
507.168	695
507.241	1019
507.313	461
507.386	-1
507.459	1861
507.531	631
507.604	726
507.677	2254
507.749	1389
507.822	6891
507.894	6743
507.967	11866
508.040	6762
508.112	5177
508.185	3574
508.257	2735
508.330	5338
508.402	2542
508.475	4587
508.547	4972
508.620	3272
508.692	3552
508.765	3322
508.837	2278
508.909	2971
508.982	3272
509.054	3780
509.127	2740
509.199	2713
509.271	1717
509.344	1994
509.416	2655
509.488	2247
509.560	2895
509.633	2119
509.705	3054
509.777	2836
509.849	3335
509.922	1435
509.994	3528
510.066	3724
510.138	2424
510.210	12492
510.283	10569
510.355	8616
510.427	7838
510.499	6409
510.571	6104
510.643	4382
510.715	6305
510.787	3861
510.859	5871
510.931	4284
511.003	5650
511.076	5668
511.148	3711
511.219	5290
511.291	5217
511.363	4153
511.435	5616
511.507	4401
511.579	5808
511.651	4817
511.723	3691
511.795	3566
511.867	3799
511.939	4064
512.010	3756
512.082	4160
512.154	3166
512.226	3954
512.298	7970
512.369	12333
512.441	9419
512.513	7445
512.585	5329
512.656	7061
512.728	5513
512.800	4942
512.871	5915
512.943	5776
513.015	4068
513.086	5272
513.158	5487
513.230	4409
513.301	5226
513.373	6188
513.444	5100
513.516	5263
513.588	4342
513.659	4585
513.731	5190
513.802	2582
513.874	6008
513.945	4735
514.016	3833
514.088	4479
514.159	3862
514.231	5918
514.302	9796
514.374	9893
514.445	6164
514.516	7509
514.588	4996
514.659	5191
514.730	5681
514.802	7963
514.873	9594
514.944	13493
515.016	8453
515.087	5595
515.158	6366
515.229	7607
515.301	10541
515.372	18558
515.443	11109
515.514	9413
515.585	7377
515.656	6835
515.728	6533
515.799	5837
515.870	6369
515.941	4975
516.012	4966
516.083	8647
516.154	6485
516.225	6773
516.296	6452
516.367	5215
516.438	3625
516.509	4692
516.580	5640
516.651	8103
516.722	12527
516.793	9534
516.864	5498
516.935	4428
517.006	6028
517.077	4364
517.148	6385
517.219	15944
517.289	25080
517.360	6174
517.431	5530
517.502	3426
517.573	4583
517.643	4156
517.714	5348
517.785	5841
517.856	4383
517.926	5560
517.997	5392
518.068	4304
518.138	6945
518.209	5028
518.280	12153
518.350	41384
518.421	21505
518.492	7019
518.562	5666
518.633	5354
518.703	5555
518.774	12840
518.845	30486
518.915	34949
518.986	11276
519.056	7134
519.127	7185
519.197	7298
519.268	4922
519.338	5146
519.408	3909
519.479	3818
519.549	2745
519.620	4027
519.690	2599
519.760	3080
519.831	2989
519.901	2409
519.971	2997
520.042	3102
520.112	2662
520.182	3799
520.253	3076
520.323	1878
520.393	1250
520.463	4704
520.534	-140
520.604	4308
520.674	3366
520.744	886
520.814	1686
520.885	3323
520.955	3479
521.025	2644
521.095	2277
521.165	2694
521.235	2267
521.305	1839
521.375	3508
521.445	3590
521.515	1833
521.585	3755
521.655	311
521.725	2894
521.795	3382
521.865	406
521.935	4767
522.005	2370
522.075	1902
522.145	3572
522.215	1938
522.285	2700
522.355	2604
522.424	3239
522.494	3325
522.564	3730
522.634	2648
522.704	4955
522.774	2903
522.843	2424
522.913	2194
522.983	2419
523.053	1260
523.122	2093
523.192	2381
523.262	557
523.331	1135
523.401	2799
523.471	1547
523.540	1816
523.610	716
523.680	1633
523.749	2468
523.819	2298
523.888	1798
523.958	1547
524.027	1905
524.097	566
524.166	1329
524.236	808
524.305	3625
524.375	1050
524.444	573
524.514	3136
524.583	900
524.653	1007
524.722	2574
524.791	-353
524.861	3274
524.930	330
524.999	392
525.069	2863
525.138	1861
525.207	336
525.277	1974
525.346	814
525.415	2523
525.484	1749
525.554	689
525.623	2418
525.692	3152
525.761	3847
525.830	3681
525.900	4301
525.969	5681
526.038	10669
526.107	19546
526.176	68248
526.245	64816
526.314	18481
526.383	31707
526.452	49390
526.522	79733
526.591	90969
526.660	13787
526.729	7260
526.797	9869
526.867	10175
526.935	35315
527.004	154211
527.073	124287
527.142	11569
527.211	4199
527.280	2708
527.349	2825
527.418	445
527.487	2192
527.555	368
527.624	889
527.693	165
527.762	4083
527.831	-395
527.899	1825
527.968	1158
528.037	284
528.106	1256
528.174	1737
528.243	1261
528.312	306
528.380	1022
528.449	803
528.518	2632
528.586	212
528.655	1300
528.723	172
528.792	553
528.861	-996
528.929	-926
528.998	1182
529.066	221
529.135	656
529.203	415
529.272	-561
529.340	1022
529.409	2958
529.477	545
529.545	-163
529.614	3293
529.682	139
529.751	-317
529.819	2420
529.887	445
529.956	-6
530.024	730
530.092	-406
530.161	1869
530.229	604
530.297	15
530.365	2316
530.434	172
530.502	-629
530.570	1103
530.638	-858
530.707	229
530.775	2204
530.843	232
530.911	1177
530.979	600
531.047	183
531.115	1735
531.183	2020
531.252	826
531.320	263
531.388	-296
531.456	25
531.524	-860
531.592	635
531.660	2077
531.728	-978
531.796	-769
531.864	755
531.932	248
532.000	138
532.067	55
532.135	646
532.203	844
532.271	-445
532.339	754
532.407	1078
532.475	800
532.542	1261
532.610	694
532.678	-800
532.746	2159
532.814	4498
532.881	952
532.949	667
533.017	811
533.084	605
533.152	-246
533.220	-56
533.287	-392
533.355	622
533.423	676
533.490	-401
533.558	446
533.625	378
533.693	996
533.761	666
533.828	1612
533.896	124
533.963	2069
534.031	2113
534.098	1478
534.166	606
534.233	632
534.300	2402
534.368	1348
534.435	348
534.503	2055
534.570	2539
534.637	419
534.705	2585
534.772	2843
534.840	5020
534.907	30104
534.974	46047
535.041	6776
535.109	2246
535.176	791
535.243	1612
535.310	1396
535.378	156
535.445	1659
535.512	1351
535.579	1642
535.646	-149
535.714	1907
535.781	2692
535.848	2532
535.915	2404
535.982	1485
536.049	1601
536.116	2259
536.183	1526
536.250	1600
536.317	1425
536.384	2411
536.451	1648
536.518	892
536.585	58
536.652	2644
536.719	2270
536.786	-626
536.853	1093
536.920	1899
536.987	1019
537.053	144
537.120	3214
537.187	3866
537.254	886
537.321	145
537.388	2103
537.454	395
537.521	1177
537.588	1803
537.654	2235
537.721	3565
537.788	3252
537.855	1171
537.921	1766
537.988	1657
538.055	1891
538.121	354
538.188	2186
538.254	1776
538.321	2119
538.388	2421
538.454	2745
538.521	5723
538.587	2185
538.654	2523
538.720	1440
538.787	1551
538.853	1403
538.920	1741
538.986	968
539.053	2060
539.119	1114
539.185	1808
539.252	2737
539.318	1436
539.385	3243
539.451	2191
539.517	3664
539.583	3486
539.650	1731
539.716	3017
539.782	2661
539.849	1757
539.915	1829
539.981	1396
540.047	1316
540.114	1670
540.180	3053
540.246	728
540.312	1548
540.378	1041
540.444	3063
540.510	2715
540.576	2781
540.643	2108
540.709	923
540.775	2438
540.841	1389
540.907	2388
540.973	4220
541.039	3495
541.105	3564
541.171	1925
541.237	815
541.303	2912
541.369	4616
541.435	2207
541.500	1655
541.566	1119
541.632	1499
541.698	1760
541.764	3110
541.830	966
541.896	-69
541.961	2633
542.027	2182
542.093	2411
542.159	2500
542.224	2209
542.290	3687
542.356	2817
542.421	3370
542.487	2502
542.553	2456
542.618	2625
542.684	1936
542.750	1566
542.815	3227
542.881	788
542.947	2961
543.012	2911
543.078	1642
543.143	1137
543.209	2107
543.274	1647
543.340	2665
543.405	2779
543.471	2064
543.536	2130
543.602	3037
543.667	673
543.732	4172
543.798	1793
543.863	3145
543.928	2789
543.994	2349
544.059	3403
544.124	3008
544.190	2106
544.255	3002
544.320	1614
544.386	1681
544.451	2428
544.516	2390
544.581	1856
544.646	3452
544.712	4833
544.777	2958
544.842	2608
544.907	2105
544.972	2601
545.037	2570
545.102	3009
545.168	3098
545.233	2672
545.298	3074
545.363	3031
545.428	3948
545.493	4214
545.558	2239
545.623	2287
545.688	2183
545.753	2770
545.818	2729
545.883	3648
545.947	2482
546.012	2193
546.077	2140
546.142	2909
546.207	2378
546.272	3954
546.337	3798
546.401	3483
546.466	4354
546.531	2952
546.596	4247
546.661	3490
546.725	4535
546.790	4099
546.855	4058
546.919	3122
546.984	4800
547.049	4341
547.113	4521
547.178	5397
547.243	7074
547.307	7739
547.372	7506
547.436	8184
547.501	8030
547.565	7921
547.630	9253
547.695	7278
547.759	7713
547.823	7645
547.888	8664
547.952	8236
548.017	9114
548.081	12468
548.146	10259
548.210	9378
548.274	9914
548.339	9619
548.403	8957
548.468	7501
548.532	7559
548.596	8887
548.660	8435
548.725	8754
548.789	9415
548.853	10928
548.917	9133
548.982	7909
549.046	8745
549.110	6876
549.174	7966
549.238	7950
549.303	8578
549.367	10715
549.431	8697
549.495	8758
549.559	8651
549.623	9644
549.687	11372
549.751	10486
549.815	12559
549.879	12951
549.943	10708
550.007	12728
550.071	12388
550.135	11087
550.199	11404
550.263	10463
550.327	10549
550.391	10930
550.455	12613
550.519	11273
550.582	13499
550.646	13993
550.710	14996
550.774	14481
550.838	13999
550.901	15230
550.965	16484
551.029	15939
551.093	18234
551.156	19431
551.220	23629
551.284	26767
551.347	21532
551.411	17191
551.475	15175
551.538	16513
551.602	15282
551.666	13039
551.729	12718
551.793	13346
551.856	11940
551.920	11594
551.983	11839
552.047	11158
552.110	12643
552.174	12378
552.237	11842
552.301	12068
552.364	11559
552.428	10156
552.491	10360
552.554	11633
552.618	11704
552.681	11123
552.745	10181
552.808	12562
552.871	13738
552.934	11519
552.998	10969
553.061	10272
553.124	11269
553.187	10772
553.251	11583
553.314	12168
553.377	12227
553.440	16026
553.503	32035
553.567	54453
553.630	17244
553.693	12591
553.756	12725
553.819	10776
553.882	10820
553.945	10650
554.008	11126
554.071	10609
554.134	11098
554.197	9858
554.260	9379
554.323	10196
554.386	9651
554.449	9816
554.512	11310
554.575	9629
554.638	10067
554.701	9253
554.764	9377
554.827	9221
554.889	8339
554.952	8528
555.015	8272
555.078	8090
555.141	8412
555.203	9478
555.266	9195
555.329	8117
555.391	8148
555.454	8411
555.517	8472
555.580	8038
555.642	7750
555.705	7332
555.768	8213
555.830	8713
555.893	7776
555.955	7986
556.018	6761
556.080	6835
556.143	6646
556.206	6342
556.268	7012
556.330	6971
556.393	6009
556.455	6813
556.518	5694
556.580	5846
556.643	5339
556.705	5831
556.767	5326
556.830	5220
556.892	5637
556.955	5120
557.017	5645
557.079	5088
557.142	5397
557.204	4737
557.266	5308
557.328	5155
557.391	3894
557.453	4021
557.515	4088
557.577	4221
557.639	4959
557.701	5079
557.764	3627
557.826	4517
557.888	5739
557.950	5611
558.012	7150
558.074	8287
558.136	19470
558.198	55369
558.260	25164
558.322	6704
558.384	7943
558.446	9281
558.508	10161
558.570	14354
558.632	15064
558.694	19512
558.756	32815
558.818	107451
558.880	323291
558.942	114051
559.003	61508
559.065	35849
559.127	13650
559.189	11948
559.251	12974
559.312	18558
559.374	45161
559.436	180316
559.498	108603
559.559	16127
559.621	12303
559.683	12470
559.744	20504
559.806	69101
559.868	132739
559.929	25903
559.991	11709
560.052	15929
560.114	50569
560.176	37839
560.237	25975
560.299	52326
560.360	12919
560.422	4206
560.483	2889
560.545	2628
560.606	2941
560.667	2432
560.729	2391
560.790	1492
560.852	2119
560.913	2276
560.974	1871
561.036	2605
561.097	3235
561.158	2452
561.220	3369
561.281	1541
561.342	1768
561.403	1920
561.465	1124
561.526	1750
561.587	3160
561.648	1163
561.709	2428
561.771	2045
561.832	1689
561.893	1995
561.954	2185
562.015	3067
562.076	2471
562.137	2195
562.198	1569
562.259	963
562.320	1691
562.381	1518
562.442	1293
562.503	1695
562.564	2046
562.625	2010
562.686	1530
562.747	407
562.808	1599
562.869	1510
562.930	2230
562.991	1667
563.051	1586
563.112	831
563.173	1094
563.234	921
563.294	1446
563.355	2050
563.416	2426
563.477	1010
563.537	1902
563.598	1508
563.659	1872
563.720	2697
563.780	2276
563.841	1924
563.901	1878
563.962	2391
564.023	1813
564.083	1965
564.144	1565
564.204	2014
564.265	1481
564.325	1324
564.386	2392
564.446	1063
564.507	2263
564.567	1563
564.628	2215
564.688	1856
564.749	1873
564.809	1822
564.869	2536
564.930	2316
564.990	2602
565.050	1681
565.111	2280
565.171	1812
565.231	2339
565.292	1995
565.352	2087
565.412	2929
565.472	2252
565.532	2221
565.593	1724
565.653	1705
565.713	1720
565.773	2628
565.833	2841
565.893	3325
565.953	3564
566.013	3011
566.074	3664
566.134	3047
566.194	2614
566.254	3635
566.314	4424
566.374	3779
566.434	7528
566.494	6408
566.554	5144
566.614	6247
566.673	5633
566.733	5776
566.793	6901
566.853	6320
566.913	7567
566.973	8243
567.033	8299
567.092	6590
567.152	6918
567.212	7449
567.272	8162
567.331	9354
567.391	10041
567.451	9757
567.511	11517
567.570	10143
567.630	9077
567.690	9351
567.749	10723
567.809	10856
567.868	13551
567.928	15105
567.988	18339
568.047	22460
568.107	30014
568.166	42625
568.226	72091
568.285	108312
568.345	92951
568.404	70449
568.464	59251
568.523	51626
568.582	51312
568.642	57142
568.701	71696
568.761	111121
568.820	184225
568.879	184558
568.939	128820
568.998	92774
569.057	68530
569.116	50881
569.176	40182
569.235	32000
569.294	26101
569.353	21873
569.413	19309
569.472	16020
569.531	13853
569.590	11910
569.649	11420
569.708	8802
569.767	9327
569.827	8499
569.886	8029
569.945	6127
570.004	6798
570.063	4929
570.122	5599
570.181	5208
570.240	3819
570.299	4367
570.358	3620
570.417	3757
570.475	3694
570.534	3390
570.593	4514
570.652	3423
570.711	3143
570.770	2759
570.829	4042
570.887	3855
570.946	3608
571.005	2465
571.064	2715
571.122	2633
571.181	1753
571.240	1568
571.299	1919
571.357	1678
571.416	1810
571.475	1044
571.533	2574
571.592	1728
571.650	2282
571.709	2406
571.768	2171
571.826	3190
571.885	2791
571.943	2019
572.002	1451
572.060	1653
572.119	1837
572.177	3054
572.236	2193
572.294	1641
572.352	1950
572.411	1961
572.469	1614
572.528	2381
572.586	2946
572.644	1475
572.703	2310
572.761	1765
572.819	1030
572.877	1718
572.936	960
572.994	1780
573.052	1745
573.110	1580
573.169	2235
573.227	1326
573.285	2263
573.343	1168
573.401	1942
573.459	1609
573.517	2892
573.576	3056
573.634	2876
573.692	1598
573.750	1713
573.808	923
573.866	1909
573.924	1043
573.982	1727
574.040	1369
574.098	1541
574.155	2302
574.213	563
574.271	1278
574.329	1185
574.387	804
574.445	711
574.503	1843
574.560	131
574.618	1889
574.676	862
574.734	1326
574.792	1662
574.849	1536
574.907	1741
574.965	822
575.022	1049
575.080	991
575.138	1205
575.195	332
575.253	1278
575.311	1184
575.368	1384
575.426	1405
575.483	2254
575.541	1261
575.598	359
575.656	1195
575.713	1095
575.771	2012
575.828	1193
575.886	380
575.943	1383
576.001	723
576.058	701
576.115	1462
576.173	1273
576.230	2066
576.287	1201
576.345	1708
576.402	849
576.459	1533
576.517	1969
576.574	1363
576.631	1170
576.688	1145
576.746	212
576.803	1273
576.860	1028
576.917	1805
576.974	916
577.031	1833
577.089	1802
577.146	631
577.203	1355
577.260	2474
577.317	1403
577.374	159
577.431	960
577.488	1409
577.545	1157
577.602	1729
577.659	789
577.716	1946
577.773	1915
577.830	1382
577.886	1735
577.943	1082
578.000	557
578.057	1073
578.114	1569
578.171	1899
578.227	1517
578.284	869
578.341	1337
578.398	1875
578.454	1336
578.511	1526
578.568	1420
578.625	784
578.681	1492
578.738	988
578.794	582
578.851	1297
578.908	1216
578.964	1017
579.021	1078
579.077	1267
579.134	711
579.190	1001
579.247	1175
579.303	1508
579.360	1223
579.416	1614
579.473	1404
579.529	1688
579.586	2040
579.642	1914
579.698	2309
579.755	3717
579.811	2873
579.867	1794
579.924	1322
579.980	1868
580.036	2028
580.093	1835
580.149	2040
580.205	3449
580.261	2791
580.317	2053
580.374	1578
580.430	2513
580.486	1110
580.542	929
580.598	1968
580.619	1877
580.654	1720
580.692	1097
580.710	786
580.765	1467
580.767	1488
580.823	1446
580.838	1363
580.879	1113
580.911	1646
580.935	2050
580.984	1412
580.991	1322
581.047	1889
581.057	1843
581.103	1616
581.130	2048
581.159	2515
581.203	2715
581.215	2770
581.270	1963
581.276	1958
581.326	1880
581.349	1535
581.382	1001
581.422	730
581.438	613
581.494	2115
581.494	2113
581.550	1963
581.567	2133
581.606	2458
581.640	1804
581.661	1420
581.713	2589
581.717	2679
581.773	2109
581.786	2253
581.829	2708
581.859	2164
581.885	1729
581.932	1731
581.940	1729
581.996	2201
582.004	2151
582.052	1783
582.077	2060
582.107	2446
582.150	2209
582.163	2112
582.219	2198
582.223	2173
582.274	1929
582.296	2149
582.330	2475
582.368	2623
582.386	2710
582.441	2133
582.441	2131
582.497	1986
582.514	2143
582.552	2593
582.587	3144
582.608	3389
582.659	2933
582.663	2900
582.719	2665
582.732	2496
582.774	2127
582.805	2387
582.830	2550
582.877	2841
582.885	2891
582.941	2696
582.950	2705
582.996	2650
583.023	2817
583.052	3145
583.095	3122
583.107	3093
583.162	3761
583.168	3799
583.218	3968
583.240	3464
583.273	2833
583.313	2806
583.328	2782
583.384	3155
583.385	3129
583.439	2399
583.458	2753
583.494	3355
583.531	3645
583.549	3936
583.603	4297
583.605	4287
583.660	3032
583.676	2947
583.715	3183
583.748	3906
583.770	4322
583.820	4300
583.825	4287
583.881	4260
583.893	4081
583.936	3605
583.965	3676
583.991	3708
584.038	4031
584.046	4096
584.101	4206
584.110	4203
584.156	4058
584.183	3948
584.211	3963
584.255	4615
584.266	4776
584.321	4786
584.328	4819
584.376	4996
584.400	4989
584.431	4991
584.472	4860
584.486	4796
584.541	5179
584.545	5213
584.596	5701
584.617	5378
584.651	5350
584.689	6211
584.706	6368
584.761	5696
584.762	5696
584.816	6277
584.834	6389
584.871	6532
584.906	6197
584.926	6030
584.978	6016
584.980	6035
585.035	7247
585.051	7475
585.090	7901
585.123	8511
585.145	8902
585.195	8882
585.200	8924
585.254	9452
585.267	9821
585.309	11272
585.340	12633
585.364	13363
585.412	12522
585.419	12420
585.473	13693
585.484	13802
585.528	15021
585.556	16997
585.583	21816
585.628	32314
585.637	36325
585.692	70285
585.700	76850
585.747	101617
585.772	91024
585.801	61633
585.845	25500
585.856	21158
585.910	14887
585.917	14286
585.965	13515
585.989	12813
586.019	12378
586.061	12073
586.074	12015
586.128	12553
586.133	12580
586.183	12561
586.205	12271
586.237	12367
586.277	12766
586.292	12783
586.346	13107
586.349	13097
586.401	13726
586.421	14120
586.455	14592
586.493	14926
586.509	15193
586.564	15583
586.565	15595
586.618	16760
586.637	16965
586.672	17335
586.709	17513
586.727	17656
586.781	19241
586.781	19264
586.835	19558
586.853	19756
586.889	20580
586.925	21156
586.944	21204
586.996	21400
586.998	21446
587.052	22448
587.068	22735
587.106	23681
587.140	24564
587.161	25100
587.212	26006
587.215	26094
587.269	27492
587.284	27819
587.323	28727
587.356	29841
587.377	30847
587.427	33049
587.431	33237
587.485	35383
587.499	35770
587.539	37500
587.571	39161
587.593	40518
587.643	43232
587.648	43555
587.702	46550
587.715	47417
587.755	50780
587.786	53384
587.810	55694
587.858	59835
587.864	60585
587.917	68533
587.930	70456
587.971	77505
588.001	81377
588.025	84147
588.073	91189
588.079	92586
588.133	104684
588.145	107453
588.187	119201
588.217	127614
588.241	136411
588.288	154441
588.295	157461
588.348	182997
588.360	188572
588.402	213638
588.431	231616
588.456	251447
588.503	292066
588.510	299387
588.564	359338
588.575	372549
588.617	443495
588.646	495517
588.671	559937
588.718	690239
588.725	718541
588.778	948208
588.789	997187
588.832	1205182
588.861	1342440
588.886	1361889
588.932	1333348
588.939	1321314
588.993	1166795
589.004	1156564
589.047	1326750
589.075	1399954
589.100	1305462
589.147	1081418
589.154	1052018
589.207	831382
589.218	789230
589.261	721027
589.290	683190
589.314	698997
589.361	741926
589.368	762362
589.421	943670
589.433	984919
589.475	1174679
589.504	1300687
589.528	1297252
589.576	1214981
589.582	1215226
589.635	1242943
589.647	1236646
589.689	1029074
589.718	866410
589.742	742243
589.790	512106
589.795	497848
589.849	370340
589.861	342049
589.902	287047
589.932	247679
589.955	229338
590.004	192588
590.009	190196
590.062	162233
590.075	155449
590.115	140360
590.146	128690
590.168	122946
590.218	110194
590.222	109557
590.275	98655
590.289	95826
590.328	89458
590.360	84106
590.381	81705
590.431	75648
590.435	75426
590.488	69380
590.503	67649
590.541	64576
590.574	61517
590.594	59908
590.645	55746
590.647	55748
590.700	52982
590.716	51937
590.753	49676
590.787	47692
590.806	46962
590.859	44517
590.859	44581
590.912	42723
590.930	42052
590.965	40589
591.001	39049
591.018	38564
591.071	36879
591.072	36781
591.124	35310
591.143	34682
591.177	34191
591.214	33466
591.230	33158
591.283	32103
591.285	31978
591.336	31094
591.356	30677
591.389	30376
591.427	29784
591.442	29491
591.495	28184
591.498	28023
591.547	27331
591.569	26899
591.600	26576
591.640	25967
591.653	25993
591.706	25844
591.711	25756
591.759	24766
591.782	24177
591.811	24178
591.853	24057
591.864	23946
591.917	23055
591.924	22859
591.969	22536
591.995	22248
592.022	22165
592.066	21873
592.075	21789
592.127	20906
592.137	20695
592.180	20649
592.208	20501
592.233	20347
592.279	19917
592.285	20008
592.338	20308
592.350	20334
592.390	19921
592.421	19500
592.443	20077
592.491	21166
592.495	21127
592.548	19781
592.562	19365
592.600	19015
592.633	18610
592.653	18558
592.704	18212
592.705	18303
592.775	17583
592.846	18115
592.916	17780
592.987	16731
593.058	17221
593.128	16490
593.199	16749
593.270	17322
593.341	16151
593.411	16107
593.482	16530
593.553	16972
593.623	15217
593.694	16035
593.764	15032
593.835	15546
593.906	15487
593.976	14772
594.047	15138
594.117	15214
594.188	15575
594.258	14798
594.329	15121
594.399	13904
594.470	15056
594.540	15238
594.611	14997
594.681	14782
594.751	14613
594.822	15831
594.892	15790
594.963	15630
595.033	15355
595.103	15359
595.174	14567
595.244	15115
595.314	14883
595.384	14933
595.455	15941
595.525	17100
595.595	16005
595.665	15971
595.736	15122
595.806	14768
595.876	15500
595.946	15097
596.016	14465
596.087	16109
596.157	16534
596.227	15578
596.297	16260
596.367	15948
596.437	17803
596.507	17577
596.577	17429
596.647	16503
596.717	17340
596.787	17846
596.857	17503
596.927	19068
596.997	18907
597.067	18281
597.137	20665
597.207	18774
597.277	17463
597.347	17147
597.417	17070
597.487	17691
597.557	17956
597.626	17385
597.696	17874
597.766	17915
597.836	17932
597.906	15544
597.975	16546
598.045	15983
598.115	16406
598.185	17806
598.254	19280
598.324	20865
598.394	22205
598.464	20954
598.533	20210
598.603	19700
598.672	17260
598.742	17977
598.812	18351
598.881	18950
598.951	18415
599.020	18606
599.090	19230
599.159	20869
599.229	18266
599.299	18603
599.368	18936
599.437	18178
599.507	17056
599.576	17355
599.646	17177
599.715	16526
599.785	16184
599.854	15831
599.924	14784
599.993	15168
600.062	15970
600.132	15443
600.201	16535
600.270	18881
600.340	18990
600.409	19344
600.478	19671
600.547	19563
600.617	18259
600.686	14450
600.755	13803
600.824	13153
600.894	12992
600.963	13072
601.032	12616
601.101	12939
601.170	11750
601.239	11456
601.308	12224
601.378	11568
601.447	12187
601.516	11912
601.585	11768
601.654	11779
601.723	12302
601.792	12045
601.861	12994
601.930	13301
601.999	13661
602.068	12183
602.137	12608
602.206	12933
602.275	13615
602.343	12776
602.412	12657
602.481	13755
602.550	12470
602.619	13983
602.688	13547
602.756	13842
602.825	13988
602.894	13856
602.963	14656
603.032	14532
603.100	14161
603.169	16110
603.238	15827
603.307	15739
603.375	14680
603.444	15733
603.513	15505
603.581	15033
603.650	16632
603.719	15122
603.787	15141
603.856	16616
603.924	16707
603.993	17434
604.061	18019
604.130	17956
604.198	18531
604.267	19220
604.335	18346
604.404	20157
604.472	19969
604.541	20008
604.609	20162
604.678	20044
604.746	20276
604.815	20886
604.883	21823
604.951	22706
605.020	21559
605.088	20973
605.156	22198
605.225	22769
605.293	21749
605.361	21724
605.429	22596
605.498	22773
605.566	23196
605.634	24565
605.702	25888
605.771	26213
605.839	26011
605.907	25518
605.975	24530
606.043	23542
606.111	24558
606.180	24933
606.248	27117
606.316	26508
606.384	22638
606.452	23698
606.520	24058
606.588	25116
606.656	25313
606.724	24138
606.792	23769
606.860	21776
606.928	19226
606.996	19046
607.064	18183
607.132	19157
607.200	20942
607.267	21061
607.335	20997
607.403	22354
607.471	20000
607.539	20583
607.607	20645
607.674	17661
607.742	18074
607.810	17732
607.878	18564
607.946	18595
608.013	19471
608.081	19326
608.149	19778
608.216	19472
608.284	21176
608.352	20661
608.419	20359
608.487	20679
608.555	19332
608.622	21751
608.690	21923
608.757	23564
608.825	25139
608.893	24036
608.960	21352
609.028	20904
609.095	22094
609.163	21449
609.230	19168
609.298	17833
609.365	18912
609.432	21051
609.500	21606
609.567	25116
609.635	28054
609.702	29985
609.769	28463
609.837	22463
609.904	19822
609.971	20463
610.039	25814
610.106	35612
610.173	69991
610.241	171704
610.308	92367
610.375	27505
610.442	21195
610.509	20049
610.577	20899
610.644	20715
610.711	21091
610.778	21411
610.845	22032
610.912	23905
610.980	25728
611.047	28520
611.114	24892
611.181	23691
611.248	22038
611.315	24891
611.382	24584
611.449	25000
611.516	27374
611.583	26810
611.650	25939
611.717	26656
611.784	28532
611.851	29766
611.918	33626
611.984	43042
612.051	69877
612.118	156376
612.185	405255
612.252	245172
612.319	50842
612.386	38964
612.452	34268
612.519	32474
612.586	29970
612.653	34257
612.719	42819
612.786	33055
612.853	27204
612.919	26244
612.986	27360
613.053	25678
613.120	24628
613.186	22676
613.253	25883
613.319	25039
613.386	28783
613.453	30854
613.519	25052
613.586	22676
613.652	24510
613.719	23399
613.785	24599
613.852	24845
613.918	23597
613.985	27354
614.051	33059
614.118	45607
614.184	44716
614.250	31127
614.317	34140
614.383	25333
614.449	25286
614.516	25294
614.582	24761
614.648	24424
614.715	24600
614.781	23829
614.847	23882
614.914	23139
614.980	22492
615.046	23531
615.112	24595
615.179	25225
615.245	29448
615.311	36259
615.377	57919
615.443	61837
615.509	39597
615.575	32418
615.642	29113
615.708	30500
615.774	33220
615.840	39529
615.906	49838
615.972	79214
616.038	156281
616.104	268270
616.170	530689
616.236	435612
616.302	88319
616.368	55189
616.434	37084
616.500	35501
616.565	36955
616.631	46857
616.697	38074
616.763	39566
616.829	59651
616.895	109105
616.961	103061
617.026	42751
617.092	26865
617.158	25863
617.224	24979
617.289	22334
617.355	21039
617.421	19882
617.487	22163
617.552	19504
617.618	19382
617.684	18553
617.749	22290
617.815	18092
617.880	18905
617.946	18744
618.012	18477
618.077	18391
618.143	17454
618.208	17893
618.274	19203
618.339	19517
618.405	15086
618.470	16806
618.536	15165
618.601	16016
618.667	13987
618.732	14417
618.798	13579
618.863	14397
618.928	13698
618.994	14431
619.059	14257
619.124	14160
619.190	14225
619.255	13960
619.320	14055
619.386	13306
619.451	12438
619.516	12472
619.581	13161
619.647	13768
619.712	13495
619.777	12551
619.842	13278
619.907	12781
619.972	13953
620.038	13562
620.103	12518
620.168	12784
620.233	13414
620.298	13548
620.363	13140
620.428	14084
620.493	13869
620.558	14152
620.623	13847
620.688	14079
620.753	14488
620.818	14509
620.883	14739
620.948	14363
621.013	13822
621.078	13904
621.143	13326
621.207	16524
621.272	15397
621.337	13406
621.402	14771
621.467	14900
621.532	13430
621.596	12983
621.661	13201
621.726	13746
621.791	12713
621.855	12898
621.920	12456
621.985	12850
622.049	14038
622.114	13176
622.179	13907
622.243	13660
622.308	13265
622.373	16715
622.437	14680
622.502	13491
622.566	13210
622.631	12506
622.695	14790
622.760	13618
622.824	14670
622.889	14461
622.953	15349
623.018	16726
623.082	16032
623.147	14304
623.211	14689
623.276	14257
623.340	13819
623.404	13695
623.469	13267
623.533	14122
623.597	13030
623.662	13306
623.726	11786
623.790	12226
623.854	11253
623.919	12162
623.983	11222
624.047	12666
624.111	12046
624.176	12976
624.240	12375
624.304	13401
624.368	12188
624.432	12954
624.496	12920
624.560	13091
624.625	13460
624.689	13499
624.753	14120
624.817	13810
624.881	12601
624.945	12351
625.009	10992
625.073	12287
625.137	12005
625.201	13308
625.265	12954
625.329	12718
625.393	11969
625.456	12549
625.520	12105
625.584	12648
625.648	13066
625.712	14399
625.776	13177
625.839	13053
625.903	9990
625.967	9761
626.031	12937
626.095	13699
626.158	12318
626.222	8818
626.286	9725
626.349	8263
626.413	7277
626.477	9780
626.540	8021
626.604	8236
626.668	9568
626.731	8483
626.795	8558
626.858	8703
626.922	7380
626.986	8659
627.049	7018
627.113	9438
627.176	8708
627.240	8551
627.303	8584
627.366	8752
627.430	8623
627.493	7605
627.557	6544
627.620	8653
627.684	8697
627.747	8241
627.810	6332
627.874	7659
627.937	6399
628.000	8195
628.064	7471
628.127	5218
628.190	6775
628.253	6433
628.317	5242
628.380	6341
628.443	5292
628.506	4998
628.569	5354
628.632	5051
628.696	5775
628.759	4664
628.822	4189
628.885	4811
628.948	5339
629.011	4760
629.074	4721
629.137	4269
629.200	4550
629.263	6558
629.326	4659
629.389	4359
629.452	5277
629.515	4693
629.578	4811
629.641	5442
629.704	4607
629.767	4706
629.830	5200
629.892	5626
629.955	5698
630.018	6549
630.081	3932
630.144	4918
630.207	3863
630.269	5642
630.332	4284
630.395	5275
630.458	3891
630.520	2680
630.583	5755
630.646	5133
630.708	4697
630.771	3849
630.834	5660
630.896	3888
630.959	4379
631.021	3717
631.084	4435
631.146	4795
631.209	6725
631.272	9089
631.334	6161
631.397	5027
631.459	3865
631.522	5560
631.584	4433
631.646	5862
631.709	5719
631.771	4608
631.834	4894
631.896	4870
631.958	3939
632.021	5720
632.083	4396
632.145	4428
632.208	3152
632.270	4661
632.332	3405
632.395	3135
632.457	5510
632.519	3976
632.581	5187
632.643	3206
632.706	4063
632.768	2720
632.830	4669
632.892	4075
632.954	3619
633.016	5191
633.078	3370
633.141	4405
633.203	3429
633.265	4103
633.327	3390
633.389	3440
633.451	3791
633.513	3481
633.575	4589
633.637	3285
633.698	3210
633.760	4111
633.822	4558
633.884	4573
633.946	4399
634.008	4284
634.070	5258
634.132	5685
634.193	4954
634.255	7232
634.317	6542
634.379	7482
634.441	7762
634.502	8736
634.564	8669
634.626	8303
634.687	8888
634.749	6249
634.811	5609
634.873	4019
634.934	4566
634.996	4880
635.057	3560
635.119	4992
635.181	5174
635.242	5649
635.304	3689
635.365	6624
635.427	5162
635.488	5054
635.550	4129
635.611	5060
635.673	2964
635.734	5720
635.796	5209
635.857	6514
635.918	4938
635.980	6891
636.041	6391
636.102	7070
636.164	6897
636.225	7339
636.286	4336
636.348	6353
636.409	5462
636.470	3920
636.531	4907
636.593	3615
636.654	4560
636.715	3808
636.776	4238
636.838	2953
636.899	4582
636.960	3718
637.021	4317
637.082	4595
637.143	5252
637.204	3162
637.265	2851
637.326	3976
637.387	3524
637.448	3010
637.509	3093
637.570	3506
637.631	4355
637.692	2868
637.753	2854
637.814	4478
637.875	4649
637.936	3975
637.997	3367
638.058	3655
638.119	3024
638.179	2969
638.240	3117
638.301	2874
638.362	2019
638.423	2419
638.483	4211
638.544	1669
638.605	3929
638.666	3256
638.726	3915
638.787	4369
638.848	3348
638.908	3610
638.969	3428
639.030	3113
639.090	2221
639.151	2283
639.211	3418
639.272	3337
639.332	3298
639.393	3230
639.453	2802
639.514	2594
639.574	2995
639.635	2690
639.695	2993
639.756	1714
639.816	3480
639.877	2822
639.937	2943
639.997	2857
640.058	1669
640.118	1934
640.178	3549
640.239	3199
640.299	2200
640.359	2059
640.420	3498
640.480	3437
640.540	2862
640.600	2138
640.661	4666
640.721	3210
640.781	6378
640.841	4666
640.901	4218
640.961	2858
641.021	2716
641.082	2495
641.142	3037
641.202	4269
641.262	1494
641.322	3351
641.382	1722
641.442	2929
641.502	1407
641.562	2504
641.622	1763
641.682	2796
641.742	2866
641.802	2161
641.861	2446
641.921	2448
641.981	2756
642.041	2078
642.101	2321
642.161	1176
642.221	1973
642.280	1822
642.340	1775
642.400	1615
642.460	3034
642.519	2367
642.579	2194
642.639	3062
642.698	-646
642.758	4097
642.818	3057
642.877	1040
642.937	2213
642.997	1749
643.056	2201
643.116	886
643.175	3353
643.235	2020
643.294	2458
643.354	3568
643.414	3944
643.473	4122
643.532	5260
643.592	9153
643.651	17358
643.711	32886
643.770	64805
643.830	156540
643.889	339146
643.948	76640
644.008	11752
644.067	6157
644.126	3552
644.186	3490
644.245	3351
644.304	2028
644.363	4164
644.423	1649
644.482	2593
644.541	4357
644.600	1387
644.659	4133
644.719	3803
644.778	7646
644.837	13273
644.896	30287
644.955	67479
645.014	22148
645.073	4807
645.132	2824
645.191	3001
645.250	2361
645.309	4367
645.368	2663
645.427	4489
645.486	6522
645.545	12751
645.604	3542
645.663	2735
645.722	2902
645.781	3616
645.840	4307
645.898	5023
645.957	9738
646.016	14379
646.075	28433
646.134	55821
646.192	154652
646.251	230498
646.310	31139
646.369	6327
646.427	6399
646.486	2664
646.545	3152
646.603	2872
646.662	2670
646.721	2983
646.779	1729
646.838	1445
646.896	4109
646.955	6320
647.014	9623
647.072	14121
647.131	41806
647.189	19196
647.248	2652
647.306	3163
647.365	4814
647.423	1522
647.481	4029
647.540	610
647.598	2616
647.657	1928
647.715	2537
647.773	504
647.832	2639
647.890	702
647.948	900
648.007	2532
648.065	1353
648.123	818
648.181	3386
648.240	3018
648.298	2228
648.356	1761
648.414	2560
648.472	1864
648.531	2131
648.589	1524
648.647	2488
648.705	1353
648.763	1572
648.821	2795
648.879	3300
648.937	4740
648.995	3543
649.053	3843
649.111	6385
649.169	11916
649.227	20796
649.285	44690
649.343	127237
649.401	59915
649.459	8214
649.516	5704
649.574	5410
649.632	12036
649.690	13572
649.748	6469
649.806	7002
649.863	13391
649.921	30478
649.979	18271
650.037	3222
650.094	828
650.152	1827
650.210	1377
650.268	2904
650.325	2970
650.383	3507
650.440	1692
650.498	2641
650.556	2474
650.613	2013
650.671	2232
650.728	2384
650.786	2786
650.843	2813
650.901	1095
650.958	2028
651.016	1898
651.073	1656
651.131	1016
651.188	9
651.246	1186
651.303	47
651.360	1463
651.418	798
651.475	1552
651.532	550
651.590	2058
651.647	226
651.704	755
651.762	35
651.819	1334
651.876	1061
651.933	660
651.990	1316
652.048	24
652.105	299
652.162	1084
652.219	642
652.276	998
652.333	307
652.390	-343
652.448	603
652.505	377
652.562	623
652.619	1245
652.676	2536
652.733	2846
652.790	1029
652.847	-517
652.904	1452
652.961	-192
653.017	989
653.074	595
653.131	894
653.188	164
653.245	1096
653.302	1014
653.359	497
653.415	741
653.472	134
653.529	1178
653.586	-437
653.642	170
653.699	1197
653.756	75
653.813	-296
653.869	1593
653.926	611
653.983	-38
654.039	940
654.096	-402
654.152	1520
654.209	-560
654.266	1076
654.322	-194
654.379	846
654.435	532
654.492	157
654.548	1059
654.605	85
654.661	1832
654.717	612
654.774	1084
654.830	1356
654.887	1635
654.943	1007
655.000	2531
655.056	1444
655.112	617
655.168	-272
655.225	1191
655.281	1613
655.337	802
655.394	722
655.450	369
655.506	746
655.562	345
655.618	1832
655.675	-527
655.731	707
655.787	748
655.843	2115
655.899	742
655.955	1607
656.011	1206
656.067	1496
656.123	2564
656.179	2503
656.235	3348
656.291	1649
656.347	2575
656.403	1585
656.459	1076
656.515	782
656.571	959
656.627	969
656.683	811
656.739	1116
656.795	690
656.850	153
656.906	868
656.962	1108
657.018	181
657.074	188
657.129	576
657.185	1459
657.241	2912
657.297	1908
657.352	162
657.408	-165
657.464	939
657.519	-271
657.575	-1013
657.630	5
657.686	164
657.742	-275
657.797	-57
657.853	-161
657.908	696
657.964	-809
658.019	-46
658.075	160
658.130	369
658.186	-808
658.241	689
658.297	-278
658.352	-355
658.407	494
658.463	-763
658.518	-332
658.573	180
658.629	-791
658.684	58
658.739	149
658.795	-749
658.850	750
658.905	-608
658.960	-206
659.016	-829
659.071	455
659.126	388
659.181	748
659.236	602
659.291	976
659.346	-75
659.401	-442
659.457	310
659.512	835
659.567	778
659.622	-141
659.677	178
659.732	-1269
659.787	67
659.842	-500
659.897	-1051
659.952	687
660.007	-569
660.061	84
660.116	-392
660.171	431
660.226	-36
660.281	1179
660.336	-387
660.391	301
660.445	-1114
660.500	-434
660.555	-500
660.610	-480
660.664	-153
660.719	18
660.774	-217
660.828	-31
660.883	-374
660.938	273
660.992	-1639
661.047	342
661.101	-23
661.156	-518
661.211	-1012
661.265	-167
661.320	288
661.374	-462
661.429	-671
661.483	-25
661.538	-1291
661.592	-495
661.647	-416
661.701	437
661.755	-160
661.810	-24
661.864	-1100
661.919	-1122
661.973	-304
662.027	346
662.081	-921
662.136	-1466
662.190	-713
662.244	482
662.299	-187
662.353	75
662.407	-1437
662.461	-1042
662.515	-445
662.569	-1288
662.624	1133
662.678	-623
662.732	-254
662.786	-810
662.840	-582
662.894	-344
662.948	-1200
663.002	-1352
663.056	-490
663.110	-1544
663.164	-1077
663.218	-510
663.272	-68
663.326	-222
663.380	-894
663.434	-397
663.488	-1612
663.542	428
663.595	164
663.649	-651
663.703	-455
663.757	-961
663.811	12
663.864	-1304
663.918	-25
663.972	-967
664.026	-374
664.079	-1454
664.133	263
664.187	-512
664.240	-437
664.294	-590
664.348	-572
664.401	10
664.455	-395
664.508	-343
664.562	-1521
664.615	-357
664.669	-2087
664.722	-692
664.776	-1176
664.829	-855
664.883	-1420
664.936	-1115
664.990	-1576
665.043	-193
665.097	-1519
665.150	-229
665.203	-1819
665.257	-1525
665.310	-923
665.363	-320
665.417	-298
665.470	-405
665.523	-713
665.576	-775
665.630	-872
665.683	-755
665.736	-620
665.789	-540
665.842	-555
665.895	-1317
665.949	-474
666.002	-436
666.055	-539
666.108	-1129
666.161	-826
666.214	99
666.267	-841
666.320	-181
666.373	-857
666.426	-920
666.479	-1517
666.532	-695
666.585	-758
666.638	-738
666.691	-1476
666.744	-305
666.796	-1414
666.849	-1038
666.902	-1404
666.955	-522
667.008	-949
667.060	-1085
667.113	-1585
667.166	-291
667.219	-813
667.271	-1085
667.324	-985
667.377	-1084
667.430	-1015
667.482	-649
667.535	-417
667.587	-555
667.640	-1129
667.693	-1194
667.745	-549
667.798	-49
667.850	-1026
667.903	-751
667.955	-889
668.008	-1330
668.060	-748
668.113	-1106
668.165	-1238
668.218	-1207
668.270	-452
668.322	-1234
668.375	-857
668.427	-250
668.479	-1123
668.532	-1131
668.584	-1123
668.636	-778
668.689	-568
668.741	-964
668.793	-405
668.845	-1393
668.898	-1295
668.950	-912
669.002	-1027
669.054	-990
669.106	-1349
669.158	-1004
669.211	-618
669.263	-521
669.315	-199
669.367	383
669.419	-509
669.471	-22
669.523	541
669.575	2116
669.627	308
669.679	52
669.731	-408
669.783	113
669.835	254
669.886	-135
669.938	-466
669.990	-639
670.042	-1376
670.094	-607
670.146	-1105
670.197	-1111
670.249	-900
670.301	-625
670.353	-791
670.404	180
670.456	-76
670.508	1057
670.560	1497
670.611	5003
670.663	8789
670.715	24441
670.766	36557
670.818	9625
670.869	269
670.921	119
670.972	-563
671.024	-425
671.075	-414
671.127	-609
671.178	-1266
671.230	-805
671.281	-449
671.333	-1473
671.384	-650
671.436	-186
671.487	-97
671.538	310
671.590	2484
671.641	3178
671.692	6816
671.744	15497
671.795	10769
671.846	2238
671.897	509
671.949	-648
672.000	-721
672.051	-684
672.102	-371
672.153	-1272
672.204	-1080
672.256	-474
672.307	-902
672.358	-823
672.409	-337
672.460	-1109
672.511	-986
672.562	-1373
672.613	-1817
672.664	-630
672.715	-893
672.766	-859
672.817	-991
672.868	-1321
672.919	-918
672.970	-1760
673.021	-1645
673.071	-873
673.122	-1150
673.173	-1235
673.224	-1430
673.275	-1209
673.326	-635
673.376	-993
673.427	-1469
673.478	-1215
673.528	-876
673.579	-1149
673.630	-2262
673.680	-260
673.731	-1927
673.782	-1322
673.832	-1717
673.883	-1646
673.934	-2096
673.984	-1250
674.035	-1908
674.085	-825
674.136	-1139
674.186	-1491
674.237	-887
674.287	-822
674.338	-1154
674.388	-1475
674.438	-1493
674.489	-1013
674.539	-1335
674.589	-620
674.640	-1906
674.690	-664
674.740	-1200
674.791	-1494
674.841	-1221
674.891	-788
674.942	-914
674.992	-487
675.042	-1285
675.092	-831
675.142	-1445
675.193	-1951
675.243	-614
675.293	-1323
675.343	-1119
675.393	-513
675.443	-1134
675.493	-1240
675.543	-1388
675.593	-2383
675.643	-1565
675.693	-579
675.743	-1368
675.793	-845
675.843	-949
675.893	-1496
675.943	-932
675.993	-1328
676.043	-1571
676.093	-732
676.142	-798
676.192	-727
676.242	-1515
676.292	-1198
676.341	-1562
676.391	-1572
676.441	-2037
676.491	-1203
676.540	-1760
676.590	-735
676.640	-1348
676.689	-1737
676.739	-1082
676.789	-1281
676.838	-1972
676.888	-1414
676.937	-849
676.987	-1490
677.037	-1400
677.086	-1511
677.136	-1244
677.185	-1400
677.235	-1857
677.284	-1452
677.333	-2234
677.383	-888
677.432	-1740
677.482	-1277
677.531	-1014
677.580	-2057
677.630	-1651
677.679	-1516
677.728	-1726
677.778	-1439
677.827	-1460
677.876	-1133
677.925	-1478
677.975	-1442
678.024	-1391
678.073	-2582
678.122	-1595
678.171	-1422
678.220	-1239
678.269	-566
678.319	-1345
678.368	-1220
678.417	-1187
678.466	-1151
678.515	-1393
678.564	-1639
678.613	-1509
678.662	-1645
678.711	-1213
678.760	-950
678.809	-1586
678.857	-1410
678.906	-1587
678.955	-1249
679.004	-770
679.053	-822
679.102	-1251
679.151	-1052
679.199	-1404
679.248	-1247
679.297	-1866
679.346	-1483
679.394	-1992
679.443	-1309
679.492	-1756
679.540	-660
679.589	-1840
679.638	-1892
679.686	-1807
679.735	-1350
679.784	-1463
679.832	-1733
679.881	-1384
679.929	-1319
679.978	-1370
680.026	-1007
680.075	-1297
680.123	-1781
680.172	-2147
680.220	-1342
680.268	-1015
680.317	-1716
680.365	55
680.414	-1293
680.462	-1680
680.510	-939
680.559	-2038
680.607	-1284
680.655	-1872
680.703	-1092
680.752	-1264
680.800	-722
680.848	-1596
680.896	-1138
680.945	-1787
680.993	-1820
681.041	-1092
681.089	-1299
681.137	-501
681.185	-2021
681.233	-1751
681.258	-1692
681.281	-1643
681.329	-1686
681.377	-1733
681.380	-1706
681.425	-1353
681.473	-736
681.502	-799
681.521	-859
681.569	-789
681.617	-2479
681.624	-2388
681.665	-1838
681.713	-940
681.745	-1011
681.761	-1059
681.809	-1314
681.857	-1267
681.867	-1296
681.904	-1422
681.952	-1788
681.989	-1695
682.000	-1669
682.048	-1452
682.096	-1118
682.111	-1229
682.143	-1508
682.191	-1382
682.233	-502
682.239	-378
682.286	-1923
682.334	-742
682.354	-1063
682.382	-1491
682.430	-1081
682.476	-1084
682.477	-1090
682.525	-1122
682.572	-1794
682.598	-1787
682.620	-1785
682.667	-1485
682.715	-1502
682.720	-1487
682.763	-1401
682.810	-1137
682.841	-1486
682.857	-1693
682.905	-1245
682.952	-696
682.963	-734
683.000	-927
683.047	-1298
683.085	-521
683.095	-298
683.142	-930
683.190	-718
683.206	-727
683.237	-802
683.284	-350
683.328	-873
683.332	-925
683.379	-899
683.426	-1063
683.449	-1004
683.473	-923
683.521	-1305
683.568	-899
683.571	-893
683.615	-927
683.662	-889
683.693	-993
683.709	-1044
683.757	-1031
683.804	-693
683.814	-644
683.851	-539
683.898	-735
683.936	-1171
683.945	-1270
683.992	-1347
684.039	-686
684.057	-904
684.086	-1272
684.133	-1023
684.179	-721
684.180	-717
684.227	-500
684.274	-647
684.300	-572
684.321	-475
684.368	-1110
684.415	-433
684.422	-466
684.462	-630
684.509	-498
684.543	-452
684.556	-445
684.603	467
684.649	661
684.665	494
684.696	-63
684.743	388
684.786	9
684.790	-17
684.837	-870
684.883	-230
684.908	-248
684.930	-301
684.977	-543
685.023	-31
685.029	-116
685.070	-685
685.117	-617
685.150	-643
685.164	-656
685.210	-634
685.257	-192
685.272	-413
685.303	-942
685.350	-549
685.393	-928
685.396	-946
685.443	-305
685.490	193
685.514	307
685.536	295
685.583	-986
685.629	-611
685.636	-599
685.675	-433
685.722	-357
685.757	-326
685.768	-328
685.815	-398
685.861	-292
685.878	-416
685.908	-639
685.954	-502
686.000	-223
686.000	-221
686.047	-577
686.093	-65
686.121	-220
686.139	-248
686.185	-409
686.232	106
686.242	88
686.278	-74
686.324	387
686.363	414
686.370	399
686.416	132
686.463	425
686.484	32
686.509	-332
686.555	166
686.601	109
686.606	92
686.647	-262
686.693	-314
686.727	-451
686.739	-411
686.785	-387
686.831	54
686.848	352
686.877	671
686.923	-295
686.969	-419
686.969	-419
687.015	-610
687.061	276
687.090	108
687.107	6
687.153	118
687.199	-153
687.211	-36
687.245	198
687.291	381
687.332	585
687.336	604
687.382	12
687.428	138
687.453	38
687.474	-4
687.520	157
687.565	344
687.574	383
687.611	705
687.657	1057
687.695	825
687.702	801
687.748	1785
687.794	2386
687.816	2531
687.839	2336
687.885	1007
687.931	692
687.937	645
687.976	472
688.022	407
688.058	113
688.067	73
688.113	222
688.158	71
688.179	81
688.204	217
688.249	419
688.295	483
688.300	501
688.340	579
688.386	793
688.421	940
688.431	984
688.477	489
688.522	908
688.542	981
688.567	1075
688.613	1095
688.658	1006
688.663	998
688.703	1153
688.749	1898
688.784	2429
688.794	2444
688.839	1609
688.884	1229
688.905	1297
688.930	1498
688.975	696
689.020	570
689.026	572
689.065	696
689.110	554
689.146	880
689.155	1009
689.201	923
689.246	1287
689.267	1264
689.291	1068
689.336	856
689.381	272
689.388	333
689.426	803
689.471	931
689.509	1010
689.516	1023
689.561	971
689.606	822
689.630	893
689.651	925
689.696	463
689.741	830
689.750	823
689.785	946
689.830	939
689.871	1045
689.875	1059
689.920	1000
689.965	1122
689.992	977
690.010	854
690.054	723
690.099	842
690.112	1007
690.144	1398
690.189	1194
690.233	872
690.233	875
690.278	1039
690.323	1122
690.354	1291
690.367	1359
690.412	1076
690.457	1445
690.474	1367
690.501	1230
690.546	1320
690.590	1450
690.595	1448
690.635	1675
690.680	1503
690.716	1469
690.724	1434
690.769	1617
690.813	1968
690.836	1773
690.857	1861
690.902	2444
690.946	2885
690.957	3140
690.991	4323
691.035	5084
691.077	6578
691.080	6600
691.124	5789
691.168	5263
691.198	4775
691.213	4418
691.257	4126
691.301	3047
691.318	2667
691.346	2371
691.390	2124
691.434	1455
691.439	1411
691.478	1401
691.522	1526
691.559	1163
691.567	1102
691.611	1950
691.655	1450
691.680	1404
691.699	1400
691.743	1378
691.787	1559
691.800	1492
691.831	1373
691.875	1248
691.919	1927
691.921	1906
691.964	1418
692.008	1885
692.041	1718
692.052	1682
692.096	1963
692.139	1662
692.162	1772
692.183	1897
692.227	2170
692.271	1975
692.282	1990
692.315	1941
692.359	2080
692.402	1512
692.403	1518
692.447	1882
692.490	2098
692.523	2124
692.534	2091
692.578	2255
692.622	2167
692.643	2159
692.666	2099
692.709	1691
692.753	1749
692.763	1753
692.797	2044
692.840	2039
692.884	2367
692.884	2376
692.928	2185
692.971	2001
693.004	1739
693.015	1699
693.059	1896
693.102	1774
693.124	1831
693.146	2020
693.189	2284
693.233	2435
693.245	2523
693.276	2542
693.320	2416
693.363	2338
693.365	2318
693.407	2416
693.450	2960
693.485	2998
693.493	3007
693.537	3402
693.580	3533
693.605	3836
693.624	4406
693.667	5422
693.710	6491
693.725	6862
693.753	8889
693.797	11909
693.840	15093
693.845	15445
693.883	13914
693.926	11790
693.966	10005
693.970	9853
694.013	8070
694.056	6305
694.086	4891
694.099	4616
694.142	4005
694.185	3245
694.206	2936
694.229	2994
694.272	3159
694.315	3354
694.326	3290
694.358	3025
694.401	3005
694.444	2861
694.446	2842
694.487	2721
694.530	2566
694.566	2505
694.573	2514
694.616	2352
694.659	2231
694.686	2333
694.702	2495
694.745	2649
694.787	2877
694.806	2962
694.830	2929
694.873	2768
694.916	2738
694.926	2680
694.959	2799
695.002	2814
695.044	3209
695.046	3210
695.087	3174
695.130	2945
695.166	2654
695.172	2748
695.215	3715
695.258	4575
695.286	4988
695.301	5090
695.343	5408
695.386	5646
695.406	5725
695.428	5085
695.471	4113
695.514	2791
695.526	2491
695.556	2756
695.599	2967
695.641	2985
695.646	3002
695.684	3035
695.726	3077
695.766	2952
695.769	2967
695.811	3020
695.854	3393
695.886	3347
695.896	3316
695.938	3280
695.981	3258
696.005	3205
696.023	3359
696.065	3685
696.108	4144
696.125	4278
696.150	4104
696.192	3793
696.235	3444
696.245	3358
696.277	3227
696.319	3109
696.361	2765
696.365	2736
696.404	3119
696.446	3447
696.485	3961
696.488	4036
696.530	4671
696.572	5217
696.604	5629
696.614	5514
696.656	5024
696.698	4512
696.724	4208
696.740	4036
696.783	3419
696.825	2938
696.844	2682
696.867	2736
696.909	2776
696.951	2814
696.964	2864
696.992	3156
697.034	3415
697.076	3602
697.083	3647
697.118	3693
697.160	3585
697.202	3564
697.203	3550
697.244	3491
697.286	3305
697.323	3188
697.327	3212
697.369	3203
697.411	3334
697.442	3347
697.453	3382
697.494	3507
697.536	3618
697.562	3679
697.578	3740
697.620	3843
697.661	3954
697.682	4008
697.703	3947
697.744	3744
697.786	3654
697.801	3539
697.828	3626
697.869	3878
697.911	4087
697.921	4127
697.952	3961
697.994	3721
698.035	3463
698.040	3415
698.077	3531
698.118	3708
698.160	3887
698.160	3875
698.201	3904
698.243	4014
698.279	4093
698.284	4109
698.325	4099
698.367	4087
698.399	4057
698.408	4070
698.449	4076
698.491	4068
698.518	4059
698.532	4099
698.573	4152
698.614	4216
698.638	4233
698.656	4335
698.697	4556
698.738	4754
698.757	4829
698.779	4738
698.820	4545
698.862	4349
698.877	4261
698.903	4878
698.944	5837
698.985	6807
698.996	7054
699.026	6701
699.067	6188
699.116	5558
699.235	4405
699.354	6858
699.474	5706
699.593	5009
699.713	4751
699.832	4641
699.951	4060
700.070	4589
700.190	4740
700.309	4930
700.428	4488
700.547	4386
700.667	4101
700.786	3462
700.905	3501
701.024	4197
701.143	3625
701.262	4675
701.381	3377
701.500	3745
701.619	3654
701.738	3794
701.857	3950
701.976	4320
702.095	4196
702.214	3314
702.333	4177
702.452	4121
702.571	5145
702.690	6878
702.809	4777
702.928	3570
703.047	3615
703.165	3754
703.284	4471
703.403	3958
703.522	3711
703.640	3756
703.759	3943
703.878	4234
703.997	3408
704.115	4136
704.234	4363
704.353	3707
704.471	3851
704.590	3622
704.708	3920
704.827	3914
704.946	4201
705.064	3729
705.183	3327
705.301	3607
705.420	4036
705.538	3563
705.656	4299
705.775	4613
705.893	7253
706.012	8525
706.130	2973
706.249	3803
706.367	4057
706.485	4213
706.604	2930
706.722	3267
706.840	5643
706.958	8403
707.077	5855
707.195	3337
707.313	3059
707.431	3729
707.549	2387
707.668	2997
707.786	2747
707.904	3628
708.022	3841
708.140	3252
708.258	3866
708.376	3665
708.494	4064
708.612	5240
708.730	6380
708.848	3312
708.966	2898
709.084	3724
709.202	3833
709.320	3466
709.438	4880
709.556	5031
709.674	10814
709.791	12598
709.909	3332
710.027	4180
710.145	6838
710.263	13620
710.380	8674
710.498	2951
710.616	3264
710.733	2509
710.851	3230
710.969	3852
711.086	5768
711.204	6136
711.322	3953
711.439	2198
711.557	3042
711.674	3052
711.792	2617
711.909	3762
712.027	2834
712.144	2988
712.262	3204
712.379	2520
712.497	2375
712.614	2698
712.732	3450
712.849	1954
712.966	3382
713.084	2317
713.201	2592
713.318	2735
713.436	2631
713.553	2446
713.670	3001
713.787	2838
713.905	2481
714.022	3596
714.139	2880
714.256	4329
714.373	6137
714.490	9788
714.608	26712
714.725	118173
714.842	100162
714.959	7046
715.076	4059
715.193	3866
715.310	2926
715.427	2333
715.544	2754
715.661	3141
715.778	2902
715.895	2445
716.011	2368
716.128	3106
716.245	2982
716.362	2837
716.479	3051
716.596	3649
716.713	5676
716.829	14224
716.946	10475
717.063	3278
717.180	2499
717.296	2720
717.413	1826
717.530	2374
717.646	2454
717.763	2412
717.880	2264
717.996	2430
718.113	2378
718.229	1991
718.346	2259
718.462	1955
718.579	2799
718.695	2224
718.812	2669
718.928	1905
719.045	2077
719.161	1713
719.277	2623
719.394	2817
719.510	2666
719.626	2922
719.743	3283
719.859	3627
719.975	8218
720.092	32059
720.208	60942
720.324	7084
720.440	3214
720.557	1484
720.673	2800
720.789	1545
720.905	2775
721.021	2025
721.137	2274
721.253	2401
721.369	1240
721.486	2218
721.602	1521
721.718	2794
721.834	2860
721.950	2106
722.066	2017
722.181	2095
722.297	2104
722.413	1745
722.529	2368
722.645	2404
722.761	1791
722.877	2350
722.993	1887
723.108	1538
723.224	1568
723.340	2277
723.456	2259
723.571	1433
723.687	2589
723.803	414
723.918	1731
724.034	1888
724.150	1746
724.265	1248
724.381	1956
724.497	1459
724.612	2549
724.728	1723
724.843	1796
724.959	2390
725.074	2731
725.190	1160
725.305	1478
725.421	1230
725.536	1517
725.651	1645
725.767	2134
725.882	2922
725.997	1749
726.113	1551
726.228	1424
726.343	1603
726.459	1914
726.574	2107
726.689	1240
726.804	1783
726.920	1550
727.035	1605
727.150	2331
727.265	1683
727.380	1613
727.495	1919
727.610	2186
727.725	1014
727.841	1920
727.956	4155
728.071	3349
728.186	1067
728.301	1326
728.416	2055
728.531	1842
728.645	2175
728.760	1674
728.875	2424
728.990	2753
729.105	2339
729.220	1071
729.335	1457
729.449	1031
729.564	1417
729.679	756
729.794	1421
729.908	1396
730.023	1538
730.138	1659
730.253	1635
730.367	1293
730.482	1447
730.596	2241
730.711	2145
730.826	2655
730.940	2514
731.055	1811
731.169	1873
731.284	1767
731.398	2328
731.513	2214
731.627	1605
731.742	3321
731.856	2132
731.970	1426
732.085	1928
732.199	2723
732.313	4328
732.428	10999
732.542	33124
732.656	16228
732.771	4615
732.885	2781
732.999	2148
733.113	1782
733.227	2020
733.342	2672
733.456	1879
733.570	2282
733.684	1866
733.798	1621
733.912	2447
734.026	1551
734.140	2134
734.254	1841
734.368	2468
734.482	2521
734.596	1813
734.710	1957
734.824	1728
734.938	1901
735.052	791
735.166	1364
735.280	1866
735.393	1861
735.507	1656
735.621	2737
735.735	1777
735.849	1724
735.962	1679
736.076	1322
736.190	1286
736.303	1554
736.417	1669
736.531	1969
736.644	1361
736.758	1996
736.872	1479
736.985	1201
737.099	1882
737.212	2011
737.326	1755
737.439	2140
737.553	1256
737.666	2068
737.780	1633
737.893	1976
738.007	1396
738.120	925
738.233	2104
738.347	2566
738.460	1956
738.573	1559
738.687	1446
738.800	2365
738.913	2253
739.026	2345
739.140	1741
739.253	1049
739.366	1686
739.479	1218
739.592	966
739.705	1564
739.818	1746
739.932	1462
740.045	2213
740.158	1151
740.271	1531
740.384	1508
740.497	1938
740.610	1886
740.723	2060
740.836	2772
740.949	2419
741.062	2211
741.174	1032
741.287	1451
741.400	1126
741.513	1901
741.626	2168
741.739	1194
741.851	2197
741.964	1377
742.077	1663
742.189	2484
742.302	3624
742.415	2880
742.527	1671
742.640	1789
742.753	1031
742.865	1563
742.978	1469
743.090	1763
743.203	560
743.316	1380
743.428	1605
743.541	1355
743.653	730
743.766	1418
743.878	2051
743.990	3195
744.103	2021
744.215	4288
744.327	1640
744.440	2103
744.552	1449
744.664	787
744.777	1345
744.889	633
745.001	1603
745.113	1499
745.226	1059
745.338	2188
745.450	1100
745.562	1472
745.674	1057
745.786	1021
745.898	1770
746.010	1483
746.122	532
746.234	937
746.347	1712
746.459	1677
746.570	553
746.682	3295
746.794	7021
746.906	2418
747.018	1089
747.130	1645
747.242	1344
747.354	862
747.466	1276
747.577	1080
747.689	1126
747.801	1391
747.913	575
748.024	1273
748.136	1061
748.248	199
748.359	2556
748.471	992
748.583	781
748.694	835
748.806	1361
748.918	855
749.029	780
749.141	1225
749.252	2126
749.364	459
749.475	850
749.587	1328
749.698	416
749.809	519
749.921	1621
750.032	1938
750.144	1370
750.255	1467
750.366	511
750.478	889
750.589	978
750.700	704
750.811	881
750.923	993
751.034	666
751.145	1233
751.256	591
751.367	1176
751.479	801
751.590	1318
751.701	1179
751.812	459
751.923	1257
752.034	1154
752.145	917
752.256	1105
752.367	457
752.478	992
752.589	1181
752.700	1228
752.811	855
752.922	325
753.032	183
753.143	1565
753.254	-196
753.365	1137
753.476	912
753.586	88
753.697	672
753.808	708
753.919	944
754.029	1143
754.140	673
754.251	964
754.361	1119
754.472	1181
754.582	750
754.693	1224
754.804	825
754.914	391
755.025	1328
755.135	1551
755.246	1697
755.356	1102
755.466	1691
755.577	922
755.687	521
755.798	794
755.908	973
756.018	912
756.129	821
756.239	1254
756.349	448
756.460	1073
756.570	1541
756.680	1018
756.790	522
756.900	830
757.011	1208
757.121	705
757.231	768
757.341	77
757.451	146
757.561	734
757.671	1714
757.781	298
757.891	1988
758.001	1527
758.111	63
758.221	1123
758.331	959
758.441	821
758.551	383
758.661	1325
758.771	786
758.880	1042
758.990	233
759.100	362
759.210	763
759.320	925
759.429	1362
759.539	975
759.649	1384
759.758	303
759.868	2149
759.978	-84
760.087	1471
760.197	796
760.307	1730
760.416	1019
760.526	581
760.635	1583
760.745	1706
760.854	1012
760.964	1400
761.073	2082
761.182	1427
761.292	779
761.401	962
761.511	1000
761.620	1149
761.729	1140
761.839	1152
761.948	1616
762.057	1065
762.166	1345
762.276	56
762.385	2228
762.494	948
762.603	1801
762.712	1544
762.822	610
762.931	1307
763.040	1207
763.149	423
763.258	1011
763.367	1741
763.476	1046
763.585	1381
763.694	1751
763.803	1558
763.912	2089
764.021	1740
764.130	1532
764.238	1514
764.347	977
764.456	1411
764.565	2293
764.674	2110
764.783	2447
764.891	2709
765.000	3655
765.109	2956
765.217	3868
765.326	4746
765.435	5933
765.543	6463
765.652	8092
765.761	10662
765.869	16341
765.978	26260
766.086	46674
766.195	94662
766.303	228924
766.412	448273
766.520	366668
766.629	142907
766.737	56969
766.846	31819
766.954	19205
767.062	15303
767.171	11664
767.279	9432
767.387	6483
767.496	5413
767.604	5927
767.712	3809
767.820	3491
767.928	4245
768.037	3196
768.145	4417
768.253	3462
768.361	2778
768.469	3166
768.577	3027
768.685	3722
768.793	4053
768.901	3906
769.009	4471
769.117	5606
769.225	7595
769.333	10754
769.441	18754
769.549	34773
769.657	83075
769.765	238596
769.873	364651
769.981	155597
770.088	43064
770.196	20214
770.304	13822
770.412	9763
770.519	7114
770.627	5443
770.735	3992
770.842	4351
770.950	3867
771.058	2442
771.165	3163
771.273	1971
771.380	2687
771.488	2455
771.595	1665
771.703	2367
771.810	1646
771.918	2218
772.025	1623
772.133	2174
772.240	1092
772.348	1900
772.455	1676
772.562	1187
772.670	1663
772.777	1599
772.884	1898
772.991	1431
773.099	723
773.206	781
773.313	1664
773.420	1322
773.528	376
773.635	970
773.742	1005
773.849	1728
773.956	1232
774.063	808
774.170	481
774.277	1253
774.384	-160
774.491	886
774.598	1320
774.705	1173
774.812	724
774.919	1027
775.026	1063
775.133	445
775.239	845
775.346	502
775.453	834
775.560	277
775.667	1213
775.773	161
775.880	1571
775.987	274
776.093	905
776.200	974
776.307	860
776.413	849
776.520	279
776.627	959
776.733	1098
776.840	719
776.946	3853
777.053	5127
777.159	10502
777.266	5401
777.372	8890
777.478	6425
777.585	2912
777.691	1001
777.798	877
777.904	778
778.010	849
778.117	1135
778.223	860
778.329	855
778.435	286
778.542	705
778.648	178
778.754	-180
778.860	1059
778.966	723
779.072	321
779.178	468
779.284	-76
779.391	-333
779.497	-349
779.603	2566
779.708	105
779.815	3781
779.920	10305
780.026	17581
780.132	1312
780.238	-464
780.344	176
780.450	1176
780.556	136
780.661	616
780.767	311
780.873	-3
780.979	531
781.085	308
781.190	316
781.296	57
781.402	187
781.507	21
781.613	1061
781.719	84
781.824	883
781.930	1410
782.035	750
782.141	362
782.246	827
782.352	260
782.457	475
782.563	315
782.668	363
782.773	102
782.879	-560
782.984	178
783.090	721
783.195	561
783.300	793
783.405	999
783.511	-269
783.616	968
783.721	971
783.826	245
783.932	164
784.037	317
784.142	190
784.247	557
784.352	542
784.457	143
784.562	785
784.667	162
784.772	27
784.877	1262
784.982	903
785.087	-251
785.192	533
785.297	-177
785.402	269
785.507	203
785.611	115
785.716	96
785.821	26
785.926	533
786.031	-336
786.135	-234
786.240	168
786.345	-1330
786.450	425
786.554	557
786.659	-137
786.763	-613
786.868	466
786.973	1978
787.077	-414
787.182	-235
787.286	663
787.391	190
787.495	383
787.600	344
787.704	-630
787.809	374
787.913	54
788.017	1365
788.122	-49
788.226	138
788.330	-378
788.435	-646
788.539	93
788.643	68
788.747	-287
788.852	15
788.956	-215
789.060	12
789.164	-485
789.268	-633
789.372	609
789.476	-227
789.580	-653
789.684	38
789.788	228
789.892	-189
789.996	588
790.100	-17
790.204	-238
790.308	-37
790.412	-295
790.516	438
790.620	89
790.724	341
790.828	-209
790.931	-612
791.035	621
791.139	276
791.242	-1087
791.346	331
791.450	-198
791.554	-292
791.657	-927
791.761	420
791.864	-178
791.968	471
792.072	-761
792.175	224
792.279	236
792.382	-713
792.486	-477
792.589	211
792.693	-116
792.796	-266
792.899	240
793.003	772
793.106	-1287
793.209	-337
793.313	1114
793.416	-667
793.519	605
793.623	614
793.726	162
793.829	-487
793.932	818
794.035	-558
794.138	-32
794.242	318
794.345	793
794.448	1564
794.551	-309
794.654	4924
794.757	8779
794.860	1303
794.963	267
795.066	-855
795.169	593
795.272	-1330
795.375	231
795.477	-831
795.580	434
795.683	-250
795.786	396
795.889	-1526
795.991	-165
796.094	280
796.197	-1420
796.300	362
796.402	-727
796.505	-886
796.608	-671
796.710	186
796.813	-767
796.915	-551
797.018	815
797.120	504
797.223	-1155
797.326	1702
797.428	-332
797.530	-407
797.633	-40
797.735	594
797.838	-650
797.940	187
798.042	-833
798.145	-402
798.247	803
798.349	-1296
798.452	198
798.554	-969
798.656	-1699
798.758	920
798.860	-775
798.962	23
799.065	-643
799.167	-1348
799.269	-31
799.371	617
799.473	196
799.575	-533
799.677	-482
799.779	1238
799.881	-1822
799.983	250
800.085	127
800.187	-671
800.289	-2137
800.390	-146
800.492	-48
800.594	923
800.696	-244
800.798	-108
800.899	-809
801.001	-22
801.103	-644
801.205	-908
801.306	-817
801.408	-519
801.509	-556
801.611	100
801.713	-18
801.814	-1306
801.916	-883
802.017	-370
802.119	-1401
802.220	-582
802.322	-1737
802.423	951
802.525	-1727
802.626	-63
802.727	-93
802.829	-454
802.930	-2028
803.031	1610
803.133	-1208
803.234	-408
803.335	-44
803.436	-637
803.538	-965
803.639	-1183
803.740	-342
803.841	-535
803.942	-441
804.043	-126
804.144	-1141
804.245	-316
804.346	-1227
804.447	-1261
804.548	-681
804.649	86
804.750	-605
804.851	-144
804.952	-1108
805.053	-175
805.154	-1071
805.255	515
805.355	-734
805.456	-112
805.557	-1130
805.658	-879
805.758	421
805.859	-579
805.960	-331
806.061	-774
806.161	-972
806.262	504
806.362	-462
806.463	-895
806.564	37
806.664	-424
806.765	-517
806.865	853
806.966	3816
807.066	907
807.166	860
807.267	290
807.367	-255
807.468	391
807.568	-1401
807.668	183
807.769	123
807.869	-1617
807.969	99
808.069	-749
808.170	-630
808.270	1
808.370	-499
808.470	-319
808.570	-2222
808.670	-443
808.770	-189
808.870	-446
808.970	-72
809.070	-440
809.170	-1180
809.271	652
809.370	-995
809.470	138
809.570	-722
809.670	-719
809.770	-1139
809.870	-310
809.970	-76
810.070	-1352
810.169	-396
810.269	-2086
810.369	569
810.469	-826
810.568	-1012
810.668	-1093
810.768	-1097
810.867	-842
810.967	62
811.066	-1200
811.166	-915
811.265	-649
811.365	162
811.464	-290
811.564	-1069
811.663	-438
811.763	-1390
811.862	168
811.962	307
812.061	82
812.160	-1647
812.260	-451
812.359	-176
812.458	-506
812.557	-511
812.657	-838
812.756	-596
812.855	154
812.954	-1235
813.053	478
813.153	333
813.252	1913
813.351	937
813.450	-615
813.549	-1230
813.648	-471
813.747	-546
813.846	-232
813.945	-516
814.044	-205
814.143	-617
814.242	-68
814.341	-915
814.439	60
814.538	-718
814.637	-293
814.736	-1374
814.835	-314
814.933	-988
815.032	-331
815.131	511
815.229	278
815.328	-3
815.427	-410
815.525	-387
815.624	176
815.722	303
815.821	724
815.919	461
816.018	-520
816.116	541
816.215	-157
816.313	-509
816.412	282
816.510	830
816.609	1799
816.707	1042
816.805	956
816.904	526
817.002	1096
817.100	2403
817.198	2223
817.296	1801
817.395	3338
817.493	3518
817.591	4317
817.689	6613
817.787	9425
817.885	16303
817.983	30243
818.081	65219
818.179	154125
818.277	341043
818.375	259578
818.473	81903
818.571	34633
818.669	22719
818.767	20288
818.865	19536
818.963	23256
819.061	33847
819.158	59622
819.256	122247
819.354	268761
819.452	471391
819.549	296617
819.647	106823
819.745	47278
819.842	27985
819.940	18473
820.038	12952
820.135	10418
820.233	8714
820.330	5694
820.428	4194
820.525	5047
820.623	3992
820.720	2052
820.818	2179
820.915	2773
821.012	2571
821.110	851
821.207	4075
821.304	1976
821.402	1933
821.499	2972
821.596	4125
821.693	2904
821.791	1098
821.888	57
821.985	1328
822.082	596
822.179	1868
822.276	1521
822.373	607
822.470	456
822.567	1092
822.664	-215
822.761	720
822.858	-546
822.955	188
823.052	-237
823.149	-741
823.246	-18
823.343	-538
823.440	463
823.536	-806
823.633	-287
823.730	243
823.827	-899
823.923	548
824.020	1564
824.117	920
824.213	-600
824.310	703
824.407	-427
824.503	-225
824.600	-254
824.696	-819
824.793	340
824.889	-612
824.986	-680
825.082	-1283
825.179	417
825.275	451
825.371	-484
825.468	-487
825.564	-2052
825.660	-600
825.757	-281
825.853	198
825.949	-1151
826.045	123
826.142	-1219
826.238	-933
826.334	-6
826.430	-983
826.526	-693
826.622	-853
826.718	-905
826.814	-1452
826.910	377
827.006	-1184
827.102	-1533
827.198	-211
827.294	-1065
827.390	-61
827.486	-61
827.582	-814
827.678	-1833
827.774	388
827.869	-1636
827.965	52
828.061	-853
828.157	-394
828.252	-721
828.348	-1390
828.444	-213
828.539	-1488
828.635	-1394
828.731	-737
828.826	-1900
828.922	-477
829.017	-860
829.113	175
829.208	-1415
829.304	-510
829.399	-13
829.495	-1406
829.590	-62
829.685	-1665
829.781	-278
829.876	-1345
829.971	-706
830.066	-691
830.162	-861
830.257	-476
830.352	-1115
830.447	-169
830.543	-487
830.638	-1113
830.733	436
830.828	-934
830.923	420
831.018	-1011
831.113	-405
831.208	-1877
831.303	-1110
831.398	-1062
831.493	-744
831.588	-593
831.683	-1058
831.778	-970
831.873	-1132
831.967	487
832.062	-1015
832.157	-963
832.252	-372
832.346	-946
832.441	-940
832.536	-788
832.631	-427
832.725	-1154
832.820	-865
832.914	-1827
833.009	-1399
833.104	-1381
833.198	-289
833.293	-1123
833.387	-1023
833.482	-421
833.576	-2117
833.670	-209
833.765	-1118
833.859	-1972
833.954	-169
834.048	-787
834.142	-99
834.237	-1717
834.331	-1455
834.425	-1105
834.519	-1345
834.613	-370
834.708	-471
834.802	-1074
834.896	-1725
834.990	-1250
835.084	-1019
835.178	-890
835.272	-1404
835.366	-1300
835.460	-720
835.554	-1488
835.648	-368
835.742	-2138
835.836	-829
835.930	-2397
836.024	-1394
836.117	-689
836.211	-1941
836.305	-1124
836.399	-340
836.493	-2708
836.586	-596
836.680	-1691
836.774	-1278
836.867	-17
836.961	-1875
837.055	-801
837.148	-367
837.242	-523
837.335	-1158
837.429	-1171
837.522	-1422
837.616	-1948
837.709	-1448
837.803	-1232
837.896	-1253
837.989	-1385
838.083	-1082
838.176	-398
838.269	-1164
838.363	110
838.456	-1703
838.549	-1671
838.642	-1092
838.735	-849
838.829	118
838.922	-1427
839.015	-1112
839.108	-1737
839.201	-1702
839.294	-1040
839.387	-223
839.480	-1990
839.573	-981
839.666	-972
839.759	-1055
839.852	-1844
839.945	-1653
840.038	-285
840.131	-844
840.223	-889
840.316	-547
840.409	-894
840.502	-1609
840.594	-41
840.687	-1334
840.780	-1662
840.873	-1547
840.965	-1377
841.058	-1703
841.150	-1463
841.243	-1725
841.336	-370
841.428	-1068
841.521	-2324
841.613	-1933
841.706	-1405
841.798	-1007
841.890	-1175
841.983	-913
842.075	-300
842.167	-1508
842.260	-626
842.352	-1418
842.444	-2058
842.537	-2086
842.629	-1054
842.721	-1632
842.813	-851
842.905	-1770
842.997	-669
843.090	-1295
843.182	-1060
843.274	-1866
843.366	-1193
843.458	-1081
843.550	-1077
843.642	-1087
843.734	-1009
843.826	-963
843.918	-870
844.009	-480
844.101	-1045
844.193	-645
844.285	-1345
844.377	-726
844.469	1134
844.560	1526
844.652	978
844.744	-582
844.835	-1031
844.927	-620
845.019	-835
845.110	-1066
845.202	-492
845.293	-425
845.385	-1632
845.476	-987
845.568	-389
845.659	-1486
845.751	-522
845.842	-810
845.934	-1239
846.025	-1001
846.116	-916
846.208	-1165
846.299	-1279
846.390	-1523
846.482	-1501
846.573	-841
846.664	-1016
846.755	-1522
846.846	-1341
846.937	-1622
847.029	-1937
847.120	-1953
847.211	-1040
847.302	-186
847.393	-2340
847.484	-1135
847.575	-1534
847.666	-1510
847.757	-1429
847.847	-1851
847.938	-961
848.029	-1279
848.120	-1888
848.211	-1522
848.302	-2302
848.392	-1013
848.483	-1044
848.574	-1390
848.664	-2007
848.755	-1373
848.846	-1274
848.936	-1906
849.027	-1831
849.118	-964
849.208	-1774
849.299	-397
849.389	-557
849.480	-237
849.570	1592
849.661	4122
849.751	8158
849.841	1731
849.932	-1441
850.022	-1654
850.112	-1263
850.203	-1261
850.293	-2081
850.383	-1519
850.474	-1376
850.564	-780
850.654	-1506
850.744	-1231
850.834	-1818
850.924	-1319
851.014	-1122
851.104	-1546
851.194	-1664
851.284	-1278
851.374	-653
851.464	-629
851.554	-791
851.644	-1431
851.734	-663
851.824	-1115
851.914	-1251
852.004	-1336
852.094	-1234
852.183	-1592
852.273	-111
852.363	-910
852.452	-781
852.542	-1141
852.632	-1883
852.721	-483
852.811	-1220
852.901	-793
852.990	-1811
853.080	-948
853.169	-1753
853.259	-1124
853.348	-785
853.438	-601
853.527	171
853.617	104
853.706	1782
853.795	3760
853.885	11146
853.974	21613
854.063	42027
854.152	60973
854.242	17941
854.331	1384
854.420	-741
854.509	-550
854.598	-759
854.687	-712
854.777	-1321
854.866	-1220
854.955	-1226
855.044	-1348
855.133	-710
855.222	-841
855.311	-1723
855.400	-662
855.488	-883
855.577	-1295
855.666	-1129
855.755	-1133
855.844	-1162
855.933	-1071
856.021	-2011
856.110	-1199
856.199	-1942
856.288	-2055
856.376	-1450
856.465	-1473
856.554	-687
856.642	-1157
856.731	-1223
856.819	-1725
856.908	-1738
856.996	-991
857.085	-1974
857.173	-1755
857.262	-1529
857.350	-732
857.438	-1736
857.527	-300
857.615	-943
857.703	-936
857.792	-1955
857.880	-1678
857.968	-1556
858.056	-707
858.145	-1451
858.233	-1566
858.321	-2095
858.409	-1237
858.497	-1748
858.585	-1479
858.673	-1522
858.761	-938
858.849	-1177
858.937	-1844
859.025	-1019
859.113	-923
859.201	-1820
859.289	-770
859.377	-707
859.465	-1369
859.552	-643
859.640	-968
859.728	-1255
859.816	-1939
859.903	-794
859.991	-1462
860.079	-1535
860.166	-1752
860.254	-1400
860.342	-1848
860.429	-2500
860.517	-456
860.604	-1459
860.692	-1442
860.779	-1680
860.867	-1730
860.954	-2099
861.042	-1282
861.129	-1340
861.216	-1631
861.304	-1942
861.391	-1587
861.478	-1771
861.565	-863
861.653	-624
861.740	-1642
861.827	-804
861.914	-709
862.001	-1648
862.089	-1118
862.176	-1318
862.263	-1291
862.350	-1064
862.437	-990
862.524	-1541
862.611	-1148
862.698	-1088
862.785	-775
862.871	-1359
862.958	-1518
863.045	-1668
863.132	-1752
863.219	-1448
863.306	-1691
863.392	-146
863.479	-1129
863.566	-1793
863.652	-1069
863.739	-1861
863.826	-649
863.912	-1792
863.999	-1620
864.086	-1605
864.172	-1911
864.259	-1272
864.345	-1292
864.432	-1020
864.518	-960
864.604	-1246
864.691	-1634
864.777	-919
864.863	-874
864.950	-1011
865.036	-1463
865.122	-412
865.209	-519
865.295	-712
865.381	-547
865.467	-558
865.553	-1109
865.639	-1076
865.726	1046
865.812	3443
865.898	9659
865.984	13216
866.070	29403
866.156	27320
866.242	4411
866.328	-297
866.414	-1160
866.499	-852
866.585	-1098
866.671	-1839
866.757	-978
866.843	-1557
866.928	-1240
867.014	-1322
867.100	-1312
867.186	-1187
867.271	-1521
867.357	-927
867.442	-1067
867.528	-1227
867.614	-740
867.699	-886
867.785	1029
867.870	398
867.956	1018
868.041	-217
868.127	433
868.212	664
868.297	396
868.383	-699
868.468	-1147
868.553	-593
868.639	-710
868.724	-709
868.809	-1449
868.894	-1050
868.979	-781
869.065	-945
869.150	-1837
869.235	-1305
869.320	-1626
869.405	-1364
869.490	-1421
869.575	-1393
869.660	-638
869.745	-624
869.830	-1110
869.915	-1268
870.000	-815
870.085	-448
870.169	-761
870.254	-404
870.339	-1611
870.424	-1787
870.509	-1725
870.593	-1130
870.678	-796
870.763	-354
870.847	-864
870.932	-1434
871.016	-1107
871.101	-904
871.186	-1325
871.270	-867
871.355	-1408
871.439	-1415
871.523	-994
871.608	-1367
871.692	-1375
871.777	348
871.861	-531
871.945	-1420
872.030	-737
872.114	-1797
872.198	-1263
872.282	-1992
872.367	-1499
872.451	-1155
872.535	-1613
872.619	-1259
872.703	-1038
872.787	-1226
872.871	-685
872.955	-1980
873.039	-1763
873.123	-880
873.207	-860
873.291	-1120
873.375	-1115
873.459	-591
873.543	-1150
873.627	-1520
873.711	-1922
873.794	-693
873.878	-1645
873.962	-1686
874.045	-705
874.129	-1163
874.137	-1186
874.213	-1420
874.245	-1553
874.296	-1772
874.352	-1957
874.380	-2049
874.460	-1700
874.464	-1687
874.547	-1498
874.568	-1435
874.631	-1239
874.676	-1136
874.714	-1058
874.784	-837
874.798	-788
874.881	17
874.892	-63
874.965	-699
874.999	-1006
875.048	-1375
875.107	-1075
875.131	-964
875.215	-494
875.215	-494
875.298	-1167
875.323	-1277
875.381	-1461
875.430	-1027
875.465	-768
875.538	-1494
875.548	-1589
875.631	-1112
875.646	-1133
875.714	-1283
875.753	-1366
875.798	-1389
875.861	-1050
875.881	-979
875.964	-1636
875.968	-1627
876.047	-1251
876.076	-1212
876.130	-1265
876.183	-1089
876.213	-988
876.291	-666
876.296	-638
876.379	-551
876.398	-558
876.462	-700
876.506	-890
876.545	-998
876.613	-1355
876.628	-1426
876.711	-877
876.721	-805
876.794	-347
876.828	-584
876.877	-911
876.935	-738
876.960	-651
877.043	-712
877.043	-711
877.125	-408
877.150	-307
877.208	-219
877.258	-458
877.291	-496
877.365	108
877.374	172
877.456	-436
877.472	-446
877.539	-567
877.579	-453
877.622	-408
877.687	-339
877.704	-247
877.787	-610
877.794	-591
877.869	-626
877.901	-531
877.952	-324
878.008	-923
878.034	-1214
878.115	-750
878.117	-737
878.199	-1428
878.222	-1365
878.282	-1157
878.329	-634
878.364	-350
878.437	-159
878.447	-118
878.529	-1201
878.544	-1149
878.611	-855
878.651	-903
878.694	-996
878.758	-1019
878.776	-972
878.858	-700
878.865	-677
878.941	-661
878.972	-898
879.023	-1306
879.078	-1219
879.105	-1080
879.185	-738
879.187	-730
879.269	-682
879.292	-675
879.351	-824
879.399	-945
879.433	-1009
879.506	-803
879.516	-764
879.598	-1084
879.613	-1074
879.680	-1186
879.720	-790
879.762	-181
879.827	-516
879.844	-656
879.926	-1319
879.933	-1314
880.007	-988
880.040	-748
880.089	-596
880.147	-935
880.171	-974
880.253	-841
880.254	-844
880.335	-1223
880.360	-977
880.417	-243
880.467	-344
880.499	-519
880.574	-467
880.580	-436
880.662	-860
880.680	-769
880.744	-527
880.787	-415
880.825	-518
880.893	-1138
880.907	-1176
880.989	-934
881.000	-891
881.070	-468
881.106	-291
881.152	-271
881.213	-611
881.233	-764
881.315	-480
881.319	-517
881.396	-465
881.426	-270
881.478	-351
881.532	-635
881.559	-621
881.639	-425
881.641	-426
881.722	-496
881.745	-529
881.803	-189
881.852	-319
881.885	-671
881.958	-1042
881.966	-1042
882.047	-476
882.064	-505
882.129	-577
882.171	-530
882.210	-435
882.277	-191
882.291	-177
882.372	-523
882.383	-515
882.454	-620
882.489	-770
882.535	-828
882.596	-845
882.616	-902
882.697	-954
882.702	-992
882.778	-927
882.808	-680
882.859	-356
882.914	-453
882.940	-668
883.020	-768
883.021	-762
883.102	-609
883.127	-513
883.183	-325
883.233	-104
883.264	-121
883.339	-742
883.345	-754
883.426	-751
883.445	-565
883.507	-250
883.551	-500
883.587	-722
883.657	-1059
883.668	-1014
883.749	-474
883.763	-424
883.830	-778
883.869	-882
883.910	-646
883.975	-488
883.991	-544
884.072	-480
884.081	-517
884.152	-594
884.187	-508
884.233	-359
884.292	-350
884.314	-438
884.394	-685
884.398	-703
884.475	-423
884.504	-303
884.555	-249
884.610	-187
884.636	-211
884.716	-468
884.716	-462
884.797	93
884.821	187
884.877	-213
884.927	-633
884.958	-592
885.033	-333
885.038	-324
885.118	-289
885.139	-343
885.199	-346
885.244	-233
885.279	-290
885.350	-387
885.359	-394
885.439	-296
885.456	-365
885.520	-442
885.561	-494
885.600	-604
885.667	-575
885.680	-534
885.760	-490
885.773	-461
885.840	-167
885.878	-83
885.920	-45
885.984	-25
886.000	-16
886.080	-94
886.089	-73
886.160	-260
886.195	-456
886.240	-462
886.300	-358
886.320	-316
886.400	-451
886.406	-440
886.480	-423
886.511	-532
886.560	-516
886.616	-477
886.640	-441
886.720	-291
886.722	-287
886.800	163
886.827	190
886.879	79
886.932	55
886.959	228
887.038	758
887.039	761
887.119	286
887.143	210
887.198	48
887.248	-221
887.278	-207
887.354	-274
887.358	-274
887.437	-221
887.459	-210
887.517	150
887.564	398
887.596	406
887.669	302
887.676	281
887.755	-0
887.774	-46
887.835	266
887.880	440
887.914	289
887.985	-38
887.994	-48
888.073	-228
888.090	-249
888.153	-148
888.195	-123
888.232	-280
888.300	-538
888.311	-507
888.391	-287
888.405	-273
888.470	202
888.510	509
888.549	382
888.615	209
888.628	210
888.708	141
888.720	120
888.787	731
888.825	1085
888.866	627
888.930	-156
888.945	-134
889.024	46
889.035	58
889.103	199
889.140	259
889.182	423
889.245	689
889.261	713
889.340	793
889.349	795
889.419	802
889.454	807
889.498	431
889.559	-102
889.577	-52
889.656	175
889.664	196
889.735	250
889.768	278
889.814	464
889.873	705
889.978	229
890.083	-108
890.187	-780
890.292	146
890.397	-317
890.501	-566
890.606	156
890.710	735
890.815	-58
890.919	347
891.024	254
891.128	524
891.233	555
891.337	-441
891.442	272
891.546	-319
891.650	158
891.755	684
891.859	818
891.963	276
892.068	661
892.172	21
892.276	396
892.380	546
892.484	474
892.589	1374
892.693	1334
892.797	39
892.901	449
893.005	413
893.109	99
893.213	1610
893.317	502
893.421	413
893.525	-383
893.629	668
893.733	387
893.837	553
893.941	104
894.045	661
894.148	560
894.252	-323
894.356	502
894.460	1452
894.564	493
894.667	12
894.771	270
894.875	79
894.978	1395
895.082	-714
895.186	832
895.289	122
895.393	113
895.496	276
895.600	-104
895.703	-693
895.807	164
895.910	641
896.014	733
896.117	-337
896.221	1331
896.324	-295
896.427	508
896.531	-520
896.634	230
896.737	393
896.840	109
896.944	-299
897.047	565
897.150	549
897.253	1186
897.356	309
897.460	362
897.563	-98
897.666	202
897.769	-389
897.872	843
897.975	51
898.078	-113
898.181	216
898.284	87
898.387	-38
898.490	355
898.593	773
898.695	-250
898.798	-320
898.901	26
899.004	1248
899.107	658
899.209	420
899.312	409
899.415	757
899.518	468
899.620	147
899.723	196
899.826	225
899.928	328
900.031	-520
900.133	320
900.236	-288
900.338	307
900.441	-200
900.543	555
900.646	-90
900.748	128
900.851	879
900.953	-159
901.055	574
901.158	146
901.260	-99
901.362	581
901.465	571
901.567	1188
901.669	-92
901.771	549
901.873	647
901.976	610
902.078	52
902.180	258
902.282	113
902.384	-976
902.486	247
902.588	766
902.690	397
902.792	978
902.894	324
902.996	271
903.098	451
903.200	14
903.302	1151
903.404	1362
903.505	-39
903.607	480
903.709	624
903.811	20
903.913	188
904.014	-133
904.116	568
904.218	275
904.319	1184
904.421	1192
904.523	982
904.624	1611
904.726	516
904.827	794
904.929	958
905.030	-230
905.132	189
905.233	33
905.335	254
905.436	169
905.537	1093
905.639	452
905.740	858
905.841	406
905.943	1355
906.044	290
906.145	1473
906.247	360
906.348	647
906.449	630
906.550	72
906.651	259
906.752	176
906.854	280
906.955	377
907.056	-705
907.157	-96
907.258	-245
907.359	292
907.460	274
907.561	467
907.662	-143
907.762	-133
907.863	-423
907.964	-202
908.065	728
908.166	-294
908.267	-429
908.367	-536
908.468	-134
908.569	606
908.670	628
908.770	323
908.871	667
908.971	631
909.072	413
909.173	291
909.273	-10
909.374	193
909.474	229
909.575	700
909.675	153
909.776	-393
909.876	-204
909.977	-242
910.077	203
910.177	-94
910.278	202
910.378	244
910.478	456
910.579	57
910.679	19
910.779	276
910.879	1039
910.980	-50
911.080	-568
911.180	-88
911.280	173
911.380	-375
911.480	-704
911.580	385
911.680	-415
911.780	79
911.880	197
911.980	23
912.080	55
912.180	-424
912.280	-63
912.380	-215
912.480	467
912.580	-344
912.679	-37
912.779	168
912.879	108
912.979	-157
913.078	-925
913.178	-164
913.278	-173
913.377	-796
913.477	-518
913.577	300
913.676	23
913.776	-215
913.875	-177
913.975	766
914.074	495
914.174	723
914.273	-597
914.373	376
914.472	-743
914.572	761
914.671	100
914.770	722
914.870	-201
914.969	-490
915.068	-255
915.167	-331
915.267	-550
915.366	-575
915.465	-31
915.564	-2
915.663	-787
915.763	-198
915.862	42
915.961	466
916.060	-806
916.159	144
916.258	-575
916.357	-795
916.456	-154
916.555	218
916.654	121
916.752	-449
916.851	-427
916.950	-238
917.049	103
917.148	53
917.247	68
917.345	-113
917.444	-373
917.543	-187
917.642	-139
917.740	-11
917.839	-55
917.937	708
918.036	77
918.135	-366
918.233	-401
918.332	261
918.430	-184
918.529	180
918.627	-293
918.726	-244
918.824	-281
918.923	-788
919.021	-348
919.119	714
919.218	-299
919.316	201
919.414	-289
919.512	-43
919.611	717
919.709	-372
919.807	191
919.905	793
920.003	317
920.102	-510
920.200	-437
920.298	80
920.396	-174
920.494	-171
920.592	673
920.690	192
920.788	-31
920.886	489
920.984	-106
921.082	-270
921.180	-247
921.277	166
921.375	-678
921.473	26
921.571	-236
921.669	111
921.766	-717
921.864	326
921.962	295
922.060	-303
922.157	126
922.255	-202
922.352	-375
922.450	586
922.548	-463
922.645	-133
922.743	138
922.840	-281
922.938	741
923.035	637
923.133	-15
923.230	706
923.327	499
923.425	-113
923.522	791
923.619	-232
923.717	691
923.814	494
923.911	442
924.008	673
924.106	-291
924.203	-225
924.300	-277
924.397	-888
924.494	205
924.591	-463
924.688	244
924.786	21
924.883	85
924.979	403
925.077	-587
925.173	852
925.270	219
925.367	-308
925.464	1411
925.561	415
925.658	-316
925.755	152
925.852	-239
925.948	-280
926.045	1293
926.142	1647
926.239	1672
926.335	1578
926.432	1419
926.529	1906
926.625	2581
926.722	1451
926.818	1515
926.915	45
927.011	645
927.108	1102
927.204	33
927.301	-118
927.397	-205
927.494	-146
927.590	454
927.687	607
927.783	141
927.879	594
927.976	183
928.072	-617
928.168	-420
928.264	241
928.361	-447
928.457	288
928.553	243
928.649	263
928.745	236
928.841	-743
928.937	128
929.033	-323
929.129	197
929.225	-412
929.321	1269
929.417	-824
929.513	-210
929.609	816
929.705	-885
929.801	-23
929.897	-1086
929.993	-13
930.089	-97
930.184	273
930.280	-125
930.376	-491
930.471	63
930.567	-307
930.663	735
930.758	163
930.854	-427
930.950	-393
931.045	-490
931.141	314
931.236	261
931.332	219
931.427	-867
931.523	44
931.618	-59
931.714	-870
931.809	-402
931.905	-280
932.000	349
932.095	-353
932.191	-251
932.286	432
932.381	23
932.476	-337
932.572	403
932.667	-989
932.762	229
932.857	-759
932.952	-37
933.047	243
933.142	-466
933.237	-832
933.332	-371
933.427	334
933.522	104
933.617	-476
933.712	-129
933.807	70
933.902	-165
933.997	-370
934.092	-538
934.187	-506
934.282	-970
934.376	-270
934.471	967
934.566	-843
934.661	-210
934.755	-13
934.850	-425
934.945	-21
935.039	-433
935.134	197
935.228	404
935.323	-350
935.417	15
935.512	-151
935.606	-595
935.701	-934
935.795	-544
935.890	-493
935.984	-518
936.079	-200
936.173	-397
936.267	54
936.362	-199
936.456	545
936.550	-798
936.644	-404
936.738	375
936.833	-1111
936.927	-263
937.021	-386
937.115	-193
937.209	-1109
937.303	254
937.397	-56
937.491	-645
937.585	-220
937.679	-640
937.773	-612
937.867	60
937.961	-307
938.055	-481
938.149	89
938.243	669
938.337	161
938.430	376
938.524	1085
938.618	1881
938.712	2032
938.805	-35
938.899	-180
938.993	288
939.086	568
939.180	1875
939.274	4527
939.367	1569
939.461	310
939.554	431
939.648	-341
939.741	533
939.835	-1048
939.928	-165
940.022	550
940.115	-418
940.208	-174
940.302	39
940.395	-141
940.488	-1736
940.582	-459
940.675	-673
940.768	-231
940.861	-375
940.954	-276
941.048	-1013
941.141	-476
941.234	-34
941.327	706
941.420	872
941.513	564
941.606	-611
941.699	-299
941.792	-8
941.885	-738
941.978	-191
942.071	116
942.164	-993
942.257	-912
942.349	-370
942.442	464
942.535	-627
942.628	-579
942.721	-83
942.813	-2116
942.906	-299
942.999	-212
943.091	-969
943.184	-382
943.277	-1065
943.369	512
943.462	-505
943.554	-253
943.647	-676
943.739	-418
943.832	-113
943.924	-1116
944.017	-645
944.109	-891
944.201	-154
944.294	-606
944.386	-305
944.478	-694
944.571	-444
944.663	-78
944.755	-358
944.847	-1160
944.940	-687
945.032	-578
945.124	-650
945.216	318
945.308	-2
945.400	-464
945.492	-30
945.584	83
945.676	-435
945.768	254
945.860	227
945.952	465
946.044	1078
946.136	-551
946.228	-1227
946.320	-60
946.412	-429
946.503	19
946.595	531
946.687	-178
946.779	-605
946.870	-891
946.962	-594
947.054	-61
947.145	-183
947.237	-206
947.329	-521
947.420	455
947.512	-201
947.603	-1312
947.695	-682
947.786	-167
947.878	-945
947.969	-295
948.061	-1589
948.152	-811
948.243	-101
948.335	-477
948.426	-919
948.517	-425
948.609	-144
948.700	-1004
948.791	-897
948.882	287
948.973	-511
949.065	-87
949.156	-351
949.247	-855
949.338	109
949.429	-1247
949.520	-150
949.611	-1252
949.702	-718
949.793	-1107
949.884	-668
949.975	38
950.066	-987
950.157	161
950.247	-261
950.338	-803
950.429	-97
950.520	-285
950.611	-1096
950.701	-712
950.792	-813
950.883	-160
950.973	-826
951.064	-329
951.155	-673
951.245	-571
951.336	-797
951.427	-615
951.517	-108
951.608	-484
951.698	-924
951.788	-922
951.879	-379
951.969	-605
952.060	-225
952.150	-494
952.240	-116
952.331	-1243
952.421	-239
952.511	-1309
952.602	-452
952.692	-1294
952.782	-203
952.872	-875
952.962	-737
953.052	-731
953.143	-1344
953.233	-124
953.323	-361
953.413	-1025
953.503	280
953.593	-902
953.683	-1540
953.773	-1525
953.863	-518
953.953	-974
954.042	-304
954.132	-926
954.222	106
954.312	-1013
954.402	-810
954.492	-72
954.581	-514
954.671	-938
954.761	-743
954.850	-310
954.940	-516
955.030	-841
955.119	-296
955.209	-536
955.298	-1699
955.388	-664
955.477	-149
955.567	-1064
955.656	660
955.746	-234
955.835	-1077
955.925	-707
956.014	-430
956.103	-801
956.193	-195
956.282	198
956.371	-181
956.461	-695
956.550	-876
956.639	-637
956.728	-1494
956.817	-1407
956.906	-1091
956.995	-207
957.085	-353
957.174	-809
957.263	-895
957.352	-1503
957.441	-364
957.530	14
957.619	-497
957.708	-324
957.796	-1156
957.885	-330
957.974	-631
958.063	-941
958.152	-671
958.241	-857
958.329	-1265
958.418	-253
958.507	-1417
958.596	477
958.684	-1344
958.773	-242
958.861	-793
958.950	-472
959.039	437
959.127	-439
959.216	265
959.304	-837
959.393	-874
959.481	-288
959.570	-673
959.658	-251
959.746	-819
959.835	-178
959.923	-1104
960.011	-580
960.100	364
960.188	-833
960.276	-331
960.365	-1413
960.453	-377
960.541	-1227
960.629	-642
960.717	-1132
960.805	-1061
960.893	-539
960.981	-1282
961.069	-661
961.158	-724
961.245	255
961.333	-372
961.421	-686
961.509	117
961.597	196
961.685	-186
961.773	-624
961.861	-912
961.949	-128
962.036	-1203
962.124	-330
962.212	-768
962.299	-858
962.387	-1049
962.475	-863
962.562	-1714
962.650	-880
962.738	-227
962.825	-1168
962.913	-591
963.000	-61
963.088	-870
963.175	-886
963.263	376
963.350	-833
963.438	-1033
963.525	-403
963.612	173
963.700	-1372
963.787	-853
963.874	-961
963.962	-276
964.049	-551
964.136	-1023
964.223	-1508
964.310	-760
964.398	-628
964.485	-1521
964.572	-348
964.659	-817
964.746	-1339
964.833	-1204
964.920	-491
965.007	-411
965.094	-514
965.181	-1594
965.268	-576
965.355	-1400
965.441	-1792
965.528	-1059
965.615	-250
965.702	-1037
965.789	-1757
965.875	-259
965.962	-389
966.049	-1303
966.136	-185
966.222	-934
966.309	-560
966.395	-1194
966.482	-1
966.569	-1030
966.655	-369
966.742	-887
966.828	-563
966.915	-1139
967.001	-493
967.087	-812
967.174	-874
967.260	-735
967.347	-1661
967.433	90
967.519	-525
967.605	-712
967.692	-789
967.778	-86
967.864	-65
967.950	-923
968.036	-1539
968.123	-330
968.209	-802
968.295	-1644
968.381	204
968.467	-893
968.553	-1686
968.639	39
968.725	-1256
968.811	-327
968.897	-485
968.983	-1026
969.069	-1714
969.154	679
969.240	54
969.326	-1731
969.412	-1071
969.497	-166
969.583	-126
969.669	-338
969.755	-736
969.840	-1401
969.926	-660
970.012	-476
970.097	-468
970.183	-1078
970.268	-987
970.354	-562
970.439	-563
970.525	-680
970.610	-1512
970.696	432
970.781	-423
970.866	-1175
970.952	-488
971.037	-1177
971.122	-533
971.208	-730
971.293	-1425
971.378	-2199
971.463	-1164
971.549	-750
971.634	-1323
971.719	-1428
971.804	-501
971.889	-149
971.974	-894
972.059	-1545
972.144	-96
972.229	-291
972.314	-1500
972.399	-656
972.484	-559
972.569	-38
972.654	-1596
972.739	40
972.824	-1621
972.908	-815
972.993	-747
973.078	-1089
973.163	-669
973.247	-863
973.332	-1251
973.417	-38
973.501	-607
973.586	-599
973.671	-1252
973.755	-1435
973.840	-859
973.924	-29
974.009	-1102
974.093	-1638
974.178	62
974.262	-267
974.346	-1877
974.431	-243
974.515	-1417
974.600	-306
974.684	-1204
974.768	-510
974.852	722
974.937	-1767
975.021	-151
975.105	-1323
975.189	-359
975.273	-418
975.358	-1139
975.442	-2297
975.526	-831
975.610	-1859
975.694	-1241
975.778	228
975.862	-378
975.946	-2398
976.030	104
976.114	-1298
976.198	-266
976.281	-1344
976.365	-1165
976.449	-1394
976.533	-582
976.617	-1040
976.700	-1265
976.784	-1382
976.868	-1834
976.951	-1356
977.035	-767
977.119	-1184
977.202	-461
977.286	-245
977.369	-724
977.453	217
977.536	-1269
977.620	-1344
977.703	-1184
977.787	-982
977.870	15
977.953	-525
978.037	-1633
978.120	-1033
978.203	-1488
978.287	-1101
978.370	-1021
978.453	-1398
978.536	-1314
978.620	-215
978.703	-1021
978.786	-780
978.869	-632
978.952	-1647
979.035	72
979.118	-887
979.201	-1511
979.284	-159
979.367	-1569
979.450	-751
979.533	-1830
979.616	-1586
979.699	-1076
979.782	-844
979.865	-1282
979.948	-1045
980.030	-1036
980.113	-1241
980.196	-1373
980.279	-573
980.361	-1466
980.444	-973
980.526	-752
980.609	-609
980.692	-604
980.774	-359
980.857	-2127
980.939	32
981.022	-1225
981.104	-1042
981.187	-1433
981.269	-179
981.352	-1106
981.434	-1126
981.516	-1208
981.599	-191
981.681	-171
981.763	-1038
981.846	-849
981.928	-1260
982.010	-1225
982.092	-1110
982.174	-194
982.256	-1729
982.339	-1120
982.421	-1192
982.503	-1540
982.585	-1710
982.667	-1043
982.749	-1057
982.831	-571
982.913	-1684
982.995	-614
983.077	-1727
983.158	-611
983.240	-2060
983.322	-428
983.404	-860
983.486	-592
983.568	-1203
983.649	-1971
983.731	-998
983.813	-982
983.894	-1544
983.976	-1439
984.058	-1605
984.139	-701
984.221	-1879
984.302	-622
984.384	-1259
984.465	-1172
984.547	-708
984.628	-2124
984.710	-516
984.791	-602
984.872	-1565
984.954	-1524
985.035	-1513
985.116	-1882
985.198	-1784
985.279	-275
985.360	-1348
985.441	-1256
985.522	-583
985.604	-1976
985.685	-3106
985.766	-364
985.847	190
985.928	-1954
986.009	-691
986.090	-1588
986.171	-1001
986.252	-1366
986.333	-345
986.414	-798
986.495	-1349
986.576	-1293
986.656	-2142
986.737	-1353
986.818	-976
986.899	-1876
986.980	-1335
987.060	-589
987.141	-1465
987.222	-957
987.302	-997
987.383	-751
987.464	-1617
987.544	-1312
987.625	-975
987.705	-167
987.786	-944
987.866	-1785
987.947	-1190
988.027	-874
988.108	-1628
988.188	-474
988.268	-2000
988.349	-691
988.429	-1545
988.509	-813
988.589	-2136
988.670	-2065
988.750	-1061
988.830	-1358
988.910	-1544
988.990	-1865
989.070	-1569
989.151	-1013
989.231	-1779
989.311	-1198
989.391	-1411
989.471	-1719
989.551	-1257
989.631	-1827
989.711	-1280
989.791	-1877
989.870	-2158
989.950	-851
990.030	-1881
990.110	-1386
990.190	-1554
990.269	-1842
990.349	-1622
990.429	-491
990.509	-671
990.588	-1347
990.668	-1522
990.747	-1427
990.827	-1518
990.907	-1270
990.986	-1405
991.066	-1586
991.145	-1573
991.225	-411
991.304	-796
991.383	-1415
991.463	-1374
991.542	-1325
991.622	-1328
991.701	-2242
991.780	-1495
991.859	-1719
991.939	-898
992.018	-1236
992.097	-1301
992.176	-678
992.256	-1746
992.335	-1914
992.414	-1520
992.493	-939
992.572	-1882
992.651	-1061
992.730	-1681
992.809	-915
992.888	-2016
992.967	-2053
993.046	-1277
993.125	-1827
993.203	-1322
993.282	-2118
993.361	-1656
993.440	-1613
993.519	-1777
993.597	-1774
993.676	-1459
993.755	-1168
993.834	-1243
993.912	-2689
993.991	-1003
994.069	-1998
994.148	-1463
994.226	-1630
994.305	-1441
994.384	-1916
994.462	-1191
994.540	-2010
994.619	-1202
994.697	-767
994.776	-1717
994.854	-738
994.932	-1160
995.011	-1098
995.089	-1362
995.167	-1122
995.245	-1388
995.324	-1553
995.402	-845
995.480	-2108
995.558	-1290
995.636	-2921
995.714	-1724
995.792	-542
995.870	-2043
995.948	-1558
996.026	-1640
996.104	-2648
996.182	-750
996.260	-2132
996.338	-915
996.416	-2453
996.494	-1292
996.572	-657
996.649	-2058
996.727	-2256
996.805	-861
996.883	-1925
996.960	-1651
997.038	-1646
997.116	-1556
997.193	-2069
997.271	-1374
997.348	-1941
997.426	-2005
997.504	-2229
997.581	-559
997.658	-1115
997.736	-2137
997.813	-2192
997.891	-643
997.968	-1487
998.046	-1742
998.123	-1804
998.200	-963
998.277	-2199
998.355	-1426
998.432	-1577
998.509	-1299
998.586	-1150
998.663	-1416
998.741	-1658
998.818	-1748
998.895	-2097
998.972	-1195
999.049	-1438
999.126	-2061
999.203	-1308
999.280	-1853
999.357	-1927
999.434	-1827
999.511	-1712
999.587	-1383
999.664	-1863
999.741	-1597
999.818	-1748
999.895	-1811
999.971	-1986
1000.048	-1869
1000.125	-971
1000.202	-2221
1000.278	-2071
1000.355	-1450
1000.431	-2240
1000.508	-1679
1000.584	-1448
1000.661	-2024
1000.738	-2061
1000.814	-1717
1000.890	-884
1000.967	-1578
1001.043	-1691
1001.120	-2090
1001.196	-1692
1001.272	-2823
1001.349	-889
1001.425	-1614
1001.501	-896
1001.577	-2567
1001.654	-1878
1001.730	-2182
1001.806	-1327
1001.882	-2974
1001.958	-1063
1002.034	-1688
1002.110	-1570
1002.186	-1603
1002.262	-1941
1002.338	-2179
1002.414	-1923
1002.490	-1620
1002.566	-2347
1002.642	-2678
1002.718	-1377
1002.794	-1965
1002.870	-2325
1002.945	-1875
1003.021	-1630
1003.097	-1927
1003.173	-2324
1003.248	-1857
1003.324	-1719
1003.400	-1527
1003.475	-2641
1003.551	-1741
1003.626	-1582
1003.702	-2056
1003.777	-1865
1003.853	-2003
1003.928	-1568
1004.004	-2132
1004.079	-925
1004.155	-1538
1004.230	-2329
1004.305	-1694
1004.381	-2084
1004.456	-2101
1004.531	-1904
1004.607	-1895
1004.682	-1694
1004.757	-2311
1004.832	-1978
1004.907	-2282
1004.982	-1691
1005.057	-1712
1005.133	-1453
1005.208	-1847
1005.283	-2284
1005.358	-1818
1005.433	-2361
1005.508	-2218
1005.583	-2847
1005.657	-1484
1005.732	-1885
1005.807	-1333
1005.882	-2086
1005.957	-1574
1006.032	-2093
1006.106	-1357
1006.181	-2665
1006.256	-2004
1006.331	-1636
1006.405	-2162
1006.480	-1748
1006.554	-2143
1006.629	-2249
1006.704	-2589
1006.778	-2356
1006.853	-1773
1006.927	-1895
1007.002	-1856
1007.076	-2397
1007.150	-1885
1007.225	-1694
1007.299	-2176
1007.373	-2498
1007.448	-1655
1007.522	-1419
1007.596	-1936
1007.671	-2281
1007.745	-1906
1007.819	-2832
1007.893	-1948
1007.967	-1366
1008.041	-3046
1008.115	-1529
1008.190	-1726
1008.264	-1546
1008.338	-2942
1008.412	-2136
1008.486	-1971
1008.560	-2805
1008.633	-1975
1008.707	-1817
1008.781	-1411
1008.855	-2123
1008.929	-1232
1009.003	-2680
1009.076	-1718
1009.150	-2442
1009.224	-1661
1009.298	-2217
1009.371	-2356
1009.445	-1771
1009.519	-2580
1009.592	-2639
1009.666	-2089
1009.739	-1892
1009.813	-2211
1009.886	-2357
1009.960	-3772
1010.033	-1725
1010.107	-1746
1010.180	-2922
1010.253	-1134
1010.327	-2219
1010.400	-1813
1010.473	-2419
1010.547	-710
1010.620	-1872
1010.693	-1604
1010.766	-2339
1010.840	-1574
1010.913	-1948
1010.986	-1493
1011.059	-1899
1011.132	-1632
1011.205	-534
1011.278	-2175
1011.351	-1449
1011.424	-1349
1011.497	-1635
1011.570	-1673
1011.643	-2019
1011.716	-2408
1011.789	-2639
1011.862	-1836
1011.934	-1964
1012.007	-3086
1012.080	-1148
1012.153	-2030
1012.225	-1582
1012.298	-2032
1012.371	-2414
1012.443	-1411
1012.516	-2353
1012.588	-2735
1012.661	-1776
1012.733	-1821
1012.806	-970
1012.879	-2645
1012.951	-1724
1013.023	-1730
1013.096	-2519
1013.168	-2429
1013.241	-949
1013.313	-1808
1013.385	-2557
1013.458	-2048
1013.530	-2301
1013.602	-2810
1013.674	-1949
1013.746	-2059
1013.819	-2503
1013.891	-1719
1013.963	-2485
1014.035	-1920
1014.107	-1182
1014.179	-1706
1014.251	-1878
1014.323	-1917
1014.395	-2096
1014.467	-2912
1014.539	-2526
1014.611	-2103
1014.683	-1489
1014.754	-1704
1014.826	-2506
1014.898	-1850
1014.970	-2593
1015.042	-1864
1015.113	-1656
1015.185	-2072
1015.257	-3060
1015.328	-1437
1015.400	-2448
1015.471	-1221
1015.543	-2835
1015.615	-2466
1015.686	-2014
1015.757	-1754
1015.829	-2487
1015.901	-2412
1015.972	-1589
1016.043	-2017
1016.115	-2112
1016.186	-1628
1016.257	-2438
1016.328	-2047
1016.400	-586
1016.471	-2392
1016.542	-2174
1016.613	-1261
1016.685	-2633
1016.756	-1314
1016.827	-2551
1016.898	-1378
1016.969	-1743
1017.040	-2310
1017.111	-2093
1017.182	-2309
1017.253	-1808
1017.324	-2124
1017.395	-1848
1017.466	-2333
1017.537	-2632
1017.608	-2541
1017.678	-1761
1017.749	-1704
1017.820	-1740
1017.891	-2996
1017.961	-2003
1018.032	-2143
1018.103	-2160
1018.173	-834
1018.244	-2396
1018.315	-2779
1018.385	-1387
1018.456	-1264
1018.526	-1844
1018.597	-1792
1018.667	-1456
1018.738	-3047
1018.808	-2057
1018.878	-1606
1018.949	-1716
1019.019	-2812
1019.089	-1925
1019.160	-2426
1019.230	-2899
1019.300	-1837
1019.371	-2252
1019.441	-838
1019.511	-2268
1019.581	-1592
1019.651	-2159
1019.721	-1732
1019.791	-2234
1019.861	-1754
1019.931	-1778
1020.001	-2325
1020.071	-2228
1020.141	-2412
1020.211	-2433
1020.281	-2274
1020.351	-2316
1020.421	-2039
1020.491	-1682
1020.560	-2670
1020.630	-2212
1020.700	-2631
1020.770	-2256
1020.839	-2163
1020.909	-1933
1020.979	-2946
1021.048	-2158
1021.118	-2119
1021.187	-1552
1021.257	-2119
1021.326	-1735
1021.396	-2234
1021.465	-1635
1021.535	-2406
1021.604	-3179
1021.674	-2165
1021.743	-2109
1021.812	-2427
1021.882	-1741
1021.951	-2095
1022.020	-1765
1022.089	-1985
1022.159	-2480
1022.228	-2158
1022.297	-3059
1022.366	-2010
1022.435	-1851
1022.504	-2185
1022.573	-2016
1022.642	-1703
1022.711	-1691
1022.781	-2202
1022.849	-1687
1022.918	-2845
1022.987	-2151
1023.056	-2470
1023.125	-2040
1023.194	-2279
1023.263	-2184
1023.331	-1607
1023.400	-1669
1023.469	-1843
1023.538	-1885
1023.606	-1657
1023.675	-1758
1023.744	-2456
1023.812	-2113
1023.881	-1881
1023.949	-1858
1024.018	-2345
1024.086	-2153
1024.155	-1503
1024.223	-3049
1024.292	-2049
1024.360	-1663
1024.429	-2253
1024.497	-2216
1024.565	-1514
1024.634	-2218
1024.702	-2475
1024.770	-1185
1024.838	-1894
1024.907	-2405
1024.975	-1710
1025.043	-1547
1025.111	-2519
1025.179	-1496
1025.247	-2250
1025.315	-1913
1025.383	-2496
1025.451	-1591
1025.519	-1903
1025.587	-2349
1025.655	-1674
1025.723	-2903
1025.791	-1907
1025.859	-1683
1025.927	-1465
1025.995	-1940
1026.062	-2114
1026.130	-2038
1026.198	-2216
1026.266	-1944
1026.333	-1901
1026.401	-1893
1026.469	-2046
1026.536	-1568
1026.604	-1961
1026.671	-2369
1026.739	-1588
1026.806	-1689
1026.874	-2361
1026.941	-2184
1027.009	-2173
1027.076	-2190
1027.144	-1696
1027.211	-1539
1027.278	-2597
1027.345	-1670
1027.413	-1803
1027.480	-2624
1027.547	-2358
1027.614	-1400
1027.682	-1749
1027.749	-2131
1027.816	-2586
1027.883	-1942
1027.950	-1315
1028.017	-2584
1028.084	-1345
1028.151	-2732
1028.218	-2101
1028.285	-1779
1028.352	-1803
1028.419	-2585
1028.486	-2255
1028.553	-1828
1028.619	-2245
1028.686	-2319
1028.753	-1142
1028.820	-2603
1028.886	-2401
1028.953	-1884
1029.020	-1949
1029.086	-2128
1029.153	-2114
1029.220	-2184
1029.286	-1913
1029.353	-1888
1029.419	-1721
1029.486	-2225
1029.552	-2112
1029.619	-1820
1029.685	-1386
1029.751	-1901
1029.818	-1518
1029.884	-2109
1029.951	-1145
1030.017	-2676
1030.083	-1271
1030.149	-1957
1030.216	-2413
1030.282	-2089
1030.348	-2005
1030.414	-2053
1030.480	-2317
1030.546	-1772
1030.612	-881
1030.678	-2382
1030.744	-2210
1030.810	-2369
1030.876	-2142
1030.942	-2041
1031.008	-2831
1031.074	-2730
1031.140	-1934
1031.206	-2280
1031.272	-1557
1031.337	-2000
1031.403	-1403
1031.469	-2385
1031.534	-2639
1031.600	-1809
1031.666	-2162
1031.731	-2179
1031.797	-1337
1031.863	-2707
1031.928	-2165
1031.994	-1910
1032.059	-1601
1032.125	-2604
1032.190	-2523
1032.256	-1579
1032.321	-2501
1032.386	-1314
1032.452	-2011
1032.517	-2089
1032.582	-2192
1032.647	-2076
1032.713	-2454
1032.778	-1857
1032.843	-2806
1032.908	-1583
1032.974	-1772
1033.039	-1789
1033.104	-2494
1033.169	-2273
1033.234	-1891
1033.299	-1494
1033.364	-1915
1033.429	-2290
1033.494	-1125
1033.559	-2654
1033.624	-1626
1033.688	-1725
1033.753	-2900
1033.818	-1384
1033.883	-1991
1033.948	-1717
1034.013	-1025
1034.077	-2092
1034.142	-1204
1034.207	-1368
1034.271	-1419
1034.336	-1980
1034.400	-1710
1034.465	-2002
1034.530	-2160
1034.594	-1682
1034.658	-2337
1034.723	-2577
1034.787	-2227
1034.852	-2372
1034.916	-2230
1034.981	-2530
1035.045	-2365
1035.109	-2061
1035.173	-1593
1035.238	-2189
1035.302	-2945
1035.366	-2142
1035.430	-2212
1035.495	-2444
1035.559	-1762
1035.623	-1654
1035.687	-2582
1035.751	-1907
1035.815	-1573
1035.879	-2018
1035.943	-1791
1036.007	-1989
1036.071	-1964
1036.135	-2354
1036.198	-1414
1036.262	-2288
1036.326	-1972
1036.390	-2026
1036.454	-2730
1036.517	-2166
1036.581	-2004
1036.645	-2451
1036.709	-1751
1036.772	-1846
1036.836	-2624
1036.900	-1864
1036.963	-1801
1037.026	-2227
1037.090	-2943
1037.154	-1780
1037.217	-1632
1037.280	-2843
1037.344	-2675
1037.407	-2791
1037.471	-1337
1037.534	-2674
1037.597	-2188
1037.661	-2353
1037.724	-2635
1037.787	-2541
1037.850	-1599
1037.913	-1907
1037.977	-1729
1038.040	-2652
1038.103	-2056
1038.166	-2159
1038.229	-2772
1038.292	-2576
1038.355	-1868
1038.418	-1944
1038.481	-1068
1038.544	-2604
1038.607	-1786
1038.670	-1831
1038.732	-2760
1038.795	-2872
1038.858	-2249
1038.921	-1758
1038.984	-1938
1039.046	-2087
1039.109	-2178
1039.172	-2260
1039.234	-1665
1039.297	-2765
1039.360	-2059
1039.422	-2082
1039.485	-2716
1039.547	-2035
1039.610	-1981
1039.672	-2117
1039.734	-2072
1039.797	-2785
1039.859	-2229
1039.922	-2927
1039.984	-2535
1040.046	-2376
1040.109	-1935
1040.171	-2107
1040.233	-3227
1040.295	-1895
1040.358	-2741
1040.420	-2969
1040.482	-3209
1040.544	-2287
1040.606	-1717
1040.668	-2592
1040.730	-2454
1040.792	-1826
1040.854	-2290
1040.916	-1517
1040.978	-3024
1041.040	-1434
1041.102	-2870
1041.164	-1939
1041.225	-2485
1041.287	-2670
1041.349	-2519
1041.411	-2206
1041.472	-2363
1041.534	-2715
1041.596	-1622
1041.657	-1749
1041.719	-1925
1041.781	-2657
1041.842	-1891
1041.904	-1791
1041.965	-2489
1042.027	-2656
1042.088	-2126
1042.150	-2170
1042.211	-2103
1042.272	-1282
1042.334	-2471
1042.395	-1975
1042.456	-2734
1042.518	-2274
1042.579	-1916
1042.640	-2133
1042.701	-2221
1042.763	-2180
1042.824	-3076
1042.885	-2711
1042.946	-2007
1043.007	-1893
1043.068	-2109
1043.129	-2536
1043.190	-1939
1043.251	-2709
1043.312	-2269
1043.373	-1844
1043.434	-1654
1043.495	-3038
1043.556	-1596
1043.616	-2567
1043.677	-2590
1043.738	-1919
1043.799	-2439
1043.859	-2200
1043.920	-2304
1043.981	-2604
1044.041	-2442
1044.102	-2367
1044.162	-2136
1044.223	-1949
1044.284	-2126
1044.344	-1422
1044.405	-2589
1044.465	-2028
1044.525	-1901
1044.586	-2315
1044.646	-1298
1044.707	-1704
1044.767	-2082
1044.827	-2338
1044.887	-2721
1044.948	-2268
1045.008	-2095
1045.068	-2032
1045.128	-1885
1045.188	-2497
1045.249	-1452
1045.309	-2646
1045.369	-967
1045.429	-2240
1045.489	-1961
1045.549	-1978
1045.609	-2084
1045.669	-1805
1045.729	-2349
1045.789	-1827
1045.848	-1552
1045.908	-1329
1045.968	-2169
1046.028	-2036
1046.088	-2534
1046.147	-2055
1046.207	-2140
1046.267	-1837
1046.326	-1836
1046.386	-1994
1046.446	-1588
1046.505	-1543
1046.565	-1243
1046.624	-980
1046.684	-793
1046.743	-1347
1046.803	-604
1046.862	-340
1046.922	0
