'Start Wavelength	183.907
'End Wavelength	1046.922
'Gate Delay	5.000
'Gate Width (ms)	1.050
'Laser Output Level	0.000
'X Position	0.000
'Y Position	0.000
'Z Position	0.000
'Grid Point Number	1.000
'Shot Number	100.000
183.907	-710.000
183.977	490.000
184.047	217
184.116	527
184.186	-104
184.256	313
184.325	-443
184.395	-234
184.465	174
184.534	369
184.604	-1063
184.674	86
184.743	212
184.813	91
184.883	-64
184.952	960
185.022	-308
185.092	429
185.161	-165
185.231	390
185.301	-371
185.370	1036
185.440	-25
185.509	592
185.579	29
185.649	882
185.718	240
185.788	449
185.857	118
185.927	335
185.996	-1
186.066	341
186.136	-41
186.205	743
186.275	-95
186.344	245
186.414	140
186.483	3
186.553	503
186.622	918
186.692	-167
186.761	727
186.831	-418
186.900	-268
186.970	-283
187.039	648
187.109	387
187.178	1186
187.248	394
187.317	329
187.387	-80
187.456	744
187.526	316
187.595	122
187.664	166
187.734	245
187.803	78
187.873	541
187.942	-367
188.012	691
188.081	-710
188.150	-665
188.220	-372
188.289	-67
188.358	-14
188.428	754
188.497	-6
188.567	405
188.636	-295
188.705	8
188.775	-78
188.844	-299
188.913	-122
188.983	141
189.052	329
189.121	31
189.191	-320
189.260	478
189.329	778
189.399	168
189.468	-216
189.537	-276
189.606	253
189.676	289
189.745	181
189.814	632
189.883	147
189.953	-111
190.022	-589
190.091	700
190.161	1
190.230	325
190.299	-33
190.368	285
190.437	-674
190.507	624
190.576	-132
190.645	44
190.714	-323
190.783	-16
190.853	571
190.922	737
190.991	-414
191.060	-215
191.129	-697
191.198	-24
191.268	-505
191.337	230
191.406	366
191.475	135
191.544	431
191.613	20
191.682	468
191.752	347
191.821	63
191.890	335
191.959	69
192.028	254
192.097	-165
192.166	423
192.235	-661
192.304	557
192.373	-579
192.442	633
192.511	104
192.580	83
192.650	-32
192.719	675
192.788	-328
192.857	334
192.926	116
192.995	1121
193.064	-137
193.133	517
193.202	35
193.271	389
193.340	455
193.409	668
193.478	636
193.547	98
193.615	230
193.684	-17
193.753	-259
193.822	263
193.891	-190
193.960	239
194.029	-1091
194.098	561
194.167	-591
194.236	678
194.305	-129
194.374	895
194.443	-297
194.512	678
194.580	251
194.649	310
194.718	-106
194.787	391
194.856	102
194.925	596
194.994	339
195.062	400
195.131	-478
195.200	-116
195.269	-275
195.338	-430
195.407	475
195.475	41
195.544	66
195.613	432
195.682	-42
195.751	502
195.819	-56
195.888	297
195.957	697
196.026	400
196.094	14
196.163	566
196.232	610
196.301	1383
196.369	-52
196.438	729
196.507	620
196.576	297
196.644	108
196.713	18
196.782	461
196.850	223
196.919	-473
196.988	107
197.056	-794
197.125	854
197.194	149
197.262	303
197.331	-434
197.400	474
197.468	-639
197.537	145
197.606	301
197.674	942
197.743	962
197.812	-82
197.880	-52
197.949	822
198.017	395
198.086	318
198.155	309
198.223	519
198.292	-396
198.360	444
198.429	-571
198.497	81
198.566	97
198.635	248
198.703	-200
198.772	806
198.840	472
198.909	744
198.977	118
199.046	578
199.114	51
199.183	622
199.251	241
199.320	234
199.388	-36
199.457	405
199.525	-525
199.594	143
199.662	599
199.731	-41
199.799	308
199.867	900
199.936	398
200.004	24
200.073	733
200.141	934
200.210	199
200.278	-386
200.346	-396
200.415	955
200.483	-74
200.552	363
200.620	-649
200.688	221
200.757	3
200.825	616
200.893	-684
200.962	309
201.030	1
201.098	530
201.167	-14
201.235	619
201.303	-579
201.372	560
201.440	565
201.508	323
201.577	139
201.645	239
201.713	-523
201.781	322
201.850	548
201.918	375
201.986	22
202.055	1212
202.123	88
202.191	624
202.259	-540
202.327	440
202.396	821
202.464	139
202.532	403
202.600	553
202.669	255
202.737	95
202.805	399
202.873	907
202.941	294
203.009	-457
203.078	-325
203.146	725
203.214	60
203.282	-110
203.350	-121
203.418	-89
203.487	60
203.555	-67
203.623	437
203.691	55
203.759	-312
203.827	507
203.895	585
203.963	928
204.031	-161
204.099	37
204.168	156
204.236	27
204.304	-350
204.372	1001
204.440	-25
204.508	709
204.576	80
204.644	556
204.712	-257
204.780	42
204.848	4
204.916	166
204.984	438
205.052	605
205.120	-840
205.188	224
205.256	-307
205.324	653
205.392	306
205.460	869
205.528	386
205.596	159
205.664	320
205.732	407
205.799	601
205.867	1162
205.935	462
206.003	656
206.071	333
206.139	188
206.207	-152
206.275	1205
206.343	332
206.411	-236
206.478	98
206.546	448
206.614	150
206.682	-7
206.750	568
206.818	36
206.885	-214
206.953	35
207.021	227
207.089	582
207.157	-31
207.225	860
207.292	-158
207.360	183
207.428	83
207.496	-70
207.563	-197
207.631	715
207.699	-58
207.767	277
207.834	-78
207.902	711
207.970	-85
208.038	7
208.105	-444
208.173	162
208.241	-194
208.309	415
208.376	-371
208.444	202
208.512	105
208.579	-295
208.647	-514
208.715	348
208.782	-254
208.850	567
208.918	-537
208.985	701
209.053	68
209.120	259
209.188	-106
209.256	569
209.323	237
209.391	320
209.459	84
209.526	636
209.594	891
209.661	612
209.729	477
209.796	482
209.864	541
209.932	-521
209.999	-172
210.067	579
210.134	20
210.202	518
210.269	617
210.337	444
210.404	139
210.472	1156
210.539	563
210.607	301
210.674	-967
210.742	780
210.809	342
210.877	789
210.944	613
211.012	200
211.079	351
211.146	739
211.214	-45
211.281	316
211.349	75
211.416	781
211.484	478
211.551	-169
211.618	543
211.686	9
211.753	-678
211.821	695
211.888	385
211.955	706
212.023	469
212.090	561
212.157	-145
212.225	440
212.292	285
212.359	1593
212.427	2603
212.494	1809
212.561	706
212.629	465
212.696	11
212.763	950
212.831	-424
212.898	1001
212.965	628
213.032	-103
213.100	328
213.167	108
213.234	461
213.301	921
213.369	274
213.436	1321
213.503	354
213.570	807
213.638	21
213.705	1076
213.772	10
213.839	333
213.906	1155
213.973	1179
214.041	213
214.108	445
214.175	2
214.242	817
214.309	-151
214.376	693
214.444	-618
214.511	1080
214.578	851
214.645	877
214.712	682
214.779	460
214.846	156
214.913	563
214.980	841
215.048	870
215.115	154
215.182	795
215.249	179
215.316	-31
215.383	881
215.450	930
215.517	318
215.584	681
215.651	787
215.718	7
215.785	292
215.852	604
215.919	731
215.986	392
216.053	42
216.120	440
216.187	1184
216.254	416
216.321	1003
216.388	564
216.455	81
216.522	509
216.589	123
216.656	601
216.722	579
216.789	1258
216.856	646
216.923	1306
216.990	325
217.057	893
217.124	443
217.191	218
217.258	317
217.324	1312
217.391	1414
217.458	791
217.525	800
217.592	826
217.659	-730
217.725	1389
217.792	515
217.859	1509
217.926	27
217.993	595
218.059	-237
218.126	627
218.193	354
218.260	982
218.327	121
218.393	498
218.460	-153
218.527	696
218.594	133
218.660	586
218.727	412
218.794	192
218.860	538
218.927	731
218.994	-264
219.061	353
219.127	573
219.194	944
219.261	-75
219.327	186
219.394	98
219.461	-109
219.527	540
219.594	527
219.661	235
219.727	136
219.794	390
219.860	443
219.927	483
219.994	1370
220.060	499
220.127	1374
220.193	1288
220.260	1406
220.326	1092
220.393	1600
220.460	1626
220.526	1768
220.593	1006
220.659	2551
220.726	710
220.792	2814
220.859	2002
220.925	2479
220.992	2602
221.058	2526
221.125	2384
221.191	2173
221.258	841
221.324	821
221.391	939
221.457	43
221.524	930
221.590	1382
221.657	2120
221.723	1082
221.789	1258
221.856	1273
221.922	618
221.989	1149
222.055	-28
222.121	38
222.188	770
222.254	491
222.321	579
222.387	748
222.453	-442
222.520	775
222.586	-141
222.652	460
222.719	137
222.785	878
222.851	-468
222.918	-39
222.984	349
223.050	156
223.116	-637
223.183	1649
223.249	-56
223.315	-288
223.382	-280
223.448	894
223.514	-413
223.580	509
223.647	-791
223.713	614
223.779	65
223.845	405
223.911	163
223.978	267
224.044	153
224.110	663
224.176	674
224.242	230
224.309	494
224.375	1009
224.441	-365
224.507	717
224.573	216
224.639	821
224.705	-32
224.772	-86
224.838	-893
224.904	613
224.970	31
225.036	-376
225.102	-123
225.168	1072
225.234	70
225.300	193
225.366	587
225.432	623
225.499	260
225.565	-171
225.631	-311
225.697	1240
225.763	365
225.829	1144
225.895	987
225.961	1084
226.027	-115
226.093	1269
226.159	871
226.225	2565
226.291	3010
226.357	4262
226.423	2459
226.489	2016
226.554	860
226.620	1592
226.686	596
226.752	2615
226.818	3685
226.884	6408
226.950	5253
227.016	3201
227.082	2078
227.148	2095
227.214	826
227.279	1032
227.345	531
227.411	670
227.477	511
227.543	729
227.609	715
227.674	1119
227.740	-45
227.806	518
227.872	392
227.938	747
228.003	442
228.069	608
228.135	-68
228.201	226
228.267	255
228.332	1087
228.398	-698
228.464	1153
228.530	-242
228.595	603
228.661	9
228.727	489
228.792	1094
228.858	507
228.924	-1251
228.990	1699
229.055	-689
229.121	837
229.187	128
229.252	870
229.318	-539
229.384	865
229.449	-476
229.515	-371
229.581	-1461
229.646	1687
229.712	1035
229.777	1152
229.843	972
229.909	1027
229.974	813
230.040	866
230.105	458
230.171	136
230.236	743
230.302	1433
230.368	1168
230.433	720
230.499	740
230.564	1309
230.630	243
230.695	716
230.761	866
230.826	14
230.892	970
230.957	927
231.023	246
231.088	714
231.154	-38
231.219	922
231.284	371
231.350	1023
231.415	-381
231.481	575
231.546	-45
231.612	1578
231.677	61
231.742	-640
231.808	1164
231.873	596
231.939	-155
232.004	1610
232.069	991
232.135	-93
232.200	17
232.265	756
232.331	788
232.396	164
232.461	-702
232.527	519
232.592	-725
232.657	385
232.723	599
232.788	482
232.853	703
232.918	709
232.984	22
233.049	-16
233.114	-692
233.179	-54
233.245	980
233.310	578
233.375	-551
233.440	951
233.506	-59
233.571	157
233.636	-393
233.701	944
233.766	47
233.832	-66
233.897	322
233.962	-468
234.027	685
234.092	1114
234.157	68
234.222	458
234.288	270
234.353	1865
234.418	1482
234.483	2304
234.548	547
234.613	1575
234.678	676
234.743	1225
234.808	1371
234.873	948
234.938	1145
235.004	1001
235.069	556
235.134	414
235.199	1126
235.264	844
235.329	-324
235.394	320
235.459	71
235.524	-171
235.589	408
235.654	696
235.719	-358
235.784	746
235.849	218
235.913	1411
235.978	708
236.043	1080
236.108	800
236.173	597
236.238	600
236.303	1177
236.368	0
236.433	1671
236.498	1380
236.563	2552
236.627	3485
236.692	9477
236.757	7688
236.822	3593
236.887	1633
236.952	2568
237.017	588
237.081	3244
237.146	1903
237.211	5825
237.276	9240
237.341	12496
237.405	6848
237.470	2719
237.535	2187
237.600	2124
237.664	1000
237.729	2180
237.794	1083
237.859	2954
237.923	1321
237.988	117
238.053	1064
238.118	1700
238.182	2706
238.247	3091
238.312	1148
238.376	2047
238.441	-887
238.506	1730
238.570	-651
238.635	1526
238.700	1102
238.764	578
238.829	339
238.893	790
238.958	1087
239.023	1347
239.087	603
239.152	1428
239.216	127
239.281	847
239.346	931
239.410	331
239.475	486
239.539	2902
239.604	1077
239.668	1728
239.733	476
239.797	466
239.862	514
239.926	1097
239.991	1322
240.055	290
240.120	-80
240.184	1418
240.249	-139
240.313	451
240.378	167
240.442	1195
240.507	1279
240.571	1170
240.635	834
240.700	979
240.764	-49
240.829	785
240.893	-447
240.957	1050
241.022	1614
241.086	2103
241.151	680
241.215	46
241.279	1100
241.344	566
241.408	884
241.472	627
241.537	1663
241.601	1353
241.665	-595
241.730	794
241.794	1231
241.858	705
241.922	324
241.987	1198
242.051	59
242.115	457
242.179	1303
242.244	28
242.308	908
242.372	1476
242.436	491
242.501	1479
242.565	50
242.629	827
242.693	1051
242.757	649
242.822	758
242.886	776
242.950	1175
243.014	642
243.078	974
243.142	1520
243.206	226
243.271	1219
243.335	234
243.399	2562
243.463	4550
243.527	9570
243.591	2731
243.655	2244
243.719	859
243.783	2044
243.847	1129
243.911	1960
243.975	2190
244.040	697
244.104	2200
244.168	1010
244.232	1221
244.296	1546
244.360	462
244.424	395
244.488	508
244.552	1508
244.615	62
244.679	956
244.743	516
244.807	485
244.871	847
244.935	945
244.999	-587
245.063	489
245.127	1131
245.191	1010
245.255	143
245.319	1104
245.383	-298
245.446	1723
245.510	-306
245.574	1285
245.638	876
245.702	757
245.766	1560
245.829	2031
245.893	338
245.957	1145
246.021	1013
246.085	1075
246.149	874
246.212	3224
246.276	3319
246.340	1766
246.404	968
246.467	1757
246.531	-316
246.595	1622
246.659	1538
246.722	1128
246.786	896
246.850	2489
246.913	1360
246.977	1120
247.041	623
247.104	1460
247.168	1309
247.232	3604
247.295	4893
247.359	3162
247.423	472
247.486	2560
247.550	1729
247.614	1178
247.677	1628
247.741	1201
247.804	1074
247.868	1553
247.932	2092
247.995	4321
248.059	1623
248.122	441
248.186	2350
248.249	3098
248.313	8958
248.376	8437
248.440	4714
248.503	1383
248.567	3169
248.630	3210
248.694	2211
248.757	5416
248.821	8608
248.884	6774
248.948	5195
249.011	9107
249.075	10722
249.138	8567
249.202	3410
249.265	2260
249.328	2773
249.392	2428
249.455	1880
249.519	1950
249.582	1695
249.645	3402
249.709	1169
249.772	1802
249.835	1596
249.899	1542
249.962	1410
250.025	1129
250.089	3822
250.152	4520
250.215	2272
250.279	1862
250.342	2223
250.405	2846
250.468	636
250.532	1897
250.595	3951
250.658	11257
250.721	16810
250.785	5363
250.848	4704
250.911	1802
250.974	2009
251.038	3383
251.101	5539
251.164	3072
251.227	3102
251.290	2720
251.354	4410
251.417	16112
251.480	13224
251.543	11609
251.606	26631
251.669	18407
251.732	7671
251.795	9481
251.859	8554
251.922	16273
251.985	9145
252.048	4488
252.111	2979
252.174	2909
252.237	6099
252.300	11069
252.363	11686
252.426	21146
252.489	7561
252.552	4086
252.615	2817
252.678	4924
252.741	8576
252.804	11063
252.867	20626
252.930	13504
252.993	6041
253.056	5054
253.119	2654
253.182	1407
253.245	3243
253.308	3939
253.371	1900
253.434	1753
253.497	2956
253.559	5417
253.622	2615
253.685	4133
253.748	3341
253.811	2558
253.874	2614
253.937	2221
254.000	1869
254.062	3922
254.125	4304
254.188	6461
254.251	2694
254.314	1533
254.376	2912
254.439	3493
254.502	3092
254.565	4685
254.628	5875
254.690	3374
254.753	943
254.816	1349
254.878	1721
254.941	4772
255.004	3352
255.067	1674
255.129	638
255.192	1092
255.255	-45
255.317	1321
255.380	-93
255.443	597
255.505	809
255.568	67
255.631	-188
255.693	1630
255.756	73
255.819	1758
255.881	-437
255.944	1430
256.006	380
256.069	1195
256.132	2
256.194	1705
256.257	2169
256.319	1856
256.382	691
256.444	1562
256.507	994
256.569	789
256.632	1157
256.694	1250
256.757	6925
256.819	16719
256.882	5440
256.944	3507
257.007	2667
257.069	2186
257.132	866
257.194	2323
257.257	709
257.319	1552
257.381	1376
257.444	5895
257.506	19054
257.569	18132
257.631	6710
257.693	5071
257.756	2110
257.818	2632
257.880	1550
257.943	2269
258.005	87
258.067	1151
258.130	370
258.192	1587
258.254	1838
258.317	951
258.379	-12
258.441	2911
258.503	3105
258.566	2819
258.628	3001
258.690	581
258.753	1525
258.815	3183
258.877	700
258.939	813
259.001	1019
259.064	1200
259.126	218
259.188	1765
259.250	741
259.312	1920
259.375	2131
259.437	1086
259.499	1141
259.561	1465
259.623	313
259.685	588
259.747	1209
259.809	3496
259.872	3094
259.934	6840
259.996	6410
260.058	2193
260.120	958
260.182	783
260.244	-225
260.306	633
260.368	924
260.430	607
260.492	1731
260.554	2981
260.616	947
260.678	4301
260.740	2858
260.802	498
260.864	851
260.926	-303
260.988	1199
261.050	546
261.112	2240
261.174	5378
261.236	2142
261.298	2012
261.359	1596
261.421	2428
261.483	306
261.545	1378
261.607	18
261.669	1274
261.731	683
261.793	3287
261.854	-304
261.916	2026
261.978	472
262.040	969
262.102	781
262.164	826
262.225	920
262.287	692
262.349	1335
262.411	1290
262.472	1335
262.534	368
262.596	1170
262.658	847
262.719	-286
262.781	913
262.843	1388
262.904	1051
262.966	1190
263.028	551
263.090	5729
263.151	12106
263.213	3774
263.275	2314
263.336	923
263.398	1752
263.459	-289
263.521	1123
263.583	1913
263.644	2062
263.706	-49
263.767	33
263.829	507
263.891	592
263.952	72
264.014	-373
264.075	256
264.137	3174
264.198	1503
264.260	238
264.321	499
264.383	2206
264.444	5562
264.506	1813
264.567	1063
264.629	2936
264.690	2977
264.752	1511
264.813	345
264.875	791
264.936	1293
264.998	188
265.059	-102
265.120	857
265.182	1425
265.243	10064
265.305	8105
265.366	2189
265.427	724
265.489	1715
265.550	-404
265.611	859
265.673	285
265.734	550
265.795	516
265.857	-229
265.918	813
265.979	3685
266.040	14394
266.102	10961
266.163	3871
266.224	2217
266.286	1204
266.347	1106
266.408	727
266.469	1319
266.530	487
266.592	693
266.653	1868
266.714	1657
266.775	34
266.836	411
266.898	221
266.959	394
267.020	308
267.081	1041
267.142	471
267.203	659
267.264	-781
267.326	976
267.387	-339
267.448	-437
267.509	726
267.570	532
267.631	193
267.692	-46
267.753	520
267.814	-402
267.875	2103
267.936	2683
267.997	2479
268.058	1591
268.119	195
268.180	-172
268.241	280
268.302	1257
268.363	-35
268.424	681
268.485	-71
268.546	-276
268.607	142
268.668	464
268.729	-1176
268.790	979
268.851	804
268.912	1424
268.972	1540
269.033	1353
269.094	-714
269.155	628
269.216	479
269.277	726
269.338	431
269.398	1033
269.459	266
269.520	960
269.581	875
269.642	2161
269.702	415
269.763	764
269.824	100
269.885	828
269.945	1167
270.006	1156
270.067	-76
270.128	612
270.188	990
270.249	379
270.310	-103
270.370	1240
270.431	-212
270.492	453
270.553	-62
270.613	1517
270.674	2839
270.734	-69
270.795	-94
270.856	1350
270.916	320
270.977	706
271.038	1215
271.098	1350
271.159	1741
271.219	270
271.280	647
271.340	1121
271.401	-16
271.462	994
271.522	644
271.583	540
271.643	137
271.704	767
271.764	1155
271.825	3409
271.885	9698
271.946	9960
272.006	3670
272.066	6618
272.127	8207
272.187	2246
272.248	235
272.308	2095
272.369	5379
272.429	2447
272.489	2205
272.550	2002
272.610	2383
272.671	1199
272.731	1520
272.791	1758
272.852	777
272.912	709
272.972	97
273.033	1046
273.093	-249
273.153	1473
273.214	257
273.274	854
273.334	3933
273.394	6641
273.455	1987
273.515	3747
273.575	6011
273.635	3085
273.696	3513
273.756	6873
273.816	1478
273.876	1800
273.936	2532
273.997	3117
274.057	34
274.117	1012
274.177	2072
274.237	10420
274.297	6177
274.358	3836
274.418	5752
274.478	4199
274.538	1549
274.598	360
274.658	3442
274.718	3769
274.778	1465
274.838	1363
274.898	1128
274.958	4029
275.018	7326
275.078	4273
275.138	999
275.198	170
275.258	89
275.318	648
275.378	1782
275.438	2493
275.498	1319
275.558	2959
275.618	6087
275.678	4545
275.738	2684
275.798	1511
275.858	599
275.918	405
275.978	365
276.038	667
276.098	87
276.157	1786
276.217	4893
276.277	2371
276.337	975
276.397	1016
276.457	1242
276.517	197
276.576	-538
276.636	126
276.696	422
276.756	2697
276.815	2245
276.875	292
276.935	786
276.995	773
277.055	483
277.114	625
277.174	854
277.234	4062
277.293	728
277.353	965
277.413	-126
277.472	1134
277.532	48
277.592	1615
277.651	3329
277.711	5194
277.771	1299
277.830	7529
277.890	4474
277.950	4433
278.009	10879
278.069	3548
278.128	4761
278.188	4773
278.248	2357
278.307	5639
278.367	3295
278.426	1024
278.486	-271
278.545	1324
278.605	-31
278.664	0
278.724	366
278.783	4005
278.843	7345
278.902	1686
278.962	63
279.021	1763
279.081	1618
279.140	1451
279.199	1672
279.259	2155
279.318	1064
279.378	2731
279.437	3398
279.496	10347
279.556	26323
279.615	15673
279.675	5136
279.734	5202
279.793	5080
279.853	6060
279.912	2725
279.971	1332
280.031	768
280.090	3387
280.149	3831
280.208	4363
280.268	17490
280.327	14425
280.386	3128
280.445	3649
280.505	2827
280.564	1528
280.623	703
280.682	2218
280.742	2249
280.801	1300
280.860	-14
280.919	672
280.978	661
281.037	-458
281.097	-75
281.156	991
281.215	-527
281.274	1101
281.333	5268
281.392	2539
281.451	737
281.510	648
281.569	59
281.628	-217
281.688	205
281.747	932
281.806	-316
281.865	545
281.924	-1198
281.983	-300
282.042	-931
282.101	350
282.160	-2
282.219	-256
282.278	-61
282.337	3121
282.396	819
282.454	161
282.513	2065
282.572	5017
282.631	793
282.690	257
282.749	-260
282.808	367
282.867	150
282.926	535
282.985	-447
283.043	-238
283.102	-445
283.161	207
283.220	1540
283.279	3529
283.338	836
283.396	-299
283.455	664
283.514	940
283.573	1297
283.631	324
283.690	393
283.749	-57
283.808	1462
283.866	2285
283.925	408
283.984	1211
284.043	523
284.101	1093
284.160	-167
284.219	1508
284.277	444
284.336	2213
284.395	5192
284.453	4095
284.512	1046
284.570	2381
284.629	1189
284.688	1594
284.746	1035
284.805	2281
284.863	2016
284.922	3163
284.981	4627
285.039	7127
285.098	13108
285.156	28895
285.215	46795
285.273	45022
285.332	26526
285.390	15750
285.449	9174
285.507	6792
285.566	4437
285.624	3507
285.683	2848
285.741	2150
285.799	891
285.858	1626
285.916	888
285.975	745
286.033	296
286.091	885
286.150	-596
286.208	177
286.267	1350
286.325	1562
286.383	1377
286.442	1821
286.500	446
286.558	367
286.616	-99
286.675	1032
286.733	-24
286.791	-105
286.850	-19
286.908	1842
286.966	2150
287.024	268
287.083	-54
287.141	-549
287.199	-38
287.257	605
287.315	430
287.374	1332
287.432	2289
287.490	1668
287.548	81
287.606	311
287.664	300
287.723	1014
287.781	314
287.839	935
287.897	152
287.955	1999
288.013	2025
288.071	6109
288.129	24187
288.187	52983
288.245	21727
288.303	7942
288.361	3960
288.419	2592
288.477	1774
288.535	1590
288.593	257
288.651	-3
288.709	-772
288.767	731
288.825	-705
288.883	431
288.941	-504
288.999	702
289.057	-457
289.115	24
289.173	-386
289.231	658
289.289	-430
289.346	758
289.404	292
289.462	1623
289.520	282
289.578	-18
289.636	163
289.694	340
289.751	-210
289.809	929
289.867	-313
289.925	1162
289.983	84
290.040	493
290.098	-470
290.156	146
290.214	505
290.271	-640
290.329	362
290.387	139
290.444	-22
290.502	-114
290.560	-46
290.617	377
290.675	-550
290.733	-450
290.790	490
290.848	467
290.906	-40
290.963	1023
291.021	-682
291.078	-93
291.136	-723
291.194	2797
291.251	4095
291.309	941
291.366	-558
291.424	353
291.481	-696
291.539	-267
291.596	-670
291.654	-97
291.711	-274
291.769	927
291.826	953
291.884	496
291.941	-594
291.999	-53
292.056	-657
292.114	764
292.171	-708
292.228	292
292.286	-849
292.343	926
292.401	1284
292.458	284
292.515	-98
292.573	885
292.630	-203
292.687	505
292.745	75
292.802	646
292.859	2281
292.917	5050
292.974	1517
293.031	560
293.089	-116
293.146	-55
293.203	-493
293.260	151
293.318	-861
293.375	763
293.432	-79
293.489	390
293.546	59
293.604	939
293.661	3654
293.718	9224
293.775	3236
293.832	1140
293.889	689
293.947	1160
294.004	550
294.061	-154
294.118	2226
294.175	6304
294.232	6485
294.289	2808
294.346	1268
294.403	983
294.460	931
294.517	76
294.574	-506
294.631	65
294.688	228
294.745	3950
294.802	11324
294.859	11123
294.916	4018
294.973	1634
295.030	669
295.087	1369
295.144	783
295.201	1247
295.258	378
295.315	1360
295.372	3822
295.429	7303
295.486	2991
295.542	2701
295.599	4934
295.656	8349
295.713	5387
295.770	6887
295.827	2311
295.883	1459
295.940	610
295.997	2073
296.054	1405
296.111	324
296.167	772
296.224	169
296.281	-750
296.338	176
296.394	-63
296.451	1273
296.508	2687
296.564	5680
296.621	4875
296.678	10158
296.734	12613
296.791	5002
296.848	1851
296.904	3213
296.961	5552
297.018	9576
297.074	5040
297.131	2069
297.187	1355
297.244	2985
297.301	9092
297.357	14587
297.414	5177
297.470	2737
297.527	420
297.583	1567
297.640	558
297.696	548
297.753	211
297.809	-104
297.866	-54
297.922	628
297.979	-529
298.035	664
298.092	1307
298.148	4065
298.204	3904
298.261	2284
298.317	5307
298.374	11630
298.430	5971
298.486	2642
298.543	1651
298.599	1923
298.656	1644
298.712	4028
298.768	6941
298.824	5117
298.881	1311
298.937	1113
298.993	294
299.050	1439
299.106	338
299.162	490
299.218	499
299.275	1415
299.331	1387
299.387	3189
299.443	9530
299.500	8526
299.556	1960
299.612	1915
299.668	1103
299.724	1070
299.780	601
299.837	621
299.893	1582
299.949	7826
300.005	7676
300.061	7752
300.117	12413
300.173	5237
300.229	2321
300.285	3259
300.341	3471
300.397	1873
300.453	1166
300.510	1106
300.566	179
300.622	745
300.678	1537
300.734	5980
300.790	6935
300.845	8510
300.901	4855
300.957	6793
301.013	4312
301.069	1643
301.125	1484
301.181	1114
301.237	659
301.293	1109
301.349	419
301.405	506
301.461	747
301.516	599
301.572	650
301.628	2167
301.684	1023
301.740	3110
301.796	4736
301.851	3804
301.907	5859
301.963	6814
302.019	12184
302.074	27740
302.130	25799
302.186	12773
302.242	4708
302.297	3079
302.353	3099
302.409	5639
302.464	4604
302.520	4596
302.576	9723
302.631	11252
302.687	6454
302.743	3095
302.798	1636
302.854	1413
302.910	1028
302.965	2519
303.021	4307
303.076	2954
303.132	3047
303.187	4143
303.243	1944
303.299	1746
303.354	-197
303.410	1670
303.465	474
303.521	889
303.576	744
303.632	2098
303.687	3363
303.743	9560
303.798	7588
303.853	2807
303.909	1502
303.964	1041
304.020	1716
304.075	3846
304.130	3273
304.186	5630
304.241	5658
304.297	4987
304.352	1768
304.358	1728
304.407	1399
304.449	1219
304.463	1161
304.518	831
304.539	781
304.573	676
304.629	1530
304.630	1553
304.684	2735
304.720	5823
304.739	7365
304.794	10069
304.811	8953
304.850	5972
304.902	2597
304.905	2395
304.960	1381
304.992	1586
305.015	1728
305.071	1723
305.083	1728
305.126	1723
305.173	831
305.181	687
305.236	561
305.264	827
305.292	1147
305.347	1142
305.354	1227
305.402	1720
305.445	1507
305.457	1454
305.512	2654
305.535	2590
305.567	2453
305.622	2157
305.626	2255
305.678	5078
305.716	9391
305.733	10787
305.788	10982
305.807	10146
305.843	8815
305.897	11108
305.898	11128
305.953	10692
305.988	7432
306.008	5700
306.063	3582
306.078	2991
306.118	1576
306.168	1650
306.173	1690
306.228	981
306.259	1182
306.283	1434
306.338	1075
306.349	1237
306.393	1830
306.440	1493
306.448	1409
306.503	2336
306.530	2171
306.558	2685
306.613	5376
306.620	5809
306.668	9200
306.711	12341
306.723	12412
306.778	9719
306.801	8052
306.833	6014
306.888	2798
306.892	2695
306.943	2528
306.982	1751
306.997	1581
307.052	1660
307.072	1515
307.107	1439
307.162	2382
307.163	2379
307.217	2790
307.253	3474
307.272	3634
307.327	3385
307.343	3490
307.381	3668
307.434	3018
307.436	3122
307.491	7334
307.524	10114
307.546	10945
307.600	11283
307.614	10744
307.655	7119
307.704	3733
307.710	3730
307.765	4497
307.795	5199
307.819	6130
307.874	8542
307.885	8910
307.929	8738
307.975	7879
307.984	8380
308.038	13498
308.065	16494
308.093	26949
308.148	52849
308.156	57444
308.202	82598
308.246	100108
308.257	96626
308.312	61923
308.336	47320
308.366	37042
308.421	21179
308.426	19826
308.475	14107
308.517	9500
308.530	8922
308.585	7834
308.607	7106
308.639	6674
308.694	6797
308.697	6808
308.748	9949
308.787	12656
308.803	12488
308.857	10427
308.877	9839
308.912	10352
308.967	10690
308.967	10685
309.021	15405
309.058	18679
309.076	23896
309.130	42346
309.148	48686
309.185	74652
309.238	117735
309.239	118298
309.293	128989
309.328	126859
309.348	112862
309.402	68566
309.418	56741
309.457	41672
309.508	23954
309.511	23645
309.566	19428
309.598	16924
309.620	17591
309.674	19792
309.688	20374
309.729	19836
309.778	18595
309.783	18317
309.837	14142
309.868	12150
309.892	14476
309.946	20109
309.959	21749
310.001	29593
310.049	36918
310.055	35569
310.109	21587
310.139	13759
310.163	11185
310.218	6302
310.229	5346
310.272	4575
310.319	4017
310.326	4001
310.381	3709
310.409	3610
310.435	3297
310.489	2410
310.499	2351
310.543	3162
310.589	3474
310.598	3453
310.652	3716
310.679	3573
310.706	3309
310.760	3130
310.769	3053
310.814	2523
310.859	2243
310.868	2313
310.923	2349
310.948	2505
310.977	3005
311.031	3654
311.038	3762
311.085	3255
311.128	2624
311.139	2710
311.193	3260
311.218	3372
311.247	3135
311.301	2897
311.308	2843
311.356	3046
311.398	3260
311.410	3213
311.464	2843
311.488	2710
311.518	2722
311.572	2641
311.578	2632
311.626	4191
311.668	5474
311.680	5370
311.734	4839
311.758	4578
311.788	4558
311.842	4488
311.847	4462
311.896	6038
311.937	7406
311.950	7375
312.004	7102
312.027	6944
312.058	5941
312.112	4121
312.117	3926
312.165	3835
312.207	3738
312.297	5456
312.386	4987
312.476	4070
312.566	8351
312.656	5528
312.745	2760
312.835	4353
312.925	4579
313.015	3394
313.104	3245
313.194	2976
313.284	3899
313.374	4897
313.463	4307
313.553	3315
313.643	3102
313.732	3221
313.822	3181
313.912	3507
314.001	4449
314.091	4657
314.180	6263
314.270	5639
314.360	5401
314.449	4975
314.539	3571
314.628	3304
314.718	3186
314.808	3847
314.897	3033
314.987	3933
315.076	3222
315.166	4946
315.255	4927
315.345	4785
315.434	4163
315.524	3879
315.613	3965
315.703	5747
315.792	5804
315.881	3664
315.971	3618
316.060	8003
316.150	8424
316.239	8175
316.328	4434
316.418	3279
316.507	4034
316.597	5248
316.686	4195
316.775	4239
316.865	8293
316.954	3408
317.043	2647
317.133	3164
317.222	2690
317.311	3418
317.400	2679
317.490	5507
317.579	5542
317.668	3075
317.757	3917
317.847	5846
317.936	6401
318.025	11854
318.114	5614
318.203	5608
318.293	9693
318.382	21240
318.471	16485
318.560	19979
318.649	36280
318.738	10234
318.828	4725
318.917	6522
319.006	5848
319.095	12480
319.184	41148
319.273	27568
319.362	16295
319.451	5300
319.540	4568
319.629	9099
319.718	18968
319.807	8859
319.896	12934
319.985	51234
320.074	23914
320.163	5446
320.252	6681
320.341	6699
320.430	7587
320.519	9311
320.608	6046
320.697	4356
320.786	4474
320.875	5167
320.964	6872
321.053	11496
321.142	15658
321.230	18223
321.319	11217
321.408	29545
321.497	13136
321.586	11523
321.675	10308
321.764	12020
321.852	7869
321.941	16179
322.030	12875
322.119	11863
322.207	28345
322.296	16304
322.385	9047
322.474	9819
322.562	34187
322.651	20838
322.740	10593
322.829	15044
322.917	12188
323.006	9317
323.095	8565
323.183	6176
323.272	9253
323.361	13104
323.449	31535
323.538	13039
323.626	22237
323.715	14705
323.804	6700
323.892	18120
323.981	15915
324.069	5109
324.158	8882
324.246	11132
324.335	6756
324.424	11287
324.512	4491
324.601	6350
324.689	9762
324.778	20138
324.866	9538
324.954	3733
325.043	3323
325.131	6111
325.220	8010
325.308	9904
325.397	8087
325.485	6661
325.574	2257
325.662	2873
325.750	3133
325.839	3134
325.927	2322
326.015	3724
326.104	3398
326.192	4946
326.280	2735
326.369	3434
326.457	4585
326.545	9577
326.634	5385
326.722	2904
326.810	2948
326.898	2656
326.987	4013
327.075	7760
327.163	8015
327.251	3876
327.340	7134
327.428	11922
327.516	2757
327.604	2287
327.692	2678
327.781	2442
327.869	4157
327.957	3890
328.045	4546
328.133	3121
328.221	2685
328.309	3205
328.397	3143
328.485	3879
328.574	4943
328.662	17736
328.750	10911
328.838	4180
328.926	2727
329.014	3647
329.102	4667
329.190	10584
329.278	8702
329.366	3292
329.454	2057
329.542	3348
329.630	2852
329.718	3476
329.806	5178
329.893	5969
329.981	8652
330.069	15597
330.157	50425
330.245	120670
330.333	81592
330.421	19651
330.509	10648
330.597	23276
330.684	18278
330.772	6820
330.860	7607
330.948	10039
331.036	5321
331.123	2158
331.211	2487
331.299	4026
331.387	7463
331.475	16835
331.562	5182
331.650	2398
331.738	2206
331.825	3476
331.913	2672
332.001	1784
332.089	2872
332.176	5431
332.264	8701
332.352	9559
332.439	4556
332.527	3177
332.614	2739
332.702	2511
332.790	2325
332.877	5278
332.965	10475
333.052	3478
333.140	3328
333.228	8514
333.315	4011
333.403	2637
333.490	5924
333.578	6716
333.665	9151
333.753	7049
333.840	2036
333.928	2495
334.015	6204
334.103	11930
334.190	44589
334.278	14224
334.365	3657
334.452	2805
334.540	2164
334.627	2036
334.715	4190
334.802	6932
334.889	25952
334.977	32586
335.064	4178
335.151	2494
335.239	3455
335.326	5456
335.413	20338
335.501	37424
335.588	5396
335.675	2886
335.762	3914
335.850	8055
335.937	3781
336.024	7649
336.111	36728
336.199	18013
336.286	4127
336.373	1931
336.460	1214
336.547	1850
336.635	2635
336.722	3181
336.809	2726
336.896	4819
336.983	15250
337.070	38899
337.157	53219
337.245	24507
337.332	17978
337.419	2992
337.506	2562
337.593	3221
337.680	10814
337.767	41970
337.854	12319
337.941	12908
338.028	9835
338.115	4721
338.202	5456
338.289	7320
338.376	22221
338.463	10760
338.550	20136
338.637	27622
338.724	6074
338.811	6747
338.898	3029
338.984	2370
339.071	3592
339.158	4556
339.245	10535
339.332	7688
339.419	5339
339.506	5938
339.593	1634
339.679	2895
339.766	1514
339.853	3351
339.940	8785
340.027	3373
340.113	3084
340.200	5398
340.287	2538
340.374	3829
340.460	7126
340.547	2972
340.634	4960
340.720	20420
340.807	14697
340.894	1999
340.980	2771
341.067	2210
341.154	3305
341.240	4655
341.327	12065
341.414	5138
341.500	3874
341.587	3543
341.674	2614
341.760	6854
341.847	9644
341.933	3026
342.020	1671
342.106	2238
342.193	2573
342.279	6950
342.366	3618
342.452	8529
342.539	4413
342.625	9349
342.712	24713
342.798	11614
342.885	4217
342.971	1790
343.058	1518
343.144	1569
343.230	1723
343.317	2586
343.403	2145
343.490	2175
343.576	2294
343.662	2247
343.749	3377
343.835	4687
343.921	7007
344.008	33375
344.094	87405
344.180	24366
344.267	8290
344.353	20693
344.439	24771
344.525	13548
344.612	10306
344.698	10786
344.784	7388
344.870	3480
344.957	2900
345.043	4747
345.129	2727
345.215	7631
345.301	3706
345.387	2375
345.474	1206
345.560	1871
345.646	2012
345.732	1870
345.818	3278
345.904	3113
345.990	2576
346.076	2302
346.162	4257
346.249	3175
346.335	1317
346.421	2663
346.507	7565
346.593	33900
346.679	10300
346.765	3433
346.851	2396
346.937	2774
347.023	2711
347.108	3120
347.194	1917
347.280	1947
347.366	2493
347.452	8408
347.538	37485
347.624	31205
347.710	25615
347.796	4590
347.882	2530
347.967	1745
348.053	3490
348.139	2750
348.225	1799
348.311	1713
348.397	1404
348.482	3426
348.568	3961
348.654	1151
348.740	1672
348.825	1709
348.911	4088
348.997	15463
349.083	36231
349.168	7485
349.254	2929
349.340	3104
349.425	2330
349.511	4007
349.597	4181
349.682	6842
349.768	24229
349.854	13595
349.939	2982
350.025	2251
350.110	3558
350.196	1462
350.282	1668
350.367	1344
350.453	1988
350.538	3392
350.624	2824
350.709	4097
350.795	1529
350.880	2212
350.966	2236
351.051	3448
351.137	1828
351.222	2650
351.308	7601
351.393	24487
351.479	7307
351.564	3203
351.649	2550
351.735	1831
351.820	1882
351.906	2161
351.991	3303
352.076	12895
352.162	24851
352.247	5831
352.332	3520
352.418	7409
352.503	8398
352.588	32542
352.673	33175
352.759	6883
352.844	3595
352.929	2956
353.014	4894
353.100	3133
353.185	3423
353.270	7886
353.355	9583
353.441	3867
353.526	2853
353.611	6813
353.696	9627
353.781	5696
353.866	2700
353.952	3500
354.037	6976
354.122	17661
354.207	16301
354.292	6841
354.377	2943
354.462	2459
354.547	3282
354.632	3590
354.717	4153
354.802	4104
354.887	2227
354.972	1343
355.057	1839
355.142	1801
355.227	2750
355.312	5161
355.397	10663
355.482	27733
355.567	15870
355.652	10026
355.737	10275
355.822	25052
355.907	25866
355.991	5612
356.076	2883
356.161	2634
356.246	2088
356.331	2783
356.416	6017
356.501	36022
356.585	47812
356.670	8931
356.755	5923
356.840	7019
356.924	25273
357.009	96975
357.094	48907
357.179	11395
357.263	7334
357.348	6606
357.433	6731
357.517	6632
357.602	4408
357.687	4257
357.771	5876
357.856	24752
357.941	17997
358.025	23941
358.110	97594
358.195	59925
358.279	11205
358.364	6625
358.448	19915
358.533	56125
358.617	45407
358.702	40258
358.787	17698
358.871	10051
358.956	8546
359.040	3913
359.125	2711
359.209	3378
359.294	9402
359.378	21561
359.462	8504
359.547	4753
359.631	2932
359.716	1721
359.800	3474
359.885	4526
359.969	3026
360.053	2255
360.138	3230
360.222	4324
360.306	8240
360.391	7471
360.475	11940
360.559	31440
360.644	22477
360.728	16593
360.812	19308
360.896	62162
360.981	31452
361.065	18479
361.149	4765
361.233	4325
361.318	3338
361.402	3440
361.486	3465
361.570	3232
361.654	4063
361.739	9543
361.823	37847
361.907	67874
361.991	15118
362.075	7159
362.159	16567
362.243	11992
362.327	6568
362.411	6109
362.495	4548
362.580	3126
362.664	1830
362.748	1588
362.832	2197
362.916	2564
363.000	8075
363.084	32410
363.168	72543
363.252	22800
363.336	7822
363.420	9017
363.503	31797
363.587	46499
363.671	9285
363.755	5324
363.839	8721
363.923	4129
364.007	8103
364.091	10269
364.175	9609
364.258	51387
364.342	30782
364.426	9995
364.510	7005
364.594	9021
364.677	11821
364.761	50513
364.845	44569
364.929	16200
365.013	12863
365.096	8696
365.180	13088
365.264	12265
365.347	55767
365.431	29158
365.515	8180
365.598	2996
365.682	4282
365.766	5783
365.849	10073
365.933	4405
366.017	5448
366.100	5601
366.184	1749
366.267	2643
366.351	2988
366.435	2336
366.518	2140
366.602	1369
366.685	2140
366.769	3032
366.852	6216
366.936	11562
367.019	6704
367.103	4459
367.186	11571
367.270	3605
367.353	1367
367.436	2234
367.520	1986
367.603	3202
367.687	4329
367.770	10194
367.853	5875
367.937	14985
368.020	30604
368.104	8080
368.187	7401
368.270	12536
368.353	11261
368.437	10464
368.520	14616
368.603	14703
368.687	18049
368.770	42237
368.853	11312
368.936	9770
369.020	11293
369.103	4082
369.186	3006
369.269	3258
369.352	5309
369.436	10154
369.519	6755
369.602	2833
369.685	3539
369.768	3303
369.851	2596
369.934	1566
370.018	2950
370.101	8203
370.184	7149
370.267	4794
370.350	9528
370.433	13021
370.516	28745
370.599	35864
370.682	10449
370.765	24992
370.848	27956
370.931	46257
371.014	21352
371.097	4354
371.180	3709
371.263	2177
371.346	971
371.429	2419
371.511	2415
371.594	5879
371.677	10309
371.760	12660
371.843	9899
371.926	36556
372.009	96611
372.091	39319
372.174	19023
372.257	43559
372.340	20907
372.423	14337
372.505	19042
372.588	7634
372.671	12822
372.754	44689
372.836	26890
372.919	16293
373.002	39102
373.085	13624
373.167	9387
373.250	20581
373.332	44986
373.415	54579
373.498	116834
373.580	52360
373.663	48606
373.746	78692
373.828	22689
373.911	9261
373.993	8437
374.076	31605
374.159	34966
374.241	12857
374.324	38791
374.406	31256
374.489	29709
374.571	95832
374.654	46646
374.736	18680
374.819	55901
374.901	80471
374.983	90322
375.066	19610
375.148	7002
375.231	22699
375.313	54181
375.395	23699
375.478	5179
375.560	3483
375.643	4219
375.725	14136
375.807	63865
375.890	54589
375.972	18129
376.054	12009
376.136	12404
376.219	7151
376.301	15632
376.383	59066
376.465	27162
376.548	15476
376.630	17013
376.712	50896
376.794	27678
376.877	4408
376.959	1881
377.041	3000
377.123	6905
377.205	11116
377.287	2466
377.369	1751
377.452	2306
377.534	2018
377.616	2400
377.698	1973
377.780	1301
377.862	3221
377.944	2631
378.026	1337
378.108	2173
378.190	1475
378.272	1269
378.354	1143
378.436	989
378.518	2815
378.600	16304
378.682	14924
378.764	27535
378.846	25535
378.928	7131
379.010	10332
379.091	6466
379.173	2529
379.255	1874
379.337	4049
379.419	11805
379.501	41184
379.583	19407
379.664	4652
379.746	9702
379.828	29441
379.910	41060
379.991	36687
380.073	6928
380.155	4025
380.237	3508
380.318	2249
380.400	2311
380.482	5944
380.564	9866
380.645	7678
380.727	8289
380.809	6228
380.890	3963
380.972	2737
381.053	2688
381.135	3700
381.217	8346
381.298	32589
381.380	17442
381.461	10434
381.543	45030
381.624	67515
381.706	15274
381.787	7740
381.869	8519
381.951	19336
382.032	82367
382.113	63426
382.195	15758
382.276	9539
382.358	13935
382.439	46732
382.521	50301
382.602	80989
382.684	40909
382.765	63933
382.846	71320
382.928	81500
383.009	49791
383.090	34530
383.172	107248
383.253	171327
383.334	70473
383.416	71598
383.497	43676
383.578	18757
383.659	32946
383.741	96089
383.822	239719
383.903	142566
383.984	53486
384.066	89691
384.147	63935
384.228	14489
384.309	9618
384.390	7399
384.471	4953
384.553	5157
384.634	7815
384.715	8460
384.796	4350
384.877	4761
384.958	23906
385.039	36451
385.120	14803
385.201	6441
385.282	6623
385.363	7205
385.444	5762
385.525	10638
385.606	37144
385.687	36175
385.768	9617
385.849	11599
385.930	40593
386.011	81702
386.092	26611
386.173	5845
386.254	4388
386.335	4188
386.416	4986
386.496	17010
386.577	33281
386.658	12485
386.739	5882
386.820	6508
386.901	4454
386.981	4080
387.062	2380
387.143	3951
387.224	25625
387.304	28266
387.385	8713
387.466	4346
387.547	7339
387.627	5266
387.708	7572
387.789	43466
387.869	62286
387.950	18581
388.031	3976
388.111	1710
388.192	8773
388.273	13689
388.353	8489
388.434	4602
388.514	8454
388.595	39412
388.676	62511
388.756	34051
388.837	29496
388.917	20996
388.998	3263
389.078	3633
389.159	2718
389.239	2524
389.320	5431
389.400	4230
389.480	10038
389.561	29452
389.641	17868
389.722	5322
389.802	9924
389.883	11633
389.963	32560
390.043	23172
390.124	7613
390.204	9186
390.284	35019
390.365	24500
390.445	22243
390.525	52234
390.605	49772
390.686	21424
390.766	7146
390.846	3630
390.927	1634
391.007	2566
391.087	3530
391.167	3827
391.247	2444
391.328	3360
391.408	7992
391.488	6661
391.568	662
391.648	3588
391.728	6918
391.808	5809
391.888	5728
391.969	12857
392.049	28183
392.129	13530
392.209	11563
392.289	31960
392.369	18562
392.449	15844
392.529	9756
392.609	6713
392.689	7176
392.769	27445
392.849	28076
392.929	15302
393.009	41434
393.089	29083
393.169	7783
393.248	13356
393.328	82254
393.408	108697
393.488	22143
393.568	7760
393.648	5646
393.728	3682
393.807	3414
393.887	4913
393.967	4472
394.047	7716
394.127	10996
394.206	19722
394.286	59120
394.366	216122
394.446	266474
394.525	98306
394.605	29079
394.685	16561
394.764	25295
394.844	39818
394.924	30325
395.003	10713
395.083	6703
395.163	6235
395.242	6045
395.322	7313
395.402	3183
395.481	6568
395.561	13316
395.640	43760
395.720	32460
395.799	45957
395.879	47547
395.958	34281
396.038	94112
396.117	274087
396.197	328698
396.276	156325
396.356	56527
396.435	33460
396.515	18901
396.594	14088
396.673	14454
396.753	23065
396.832	87003
396.912	91819
396.991	33598
397.070	8741
397.150	4550
397.229	3790
397.308	3469
397.388	4224
397.467	3488
397.546	2720
397.625	853
397.705	4484
397.784	4811
397.863	2505
397.942	1787
398.022	2326
398.101	9266
398.180	39045
398.259	24082
398.338	6276
398.417	3690
398.497	2251
398.576	2759
398.655	590
398.734	2153
398.813	1931
398.892	9221
398.971	41165
399.050	23694
399.129	2601
399.208	824
399.287	2196
399.366	583
399.445	1515
399.524	1183
399.603	817
399.682	4241
399.761	11110
399.840	41353
399.919	38319
399.998	4970
400.077	1341
400.156	431
400.235	3456
400.313	2225
400.392	1841
400.471	13456
400.550	29727
400.629	8061
400.708	2649
400.786	2373
400.865	8565
400.944	11481
401.023	6605
401.102	304
401.180	690
401.259	915
401.338	1769
401.416	3340
401.495	1586
401.574	1812
401.652	1415
401.731	3254
401.810	1723
401.888	612
401.967	997
402.046	972
402.124	2841
402.203	4196
402.281	2267
402.360	2952
402.438	11936
402.517	9578
402.596	3063
402.674	1182
402.753	1695
402.831	1109
402.910	910
402.988	4458
403.066	17500
403.145	13386
403.223	6382
403.302	15935
403.380	12296
403.459	9494
403.537	4846
403.615	2043
403.694	182
403.772	1305
403.850	1356
403.929	527
404.007	624
404.085	2673
404.164	2685
404.242	3603
404.320	12612
404.398	44576
404.477	51782
404.555	67946
404.633	68893
404.711	38485
404.789	27322
404.868	6874
404.946	1697
405.024	1413
405.102	587
405.180	1194
405.258	154
405.336	1187
405.415	835
405.493	3559
405.571	4026
405.649	295
405.727	20
405.805	2761
405.883	2175
405.961	2205
406.039	3868
406.117	1557
406.195	3158
406.273	10754
406.351	54836
406.429	39667
406.507	6967
406.585	2051
406.663	2315
406.740	2845
406.818	2994
406.896	1187
406.974	2116
407.052	2780
407.130	28570
407.208	51283
407.285	11950
407.363	1202
407.441	1520
407.519	1195
407.596	1397
407.674	2935
407.752	8136
407.830	11942
407.907	6836
407.985	1696
408.063	2024
408.141	363
408.218	2464
408.296	2487
408.373	1119
408.451	1906
408.529	1886
408.606	140
408.684	592
408.762	248
408.839	412
408.917	-75
408.994	773
409.072	396
409.149	300
409.227	817
409.304	1246
409.382	305
409.459	-228
409.537	1065
409.614	982
409.692	-316
409.769	-13
409.846	521
409.924	3395
410.001	1751
410.079	1149
410.156	598
410.233	1736
410.311	1063
410.388	643
410.465	2172
410.543	1691
410.620	1625
410.697	1140
410.775	1834
410.852	-20
410.929	1776
411.006	2723
411.083	1177
411.161	5510
411.238	7001
411.315	3010
411.392	642
411.469	2747
411.547	3149
411.624	718
411.701	548
411.778	883
411.855	4127
411.932	1450
412.009	816
412.086	754
412.163	1336
412.240	1883
412.317	2666
412.394	2325
412.471	795
412.548	448
412.625	598
412.702	1180
412.779	3743
412.856	3127
412.933	132
413.010	858
413.087	2528
413.164	13509
413.241	24709
413.318	5693
413.395	3033
413.471	4691
413.548	2483
413.625	1767
413.702	1267
413.779	424
413.855	86
413.932	-408
414.009	-90
414.086	732
414.162	784
414.239	1975
414.316	11003
414.393	34694
414.469	14699
414.546	1132
414.623	322
414.699	482
414.776	1831
414.853	864
414.929	903
415.006	892
415.082	1228
415.159	597
415.236	802
415.312	679
415.389	2648
415.465	4206
415.542	2123
415.618	338
415.695	3048
415.771	1637
415.848	734
415.924	994
416.000	1551
416.077	1021
416.153	-700
416.230	-928
416.306	-106
416.383	-172
416.459	-127
416.535	271
416.612	147
416.688	232
416.764	522
416.841	-223
416.917	562
416.993	518
417.069	1259
417.146	2955
417.222	7526
417.298	3613
417.374	708
417.451	1341
417.527	2092
417.603	1773
417.679	1510
417.755	634
417.831	-864
417.908	200
417.984	195
418.060	-1013
418.136	2409
418.212	4898
418.288	1775
418.364	858
418.440	-1327
418.516	2081
418.592	3150
418.668	5759
418.744	10186
418.820	8110
418.896	2130
418.972	-345
419.048	421
419.124	4338
419.200	3937
419.276	852
419.352	-197
419.428	585
419.504	561
419.579	845
419.655	777
419.731	954
419.807	4999
419.883	11486
419.959	8686
420.034	1890
420.110	3159
420.186	18993
420.262	20058
420.337	2665
420.413	1293
420.489	671
420.565	173
420.640	62
420.716	615
420.792	75
420.867	1042
420.943	262
421.019	2007
421.094	1825
421.170	629
421.245	-501
421.321	768
421.397	-138
421.472	884
421.548	2782
421.623	3856
421.699	1582
421.774	1627
421.850	-426
421.925	2894
422.001	1887
422.076	600
422.152	-532
422.227	2766
422.302	2352
422.378	1708
422.453	4081
422.529	10288
422.604	43498
422.679	121392
422.755	74370
422.830	15987
422.905	4347
422.981	1863
423.056	1376
423.131	1073
423.207	405
423.282	1276
423.357	4819
423.432	3433
423.508	1463
423.583	7920
423.658	8133
423.733	2050
423.808	1851
423.883	2027
423.959	1401
424.034	332
424.109	1338
424.184	-484
424.259	37
424.334	-327
424.409	105
424.484	433
424.559	1184
424.634	-69
424.709	1176
424.784	1540
424.859	1687
424.934	2176
425.009	12853
425.084	26134
425.159	10908
425.234	1161
425.309	-15
425.384	5599
425.459	12756
425.534	4034
425.609	536
425.683	207
425.758	-374
425.833	615
425.908	1140
425.983	6205
426.058	25622
426.132	12458
426.207	1558
426.282	3784
426.357	2046
426.431	450
426.506	841
426.581	422
426.655	222
426.730	-19
426.805	325
426.879	1068
426.954	820
427.029	2743
427.103	16416
427.178	50003
427.253	26112
427.327	3473
427.402	3227
427.476	13405
427.551	6886
427.625	1719
427.700	1360
427.774	58
427.849	1544
427.923	-58
427.998	-281
428.072	-420
428.147	2324
428.221	6444
428.296	14225
428.370	6396
428.444	1146
428.519	2584
428.593	8312
428.667	6958
428.742	8321
428.816	6735
428.890	11888
428.965	21375
429.039	11389
429.113	10587
429.188	4506
429.262	1004
429.336	2388
429.410	11024
429.485	8176
429.559	6034
429.633	6694
429.707	2132
429.781	3051
429.855	15849
429.930	27446
430.004	19914
430.078	38761
430.152	31451
430.226	15841
430.300	17428
430.374	3002
430.448	2549
430.522	8763
430.596	37018
430.670	23237
430.744	24047
430.818	51874
430.892	15187
430.966	2904
431.040	922
431.114	-409
431.188	-856
431.262	119
431.336	262
431.410	3166
431.484	10365
431.557	8315
431.631	609
431.705	-387
431.779	373
431.853	7848
431.927	5919
432.000	754
432.074	742
432.148	1094
432.222	762
432.295	709
432.369	-138
432.443	1175
432.516	14132
432.590	48094
432.664	22358
432.737	1829
432.811	-250
432.885	-266
432.958	599
433.032	-603
433.106	-194
433.179	-298
433.253	257
433.326	-689
433.400	-122
433.473	-30
433.547	-1400
433.620	584
433.694	2316
433.767	2812
433.841	-636
433.914	-1230
433.988	300
434.061	196
434.134	-117
434.208	-275
434.281	-355
434.355	-396
434.428	368
434.501	183
434.575	-74
434.648	-488
434.721	30
434.795	-486
434.868	-662
434.941	-924
435.014	-576
435.088	180
435.161	147
435.234	1463
435.307	1978
435.381	1063
435.454	-118
435.527	-615
435.600	-344
435.673	-345
435.746	-101
435.819	-132
435.892	-355
435.966	-1060
436.039	-281
436.112	693
436.185	-1444
436.258	-309
436.331	-1205
436.404	-855
436.477	-664
436.550	-641
436.623	-552
436.696	-597
436.769	-289
436.842	166
436.915	-22
436.987	221
437.060	-203
437.133	-654
437.206	-39
437.279	510
437.352	-374
437.425	-449
437.498	-668
437.570	2682
437.643	3297
437.716	425
437.789	-512
437.861	1483
437.934	8364
438.007	4260
438.080	-337
438.152	793
438.225	2537
438.298	17994
438.370	62442
438.443	32227
438.516	8269
438.588	1963
438.661	-617
438.734	119
438.806	578
438.879	852
438.951	1408
439.024	4307
439.096	876
439.169	247
439.241	-274
439.314	-148
439.386	1120
439.459	1547
439.531	3019
439.604	1225
439.676	42
439.749	-234
439.821	-137
439.893	348
439.966	423
440.038	151
440.110	1255
440.183	-602
440.255	-700
440.327	669
440.400	7615
440.472	39232
440.544	31215
440.617	3798
440.689	2882
440.761	2748
440.833	6727
440.905	3757
440.978	-295
441.050	50
441.122	185
441.194	-362
441.266	-283
441.338	-778
441.411	1478
441.483	11645
441.555	23577
441.627	4563
441.699	1637
441.771	1586
441.843	-45
441.915	19
441.987	-629
442.059	-495
442.131	970
442.203	1734
442.275	1304
442.347	1088
442.419	-429
442.491	1294
442.563	4213
442.635	4388
442.706	7982
442.778	9464
442.850	1389
442.922	108
442.994	30
443.066	1847
443.137	949
443.209	338
443.281	480
443.353	952
443.425	3314
443.496	9213
443.568	9241
443.640	3559
443.711	619
443.783	-306
443.855	303
443.926	-459
443.998	-269
444.070	381
444.141	811
444.213	1114
444.285	2962
444.356	1322
444.428	753
444.499	-763
444.571	-748
444.642	-845
444.714	-1151
444.785	1277
444.857	1327
444.928	5900
445.000	3530
445.071	2820
445.143	4517
445.214	1204
445.285	1404
445.357	8940
445.428	9936
445.500	21703
445.571	16549
445.642	6975
445.714	4650
445.785	11044
445.856	2301
445.928	2974
445.999	2197
446.070	950
446.141	1214
446.213	2495
446.284	442
446.355	996
446.426	-100
446.497	-342
446.569	1331
446.640	2558
446.711	2423
446.782	119
446.853	96
446.924	432
446.995	-334
447.066	704
447.138	2003
447.209	880
447.280	-1975
447.351	-930
447.422	-258
447.493	-257
447.564	307
447.635	2094
447.706	534
447.777	-987
447.847	-362
447.918	-839
447.989	545
448.060	785
448.131	4479
448.202	3563
448.273	3411
448.344	463
448.414	-246
448.485	-4
448.556	-33
448.627	-667
448.698	51
448.768	-901
448.839	219
448.910	1108
448.981	1946
449.051	-187
449.122	-45
449.193	-279
449.263	-85
449.334	-511
449.405	278
449.475	3074
449.546	1428
449.616	2260
449.687	2402
449.758	675
449.828	-228
449.899	71
449.969	-1079
450.040	372
450.110	584
450.181	-144
450.251	3
450.322	-285
450.392	524
450.463	-494
450.533	-285
450.604	-365
450.674	-211
450.744	-350
450.815	-1092
450.885	139
450.955	-301
451.026	-1160
451.096	-53
451.166	-75
451.237	854
451.307	7056
451.377	2598
451.447	-752
451.518	190
451.588	35
451.658	-347
451.728	1058
451.799	6535
451.869	8932
451.939	278
452.009	-22
452.079	-130
452.149	28
452.219	1275
452.289	8660
452.360	6705
452.430	485
452.500	-43
452.570	587
452.640	98
452.710	3319
452.780	7458
452.850	5010
452.920	5577
452.990	897
453.060	296
453.129	1180
453.199	1437
453.269	6609
453.339	19102
453.409	31642
453.479	27396
453.549	45356
453.619	50150
453.688	19073
453.758	2241
453.828	411
453.898	411
453.968	359
454.037	259
454.087	-34
454.107	-170
454.168	-446
454.177	-506
454.247	592
454.249	556
454.316	-770
454.330	-568
454.386	191
454.411	1505
454.456	3469
454.492	5315
454.525	6925
454.574	3106
454.595	1447
454.655	38
454.665	-182
454.734	461
454.736	521
454.804	1802
454.817	2727
454.873	5962
454.898	7388
454.943	9801
454.979	5766
455.013	2137
455.060	1136
455.082	823
455.141	1290
455.152	1349
455.221	4369
455.222	4520
455.291	12451
455.303	12225
455.360	10543
455.384	15581
455.430	23688
455.465	18463
455.499	13532
455.546	10016
455.569	8256
455.627	4862
455.638	4288
455.707	1038
455.708	1053
455.777	1236
455.789	1191
455.846	894
455.869	779
455.916	370
455.950	388
455.985	479
456.031	858
456.054	1007
456.112	174
456.124	-0
456.193	161
456.193	145
456.262	1521
456.274	1546
456.332	1402
456.355	1269
456.401	803
456.436	839
456.470	914
456.516	450
456.540	269
456.597	-152
456.609	-278
456.678	-154
456.678	-167
456.747	193
456.759	187
456.817	151
456.840	211
456.886	93
456.920	116
456.955	285
457.001	806
457.024	1017
457.082	748
457.093	705
457.162	1455
457.163	1472
457.232	1125
457.243	1190
457.301	1372
457.324	946
457.370	127
457.405	615
457.439	1282
457.485	1016
457.508	750
457.566	950
457.577	1021
457.646	1640
457.647	1650
457.715	1388
457.727	1406
457.784	1219
457.808	1328
457.853	1740
457.889	1787
457.922	1712
457.969	1766
457.991	1741
458.050	1810
458.060	1829
458.129	1982
458.130	1994
458.198	1733
458.211	1760
458.267	1667
458.292	1365
458.336	1207
458.372	1311
458.405	1294
458.453	1476
458.474	1543
458.533	1838
458.543	1938
458.611	2639
458.614	2707
458.680	3340
458.694	3006
458.749	1578
458.775	1425
458.818	1250
458.855	1220
458.887	1319
458.936	1020
458.955	934
459.016	1387
459.024	1435
459.093	1686
459.097	1717
459.162	2067
459.177	2091
459.230	2405
459.257	2499
459.299	2448
459.338	2815
459.368	3158
459.418	3433
459.437	3246
459.499	2999
459.505	3014
459.574	1768
459.579	1780
459.643	1921
459.659	1864
459.711	2090
459.740	2258
459.780	2219
459.820	2407
459.849	2522
459.900	2620
459.917	2689
459.981	2505
459.986	2487
460.054	2708
460.061	2729
460.123	2596
460.141	2631
460.191	3123
460.222	3611
460.260	4065
460.302	4474
460.328	4463
460.382	3948
460.397	3802
460.462	3224
460.465	3231
460.534	3412
460.543	3499
460.602	6709
460.623	7958
460.671	11884
460.703	15966
460.739	16745
460.783	16716
460.808	14685
460.864	4336
460.876	3393
460.944	2881
460.945	2875
461.013	2695
461.024	2717
461.081	3081
461.104	3285
461.150	3284
461.184	3037
461.218	2710
461.264	2508
461.286	2636
461.345	2957
461.355	2970
461.423	3082
461.425	3080
461.491	2845
461.505	2926
461.559	4518
461.585	5205
461.628	8296
461.665	11055
461.696	12540
461.745	16401
461.764	14737
461.825	5679
461.832	5438
461.901	3820
461.905	3791
461.969	3606
461.985	3517
462.037	3413
462.065	3521
462.105	3661
462.145	3726
462.173	4734
462.225	6618
462.241	7287
462.305	10058
462.310	9836
462.378	7257
462.385	6715
462.446	4444
462.465	3997
462.514	3871
462.545	3874
462.582	3849
462.625	3714
462.650	3519
462.705	3112
462.718	3153
462.785	3731
462.786	3756
462.854	4927
462.865	5095
462.922	5954
462.945	6559
462.990	5958
463.025	5031
463.058	4581
463.104	3707
463.126	3455
463.184	3472
463.194	3579
463.262	3801
463.264	3816
463.330	3901
463.344	3919
463.398	4459
463.424	4678
463.466	4296
463.504	3959
463.533	4211
463.583	4434
463.601	4561
463.663	5291
463.669	5339
463.737	5688
463.743	5744
463.805	8086
463.823	8626
463.873	11575
463.903	13593
463.940	14918
463.982	16785
464.008	14183
464.062	7456
464.076	6959
464.142	4325
464.144	4326
464.211	4696
464.221	4782
464.279	4386
464.301	4182
464.347	4788
464.381	5359
464.414	5519
464.461	5571
464.482	6045
464.540	7334
464.550	7207
464.617	6206
464.620	6166
464.685	6642
464.699	6686
464.753	7768
464.779	8406
464.820	9603
464.859	10694
464.888	10557
464.938	10101
464.956	10061
465.018	9898
465.023	9825
465.091	8741
465.098	8602
465.158	8334
465.177	8268
465.226	8726
465.257	9007
465.293	9181
465.336	9325
465.361	9498
465.416	9869
465.428	10225
465.495	12010
465.496	12063
465.563	17149
465.575	18046
465.631	22544
465.654	24600
465.698	17875
465.734	11603
465.765	10505
465.813	9031
465.833	8884
465.893	8575
465.900	8555
465.968	8276
465.972	8236
466.035	8379
466.052	8418
466.102	8799
466.131	9038
466.170	8852
466.210	8536
466.237	8971
466.290	9796
466.304	9792
466.369	9661
466.372	9705
466.439	10508
466.449	10601
466.506	10811
466.528	10873
466.573	13635
466.607	15633
466.641	19946
466.687	25951
466.708	28516
466.766	35512
466.775	33524
466.842	18116
466.845	17343
466.909	13558
466.925	12680
466.977	12809
467.004	12849
467.044	12839
467.083	12801
467.111	13615
467.163	15073
467.178	15794
467.242	18652
467.245	18592
467.312	16605
467.321	16311
467.379	15451
467.400	15092
467.446	15042
467.480	14954
467.559	14737
467.638	12698
467.717	12305
467.796	14027
467.875	14266
467.955	13476
468.034	15504
468.113	28822
468.192	42249
468.271	18564
468.350	11802
468.429	11094
468.508	11850
468.588	10491
468.667	11208
468.746	12397
468.825	11618
468.904	10671
468.983	11877
469.062	14378
469.141	17496
469.220	10978
469.299	10864
469.378	11491
469.456	13879
469.535	14321
469.614	11980
469.693	13160
469.772	14653
469.851	16639
469.930	14805
470.009	12073
470.088	11106
470.166	11828
470.245	12888
470.324	14126
470.403	11744
470.482	11670
470.560	10039
470.639	11712
470.718	12282
470.797	11529
470.875	11531
470.954	14402
471.033	15360
471.111	9480
471.190	10739
471.269	8706
471.347	9581
471.426	9558
471.505	11786
471.583	13194
471.662	12741
471.740	11263
471.819	10809
471.898	9532
471.976	11085
472.055	10921
472.133	11188
472.212	12977
472.290	13739
472.369	11029
472.447	9902
472.526	9407
472.604	10361
472.683	10525
472.761	9627
472.839	10402
472.918	10207
472.996	10553
473.075	11319
473.153	11010
473.231	8624
473.310	9968
473.388	11381
473.466	10192
473.545	11089
473.623	12968
473.701	13696
473.780	10391
473.858	9376
473.936	11383
474.014	11622
474.093	10526
474.171	12097
474.249	15777
474.327	13626
474.405	9684
474.484	9178
474.562	8816
474.640	10072
474.718	9535
474.796	10951
474.874	11204
474.952	9701
475.030	9504
475.108	10639
475.187	11241
475.265	11339
475.343	10594
475.421	11936
475.499	9825
475.577	10318
475.655	11068
475.733	16671
475.811	24655
475.889	24840
475.966	19274
476.044	9238
476.122	10222
476.200	10387
476.278	10067
476.356	8950
476.434	9614
476.512	9985
476.590	11019
476.667	11270
476.745	9080
476.823	9743
476.901	9323
476.979	9225
477.056	8780
477.134	9455
477.212	10243
477.290	8962
477.367	8785
477.445	8368
477.523	8466
477.601	8910
477.678	8818
477.756	9779
477.834	10153
477.911	8591
477.989	9428
478.066	8216
478.144	9244
478.222	9610
478.299	8356
478.377	10372
478.454	7958
478.532	8200
478.609	8232
478.687	9469
478.764	9134
478.842	9272
478.919	8583
478.997	9110
479.074	8385
479.152	9571
479.229	10307
479.307	8507
479.384	7597
479.461	8853
479.539	6820
479.616	9195
479.694	8588
479.771	8499
479.848	8988
479.926	9714
480.003	12099
480.080	8106
480.157	7447
480.235	7994
480.312	8461
480.389	8045
480.467	11693
480.544	14440
480.621	10333
480.698	9046
480.775	9384
480.853	10150
480.930	8774
481.007	8668
481.084	8649
481.161	10200
481.238	9098
481.315	8522
481.392	8072
481.470	8259
481.547	8428
481.624	8970
481.701	7259
481.778	8752
481.855	8018
481.932	10775
482.009	15442
482.086	14594
482.163	8042
482.240	7771
482.317	9491
482.393	9003
482.470	8689
482.547	7913
482.624	8325
482.701	8046
482.778	7830
482.855	7058
482.932	7807
483.009	6755
483.085	6983
483.162	8717
483.239	8461
483.316	7138
483.393	7613
483.469	7328
483.546	7773
483.623	9598
483.699	7045
483.776	8124
483.853	8952
483.930	10737
484.006	21884
484.083	37207
484.160	30767
484.236	44926
484.313	41795
484.389	29607
484.466	25178
484.543	23277
484.619	22382
484.696	24289
484.772	24442
484.849	25636
484.925	22771
485.002	21789
485.078	23015
485.155	23971
485.231	22116
485.308	20885
485.384	20986
485.461	22991
485.537	30079
485.614	36286
485.690	22927
485.766	19681
485.843	21417
485.919	23438
485.995	26205
486.072	19750
486.148	19091
486.224	19382
486.301	18970
486.377	20925
486.453	21632
486.530	21472
486.606	27929
486.682	33677
486.758	30850
486.835	33680
486.911	27146
486.987	34880
487.063	39978
487.139	44915
487.215	36109
487.292	24596
487.368	21563
487.444	22148
487.520	23556
487.596	22337
487.672	22169
487.748	22953
487.824	27826
487.900	23451
487.976	20679
488.052	21348
488.128	23825
488.204	21886
488.280	20901
488.356	20335
488.432	28925
488.508	44669
488.584	25608
488.660	18398
488.736	19307
488.812	18935
488.888	22076
488.964	25470
489.039	37267
489.115	56705
489.191	43687
489.267	20318
489.343	18316
489.418	17633
489.494	16338
489.570	16468
489.646	17079
489.722	17168
489.797	16579
489.873	18809
489.949	32240
490.024	33864
490.100	16456
490.176	15546
490.251	16630
490.327	20095
490.403	16495
490.478	15069
490.554	13813
490.629	14001
490.705	13217
490.781	15099
490.856	14450
490.932	15605
491.007	15578
491.083	15434
491.158	14289
491.234	17306
491.309	25939
491.385	29348
491.460	15606
491.536	14554
491.611	15239
491.686	13413
491.762	17602
491.837	24620
491.913	40263
491.988	48845
492.063	70548
492.139	30835
492.214	18061
492.289	13792
492.365	11877
492.440	13928
492.515	13806
492.590	14126
492.666	12388
492.741	13084
492.816	18497
492.891	14506
492.967	13176
493.042	11663
493.117	12325
493.192	13597
493.267	17136
493.342	41687
493.418	70317
493.493	22663
493.568	12667
493.643	10831
493.718	12477
493.793	14908
493.868	16991
493.943	14198
494.018	11879
494.093	11649
494.168	11299
494.243	10385
494.318	9529
494.393	11048
494.468	11022
494.543	10144
494.618	10649
494.693	11040
494.768	9332
494.842	12299
494.917	9638
494.992	10568
495.067	10205
495.142	10689
495.217	10909
495.292	10964
495.366	12267
495.441	13705
495.516	17385
495.591	18493
495.665	39954
495.740	103134
495.815	66496
495.890	17586
495.964	12731
496.039	15549
496.114	13490
496.188	13751
496.263	14192
496.338	13230
496.412	13801
496.487	15726
496.561	15923
496.636	16966
496.710	15425
496.785	15487
496.860	18244
496.934	15407
497.009	14493
497.083	15766
497.158	16094
497.232	18134
497.307	20486
497.381	19657
497.455	19854
497.530	24112
497.604	21334
497.679	20939
497.753	27453
497.827	35280
497.902	35272
497.976	37478
498.050	53565
498.125	167018
498.199	228476
498.273	59335
498.348	40654
498.422	36112
498.496	33013
498.570	31640
498.645	27171
498.719	24420
498.793	24810
498.867	29695
498.941	34713
499.016	63979
499.090	191549
499.164	112032
499.238	20180
499.312	15807
499.386	18038
499.460	18476
499.534	16086
499.609	17363
499.683	22744
499.757	22142
499.831	29537
499.905	113320
499.979	150949
500.053	30410
500.127	24153
500.201	19894
500.275	14658
500.349	14365
500.422	15321
500.496	18636
500.570	28976
500.644	64305
500.718	140201
500.792	54339
500.866	13154
500.940	15718
501.013	15007
501.087	14844
501.161	20356
501.235	26831
501.309	38023
501.382	106408
501.456	131211
501.530	30298
501.603	40884
501.677	25407
501.751	11580
501.825	13689
501.898	17203
501.972	44514
502.046	44802
502.119	12846
502.193	21284
502.266	50594
502.340	37594
502.413	23059
502.487	45006
502.561	30597
502.634	14639
502.708	11102
502.781	10089
502.855	10474
502.928	8716
503.002	9326
503.075	8819
503.149	9721
503.222	9519
503.295	10198
503.369	11643
503.442	13671
503.516	28689
503.589	81866
503.662	71316
503.736	23477
503.809	38051
503.882	40942
503.956	44057
504.029	53891
504.102	19007
504.175	17747
504.249	11997
504.322	10442
504.395	11425
504.468	9009
504.542	8417
504.615	7835
504.688	7934
504.761	6661
504.834	9262
504.907	11361
504.980	15139
505.053	11896
505.127	10398
505.200	15607
505.273	10400
505.346	8984
505.419	7716
505.492	8130
505.565	7237
505.638	7670
505.711	7574
505.784	7224
505.857	6235
505.930	8279
506.003	6903
506.076	9132
506.149	9306
506.221	10946
506.294	10678
506.367	16694
506.440	60592
506.513	51741
506.586	12975
506.659	9314
506.731	8282
506.804	8408
506.877	10529
506.950	10428
507.022	8002
507.095	7884
507.168	10996
507.241	9060
507.313	6797
507.386	6927
507.459	8934
507.531	7777
507.604	6256
507.677	8215
507.749	6220
507.822	9281
507.894	14719
507.967	24878
508.040	16955
508.112	13717
508.185	12490
508.257	11620
508.330	15136
508.402	13887
508.475	11420
508.547	11968
508.620	11675
508.692	14011
508.765	13127
508.837	10378
508.909	10064
508.982	10579
509.054	11513
509.127	9976
509.199	9262
509.271	9799
509.344	9226
509.416	9143
509.488	10131
509.560	10172
509.633	9935
509.705	11232
509.777	10801
509.849	13189
509.922	13090
509.994	12267
510.066	12225
510.138	11496
510.210	19937
510.283	23443
510.355	18400
510.427	16161
510.499	14190
510.571	13622
510.643	13064
510.715	17634
510.787	16894
510.859	14308
510.931	14349
511.003	17115
511.076	18847
511.148	13102
511.219	12613
511.291	15883
511.363	20262
511.435	13650
511.507	12035
511.579	13108
511.651	12639
511.723	12186
511.795	11015
511.867	11478
511.939	11767
512.010	16476
512.082	16888
512.154	11336
512.226	12468
512.298	15532
512.369	23883
512.441	19338
512.513	16754
512.585	15133
512.656	14396
512.728	15565
512.800	13487
512.871	12276
512.943	14043
513.015	12403
513.086	12911
513.158	13468
513.230	13948
513.301	14337
513.373	17478
513.444	13599
513.516	11874
513.588	11997
513.659	13005
513.731	14253
513.802	12685
513.874	17416
513.945	27994
514.016	18144
514.088	11641
514.159	11700
514.231	13901
514.302	20517
514.374	18609
514.445	15880
514.516	21365
514.588	19916
514.659	14678
514.730	19907
514.802	20686
514.873	15060
514.944	21095
515.016	17507
515.087	16806
515.158	17449
515.229	23547
515.301	18391
515.372	24927
515.443	21283
515.514	17126
515.585	13241
515.656	13454
515.728	12622
515.799	12246
515.870	13434
515.941	12042
516.012	12097
516.083	16043
516.154	16167
516.225	17947
516.296	17246
516.367	15767
516.438	16584
516.509	18183
516.580	20917
516.651	38853
516.722	136300
516.793	114821
516.864	27995
516.935	24927
517.006	24472
517.077	28684
517.148	47614
517.219	119352
517.289	261492
517.360	112980
517.431	51480
517.502	17873
517.573	16941
517.643	14926
517.714	16769
517.785	19145
517.856	16117
517.926	19279
517.997	20603
518.068	21786
518.138	26978
518.209	32358
518.280	75191
518.350	318511
518.421	221790
518.492	35210
518.562	18551
518.633	15916
518.703	14123
518.774	16457
518.845	17006
518.915	16975
518.986	15806
519.056	17930
519.127	24279
519.197	33859
519.268	71094
519.338	68943
519.408	19589
519.479	19733
519.549	18404
519.620	14134
519.690	11931
519.760	12322
519.831	11631
519.901	13216
519.971	11044
520.042	11736
520.112	12820
520.182	13539
520.253	15445
520.323	13507
520.393	14170
520.463	24209
520.534	15387
520.604	28243
520.674	20288
520.744	14678
520.814	26402
520.885	32771
520.955	24060
521.025	80116
521.095	57235
521.165	13862
521.235	11748
521.305	10697
521.375	10939
521.445	11446
521.515	11434
521.585	13400
521.655	14710
521.725	13072
521.795	13117
521.865	9250
521.935	14089
522.005	13657
522.075	10766
522.145	11362
522.215	10785
522.285	13302
522.355	15149
522.424	23760
522.494	24728
522.564	16299
522.634	19588
522.704	55599
522.774	40218
522.843	13059
522.913	11511
522.983	11341
523.053	11997
523.122	11240
523.192	11408
523.262	24285
523.331	36647
523.401	14499
523.471	10047
523.540	9941
523.610	8560
523.680	8336
523.749	8758
523.819	9675
523.888	10275
523.958	8972
524.027	10308
524.097	10185
524.166	9350
524.236	8648
524.305	11029
524.375	8426
524.444	9040
524.514	10118
524.583	9198
524.653	10786
524.722	12241
524.791	9595
524.861	9763
524.930	8276
524.999	8120
525.069	11101
525.138	10953
525.207	11102
525.277	10769
525.346	9544
525.415	10247
525.484	8783
525.554	9665
525.623	9303
525.692	9162
525.761	9173
525.830	8962
525.900	7969
525.969	10312
526.038	9466
526.107	9394
526.176	15329
526.245	15071
526.314	13512
526.383	15921
526.452	14230
526.522	19377
526.591	27359
526.660	29471
526.729	20121
526.797	17812
526.867	26176
526.935	118383
527.004	139743
527.073	55643
527.142	13417
527.211	10409
527.280	10263
527.349	11209
527.418	8570
527.487	9807
527.555	7243
527.624	7815
527.693	7258
527.762	8631
527.831	7055
527.899	7400
527.968	8630
528.037	7151
528.106	8779
528.174	13227
528.243	12495
528.312	12947
528.380	17932
528.449	9614
528.518	9018
528.586	6691
528.655	8013
528.723	7774
528.792	7371
528.861	7760
528.929	6766
528.998	7952
529.066	6797
529.135	7031
529.203	7184
529.272	6130
529.340	7887
529.409	8314
529.477	6976
529.545	8338
529.614	10504
529.682	9153
529.751	10295
529.819	11924
529.887	9560
529.956	7227
530.024	8486
530.092	6985
530.161	8714
530.229	10558
530.297	8007
530.365	8043
530.434	7001
530.502	6983
530.570	6876
530.638	6013
530.707	8293
530.775	8997
530.843	8169
530.911	7312
530.979	6951
531.047	6685
531.115	7595
531.183	7557
531.252	8150
531.320	7946
531.388	7478
531.456	7478
531.524	6109
531.592	7923
531.660	9410
531.728	7272
531.796	6815
531.864	7361
531.932	7994
532.000	7356
532.067	8304
532.135	8754
532.203	9947
532.271	9843
532.339	13671
532.407	24899
532.475	24209
532.542	14914
532.610	13592
532.678	13490
532.746	34556
532.814	123177
532.881	57032
532.949	13228
533.017	9712
533.084	9321
533.152	8119
533.220	7977
533.287	9363
533.355	8453
533.423	7939
533.490	8193
533.558	7816
533.625	8474
533.693	9294
533.761	9927
533.828	10502
533.896	9704
533.963	14427
534.031	19903
534.098	23810
534.166	16919
534.233	10837
534.300	12493
534.368	11483
534.435	10792
534.503	9924
534.570	10361
534.637	9464
534.705	8955
534.772	10089
534.840	9142
534.907	12205
534.974	12930
535.041	9120
535.109	9393
535.176	8806
535.243	8691
535.310	7821
535.378	6974
535.445	7985
535.512	8499
535.579	8833
535.646	8238
535.714	9415
535.781	11611
535.848	11839
535.915	11921
535.982	12952
536.049	14198
536.116	14643
536.183	11435
536.250	10371
536.317	10990
536.384	11181
536.451	12391
536.518	13033
536.585	10332
536.652	12289
536.719	14865
536.786	12699
536.853	11114
536.920	14405
536.987	17798
537.053	17404
537.120	49811
537.187	77721
537.254	14872
537.321	9234
537.388	11038
537.454	8200
537.521	9577
537.588	8647
537.654	10411
537.721	12372
537.788	11291
537.855	9123
537.921	9062
537.988	9916
538.055	10725
538.121	9771
538.188	10466
538.254	11654
538.321	16731
538.388	16409
538.454	10297
538.521	8805
538.587	8914
538.654	9602
538.720	9044
538.787	9232
538.853	9155
538.920	10189
538.986	11369
539.053	9948
539.119	10289
539.185	9830
539.252	11108
539.318	13085
539.385	13864
539.451	12178
539.517	13766
539.583	13350
539.650	18342
539.716	52442
539.782	29758
539.849	11230
539.915	11611
539.981	9821
540.047	10959
540.114	11530
540.180	11959
540.246	10825
540.312	12861
540.378	17474
540.444	21141
540.510	18340
540.576	55236
540.643	35848
540.709	10750
540.775	11075
540.841	10198
540.907	11681
540.973	17489
541.039	17301
541.105	14822
541.171	11939
541.237	11442
541.303	11415
541.369	12531
541.435	12824
541.500	16445
541.566	13648
541.632	10794
541.698	9835
541.764	9405
541.830	9464
541.896	9376
541.961	10158
542.027	9774
542.093	10486
542.159	11150
542.224	10282
542.290	14626
542.356	18148
542.421	20436
542.487	14098
542.553	11635
542.618	12969
542.684	11667
542.750	11372
542.815	12460
542.881	14997
542.947	41012
543.012	55416
543.078	13898
543.143	11337
543.209	11867
543.274	10477
543.340	12485
543.405	19100
543.471	37988
543.536	17113
543.602	12448
543.667	9853
543.732	11336
543.798	10143
543.863	11816
543.928	9663
543.994	9567
544.059	10204
544.124	10927
544.190	10478
544.255	11723
544.320	11681
544.386	10746
544.451	12807
544.516	14983
544.581	13774
544.646	26249
544.712	60776
544.777	23324
544.842	13826
544.907	14141
544.972	12551
545.037	12664
545.102	13152
545.168	13257
545.233	13898
545.298	14709
545.363	15054
545.428	16802
545.493	21239
545.558	40348
545.623	30694
545.688	14211
545.753	13131
545.818	12210
545.883	13949
545.947	13132
546.012	13741
546.077	12640
546.142	14004
546.207	13182
546.272	14760
546.337	15331
546.401	13984
546.466	13654
546.531	12032
546.596	13994
546.661	13023
546.725	13701
546.790	11792
546.855	12412
546.919	11601
546.984	13092
547.049	12233
547.113	12898
547.178	12644
547.243	12936
547.307	13301
547.372	14921
547.436	13974
547.501	13481
547.565	12383
547.630	14411
547.695	14829
547.759	14457
547.823	14183
547.888	13382
547.952	12256
548.017	13404
548.081	14142
548.146	16181
548.210	15605
548.274	12947
548.339	12331
548.403	13316
548.468	13012
548.532	12235
548.596	12855
548.660	12495
548.725	12640
548.789	13185
548.853	15421
548.917	14724
548.982	14953
549.046	17697
549.110	12527
549.174	13422
549.238	12895
549.303	12661
549.367	13348
549.431	12313
549.495	12559
549.559	12045
549.623	12766
549.687	14041
549.751	18757
549.815	16245
549.879	14806
549.943	12888
550.007	13926
550.071	13835
550.135	16794
550.199	16170
550.263	14119
550.327	14684
550.391	16597
550.455	14892
550.519	13490
550.582	14623
550.646	15731
550.710	20374
550.774	15175
550.838	13504
550.901	13545
550.965	14727
551.029	13678
551.093	16308
551.156	16659
551.220	24747
551.284	29492
551.347	17545
551.411	24874
551.475	37721
551.538	17215
551.602	13996
551.666	13283
551.729	13186
551.793	13272
551.856	14811
551.920	13505
551.983	14020
552.047	13942
552.110	13174
552.174	13837
552.237	13153
552.301	13956
552.364	13572
552.428	12809
552.491	12767
552.554	12797
552.618	13213
552.681	14177
552.745	13984
552.808	16496
552.871	18771
552.934	17043
552.998	13804
553.061	14579
553.124	16211
553.187	16105
553.251	16212
553.314	18074
553.377	18332
553.440	21598
553.503	46127
553.567	126628
553.630	46713
553.693	16559
553.756	15023
553.819	13559
553.882	13341
553.945	12558
554.008	13384
554.071	11175
554.134	13073
554.197	12806
554.260	12738
554.323	13640
554.386	13578
554.449	12377
554.512	14238
554.575	12236
554.638	13099
554.701	12658
554.764	12525
554.827	12533
554.889	12635
554.952	11819
555.015	12295
555.078	11975
555.141	12925
555.203	11843
555.266	12164
555.329	12544
555.391	11907
555.454	11983
555.517	12653
555.580	12285
555.642	11559
555.705	11196
555.768	12070
555.830	12676
555.893	11304
555.955	11997
556.018	12658
556.080	12119
556.143	11627
556.206	11135
556.268	12709
556.330	12615
556.393	12360
556.455	12335
556.518	14106
556.580	15389
556.643	12503
556.705	12374
556.767	11510
556.830	12326
556.892	11479
556.955	15059
557.017	15338
557.079	12596
557.142	12723
557.204	12406
557.266	17654
557.328	19416
557.391	12760
557.453	11212
557.515	12186
557.577	12616
557.639	13276
557.701	11467
557.764	10569
557.826	11559
557.888	11951
557.950	10788
558.012	10718
558.074	11685
558.136	13079
558.198	15304
558.260	15017
558.322	12258
558.384	12834
558.446	12810
558.508	13208
558.570	14819
558.632	18050
558.694	27950
558.756	19334
558.818	19833
558.880	43670
558.942	28903
559.003	17838
559.065	15434
559.127	12419
559.189	12468
559.251	12236
559.312	12990
559.374	13927
559.436	26693
559.498	26895
559.559	12747
559.621	12984
559.683	12176
559.744	15154
559.806	21926
559.868	30058
559.929	17134
559.991	14734
560.052	13541
560.114	15955
560.176	17646
560.237	14768
560.299	19036
560.360	14915
560.422	13293
560.483	13894
560.545	13675
560.606	13112
560.667	12874
560.729	12835
560.790	13162
560.852	13743
560.913	12863
560.974	12225
561.036	13154
561.097	12519
561.158	14083
561.220	14582
561.281	13071
561.342	12676
561.403	15342
561.465	15935
561.526	22745
561.587	34305
561.648	18512
561.709	15783
561.771	15130
561.832	13458
561.893	13749
561.954	13901
562.015	13693
562.076	14672
562.137	14657
562.198	14371
562.259	14453
562.320	14205
562.381	14372
562.442	17066
562.503	16821
562.564	14910
562.625	14547
562.686	13925
562.747	13317
562.808	14056
562.869	14196
562.930	16369
562.991	16730
563.051	16234
563.112	14562
563.173	13966
563.234	13789
563.294	14643
563.355	14424
563.416	15407
563.477	14339
563.537	13908
563.598	14648
563.659	15216
563.720	14152
563.780	15295
563.841	15103
563.901	15586
563.962	13746
564.023	15076
564.083	15130
564.144	13995
564.204	15438
564.265	15298
564.325	15869
564.386	19930
564.446	22022
564.507	15008
564.567	15020
564.628	15913
564.688	14865
564.749	14780
564.809	15693
564.869	17802
564.930	16282
564.990	15455
565.050	15551
565.111	15445
565.171	14592
565.231	15736
565.292	16326
565.352	14051
565.412	14991
565.472	14707
565.532	15593
565.593	15522
565.653	15173
565.713	15942
565.773	17433
565.833	16097
565.893	19563
565.953	16419
566.013	16630
566.074	17954
566.134	18605
566.194	22135
566.254	24855
566.314	21250
566.374	17970
566.434	19699
566.494	19198
566.554	19601
566.614	19122
566.673	20803
566.733	21182
566.793	21623
566.853	22383
566.913	23527
566.973	23719
567.033	23943
567.092	22392
567.152	22436
567.212	23608
567.272	24208
567.331	24726
567.391	25187
567.451	25915
567.511	28549
567.570	27868
567.630	25125
567.690	23464
567.749	24422
567.809	25535
567.868	28435
567.928	29882
567.988	33875
568.047	38266
568.107	44415
568.166	55591
568.226	76499
568.285	108175
568.345	111054
568.404	96042
568.464	85389
568.523	78086
568.582	78130
568.642	80157
568.701	90459
568.761	115946
568.820	166543
568.879	194560
568.939	166736
568.998	132536
569.057	104884
569.116	86917
569.176	70443
569.235	58837
569.294	52126
569.353	45020
569.413	40701
569.472	37267
569.531	32767
569.590	31013
569.649	29085
569.708	26822
569.767	26090
569.827	24975
569.886	23692
569.945	22143
570.004	21081
570.063	20731
570.122	19976
570.181	20518
570.240	19778
570.299	19818
570.358	20260
570.417	18106
570.475	17783
570.534	17414
570.593	17119
570.652	17030
570.711	17974
570.770	16388
570.829	16687
570.887	15683
570.946	17258
571.005	15528
571.064	15631
571.122	16183
571.181	15586
571.240	14916
571.299	14426
571.357	14618
571.416	15813
571.475	15182
571.533	16223
571.592	14415
571.650	14612
571.709	13243
571.768	14331
571.826	13141
571.885	13873
571.943	13806
572.002	13142
572.060	14058
572.119	13669
572.177	13680
572.236	13506
572.294	13466
572.352	13608
572.411	13450
572.469	13162
572.528	12142
572.586	13467
572.644	13379
572.703	16209
572.761	13801
572.819	13221
572.877	13263
572.936	13420
572.994	13247
573.052	12682
573.110	13014
573.169	12712
573.227	11888
573.285	12959
573.343	13112
573.401	13175
573.459	12087
573.517	12804
573.576	12104
573.634	13412
573.692	11907
573.750	12614
573.808	12267
573.866	12823
573.924	13572
573.982	13247
574.040	12867
574.098	12506
574.155	12721
574.213	11633
574.271	12037
574.329	11675
574.387	11813
574.445	12165
574.503	11257
574.560	11273
574.618	11261
574.676	10891
574.734	11713
574.792	12582
574.849	12376
574.907	11849
574.965	11612
575.022	11136
575.080	11286
575.138	12146
575.195	11051
575.253	11700
575.311	11993
575.368	11938
575.426	11229
575.483	11632
575.541	11376
575.598	11644
575.656	11789
575.713	11510
575.771	11501
575.828	11524
575.886	12279
575.943	12892
576.001	12111
576.058	12237
576.115	11982
576.173	13378
576.230	13379
576.287	14186
576.345	13300
576.402	12580
576.459	12464
576.517	13186
576.574	12270
576.631	12771
576.688	11654
576.746	13053
576.803	11355
576.860	12381
576.917	12958
576.974	12634
577.031	12408
577.089	12657
577.146	12890
577.203	12345
577.260	12924
577.317	13026
577.374	13193
577.431	12559
577.488	12707
577.545	12064
577.602	13051
577.659	13277
577.716	13215
577.773	13392
577.830	13739
577.886	13563
577.943	12821
578.000	13363
578.057	13355
578.114	15287
578.171	15100
578.227	18901
578.284	21842
578.341	18907
578.398	16419
578.454	14451
578.511	14742
578.568	15056
578.625	13297
578.681	14435
578.738	12434
578.794	13327
578.851	14567
578.908	13046
578.964	14446
579.021	15567
579.077	13237
579.134	13826
579.190	13214
579.247	14468
579.303	13087
579.360	13212
579.416	13102
579.473	13372
579.529	13230
579.586	13691
579.642	13493
579.698	13275
579.755	13902
579.811	15499
579.867	14921
579.924	14931
579.980	15113
580.036	17380
580.093	19063
580.149	25072
580.205	30868
580.261	27518
580.317	22840
580.374	20320
580.430	17996
580.486	16967
580.542	15756
580.598	15344
580.619	15288
580.654	15209
580.692	15102
580.710	15074
580.765	14757
580.767	14762
580.823	15170
580.838	15167
580.879	15220
580.911	14981
580.935	14831
580.984	14208
580.991	14138
581.047	15482
581.057	15464
581.103	15451
581.130	15864
581.159	16338
581.203	17195
581.215	17441
581.270	17544
581.276	17396
581.326	16071
581.349	16046
581.382	16049
581.422	16165
581.438	16225
581.494	16268
581.494	16244
581.550	15015
581.567	15184
581.606	15561
581.640	15538
581.661	15555
581.713	16149
581.717	16210
581.773	14694
581.786	14967
581.829	15797
581.859	15704
581.885	15694
581.932	16035
581.940	16090
581.996	16173
582.004	16143
582.052	16064
582.077	15746
582.107	15384
582.150	14842
582.163	14696
582.219	16207
582.223	16208
582.274	16258
582.296	16081
582.330	15755
582.368	16142
582.386	16386
582.441	16773
582.441	16777
582.497	16087
582.514	16087
582.552	16292
582.587	16349
582.608	16272
582.659	17091
582.663	17162
582.719	17678
582.732	17236
582.774	15912
582.805	16412
582.830	16850
582.877	17111
582.885	17170
582.941	17112
582.950	17334
582.996	18238
583.023	18388
583.052	18708
583.095	19344
583.107	19591
583.162	21698
583.168	21987
583.218	24247
583.240	23953
583.273	23220
583.313	21939
583.328	21518
583.384	20839
583.385	20793
583.439	19413
583.458	19500
583.494	19762
583.531	19365
583.549	19146
583.603	19424
583.605	19432
583.660	18320
583.676	18395
583.715	18563
583.748	18784
583.770	19023
583.820	19528
583.825	19578
583.881	19033
583.893	19251
583.936	19891
583.965	19568
583.991	19346
584.038	20501
584.046	20672
584.101	20187
584.110	20193
584.156	20326
584.183	20660
584.211	20854
584.255	20791
584.266	20855
584.321	20457
584.328	20551
584.376	21190
584.400	21085
584.431	21174
584.472	21669
584.486	21642
584.541	21712
584.545	21715
584.596	22157
584.617	22143
584.651	22047
584.689	22833
584.706	23282
584.761	23746
584.762	23749
584.816	23541
584.834	23654
584.871	23905
584.906	24058
584.926	24194
584.978	24435
584.980	24442
585.035	25236
585.051	25383
585.090	25896
585.123	26538
585.145	26967
585.195	27767
585.200	27856
585.254	27976
585.267	28293
585.309	29417
585.340	30645
585.364	31217
585.412	30180
585.419	30026
585.473	30470
585.484	30296
585.528	30087
585.556	30850
585.583	31736
585.628	32906
585.637	33321
585.692	35966
585.700	36616
585.747	40234
585.772	41027
585.801	39305
585.845	34828
585.856	34238
585.910	35106
585.917	35015
585.965	34720
585.989	34968
586.019	35561
586.061	36381
586.074	36623
586.128	37174
586.133	37302
586.183	39046
586.205	39565
586.237	39949
586.277	40029
586.292	40232
586.346	41447
586.349	41531
586.401	42612
586.421	42805
586.455	43552
586.493	45407
586.509	46578
586.564	48847
586.565	48966
586.618	56500
586.637	58275
586.672	57675
586.709	54535
586.727	53142
586.781	52000
586.781	52013
586.835	53873
586.853	54758
586.889	56047
586.925	56188
586.944	56607
586.996	59612
586.998	59710
587.052	62417
587.068	63261
587.106	65216
587.140	66434
587.161	67337
587.212	70712
587.215	70888
587.269	73535
587.284	74255
587.323	76844
587.356	79481
587.377	80972
587.427	84714
587.431	85079
587.485	89089
587.499	90455
587.539	94440
587.571	97575
587.593	99963
587.643	105317
587.648	105964
587.702	112939
587.715	114530
587.755	120292
587.786	125662
587.810	129824
587.858	138343
587.864	139590
587.917	151413
587.930	154469
587.971	165303
588.001	172583
588.025	179251
588.073	193944
588.079	196227
588.133	216578
588.145	221474
588.187	241312
588.217	255245
588.241	268987
588.288	295994
588.295	300399
588.348	338417
588.360	346809
588.402	384760
588.431	411630
588.456	439163
588.503	493624
588.510	503639
588.564	583353
588.575	600317
588.617	689217
588.646	749844
588.671	818602
588.718	948656
588.725	973797
588.778	1158754
588.789	1193527
588.832	1296805
588.861	1358211
588.886	1325697
588.932	1235129
588.939	1215438
588.993	1016666
589.004	990150
589.047	1209653
589.075	1350079
589.100	1371720
589.147	1378920
589.154	1362061
589.207	1199606
589.218	1163804
589.261	1082254
589.290	1026491
589.314	1029124
589.361	1037415
589.368	1053433
589.421	1180068
589.433	1205128
589.475	1290530
589.504	1339881
589.528	1286892
589.576	1145786
589.582	1153428
589.635	1235614
589.647	1252355
589.689	1253068
589.718	1233842
589.742	1121529
589.790	882590
589.795	865393
589.849	688507
589.861	647701
589.902	563859
589.932	501219
589.955	466419
590.004	393798
590.009	389138
590.062	338014
590.075	325589
590.115	297269
590.146	275439
590.168	263410
590.218	236896
590.222	235347
590.275	214132
590.289	208535
590.328	195537
590.360	185063
590.381	179269
590.431	165889
590.435	165291
590.488	153089
590.503	149714
590.541	143110
590.574	137307
590.594	134319
590.645	126891
590.647	126706
590.700	118997
590.716	116715
590.753	112062
590.787	107644
590.806	106123
590.859	101815
590.859	101808
590.912	96126
590.930	94316
590.965	92010
591.001	89542
591.018	88568
591.071	85341
591.072	85238
591.124	82311
591.143	81235
591.177	79735
591.214	77843
591.230	77098
591.283	74737
591.285	74565
591.336	72882
591.356	72195
591.389	70973
591.427	69183
591.442	68473
591.495	65741
591.498	65481
591.547	63676
591.569	62752
591.600	61672
591.640	60061
591.653	60192
591.706	60576
591.711	60555
591.759	58667
591.782	57578
591.811	57892
591.853	58280
591.864	57799
591.917	54930
591.924	54450
591.969	53155
591.995	52376
592.022	52016
592.066	51187
592.075	51205
592.127	51058
592.137	50970
592.180	52465
592.208	53353
592.233	51488
592.279	47674
592.285	47585
592.338	46486
592.350	46182
592.390	45984
592.421	45755
592.443	45473
592.491	44688
592.495	44640
592.548	43266
592.562	42841
592.600	42308
592.633	41778
592.653	41711
592.704	41207
592.705	41439
592.775	41275
592.846	40638
592.916	40117
592.987	40808
593.058	38711
593.128	36879
593.199	36674
593.270	35585
593.341	35384
593.411	34096
593.482	34772
593.553	34809
593.623	32476
593.694	32220
593.764	32427
593.835	31102
593.906	31458
593.976	30817
594.047	30557
594.117	31615
594.188	31636
594.258	29171
594.329	29457
594.399	27942
594.470	28724
594.540	27389
594.611	27030
594.681	26896
594.751	27441
594.822	27106
594.892	27462
594.963	26852
595.033	26346
595.103	26507
595.174	27059
595.244	30326
595.314	36429
595.384	25944
595.455	24139
595.525	24092
595.595	24728
595.665	24581
595.736	23508
595.806	23312
595.876	23231
595.946	23070
596.016	22436
596.087	23434
596.157	23313
596.227	22548
596.297	23299
596.367	23178
596.437	23729
596.507	25615
596.577	30401
596.647	24549
596.717	21570
596.787	21974
596.857	21741
596.927	22157
596.997	21474
597.067	21889
597.137	23383
597.207	22848
597.277	20847
597.347	21040
597.417	21603
597.487	22190
597.557	22577
597.626	21529
597.696	22364
597.766	23434
597.836	27988
597.906	23241
597.975	20866
598.045	19884
598.115	20086
598.185	19708
598.254	20416
598.324	20759
598.394	20041
598.464	20231
598.533	19611
598.603	18102
598.672	19245
598.742	19772
598.812	19105
598.881	18979
598.951	18430
599.020	17569
599.090	18562
599.159	18696
599.229	18059
599.299	17329
599.368	17908
599.437	17325
599.507	18181
599.576	17814
599.646	20542
599.715	19548
599.785	18123
599.854	17595
599.924	18570
599.993	19235
600.062	17555
600.132	17381
600.201	16629
600.270	17763
600.340	18228
600.409	17126
600.478	17735
600.547	16848
600.617	17118
600.686	16872
600.755	17241
600.824	16421
600.894	16737
600.963	16086
601.032	15651
601.101	15578
601.170	16092
601.239	15701
601.308	17050
601.378	16363
601.447	15817
601.516	15680
601.585	15605
601.654	15681
601.723	15557
601.792	16052
601.861	16992
601.930	19647
601.999	18841
602.068	16324
602.137	15715
602.206	15483
602.275	16254
602.343	18003
602.412	18046
602.481	14785
602.550	14817
602.619	15477
602.688	15309
602.756	15904
602.825	15187
602.894	14567
602.963	14767
603.032	14494
603.100	13647
603.169	15040
603.238	14942
603.307	14891
603.375	13920
603.444	13912
603.513	14648
603.581	14330
603.650	14121
603.719	13800
603.787	13795
603.856	13868
603.924	14218
603.993	14327
604.061	13575
604.130	13839
604.198	14325
604.267	14039
604.335	14447
604.404	13674
604.472	13918
604.541	13005
604.609	14545
604.678	13197
604.746	14339
604.815	13728
604.883	13457
604.951	13784
605.020	12922
605.088	13418
605.156	13226
605.225	13608
605.293	12556
605.361	12907
605.429	13799
605.498	13386
605.566	14442
605.634	13421
605.702	13721
605.771	14126
605.839	13265
605.907	13151
605.975	12872
606.043	12950
606.111	13284
606.180	14069
606.248	15707
606.316	18039
606.384	14535
606.452	15159
606.520	17659
606.588	15177
606.656	12471
606.724	11662
606.792	12257
606.860	10867
606.928	10902
606.996	10772
607.064	11048
607.132	11366
607.200	11040
607.267	11128
607.335	11715
607.403	10766
607.471	11127
607.539	11177
607.607	10966
607.674	11721
607.742	11222
607.810	12055
607.878	12161
607.946	10174
608.013	11263
608.081	12220
608.149	11573
608.216	11271
608.284	12519
608.352	10454
608.419	11411
608.487	14913
608.555	13534
608.622	11946
608.690	11031
608.757	11486
608.825	12492
608.893	12292
608.960	14508
609.028	15980
609.095	15817
609.163	13044
609.230	12336
609.298	12635
609.365	10937
609.432	11800
609.500	12105
609.567	11815
609.635	13428
609.702	12846
609.769	12928
609.837	14181
609.904	13539
609.971	13118
610.039	16309
610.106	20239
610.173	32043
610.241	62206
610.308	103141
610.375	84183
610.442	28223
610.509	16226
610.577	14952
610.644	12102
610.711	12995
610.778	12896
610.845	12320
610.912	12444
610.980	14477
611.047	19664
611.114	18069
611.181	11653
611.248	11294
611.315	12085
611.382	10730
611.449	10410
611.516	11121
611.583	10726
611.650	12046
611.717	11511
611.784	11315
611.851	12240
611.918	13944
611.984	13161
612.051	15940
612.118	24471
612.185	50204
612.252	50456
612.319	16189
612.386	12521
612.452	11726
612.519	12732
612.586	15456
612.653	14552
612.719	11573
612.786	11370
612.853	10930
612.919	11110
612.986	10911
613.053	10446
613.120	10305
613.186	10170
613.253	12134
613.319	10414
613.386	10278
613.453	11006
613.519	11995
613.586	15005
613.652	22288
613.719	18418
613.785	17091
613.852	11645
613.918	10905
613.985	12729
614.051	17582
614.118	33556
614.184	44894
614.250	14546
614.317	10885
614.383	10013
614.449	9788
614.516	10344
614.582	10376
614.648	10071
614.715	10427
614.781	10471
614.847	11729
614.914	10854
614.980	11794
615.046	10583
615.112	11293
615.179	12227
615.245	15153
615.311	20005
615.377	37124
615.443	51168
615.509	30422
615.575	18823
615.642	15626
615.708	15104
615.774	16080
615.840	19463
615.906	24081
615.972	37491
616.038	76462
616.104	109629
616.170	102132
616.236	95995
616.302	31943
616.368	19333
616.434	16764
616.500	15960
616.565	14248
616.631	13787
616.697	14195
616.763	13832
616.829	15234
616.895	19905
616.961	21690
617.026	16309
617.092	12787
617.158	11798
617.224	11190
617.289	12213
617.355	11474
617.421	10755
617.487	11838
617.552	11220
617.618	10030
617.684	9769
617.749	12531
617.815	10611
617.880	10250
617.946	11257
618.012	11204
618.077	11223
618.143	11718
618.208	11700
618.274	11520
618.339	11492
618.405	11955
618.470	10705
618.536	11259
618.601	13330
618.667	12436
618.732	12218
618.798	12479
618.863	11407
618.928	11496
618.994	13248
619.059	14576
619.124	19193
619.190	15724
619.255	11945
619.320	12108
619.386	11478
619.451	10142
619.516	12099
619.581	12322
619.647	11648
619.712	11576
619.777	11458
619.842	11990
619.907	11619
619.972	12388
620.038	11831
620.103	11220
620.168	9899
620.233	10998
620.298	10771
620.363	11637
620.428	11145
620.493	12050
620.558	10343
620.623	10961
620.688	11075
620.753	11038
620.818	10878
620.883	11016
620.948	10631
621.013	10547
621.078	11574
621.143	10340
621.207	12744
621.272	12405
621.337	12687
621.402	13423
621.467	15067
621.532	16572
621.596	14035
621.661	14386
621.726	12063
621.791	12497
621.855	14035
621.920	14656
621.985	13874
622.049	15773
622.114	14811
622.179	14162
622.243	13787
622.308	14622
622.373	13973
622.437	14670
622.502	13708
622.566	14080
622.631	12867
622.695	14756
622.760	13505
622.824	13342
622.889	13800
622.953	15634
623.018	21224
623.082	23618
623.147	14165
623.211	13803
623.276	15039
623.340	14130
623.404	12825
623.469	13315
623.533	12981
623.597	13167
623.662	12508
623.726	12854
623.790	12555
623.854	13190
623.919	13462
623.983	12506
624.047	12839
624.111	12481
624.176	12051
624.240	13998
624.304	15582
624.368	13318
624.432	12882
624.496	12167
624.560	13923
624.625	15472
624.689	13009
624.753	12778
624.817	11344
624.881	12077
624.945	12535
625.009	13321
625.073	11979
625.137	13278
625.201	16306
625.265	17783
625.329	12768
625.393	12952
625.456	13189
625.520	12356
625.584	13657
625.648	16176
625.712	21043
625.776	42952
625.839	55526
625.903	29996
625.967	14099
626.031	19847
626.095	31158
626.158	17718
626.222	11620
626.286	11409
626.349	10717
626.413	10212
626.477	11866
626.540	11174
626.604	10565
626.668	11373
626.731	10968
626.795	11319
626.858	10882
626.922	10407
626.986	11597
627.049	9040
627.113	10073
627.176	10422
627.240	9544
627.303	9974
627.366	8371
627.430	10790
627.493	10050
627.557	10200
627.620	10237
627.684	10482
627.747	10227
627.810	9487
627.874	10057
627.937	9702
628.000	10977
628.064	11180
628.127	9270
628.190	9073
628.253	9791
628.317	8716
628.380	9528
628.443	9359
628.506	10432
628.569	9414
628.632	8464
628.696	9686
628.759	8451
628.822	8851
628.885	8384
628.948	9548
629.011	8837
629.074	8505
629.137	8837
629.200	8771
629.263	10659
629.326	7952
629.389	8842
629.452	8512
629.515	9712
629.578	8967
629.641	9919
629.704	8929
629.767	9375
629.830	9605
629.892	8342
629.955	8981
630.018	9865
630.081	8747
630.144	11161
630.207	9324
630.269	10324
630.332	9240
630.395	9058
630.458	7606
630.520	8149
630.583	8971
630.646	8100
630.708	8532
630.771	8133
630.834	8218
630.896	6748
630.959	7012
631.021	7241
631.084	7912
631.146	8374
631.209	9239
631.272	7525
631.334	8499
631.397	6726
631.459	7758
631.522	7572
631.584	7422
631.646	8047
631.709	8402
631.771	10074
631.834	9615
631.896	8199
631.958	6722
632.021	7308
632.083	6410
632.145	7074
632.208	7373
632.270	8396
632.332	7282
632.395	5955
632.457	7795
632.519	6914
632.581	7243
632.643	6257
632.706	7842
632.768	5983
632.830	6656
632.892	7149
632.954	6651
633.016	7839
633.078	6257
633.141	6602
633.203	7271
633.265	7527
633.327	7757
633.389	6545
633.451	8362
633.513	8130
633.575	9054
633.637	8172
633.698	8009
633.760	7052
633.822	7304
633.884	6654
633.946	6997
634.008	6590
634.070	7497
634.132	9224
634.193	7266
634.255	6895
634.317	6025
634.379	6741
634.441	6321
634.502	6075
634.564	7077
634.626	6394
634.687	6316
634.749	6644
634.811	6804
634.873	5749
634.934	6408
634.996	5780
635.057	5574
635.119	6110
635.181	5987
635.242	6097
635.304	5522
635.365	7162
635.427	5950
635.488	7053
635.550	5133
635.611	5962
635.673	4420
635.734	7075
635.796	5561
635.857	7542
635.918	5607
635.980	6773
636.041	6158
636.102	6665
636.164	6415
636.225	5755
636.286	5643
636.348	6676
636.409	5536
636.470	6012
636.531	6316
636.593	6283
636.654	7439
636.715	5139
636.776	5764
636.838	5295
636.899	6040
636.960	5106
637.021	4866
637.082	5850
637.143	5312
637.204	4806
637.265	5863
637.326	6222
637.387	5567
637.448	4398
637.509	6229
637.570	4737
637.631	5585
637.692	4667
637.753	4682
637.814	4387
637.875	5843
637.936	5251
637.997	5596
638.058	5065
638.119	5914
638.179	5374
638.240	4914
638.301	5670
638.362	5170
638.423	4558
638.483	6031
638.544	4632
638.605	5424
638.666	3948
638.726	4802
638.787	5101
638.848	4446
638.908	4684
638.969	5202
639.030	4880
639.090	4834
639.151	4404
639.211	5369
639.272	6311
639.332	10848
639.393	7982
639.453	5100
639.514	4360
639.574	4528
639.635	4544
639.695	4593
639.756	4412
639.816	4364
639.877	5978
639.937	8765
639.997	12483
640.058	5845
640.118	5119
640.178	5573
640.239	2942
640.299	4502
640.359	3778
640.420	4523
640.480	4440
640.540	4048
640.600	4209
640.661	5023
640.721	2961
640.781	6236
640.841	4646
640.901	6169
640.961	4832
641.021	5544
641.082	5088
641.142	7769
641.202	6493
641.262	2880
641.322	4467
641.382	3600
641.442	4190
641.502	3935
641.562	5071
641.622	4010
641.682	4685
641.742	4150
641.802	4082
641.861	4949
641.921	4854
641.981	5226
642.041	5529
642.101	6070
642.161	5079
642.221	4273
642.280	3744
642.340	3923
642.400	4097
642.460	4398
642.519	3599
642.579	3829
642.639	5248
642.698	1636
642.758	4888
642.818	3915
642.877	4109
642.937	4343
642.997	5442
643.056	7528
643.116	4446
643.175	5039
643.235	3562
643.294	4373
643.354	4076
643.414	4349
643.473	4133
643.532	4929
643.592	4440
643.651	5011
643.711	7302
643.770	10763
643.830	20252
643.889	52895
643.948	23666
644.008	5104
644.067	4125
644.126	3424
644.186	3613
644.245	4088
644.304	2791
644.363	5120
644.423	3177
644.482	4828
644.541	4024
644.600	3110
644.659	4061
644.719	2494
644.778	4256
644.837	4780
644.896	6789
644.955	10451
645.014	8445
645.073	6322
645.132	4069
645.191	4754
645.250	3287
645.309	4313
645.368	3290
645.427	3957
645.486	2763
645.545	5078
645.604	3077
645.663	3802
645.722	2993
645.781	3760
645.840	3780
645.898	3554
645.957	4405
646.016	4027
646.075	5964
646.134	9408
646.192	17877
646.251	37424
646.310	10477
646.369	4618
646.427	3832
646.486	3180
646.545	2775
646.603	3627
646.662	3310
646.721	3683
646.779	2984
646.838	2093
646.896	3744
646.955	3062
647.014	3903
647.072	3922
647.131	6264
647.189	6610
647.248	2573
647.306	3972
647.365	3734
647.423	1344
647.481	4732
647.540	2533
647.598	2557
647.657	3202
647.715	2996
647.773	2578
647.832	3167
647.890	2970
647.948	2796
648.007	3863
648.065	2537
648.123	3360
648.181	4539
648.240	5083
648.298	5108
648.356	3183
648.414	3676
648.472	3246
648.531	3719
648.589	3553
648.647	2726
648.705	2530
648.763	2870
648.821	2750
648.879	2455
648.937	3325
648.995	3077
649.053	3080
649.111	3023
649.169	4135
649.227	5982
649.285	6739
649.343	17873
649.401	16831
649.459	12736
649.516	13477
649.574	6798
649.632	13085
649.690	22277
649.748	9471
649.806	6944
649.863	13898
649.921	8728
649.979	5434
650.037	3437
650.094	1589
650.152	3125
650.210	2490
650.268	3035
650.325	3526
650.383	2370
650.440	2527
650.498	3370
650.556	3169
650.613	1722
650.671	3112
650.728	2765
650.786	3129
650.843	2873
650.901	1830
650.958	3018
651.016	3114
651.073	2547
651.131	2532
651.188	2077
651.246	3571
651.303	1373
651.360	3064
651.418	2275
651.475	3480
651.532	2002
651.590	3090
651.647	1928
651.704	2767
651.762	2864
651.819	3664
651.876	2145
651.933	2977
651.990	3204
652.048	1218
652.105	2077
652.162	2746
652.219	1789
652.276	3140
652.333	2761
652.390	1315
652.448	3095
652.505	3495
652.562	3353
652.619	2918
652.676	5244
652.733	8182
652.790	2822
652.847	926
652.904	2864
652.961	2330
653.017	2330
653.074	2885
653.131	2284
653.188	1578
653.245	2064
653.302	2522
653.359	1436
653.415	2869
653.472	1621
653.529	3100
653.586	2005
653.642	1829
653.699	2659
653.756	1241
653.813	1190
653.869	2476
653.926	2015
653.983	1086
654.039	2434
654.096	2415
654.152	2438
654.209	1871
654.266	2048
654.322	1854
654.379	2244
654.435	2851
654.492	2361
654.548	3529
654.605	6008
654.661	4712
654.717	2967
654.774	3019
654.830	2779
654.887	2565
654.943	2593
655.000	2953
655.056	3133
655.112	2868
655.168	2408
655.225	1929
655.281	2302
655.337	2563
655.394	4820
655.450	4418
655.506	3717
655.562	4561
655.618	6363
655.675	1044
655.731	2303
655.787	1902
655.843	3071
655.899	1752
655.955	2312
656.011	1996
656.067	1356
656.123	2805
656.179	2384
656.235	3322
656.291	1110
656.347	2986
656.403	2131
656.459	2847
656.515	2864
656.571	2600
656.627	3473
656.683	1777
656.739	3058
656.795	2458
656.850	2367
656.906	2992
656.962	3270
657.018	1424
657.074	2195
657.129	2232
657.185	2588
657.241	2222
657.297	2512
657.352	2348
657.408	2160
657.464	3955
657.519	2431
657.575	1583
657.630	1961
657.686	2172
657.742	2368
657.797	2412
657.853	2166
657.908	2990
657.964	1896
658.019	2596
658.075	2292
658.130	1919
658.186	1648
658.241	2446
658.297	2223
658.352	1201
658.407	2872
658.463	1314
658.518	2732
658.573	2527
658.629	1738
658.684	2108
658.739	2767
658.795	1264
658.850	2934
658.905	2494
658.960	1955
659.016	1646
659.071	2026
659.126	2191
659.181	2580
659.236	4279
659.291	5668
659.346	3150
659.401	3414
659.457	3493
659.512	4552
659.567	4534
659.622	2680
659.677	2746
659.732	1965
659.787	2420
659.842	2536
659.897	3525
659.952	3050
660.007	1993
660.061	2650
660.116	2132
660.171	1753
660.226	1843
660.281	2612
660.336	1887
660.391	2160
660.445	1794
660.500	1917
660.555	2027
660.610	1827
660.664	2316
660.719	1372
660.774	2615
660.828	2777
660.883	3353
660.938	1971
660.992	863
661.047	1984
661.101	1649
661.156	2360
661.211	2100
661.265	3135
661.320	2333
661.374	2414
661.429	1918
661.483	2238
661.538	2301
661.592	1367
661.647	2069
661.701	2606
661.755	2106
661.810	3103
661.864	918
661.919	1603
661.973	3095
662.027	2047
662.081	2160
662.136	1758
662.190	1441
662.244	2641
662.299	2215
662.353	2237
662.407	1899
662.461	1578
662.515	2270
662.569	1742
662.624	2006
662.678	1701
662.732	2176
662.786	1635
662.840	2222
662.894	2591
662.948	1664
663.002	1552
663.056	2295
663.110	2095
663.164	1797
663.218	1545
663.272	2012
663.326	1897
663.380	1761
663.434	1573
663.488	1382
663.542	1702
663.595	2137
663.649	1245
663.703	2420
663.757	1681
663.811	1079
663.864	1861
663.918	2949
663.972	1747
664.026	1836
664.079	871
664.133	2240
664.187	1898
664.240	1959
664.294	2379
664.348	2220
664.401	2072
664.455	1922
664.508	1978
664.562	2749
664.615	2065
664.669	1674
664.722	1959
664.776	1973
664.829	2053
664.883	1693
664.936	1200
664.990	2211
665.043	2075
665.097	1559
665.150	2602
665.203	1578
665.257	1920
665.310	1838
665.363	1380
665.417	2315
665.470	2375
665.523	3017
665.576	2465
665.630	2288
665.683	2098
665.736	2216
665.789	2189
665.842	1991
665.895	1548
665.949	2367
666.002	1927
666.055	1575
666.108	2297
666.161	2419
666.214	1732
666.267	2308
666.320	2649
666.373	2608
666.426	2209
666.479	2271
666.532	2528
666.585	2234
666.638	3365
666.691	2308
666.744	2182
666.796	2424
666.849	2257
666.902	2424
666.955	2853
667.008	1386
667.060	1908
667.113	1963
667.166	1758
667.219	2160
667.271	2316
667.324	2241
667.377	2227
667.430	2980
667.482	3100
667.535	2875
667.587	2033
667.640	2985
667.693	3044
667.745	4172
667.798	5852
667.850	2897
667.903	2178
667.955	2574
668.008	2495
668.060	3281
668.113	1995
668.165	2766
668.218	2828
668.270	2991
668.322	2374
668.375	1777
668.427	2561
668.479	1382
668.532	2427
668.584	2663
668.636	2369
668.689	2507
668.741	1219
668.793	2624
668.845	2075
668.898	2738
668.950	2069
669.002	2786
669.054	1924
669.106	1867
669.158	2424
669.211	3056
669.263	1597
669.315	3466
669.367	3983
669.419	3267
669.471	2482
669.523	3876
669.575	4862
669.627	3905
669.679	2562
669.731	3085
669.783	2987
669.835	3351
669.886	3224
669.938	2964
669.990	3008
670.042	3168
670.094	4289
670.146	3766
670.197	5388
670.249	7297
670.301	8404
670.353	11851
670.404	16920
670.456	22915
670.508	35447
670.560	54383
670.611	84394
670.663	132644
670.715	259569
670.766	487908
670.818	310784
670.869	74236
670.921	26714
670.972	16620
671.024	11029
671.075	8736
671.127	7429
671.178	6005
671.230	5111
671.281	4593
671.333	4436
671.384	4089
671.436	3992
671.487	4084
671.538	3293
671.590	3870
671.641	3554
671.692	3606
671.744	4395
671.795	4888
671.846	3196
671.897	3385
671.949	3010
672.000	2610
672.051	2224
672.102	2975
672.153	1851
672.204	2559
672.256	2071
672.307	2821
672.358	2039
672.409	3213
672.460	2489
672.511	2727
672.562	2293
672.613	2825
672.664	2720
672.715	2567
672.766	2204
672.817	2216
672.868	1755
672.919	2253
672.970	1774
673.021	1309
673.071	1328
673.122	1979
673.173	1751
673.224	2144
673.275	2423
673.326	928
673.376	1568
673.427	2275
673.478	1738
673.528	2825
673.579	1690
673.630	2155
673.680	2618
673.731	1753
673.782	1187
673.832	2333
673.883	2159
673.934	1993
673.984	1098
674.035	1974
674.085	1660
674.136	1805
674.186	1913
674.237	2864
674.287	3112
674.338	3355
674.388	1480
674.438	1460
674.489	2144
674.539	1479
674.589	1516
674.640	2282
674.690	2217
674.740	1692
674.791	1579
674.841	2034
674.891	2196
674.942	1526
674.992	1788
675.042	1711
675.092	1245
675.142	1528
675.193	2213
675.243	1614
675.293	1779
675.343	1235
675.393	2051
675.443	2485
675.493	1966
675.543	1201
675.593	1645
675.643	2022
675.693	772
675.743	1237
675.793	1494
675.843	915
675.893	725
675.943	1526
675.993	1480
676.043	1714
676.093	2130
676.142	848
676.192	1635
676.242	1721
676.292	1748
676.341	1172
676.391	1165
676.441	1275
676.491	1391
676.540	961
676.590	1771
676.640	1291
676.689	2248
676.739	635
676.789	831
676.838	1075
676.888	1560
676.937	572
676.987	1498
677.037	587
677.086	811
677.136	1360
677.185	920
677.235	1503
677.284	1667
677.333	694
677.383	1822
677.432	1308
677.482	1176
677.531	1188
677.580	493
677.630	603
677.679	924
677.728	1071
677.778	1073
677.827	1411
677.876	1094
677.925	1552
677.975	1681
678.024	1210
678.073	1149
678.122	1602
678.171	1811
678.220	1539
678.269	867
678.319	2221
678.368	1479
678.417	1059
678.466	1483
678.515	1898
678.564	1720
678.613	1765
678.662	1241
678.711	1368
678.760	1536
678.809	769
678.857	646
678.906	1276
678.955	677
679.004	1730
679.053	1454
679.102	807
679.151	1317
679.199	1580
679.248	407
679.297	981
679.346	1313
679.394	1005
679.443	1620
679.492	1213
679.540	846
679.589	1514
679.638	1227
679.686	1145
679.735	921
679.784	951
679.832	979
679.881	1177
679.929	946
679.978	1053
680.026	1032
680.075	1561
680.123	1776
680.172	1517
680.220	887
680.268	1357
680.317	172
680.365	589
680.414	659
680.462	1039
680.510	1333
680.559	1285
680.607	737
680.655	1415
680.703	1276
680.752	710
680.800	495
680.848	947
680.896	842
680.945	1767
680.993	1541
681.041	1683
681.089	25
681.137	788
681.185	1011
681.233	564
681.258	562
681.281	552
681.329	402
681.377	265
681.380	352
681.425	1784
681.473	1683
681.502	1344
681.521	1093
681.569	812
681.617	1401
681.624	1320
681.665	744
681.713	2059
681.745	1700
681.761	1516
681.809	912
681.857	1262
681.867	1187
681.904	899
681.952	1447
681.989	929
682.000	763
682.048	1390
682.096	1314
682.111	1185
682.143	878
682.191	1044
682.233	1660
682.239	1744
682.286	1730
682.334	917
682.354	1122
682.382	1391
682.430	1457
682.476	1226
682.477	1215
682.525	852
682.572	1232
682.598	1049
682.620	870
682.667	1506
682.715	1865
682.720	1848
682.763	1582
682.810	976
682.841	1279
682.857	1440
682.905	1066
682.952	1520
682.963	1504
683.000	1434
683.047	603
683.085	1516
683.095	1746
683.142	1622
683.190	1160
683.206	1128
683.237	1060
683.284	2029
683.328	1566
683.332	1517
683.379	1596
683.426	1912
683.449	1793
683.473	1718
683.521	1399
683.568	1604
683.571	1563
683.615	844
683.662	1926
683.693	1573
683.709	1376
683.757	1499
683.804	1666
683.814	1537
683.851	1037
683.898	1371
683.936	1457
683.945	1490
683.992	1610
684.039	1069
684.057	1374
684.086	1805
684.133	1632
684.179	1685
684.180	1684
684.227	1307
684.274	1995
684.300	2123
684.321	2189
684.368	927
684.415	1543
684.422	1658
684.462	2260
684.509	1365
684.543	1413
684.556	1450
684.603	2263
684.649	1861
684.665	1977
684.696	2198
684.743	2286
684.786	2315
684.790	2307
684.837	1941
684.883	2142
684.908	2263
684.930	2377
684.977	2310
685.023	2346
685.029	2331
685.070	2202
685.117	1833
685.150	1924
685.164	1968
685.210	2493
685.257	3013
685.272	2734
685.303	2060
685.350	2472
685.393	2646
685.396	2666
685.443	2455
685.490	2565
685.514	2416
685.536	2189
685.583	2443
685.629	2289
685.636	2318
685.675	2545
685.722	2009
685.757	1953
685.768	1935
685.815	1688
685.861	2529
685.878	2306
685.908	2026
685.954	2349
686.000	3111
686.000	3118
686.047	2518
686.093	3105
686.121	2813
686.139	2648
686.185	2219
686.232	3027
686.242	2939
686.278	2527
686.324	2771
686.363	2112
686.370	2005
686.416	2273
686.463	2001
686.484	2320
686.509	2697
686.555	3011
686.601	2860
686.606	2814
686.647	2442
686.693	2458
686.727	2408
686.739	2330
686.785	2892
686.831	2269
686.848	2243
686.877	2298
686.923	2415
686.969	2417
686.969	2416
687.015	2348
687.061	2439
687.090	2204
687.107	2157
687.153	2341
687.199	2265
687.211	2448
687.245	2847
687.291	2682
687.332	2308
687.336	2286
687.382	2788
687.428	2852
687.453	2967
687.474	2948
687.520	2692
687.565	2342
687.574	2299
687.611	2245
687.657	2821
687.695	2947
687.702	2973
687.748	2402
687.794	2693
687.816	2682
687.839	2625
687.885	2864
687.931	2524
687.937	2597
687.976	3070
688.022	2645
688.058	3050
688.067	3160
688.113	2982
688.158	2763
688.179	2864
688.204	2949
688.249	3238
688.295	2984
688.300	3008
688.340	3233
688.386	2975
688.421	3023
688.431	3020
688.477	2784
688.522	2915
688.542	2997
688.567	3211
688.613	2900
688.658	2541
688.663	2620
688.703	2980
688.749	2581
688.784	2908
688.794	3065
688.839	2877
688.884	2823
688.905	2825
688.930	2659
688.975	2602
689.020	2550
689.026	2572
689.065	3100
689.110	2877
689.146	3309
689.155	3383
689.201	2933
689.246	2816
689.267	2920
689.291	3101
689.336	3217
689.381	3343
689.388	3355
689.426	3276
689.471	3072
689.509	2987
689.516	2997
689.561	3592
689.606	3344
689.630	3402
689.651	3426
689.696	3533
689.741	3208
689.750	3270
689.785	3488
689.830	2880
689.871	3513
689.875	3592
689.920	2572
689.965	3296
689.992	3225
690.010	3148
690.054	3499
690.099	3296
690.112	3299
690.144	3222
690.189	2870
690.233	2775
690.233	2781
690.278	3217
690.323	3646
690.354	3463
690.367	3322
690.412	4062
690.457	3715
690.474	3799
690.501	3988
690.546	3682
690.590	3938
690.595	3938
690.635	3900
690.680	4222
690.716	4194
690.724	4290
690.769	4586
690.813	5594
690.836	6035
690.857	6766
690.902	8191
690.946	9744
690.957	10069
690.991	13184
691.035	18375
691.077	23956
691.080	24100
691.124	24632
691.168	23123
691.198	21746
691.213	19568
691.257	14632
691.301	9854
691.318	8063
691.346	7235
691.390	6226
691.434	4932
691.439	4764
691.478	4526
691.522	4515
691.559	4569
691.567	4560
691.611	4595
691.655	4381
691.680	3969
691.699	3756
691.743	4075
691.787	4202
691.800	4112
691.831	3885
691.875	3729
691.919	3903
691.921	3891
691.964	3973
692.008	4143
692.041	4242
692.052	4259
692.096	4187
692.139	4440
692.162	4425
692.183	4237
692.227	3898
692.271	3849
692.282	3649
692.315	3488
692.359	4099
692.402	4287
692.403	4295
692.447	4164
692.490	4298
692.523	4121
692.534	4134
692.578	4458
692.622	4194
692.643	4503
692.666	4705
692.709	4542
692.753	4103
692.763	4141
692.797	4352
692.840	4266
692.884	4130
692.884	4139
692.928	4260
692.971	4325
693.004	4277
693.015	4261
693.059	4311
693.102	4609
693.124	4654
693.146	4733
693.189	4721
693.233	4622
693.245	4753
693.276	5258
693.320	5506
693.363	5475
693.365	5478
693.407	6239
693.450	6878
693.485	7306
693.493	7532
693.537	8948
693.580	10088
693.605	10927
693.624	12319
693.667	15551
693.710	18935
693.725	20085
693.753	26569
693.797	37498
693.840	49555
693.845	50838
693.883	51658
693.926	48750
693.966	46350
693.970	45164
694.013	33283
694.056	21705
694.086	13982
694.099	13317
694.142	11124
694.185	8868
694.206	7748
694.229	7328
694.272	6733
694.315	6081
694.326	5912
694.358	5914
694.401	5889
694.444	6047
694.446	6025
694.487	5712
694.530	5296
694.566	5168
694.573	5157
694.616	5007
694.659	4830
694.686	4708
694.702	4756
694.745	4853
694.787	4988
694.806	5021
694.830	4976
694.873	5016
694.916	4736
694.926	4688
694.959	4632
695.002	4341
695.044	4473
695.046	4456
695.087	4622
695.130	4894
695.166	5052
695.172	5035
695.215	4683
695.258	4656
695.286	4499
695.301	4539
695.343	4689
695.386	4909
695.406	4888
695.428	4685
695.471	4401
695.514	4183
695.526	4040
695.556	4070
695.599	4388
695.641	4642
695.646	4649
695.684	4732
695.726	4869
695.766	4912
695.769	4902
695.811	4505
695.854	4171
695.886	3958
695.896	4038
695.938	4300
695.981	4557
696.005	4684
696.023	4680
696.065	4665
696.108	4618
696.125	4565
696.150	4476
696.192	4471
696.235	4360
696.245	4322
696.277	4464
696.319	4516
696.361	4775
696.365	4777
696.404	4997
696.446	5161
696.485	5357
696.488	5383
696.530	5415
696.572	5608
696.604	5710
696.614	5687
696.656	5440
696.698	5377
696.724	5181
696.740	5163
696.783	5247
696.825	5239
696.844	5208
696.867	5012
696.909	4749
696.951	4315
696.964	4229
696.992	4400
697.034	4432
697.076	4580
697.083	4591
697.118	4551
697.160	4447
697.202	4303
697.203	4289
697.244	4813
697.286	5238
697.323	5665
697.327	5631
697.369	5112
697.411	4638
697.442	4319
697.453	4409
697.494	4568
697.536	4797
697.562	4998
697.578	5030
697.620	4873
697.661	4793
697.682	4759
697.703	4703
697.744	4612
697.786	4464
697.801	4392
697.828	4736
697.869	5249
697.911	5763
697.921	5880
697.952	5506
697.994	4949
698.035	4418
698.040	4341
698.077	4409
698.118	4449
698.160	4492
698.160	4479
698.201	4988
698.243	5497
698.279	5962
698.284	5957
698.325	5713
698.367	5465
698.399	5273
698.408	5253
698.449	5086
698.491	4913
698.518	4790
698.532	4808
698.573	4774
698.614	4787
698.638	4785
698.656	4854
698.697	4958
698.738	5077
698.757	5117
698.779	5100
698.820	5029
698.862	4966
698.877	4932
698.903	5011
698.944	5104
698.985	5202
698.996	5216
699.026	5237
699.067	5243
699.116	5237
699.235	4830
699.354	5099
699.474	5070
699.593	5774
699.713	5335
699.832	5541
699.951	5703
700.070	4325
700.190	4752
700.309	5792
700.428	4653
700.547	5254
700.667	4755
700.786	5146
700.905	5147
701.024	4667
701.143	5501
701.262	5277
701.381	4765
701.500	4928
701.619	5519
701.738	4467
701.857	4848
701.976	4126
702.095	5520
702.214	5736
702.333	5001
702.452	4591
702.571	4246
702.690	4500
702.809	4464
702.928	4929
703.047	5189
703.165	4766
703.284	4632
703.403	4285
703.522	5182
703.640	5178
703.759	5480
703.878	5536
703.997	5447
704.115	4603
704.234	4617
704.353	4586
704.471	4891
704.590	4767
704.708	4208
704.827	4014
704.946	4876
705.064	4877
705.183	4941
705.301	4917
705.420	6940
705.538	7295
705.656	6096
705.775	6108
705.893	11060
706.012	14664
706.130	7543
706.249	5152
706.367	6452
706.485	5700
706.604	6164
706.722	6043
706.840	6368
706.958	6045
707.077	5609
707.195	5494
707.313	5099
707.431	4645
707.549	5972
707.668	4993
707.786	5886
707.904	5765
708.022	4738
708.140	4554
708.258	5414
708.376	6040
708.494	5394
708.612	5302
708.730	7416
708.848	7180
708.966	6873
709.084	6655
709.202	6391
709.320	6407
709.438	6629
709.556	5769
709.674	6947
709.791	7038
709.909	6019
710.027	6360
710.145	6033
710.263	6450
710.380	6340
710.498	5917
710.616	6512
710.733	6356
710.851	5820
710.969	6728
711.086	6371
711.204	5838
711.322	6663
711.439	5874
711.557	5986
711.674	5875
711.792	5120
711.909	6654
712.027	7455
712.144	5642
712.262	6369
712.379	5959
712.497	8517
712.614	8563
712.732	7672
712.849	7421
712.966	7247
713.084	7806
713.201	7045
713.318	7324
713.436	6866
713.553	6844
713.670	7270
713.787	7442
713.905	7412
714.022	6683
714.139	6465
714.256	6552
714.373	6897
714.490	6916
714.608	7347
714.725	14910
714.842	17196
714.959	7176
715.076	5950
715.193	6122
715.310	6612
715.427	6388
715.544	6181
715.661	5474
715.778	5669
715.895	6327
716.011	6471
716.128	5721
716.245	5517
716.362	6706
716.479	7811
716.596	6353
716.713	6228
716.829	5718
716.946	6103
717.063	5065
717.180	5896
717.296	6071
717.413	5971
717.530	5499
717.646	5727
717.763	6062
717.880	6087
717.996	5444
718.113	5662
718.229	4986
718.346	5288
718.462	5634
718.579	5926
718.695	7256
718.812	7443
718.928	6699
719.045	6409
719.161	4926
719.277	5431
719.394	5201
719.510	6227
719.626	4515
719.743	6509
719.859	5368
719.975	4673
720.092	6589
720.208	9697
720.324	6237
720.440	5345
720.557	5379
720.673	7331
720.789	8323
720.905	14083
721.021	8380
721.137	5089
721.253	4956
721.369	5232
721.486	5693
721.602	6866
721.718	5625
721.834	5259
721.950	4158
722.066	3564
722.181	4650
722.297	5045
722.413	4703
722.529	4331
722.645	4280
722.761	4728
722.877	4476
722.993	4181
723.108	4486
723.224	5049
723.340	3996
723.456	4487
723.571	4343
723.687	3847
723.803	4055
723.918	4225
724.034	4188
724.150	4061
724.265	4307
724.381	5987
724.497	8922
724.612	4714
724.728	4279
724.843	4014
724.959	4427
725.074	6628
725.190	7539
725.305	5348
725.421	4243
725.536	4546
725.651	3980
725.767	4458
725.882	3657
725.997	3472
726.113	3590
726.228	2940
726.343	4212
726.459	3413
726.574	3557
726.689	3241
726.804	3060
726.920	3688
727.035	3783
727.150	4076
727.265	3422
727.380	4057
727.495	3947
727.610	4114
727.725	3339
727.841	4940
727.956	7655
728.071	7728
728.186	3722
728.301	3528
728.416	4303
728.531	4287
728.645	3594
728.760	3854
728.875	3280
728.990	3550
729.105	3875
729.220	3576
729.335	3649
729.449	3700
729.564	3086
729.679	3363
729.794	2976
729.908	4231
730.023	3267
730.138	2529
730.253	3458
730.367	2896
730.482	3049
730.596	4052
730.711	3678
730.826	4008
730.940	2905
731.055	3090
731.169	2572
731.284	2886
731.398	3087
731.513	4451
731.627	2901
731.742	3609
731.856	2951
731.970	3336
732.085	3158
732.199	2635
732.313	2906
732.428	3728
732.542	4624
732.656	5254
732.771	2809
732.885	3430
732.999	2814
733.113	2757
733.227	3354
733.342	2890
733.456	3521
733.570	2389
733.684	2794
733.798	2756
733.912	2407
734.026	2470
734.140	2527
734.254	3249
734.368	3082
734.482	5880
734.596	3217
734.710	2677
734.824	2448
734.938	2783
735.052	2419
735.166	3365
735.280	3783
735.393	2351
735.507	2370
735.621	3593
735.735	4108
735.849	4209
735.962	2530
736.076	3084
736.190	2908
736.303	3770
736.417	4378
736.531	2795
736.644	3261
736.758	2471
736.872	2602
736.985	2886
737.099	2806
737.212	2114
737.326	3432
737.439	1801
737.553	2716
737.666	2322
737.780	2404
737.893	1919
738.007	2205
738.120	2601
738.233	2713
738.347	2790
738.460	3023
738.573	3385
738.687	2159
738.800	2815
738.913	2884
739.026	3104
739.140	2811
739.253	3294
739.366	2191
739.479	2614
739.592	3127
739.705	3325
739.818	2214
739.932	2526
740.045	2610
740.158	2421
740.271	2163
740.384	2650
740.497	2767
740.610	2734
740.723	2916
740.836	3242
740.949	2668
741.062	3997
741.174	2823
741.287	2453
741.400	2105
741.513	2734
741.626	1774
741.739	2931
741.851	1987
741.964	2024
742.077	2669
742.189	2599
742.302	3254
742.415	2910
742.527	2435
742.640	2524
742.753	2641
742.865	2491
742.978	2562
743.090	2412
743.203	2432
743.316	2798
743.428	1950
743.541	2760
743.653	2693
743.766	2268
743.878	2508
743.990	2174
744.103	2961
744.215	2925
744.327	2233
744.440	2789
744.552	3356
744.664	3347
744.777	2286
744.889	1920
745.001	3300
745.113	1295
745.226	2719
745.338	3601
745.450	2282
745.562	2132
745.674	1815
745.786	1719
745.898	2516
746.010	2405
746.122	2475
746.234	2235
746.347	2408
746.459	3374
746.570	2097
746.682	2270
746.794	2587
746.906	2351
747.018	1845
747.130	2727
747.242	3199
747.354	2299
747.466	2793
747.577	2678
747.689	2457
747.801	2412
747.913	2175
748.024	2644
748.136	1900
748.248	2550
748.359	2448
748.471	1773
748.583	2596
748.694	3052
748.806	2959
748.918	2802
749.029	2708
749.141	2551
749.252	2307
749.364	2727
749.475	4513
749.587	3463
749.698	1562
749.809	2553
749.921	2944
750.032	2408
750.144	2116
750.255	2260
750.366	2377
750.478	2622
750.589	2600
750.700	2732
750.811	2266
750.923	2582
751.034	3354
751.145	4437
751.256	2354
751.367	2669
751.479	2650
751.590	2331
751.701	2017
751.812	1898
751.923	2408
752.034	2301
752.145	1941
752.256	3119
752.367	2345
752.478	2977
752.589	2585
752.700	1635
752.811	2303
752.922	2387
753.032	3176
753.143	2856
753.254	2292
753.365	2707
753.476	2364
753.586	3010
753.697	2660
753.808	1576
753.919	1963
754.029	3296
754.140	2920
754.251	2885
754.361	3155
754.472	2279
754.582	2433
754.693	2310
754.804	3120
754.914	2671
755.025	2468
755.135	3099
755.246	2400
755.356	2341
755.466	2825
755.577	3022
755.687	1693
755.798	2282
755.908	2554
756.018	2015
756.129	2501
756.239	2883
756.349	2923
756.460	2585
756.570	2730
756.680	2413
756.790	2901
756.900	3178
757.011	3102
757.121	3210
757.231	2677
757.341	3587
757.451	3040
757.561	3070
757.671	3357
757.781	3724
757.891	2480
758.001	3575
758.111	3758
758.221	3228
758.331	3100
758.441	3183
758.551	3661
758.661	4206
758.771	3022
758.880	3409
758.990	3083
759.100	4033
759.210	3904
759.320	4099
759.429	3375
759.539	4358
759.649	3937
759.758	3806
759.868	3792
759.978	3796
760.087	3954
760.197	4135
760.307	4204
760.416	4239
760.526	4052
760.635	4869
760.745	4769
760.854	5318
760.964	4897
761.073	5493
761.182	4795
761.292	5397
761.401	5929
761.511	5854
761.620	5847
761.729	5683
761.839	5488
761.948	6347
762.057	5894
762.166	6550
762.276	5322
762.385	6398
762.494	6702
762.603	8024
762.712	7966
762.822	7540
762.931	7763
763.040	7996
763.149	8654
763.258	8723
763.367	9616
763.476	10227
763.585	10799
763.694	11533
763.803	11656
763.912	12788
764.021	13372
764.130	13577
764.238	14546
764.347	15679
764.456	17613
764.565	18593
764.674	20035
764.783	21827
764.891	23400
765.000	28383
765.109	30704
765.217	35663
765.326	41913
765.435	49481
765.543	60482
765.652	74399
765.761	96536
765.869	129510
765.978	178638
766.086	257732
766.195	374567
766.303	515804
766.412	527669
766.520	511198
766.629	569010
766.737	378898
766.846	248182
766.954	171874
767.062	125642
767.171	95439
767.279	74955
767.387	59435
767.496	50449
767.604	42456
767.712	36562
767.820	33724
767.928	31447
768.037	28523
768.145	26183
768.253	26179
768.361	24363
768.469	24609
768.577	25501
768.685	27343
768.793	27573
768.901	30266
769.009	36544
769.117	44066
769.225	55040
769.333	77641
769.441	113288
769.549	178198
769.657	298211
769.765	456674
769.873	483506
769.981	501420
770.088	311113
770.196	175816
770.304	113499
770.412	82472
770.519	60647
770.627	49307
770.735	39032
770.842	32937
770.950	27762
771.058	24901
771.165	22760
771.273	19740
771.380	18715
771.488	16252
771.595	14786
771.703	13122
771.810	12748
771.918	11761
772.025	11506
772.133	10171
772.240	9220
772.348	9454
772.455	8849
772.562	8519
772.670	9039
772.777	8124
772.884	7639
772.991	8069
773.099	6402
773.206	6433
773.313	6025
773.420	6768
773.528	5427
773.635	5423
773.742	5832
773.849	5983
773.956	5524
774.063	5834
774.170	4976
774.277	4990
774.384	3866
774.491	4040
774.598	4861
774.705	4821
774.812	5102
774.919	4814
775.026	4483
775.133	4382
775.239	4010
775.346	3753
775.453	3378
775.560	4039
775.667	3502
775.773	3883
775.880	3504
775.987	3263
776.093	3234
776.200	2945
776.307	3797
776.413	3417
776.520	2579
776.627	3401
776.733	3954
776.840	2045
776.946	3719
777.053	2860
777.159	2562
777.266	2644
777.372	3582
777.478	3567
777.585	2618
777.691	3201
777.798	2766
777.904	2808
778.010	3145
778.117	3554
778.223	2951
778.329	2952
778.435	2525
778.542	2662
778.648	2370
778.754	2334
778.860	1828
778.966	2469
779.072	2161
779.178	2185
779.284	2932
779.391	2641
779.497	3003
779.603	5172
779.708	7516
779.815	17406
779.920	58148
780.026	114942
780.132	22963
780.238	4673
780.344	3056
780.450	2959
780.556	2597
780.661	2520
780.767	2031
780.873	1238
780.979	1520
781.085	1718
781.190	2452
781.296	1560
781.402	1181
781.507	1580
781.613	1507
781.719	1325
781.824	1072
781.930	2137
782.035	1907
782.141	1450
782.246	1540
782.352	1605
782.457	1061
782.563	922
782.668	1770
782.773	2009
782.879	924
782.984	1609
783.090	1312
783.195	1812
783.300	1680
783.405	2100
783.511	978
783.616	1989
783.721	1425
783.826	1251
783.932	1319
784.037	1497
784.142	1102
784.247	1675
784.352	1474
784.457	1837
784.562	1853
784.667	1875
784.772	967
784.877	1189
784.982	1239
785.087	1473
785.192	1176
785.297	1292
785.402	1269
785.507	1039
785.611	633
785.716	1667
785.821	1106
785.926	716
786.031	1589
786.135	1226
786.240	1460
786.345	1151
786.450	823
786.554	959
786.659	333
786.763	844
786.868	492
786.973	2196
787.077	478
787.182	1003
787.286	266
787.391	927
787.495	79
787.600	1406
787.704	542
787.809	952
787.913	-203
788.017	1245
788.122	1115
788.226	934
788.330	294
788.435	681
788.539	118
788.643	1205
788.747	105
788.852	1204
788.956	600
789.060	1172
789.164	-307
789.268	504
789.372	1002
789.476	738
789.580	514
789.684	1174
789.788	850
789.892	849
789.996	939
790.100	654
790.204	527
790.308	966
790.412	785
790.516	1658
790.620	927
790.724	841
790.828	500
790.931	400
791.035	1080
791.139	1029
791.242	339
791.346	1430
791.450	459
791.554	529
791.657	162
791.761	1328
791.864	1010
791.968	579
792.072	178
792.175	700
792.279	511
792.382	1055
792.486	870
792.589	704
792.693	533
792.796	-72
792.899	1563
793.003	555
793.106	-56
793.209	780
793.313	637
793.416	426
793.519	557
793.623	1227
793.726	900
793.829	699
793.932	434
794.035	128
794.138	211
794.242	1180
794.345	808
794.448	3601
794.551	8404
794.654	32136
794.757	65614
794.860	13702
794.963	2330
795.066	2021
795.169	485
795.272	275
795.375	894
795.477	1108
795.580	694
795.683	29
795.786	107
795.889	493
795.991	-122
796.094	1111
796.197	-495
796.300	143
796.402	30
796.505	133
796.608	312
796.710	853
796.813	-148
796.915	151
797.018	1069
797.120	901
797.223	-422
797.326	694
797.428	71
797.530	106
797.633	71
797.735	104
797.838	-9
797.940	762
798.042	-111
798.145	866
798.247	499
798.349	221
798.452	310
798.554	-236
798.656	-15
798.758	939
798.860	-75
798.962	394
799.065	-617
799.167	-134
799.269	8
799.371	1016
799.473	275
799.575	-202
799.677	534
799.779	603
799.881	-925
799.983	698
800.085	-167
800.187	-326
800.289	-339
800.390	198
800.492	149
800.594	1413
800.696	-76
800.798	440
800.899	-172
801.001	-54
801.103	525
801.205	-248
801.306	576
801.408	144
801.509	-84
801.611	88
801.713	-149
801.814	-463
801.916	-220
802.017	337
802.119	-469
802.220	435
802.322	-966
802.423	1000
802.525	-155
802.626	366
802.727	-229
802.829	-487
802.930	-1188
803.031	364
803.133	-365
803.234	161
803.335	93
803.436	105
803.538	-530
803.639	-1150
803.740	558
803.841	181
803.942	-815
804.043	82
804.144	-1042
804.245	-465
804.346	-408
804.447	-630
804.548	195
804.649	832
804.750	-724
804.851	-23
804.952	-651
805.053	-249
805.154	-1408
805.255	40
805.355	608
805.456	150
805.557	47
805.658	-601
805.758	-49
805.859	240
805.960	-127
806.061	-548
806.161	-109
806.262	-265
806.362	-71
806.463	-553
806.564	436
806.664	-401
806.765	-574
806.865	-77
806.966	6
807.066	-511
807.166	199
807.267	34
807.367	-637
807.468	-30
807.568	-1339
807.668	295
807.769	-15
807.869	-390
807.969	-567
808.069	100
808.170	-40
808.270	-912
808.370	-87
808.470	-43
808.570	-1239
808.670	-15
808.770	-63
808.870	-381
808.970	-453
809.070	4
809.170	-329
809.271	-466
809.370	-586
809.470	527
809.570	-958
809.670	-588
809.770	-281
809.870	-95
809.970	25
810.070	-362
810.169	-128
810.269	-1450
810.369	-524
810.469	-1032
810.568	-329
810.668	-700
810.768	-501
810.867	-317
810.967	-910
811.066	-717
811.166	-180
811.265	-2
811.365	-484
811.464	-828
811.564	-674
811.663	19
811.763	-672
811.862	-303
811.962	100
812.061	620
812.160	-585
812.260	-260
812.359	47
812.458	462
812.557	1330
812.657	3909
812.756	1057
812.855	-187
812.954	-999
813.053	375
813.153	-250
813.252	-385
813.351	49
813.450	-379
813.549	-953
813.648	-287
813.747	-416
813.846	440
813.945	-644
814.044	-878
814.143	-155
814.242	-351
814.341	-588
814.439	-265
814.538	-293
814.637	-770
814.736	-144
814.835	283
814.933	-329
815.032	-84
815.131	-96
815.229	-287
815.328	-531
815.427	-675
815.525	-804
815.624	-70
815.722	234
815.821	199
815.919	-175
816.018	-368
816.116	85
816.215	-979
816.313	179
816.412	-122
816.510	-424
816.609	145
816.707	224
816.805	763
816.904	-467
817.002	719
817.100	959
817.198	669
817.296	1039
817.395	937
817.493	3011
817.591	2598
817.689	4037
817.787	5440
817.885	10497
817.983	18664
818.081	41071
818.179	94849
818.277	217960
818.375	237901
818.473	76781
818.571	27138
818.669	16521
818.767	13479
818.865	12712
818.963	16130
819.061	22678
819.158	39126
819.256	77404
819.354	165271
819.452	329706
819.549	284229
819.647	99294
819.745	37652
819.842	21628
819.940	13202
820.038	9287
820.135	7002
820.233	5009
820.330	3983
820.428	2860
820.525	3191
820.623	2858
820.720	2287
820.818	1438
820.915	1309
821.012	1068
821.110	1322
821.207	689
821.304	115
821.402	1036
821.499	1118
821.596	-66
821.693	644
821.791	791
821.888	-207
821.985	1029
822.082	415
822.179	585
822.276	473
822.373	155
822.470	-1037
822.567	-306
822.664	-615
822.761	185
822.858	-734
822.955	119
823.052	-358
823.149	-1119
823.246	-43
823.343	-192
823.440	142
823.536	-618
823.633	-102
823.730	-687
823.827	-499
823.923	-1001
824.020	768
824.117	-1549
824.213	-989
824.310	-82
824.407	89
824.503	450
824.600	-869
824.696	-1335
824.793	693
824.889	-508
824.986	-809
825.082	-586
825.179	-412
825.275	-1015
825.371	-1379
825.468	184
825.564	-964
825.660	-1023
825.757	371
825.853	-61
825.949	-1208
826.045	-683
826.142	16
826.238	-432
826.334	-767
826.430	-1050
826.526	-127
826.622	-459
826.718	-746
826.814	-1606
826.910	-246
827.006	-1233
827.102	-307
827.198	-903
827.294	-1561
827.390	-750
827.486	-236
827.582	-898
827.678	-1616
827.774	126
827.869	-1046
827.965	9
828.061	-1088
828.157	-1008
828.252	-452
828.348	-1428
828.444	915
828.539	-800
828.635	-850
828.731	-564
828.826	-1021
828.922	-1685
829.017	-1206
829.113	-1347
829.208	-878
829.304	-1389
829.399	225
829.495	-1087
829.590	-692
829.685	-1837
829.781	-1027
829.876	-1038
829.971	-521
830.066	-473
830.162	-1129
830.257	-326
830.352	-1156
830.447	-552
830.543	-1386
830.638	-2006
830.733	-317
830.828	-1243
830.923	-584
831.018	-1671
831.113	-1315
831.208	-1908
831.303	-328
831.398	-1169
831.493	-1279
831.588	-843
831.683	-1280
831.778	-250
831.873	-1287
831.967	-554
832.062	-1171
832.157	-1118
832.252	114
832.346	-1713
832.441	-780
832.536	-373
832.631	37
832.725	706
832.820	-968
832.914	-1015
833.009	-785
833.104	-1084
833.198	-451
833.293	-1856
833.387	-578
833.482	-1306
833.576	-1076
833.670	-705
833.765	-1338
833.859	-1145
833.954	-321
834.048	-962
834.142	-56
834.237	-727
834.331	-921
834.425	-1680
834.519	-1549
834.613	-883
834.708	-1035
834.802	-1296
834.896	-1068
834.990	-1432
835.084	-1022
835.178	-1334
835.272	-1317
835.366	-2417
835.460	-485
835.554	-1223
835.648	-1025
835.742	-1617
835.836	-155
835.930	-1767
836.024	-531
836.117	-918
836.211	-1548
836.305	-566
836.399	-194
836.493	-1348
836.586	-781
836.680	-1696
836.774	-1184
836.867	-271
836.961	-1552
837.055	-1665
837.148	-1291
837.242	-1358
837.335	-1604
837.429	-1711
837.522	-1150
837.616	-1130
837.709	-457
837.803	-1676
837.896	-1123
837.989	-1160
838.083	-719
838.176	-657
838.269	-740
838.363	-311
838.456	-1041
838.549	220
838.642	-1082
838.735	120
838.829	-171
838.922	-1510
839.015	-1141
839.108	-723
839.201	-1131
839.294	-922
839.387	-978
839.480	-974
839.573	-1185
839.666	-984
839.759	-513
839.852	-1346
839.945	-1174
840.038	-1041
840.131	-650
840.223	-1684
840.316	-1067
840.409	-1350
840.502	-1423
840.594	-668
840.687	-1966
840.780	251
840.873	-704
840.965	-1246
841.058	-746
841.150	-860
841.243	-1012
841.336	-1687
841.428	-322
841.521	-1161
841.613	-1930
841.706	-526
841.798	-1480
841.890	-1143
841.983	-1569
842.075	-316
842.167	-1117
842.260	-1054
842.352	-445
842.444	-1004
842.537	-136
842.629	183
842.721	-651
842.813	-1726
842.905	-1265
842.997	-696
843.090	-788
843.182	-1206
843.274	-209
843.366	1741
843.458	2781
843.550	2649
843.642	-604
843.734	-1176
843.826	-812
843.918	-923
844.009	-68
844.101	-702
844.193	-643
844.285	-1213
844.377	-26
844.469	-653
844.560	-1273
844.652	-1162
844.744	-1064
844.835	-634
844.927	-861
845.019	-1541
845.110	-635
845.202	-1389
845.293	-1538
845.385	-1483
845.476	-1378
845.568	-806
845.659	-810
845.751	-1393
845.842	-1106
845.934	-1799
846.025	-1325
846.116	-1294
846.208	-1283
846.299	-353
846.390	-847
846.482	-1098
846.573	-1049
846.664	-820
846.755	-418
846.846	103
846.937	-1500
847.029	-853
847.120	-960
847.211	-1842
847.302	-672
847.393	-1434
847.484	-820
847.575	-1234
847.666	-1486
847.757	-1107
847.847	-1171
847.938	-1199
848.029	-1115
848.120	-1814
848.211	-1033
848.302	-1156
848.392	-1446
848.483	-303
848.574	-1399
848.664	-1161
848.755	-863
848.846	-1194
848.936	-1795
849.027	-939
849.118	-1540
849.208	-1446
849.299	-698
849.389	-698
849.480	-1911
849.570	-1920
849.661	-921
849.751	-1475
849.841	-1434
849.932	-1165
850.022	-1857
850.112	-1171
850.203	-1383
850.293	-1481
850.383	-869
850.474	-1946
850.564	-1830
850.654	-889
850.744	-1507
850.834	-883
850.924	-1575
851.014	-1430
851.104	-1297
851.194	-675
851.284	-808
851.374	-1190
851.464	-730
851.554	-1536
851.644	-546
851.734	24
851.824	-461
851.914	-338
852.004	379
852.094	111
852.183	-943
852.273	-1186
852.363	-2025
852.452	-1479
852.542	-1346
852.632	-1752
852.721	-582
852.811	-987
852.901	-933
852.990	-425
853.080	-831
853.169	-2396
853.259	-1693
853.348	-1157
853.438	-974
853.527	-1172
853.617	-819
853.706	-976
853.795	-1250
853.885	-80
853.974	-512
854.063	898
854.152	1536
854.242	-307
854.331	-643
854.420	-888
854.509	-1637
854.598	-2231
854.687	-1702
854.777	-1215
854.866	-1850
854.955	-787
855.044	-1399
855.133	-1441
855.222	-899
855.311	-1132
855.400	-1099
855.488	-921
855.577	-1345
855.666	-1390
855.755	-359
855.844	-1297
855.933	-985
856.021	-1882
856.110	-1223
856.199	-1653
856.288	-1762
856.376	-1624
856.465	-1007
856.554	-1138
856.642	-513
856.731	-1256
856.819	-1040
856.908	-1827
856.996	-1049
857.085	-1541
857.173	-1613
857.262	-1525
857.350	-1249
857.438	-2246
857.527	-586
857.615	-1105
857.703	-719
857.792	-2190
857.880	-974
857.968	-1315
858.056	-789
858.145	-2044
858.233	-989
858.321	-1199
858.409	-487
858.497	-1806
858.585	-1710
858.673	-1211
858.761	-1343
858.849	-1962
858.937	-1662
859.025	-1551
859.113	-603
859.201	-1406
859.289	-835
859.377	-1547
859.465	-612
859.552	-1102
859.640	-1406
859.728	-1140
859.816	-1568
859.903	-1074
859.991	-1580
860.079	-696
860.166	-1309
860.254	-1408
860.342	-1020
860.429	-1577
860.517	-1630
860.604	-1698
860.692	-346
860.779	-1818
860.867	-936
860.954	-1146
861.042	-1398
861.129	-1204
861.216	-1343
861.304	-1720
861.391	-1353
861.478	-903
861.565	-1646
861.653	-752
861.740	-1299
861.827	-1434
861.914	-567
862.001	-1978
862.089	-1064
862.176	-1394
862.263	-1651
862.350	-1472
862.437	-1699
862.524	-972
862.611	-2030
862.698	-1080
862.785	-1963
862.871	-1390
862.958	-1359
863.045	-2244
863.132	-1230
863.219	-902
863.306	-2040
863.392	-1290
863.479	-1015
863.566	-1205
863.652	-1961
863.739	-1320
863.826	-1346
863.912	-1299
863.999	-1529
864.086	-1581
864.172	-1288
864.259	-1678
864.345	-1158
864.432	-1385
864.518	-1511
864.604	-2285
864.691	-2358
864.777	-1388
864.863	-782
864.950	-839
865.036	-1763
865.122	-1279
865.209	-1373
865.295	-836
865.381	-1484
865.467	-953
865.553	-1676
865.639	-1415
865.726	-2424
865.812	-1390
865.898	-630
865.984	-1229
866.070	10
866.156	487
866.242	-1472
866.328	-1433
866.414	-1702
866.499	-1943
866.585	-1332
866.671	-1685
866.757	-1268
866.843	-2231
866.928	-1094
867.014	-1581
867.100	-1199
867.186	-777
867.271	-1116
867.357	-1528
867.442	-1501
867.528	-1493
867.614	-1136
867.699	-2064
867.785	-1474
867.870	-1541
867.956	-1023
868.041	-877
868.127	-876
868.212	-651
868.297	-394
868.383	-965
868.468	-1738
868.553	-615
868.639	-458
868.724	399
868.809	886
868.894	-1361
868.979	-1261
869.065	-1189
869.150	-1202
869.235	-2685
869.320	-1715
869.405	-1235
869.490	-1277
869.575	-1981
869.660	-958
869.745	-1909
869.830	-1854
869.915	-1447
870.000	-934
870.085	-1774
870.169	-1628
870.254	-1373
870.339	-1700
870.424	-1539
870.509	-714
870.593	-1437
870.678	-1538
870.763	-541
870.847	-891
870.932	-1457
871.016	-1164
871.101	-1974
871.186	-1169
871.270	-1875
871.355	-1377
871.439	-1376
871.523	-1880
871.608	-1670
871.692	-1082
871.777	-1881
871.861	-1582
871.945	-952
872.030	-1248
872.114	-945
872.198	-937
872.282	-1421
872.367	-934
872.451	-1639
872.535	-1484
872.619	-1659
872.703	-2539
872.787	-1693
872.871	-1592
872.955	-1535
873.039	-1059
873.123	-1675
873.207	108
873.291	-1533
873.375	-1386
873.459	-1667
873.543	-697
873.627	-1667
873.711	-2139
873.794	-1088
873.878	-1498
873.962	-2749
874.045	-2124
874.129	-2227
874.137	-2136
874.213	-1235
874.245	-1329
874.296	-1476
874.352	-2138
874.380	-2468
874.460	-1761
874.464	-1733
874.547	-1590
874.568	-1531
874.631	-1363
874.676	-1083
874.714	-851
874.784	-957
874.798	-981
874.881	-142
874.892	-332
874.965	-1626
874.999	-1315
875.048	-880
875.107	-1519
875.131	-1795
875.215	-832
875.215	-833
875.298	-2067
875.323	-2071
875.381	-2002
875.430	-1840
875.465	-1722
875.538	-779
875.548	-662
875.631	-1862
875.646	-1722
875.714	-1052
875.753	-1288
875.798	-1450
875.861	-1039
875.881	-960
875.964	-883
875.968	-908
876.047	-1320
876.076	-1363
876.130	-1443
876.183	-1397
876.213	-1329
876.291	-627
876.296	-594
876.379	-992
876.398	-1064
876.462	-1068
876.506	-1004
876.545	-1091
876.613	-1019
876.628	-973
876.711	-925
876.721	-965
876.794	-1288
876.828	-1234
876.877	-1141
876.935	-1308
876.960	-1332
877.043	-1057
877.043	-1057
877.125	-1221
877.150	-1175
877.208	-966
877.258	-933
877.291	-926
877.365	-808
877.374	-790
877.456	-844
877.472	-792
877.539	-584
877.579	-657
877.622	-660
877.687	-408
877.704	-382
877.787	-535
877.794	-587
877.869	-948
877.901	-906
877.952	-885
878.008	-590
878.034	-553
878.115	-1245
878.117	-1246
878.199	-908
878.222	-835
878.282	-945
878.329	-661
878.364	-370
878.437	-1223
878.447	-1343
878.529	-1011
878.544	-1004
878.611	-946
878.651	-904
878.694	-828
878.758	-625
878.776	-561
878.858	-656
878.865	-675
878.941	-1115
878.972	-1113
879.023	-930
879.078	-1213
879.105	-1356
879.185	-635
879.187	-624
879.269	-777
879.292	-859
879.351	-740
879.399	-596
879.433	-576
879.506	-948
879.516	-985
879.598	-1168
879.613	-1051
879.680	-525
879.720	-602
879.762	-701
879.827	-710
879.844	-722
879.926	-608
879.933	-631
880.007	-549
880.040	-506
880.089	-602
880.147	-308
880.171	-171
880.253	-273
880.254	-278
880.335	-146
880.360	57
880.417	192
880.467	268
880.499	511
880.574	1431
880.580	1458
880.662	-46
880.680	-147
880.744	-210
880.787	6
880.825	115
880.893	-294
880.907	-291
880.989	-125
881.000	-92
881.070	-369
881.106	-482
881.152	-216
881.213	109
881.233	44
881.315	-169
881.319	-209
881.396	-379
881.426	-214
881.478	-86
881.532	-398
881.559	-498
881.639	-190
881.641	-182
881.722	-575
881.745	-538
881.803	-207
881.852	-260
881.885	-406
881.958	-536
881.966	-509
882.047	72
882.064	118
882.129	148
882.171	212
882.210	241
882.277	129
882.291	98
882.372	179
882.383	116
882.454	-336
882.489	-439
882.535	-335
882.596	26
882.616	115
882.697	-82
882.702	-74
882.778	108
882.808	128
882.859	141
882.914	79
882.940	-10
883.020	78
883.021	84
883.102	-247
883.127	-338
883.183	-106
883.233	104
883.264	-17
883.339	185
883.345	200
883.426	10
883.445	-73
883.507	146
883.551	405
883.587	433
883.657	253
883.668	265
883.749	228
883.763	304
883.830	571
883.869	477
883.910	102
883.975	-519
883.991	-508
884.072	-74
884.081	-60
884.152	-219
884.187	-259
884.233	-95
884.292	122
884.314	263
884.394	490
884.398	502
884.475	-79
884.504	-240
884.555	229
884.610	654
884.636	622
884.716	266
884.716	275
884.797	826
884.821	897
884.877	425
884.927	83
884.958	187
885.033	375
885.038	371
885.118	-119
885.139	-115
885.199	261
885.244	301
885.279	337
885.350	691
885.359	730
885.439	762
885.456	782
885.520	631
885.561	559
885.600	759
885.667	965
885.680	900
885.760	396
885.773	331
885.840	608
885.878	769
885.920	725
885.984	565
886.000	625
886.080	816
886.089	825
886.160	517
886.195	481
886.240	866
886.300	1209
886.320	1245
886.400	1248
886.406	1257
886.480	921
886.511	579
886.560	421
886.616	508
886.640	760
886.720	1446
886.722	1452
886.800	754
886.827	494
886.879	751
886.932	934
886.959	865
887.038	506
887.039	525
887.119	1508
887.143	1686
887.198	1251
887.248	925
887.278	919
887.354	905
887.358	918
887.437	902
887.459	883
887.517	904
887.564	948
887.596	771
887.669	410
887.676	447
887.755	731
887.774	768
887.835	557
887.880	550
887.914	874
887.985	1215
887.994	1203
888.073	1303
888.090	1263
888.153	1468
888.195	1629
888.232	1550
888.300	1406
888.311	1390
888.391	1174
888.405	1123
888.470	1079
888.510	1042
888.549	1353
888.615	1861
888.628	1764
888.708	1123
888.720	1003
888.787	1193
888.825	1325
888.866	1221
888.930	1024
888.945	1166
889.024	1865
889.035	1951
889.103	1665
889.140	1487
889.182	1302
889.245	1020
889.261	986
889.340	805
889.349	777
889.419	1551
889.454	1936
889.498	1649
889.559	1230
889.577	1290
889.656	1520
889.664	1537
889.735	1863
889.768	2006
889.814	2073
889.873	2143
889.978	1689
890.083	1183
890.187	1395
890.292	2219
890.397	1695
890.501	2020
890.606	1024
890.710	1681
890.815	1976
890.919	1772
891.024	2464
891.128	2240
891.233	2046
891.337	2697
891.442	1876
891.546	2248
891.650	1437
891.755	1739
891.859	2134
891.963	1649
892.068	1252
892.172	1636
892.276	1792
892.380	1627
892.484	1195
892.589	2076
892.693	1559
892.797	2281
892.901	1776
893.005	1344
893.109	977
893.213	2790
893.317	1682
893.421	1734
893.525	1607
893.629	1249
893.733	1343
893.837	1734
893.941	1815
894.045	3307
894.148	2841
894.252	6524
894.356	3948
894.460	2070
894.564	1426
894.667	1555
894.771	1732
894.875	1304
894.978	1805
895.082	1288
895.186	1113
895.289	1927
895.393	1297
895.496	1904
895.600	1061
895.703	1567
895.807	2056
895.910	1283
896.014	1312
896.117	1549
896.221	803
896.324	1832
896.427	1224
896.531	995
896.634	1158
896.737	2273
896.840	1917
896.944	1973
897.047	1131
897.150	1412
897.253	917
897.356	2144
897.460	1534
897.563	1900
897.666	1004
897.769	1385
897.872	1105
897.975	942
898.078	1101
898.181	1618
898.284	1180
898.387	1357
898.490	1359
898.593	1964
898.695	1290
898.798	630
898.901	1091
899.004	2229
899.107	619
899.209	1237
899.312	1565
899.415	1229
899.518	781
899.620	2317
899.723	1695
899.826	1465
899.928	1459
900.031	1709
900.133	1612
900.236	1504
900.338	1033
900.441	2125
900.543	1367
900.646	2176
900.748	398
900.851	1398
900.953	964
901.055	1047
901.158	1342
901.260	1619
901.362	2188
901.465	1608
901.567	1845
901.669	1714
901.771	627
901.873	1602
901.976	915
902.078	1030
902.180	1431
902.282	1580
902.384	1710
902.486	895
902.588	1209
902.690	1297
902.792	1954
902.894	2385
902.996	1146
903.098	1733
903.200	1679
903.302	1499
903.404	1277
903.505	1179
903.607	1314
903.709	1496
903.811	1291
903.913	814
904.014	764
904.116	1353
904.218	1092
904.319	2231
904.421	1128
904.523	1389
904.624	1441
904.726	1348
904.827	692
904.929	639
905.030	918
905.132	2010
905.233	1794
905.335	1383
905.436	1213
905.537	1679
905.639	1415
905.740	950
905.841	1816
905.943	691
906.044	1491
906.145	1258
906.247	1231
906.348	1394
906.449	1343
906.550	1841
906.651	914
906.752	1433
906.854	1603
906.955	1386
907.056	1518
907.157	2536
907.258	1213
907.359	1142
907.460	1470
907.561	1231
907.662	1274
907.762	1665
907.863	1227
907.964	2003
908.065	1968
908.166	1954
908.267	1034
908.367	986
908.468	1643
908.569	1669
908.670	1214
908.770	2436
908.871	1879
908.971	1542
909.072	1917
909.173	1752
909.273	1382
909.374	2109
909.474	946
909.575	1756
909.675	1785
909.776	2310
909.876	1815
909.977	1921
910.077	1131
910.177	1273
910.278	1300
910.378	1641
910.478	710
910.579	1728
910.679	1892
910.779	1949
910.879	1459
910.980	729
911.080	1057
911.180	1564
911.280	1816
911.380	1465
911.480	1183
911.580	2042
911.680	1273
911.780	1454
911.880	1079
911.980	656
912.080	850
912.180	1428
912.280	1458
912.380	912
912.480	608
912.580	1562
912.679	1042
912.779	1816
912.879	606
912.979	909
913.078	926
913.178	1491
913.278	1205
913.377	1429
913.477	1072
913.577	1394
913.676	1966
913.776	1188
913.875	1875
913.975	1033
914.074	948
914.174	861
914.273	955
914.373	1513
914.472	1147
914.572	1620
914.671	2071
914.770	1304
914.870	971
914.969	1484
915.068	429
915.167	963
915.267	1007
915.366	1509
915.465	891
915.564	1205
915.663	964
915.763	617
915.862	596
915.961	978
916.060	1334
916.159	1483
916.258	1407
916.357	944
916.456	1251
916.555	1249
916.654	1295
916.752	885
916.851	1517
916.950	1089
917.049	1882
917.148	1667
917.247	882
917.345	1652
917.444	1434
917.543	1034
917.642	1289
917.740	730
917.839	936
917.937	1646
918.036	578
918.135	912
918.233	1050
918.332	673
918.430	624
918.529	1136
918.627	1213
918.726	792
918.824	1194
918.923	604
919.021	887
919.119	868
919.218	496
919.316	592
919.414	1254
919.512	1012
919.611	1476
919.709	1862
919.807	792
919.905	1156
920.003	817
920.102	831
920.200	881
920.298	320
920.396	489
920.494	1287
920.592	1293
920.690	1332
920.788	1193
920.886	1148
920.984	899
921.082	1193
921.180	1538
921.277	1150
921.375	245
921.473	1065
921.571	-153
921.669	516
921.766	1239
921.864	1068
921.962	905
922.060	1118
922.157	1190
922.255	1049
922.352	518
922.450	1157
922.548	653
922.645	496
922.743	468
922.840	501
922.938	791
923.035	719
923.133	-50
923.230	932
923.327	591
923.425	705
923.522	1275
923.619	975
923.717	668
923.814	1363
923.911	483
924.008	1867
924.106	1058
924.203	585
924.300	521
924.397	702
924.494	1283
924.591	599
924.688	729
924.786	1654
924.883	1170
924.979	1002
925.077	802
925.173	1163
925.270	1226
925.367	857
925.464	1187
925.561	249
925.658	1024
925.755	1054
925.852	836
925.948	120
926.045	975
926.142	633
926.239	448
926.335	1516
926.432	719
926.529	732
926.625	647
926.722	1046
926.818	1048
926.915	71
927.011	626
927.108	213
927.204	125
927.301	5
927.397	637
927.494	841
927.590	225
927.687	2209
927.783	816
927.879	429
927.976	682
928.072	800
928.168	188
928.264	873
928.361	-577
928.457	1081
928.553	387
928.649	806
928.745	218
928.841	1749
928.937	867
929.033	920
929.129	325
929.225	825
929.321	-107
929.417	395
929.513	239
929.609	826
929.705	19
929.801	236
929.897	236
929.993	750
930.089	450
930.184	800
930.280	380
930.376	1095
930.471	212
930.567	161
930.663	181
930.758	517
930.854	1216
930.950	948
931.045	438
931.141	1226
931.236	623
931.332	-94
931.427	706
931.523	152
931.618	-467
931.714	297
931.809	447
931.905	1025
932.000	591
932.095	303
932.191	681
932.286	510
932.381	71
932.476	393
932.572	305
932.667	353
932.762	503
932.857	151
932.952	704
933.047	233
933.142	-184
933.237	634
933.332	420
933.427	1294
933.522	219
933.617	617
933.712	-196
933.807	129
933.902	560
933.997	446
934.092	789
934.187	610
934.282	581
934.376	677
934.471	505
934.566	520
934.661	192
934.755	470
934.850	395
934.945	706
935.039	-28
935.134	916
935.228	184
935.323	368
935.417	168
935.512	1038
935.606	-120
935.701	615
935.795	345
935.890	356
935.984	538
936.079	856
936.173	451
936.267	62
936.362	-122
936.456	594
936.550	498
936.644	511
936.738	-466
936.833	1217
936.927	300
937.021	580
937.115	1069
937.209	327
937.303	541
937.397	92
937.491	367
937.585	704
937.679	-131
937.773	269
937.867	-50
937.961	104
938.055	-118
938.149	379
938.243	252
938.337	974
938.430	-75
938.524	153
938.618	35
938.712	589
938.805	-577
938.899	435
938.993	-156
939.086	234
939.180	583
939.274	301
939.367	286
939.461	-159
939.554	-313
939.648	-129
939.741	-252
939.835	-272
939.928	-249
940.022	465
940.115	-192
940.208	-135
940.302	805
940.395	258
940.488	-65
940.582	47
940.675	4
940.768	212
940.861	35
940.954	78
941.048	82
941.141	-257
941.234	-319
941.327	423
941.420	75
941.513	330
941.606	-225
941.699	509
941.792	-622
941.885	-143
941.978	145
942.071	159
942.164	-485
942.257	-12
942.349	-955
942.442	-870
942.535	297
942.628	-138
942.721	-179
942.813	-743
942.906	315
942.999	192
943.091	-339
943.184	772
943.277	40
943.369	669
943.462	-285
943.554	-13
943.647	-297
943.739	-146
943.832	107
943.924	-784
944.017	147
944.109	-261
944.201	349
944.294	179
944.386	467
944.478	463
944.571	-474
944.663	-97
944.755	-208
944.847	706
944.940	-404
945.032	-13
945.124	-913
945.216	585
945.308	-275
945.400	454
945.492	692
945.584	71
945.676	-341
945.768	397
945.860	121
945.952	671
946.044	94
946.136	348
946.228	-482
946.320	494
946.412	283
946.503	148
946.595	-138
946.687	110
946.779	-998
946.870	-148
946.962	-344
947.054	617
947.145	580
947.237	267
947.329	-503
947.420	-453
947.512	-100
947.603	-492
947.695	-216
947.786	-279
947.878	-811
947.969	14
948.061	-662
948.152	287
948.243	530
948.335	1110
948.426	-464
948.517	-188
948.609	183
948.700	-189
948.791	-1053
948.882	358
948.973	-51
949.065	125
949.156	185
949.247	-89
949.338	-239
949.429	501
949.520	-646
949.611	11
949.702	-112
949.793	13
949.884	-362
949.975	-780
950.066	474
950.157	174
950.247	149
950.338	-804
950.429	90
950.520	-334
950.611	-544
950.701	-369
950.792	-172
950.883	-487
950.973	-61
951.064	-614
951.155	-200
951.245	16
951.336	-615
951.427	320
951.517	366
951.608	292
951.698	68
951.788	-323
951.879	-184
951.969	94
952.060	-732
952.150	180
952.240	-428
952.331	-158
952.421	-589
952.511	-157
952.602	-545
952.692	-703
952.782	-425
952.872	-241
952.962	-307
953.052	-276
953.143	-1076
953.233	-21
953.323	-552
953.413	-840
953.503	-355
953.593	-499
953.683	137
953.773	43
953.863	-183
953.953	-304
954.042	-454
954.132	-1234
954.222	395
954.312	-72
954.402	-230
954.492	573
954.581	-552
954.671	-200
954.761	-257
954.850	948
954.940	-615
955.030	-469
955.119	-128
955.209	-106
955.298	-293
955.388	-542
955.477	379
955.567	-1061
955.656	-834
955.746	912
955.835	-205
955.925	-81
956.014	-706
956.103	-537
956.193	-1016
956.282	296
956.371	-471
956.461	-396
956.550	-1061
956.639	430
956.728	-881
956.817	232
956.906	-580
956.995	378
957.085	-197
957.174	-1177
957.263	253
957.352	-680
957.441	-762
957.530	-256
957.619	-911
957.708	207
957.796	-415
957.885	1129
957.974	-527
958.063	-58
958.152	-768
958.241	-386
958.329	-281
958.418	298
958.507	-204
958.596	1011
958.684	104
958.773	-469
958.861	-397
958.950	401
959.039	298
959.127	799
959.216	636
959.304	-447
959.393	488
959.481	547
959.570	-356
959.658	169
959.746	516
959.835	730
959.923	1323
960.011	-123
960.100	178
960.188	157
960.276	338
960.365	246
960.453	-275
960.541	-102
960.629	-249
960.717	703
960.805	-259
960.893	-143
960.981	-336
961.069	238
961.158	-246
961.245	-89
961.333	-342
961.421	-89
961.509	-296
961.597	-1205
961.685	92
961.773	698
961.861	-629
961.949	47
962.036	61
962.124	-264
962.212	-732
962.299	-374
962.387	-599
962.475	-486
962.562	-972
962.650	-108
962.738	222
962.825	-648
962.913	-346
963.000	-135
963.088	-538
963.175	-505
963.263	-641
963.350	-423
963.438	-278
963.525	381
963.612	664
963.700	774
963.787	2621
963.874	1895
963.962	-378
964.049	-201
964.136	-1226
964.223	-941
964.310	122
964.398	-400
964.485	-297
964.572	-271
964.659	-365
964.746	396
964.833	-677
964.920	-423
965.007	-727
965.094	-99
965.181	-1049
965.268	481
965.355	-442
965.441	-1192
965.528	-688
965.615	278
965.702	-1127
965.789	-311
965.875	-397
965.962	-372
966.049	-898
966.136	-269
966.222	-822
966.309	-52
966.395	-641
966.482	-285
966.569	-1322
966.655	-491
966.742	-1107
966.828	-218
966.915	-1038
967.001	-556
967.087	-495
967.174	-580
967.260	-698
967.347	131
967.433	-60
967.519	1670
967.605	354
967.692	-433
967.778	-912
967.864	-971
967.950	-896
968.036	-1298
968.123	-445
968.209	-112
968.295	-959
968.381	-397
968.467	-829
968.553	-1644
968.639	-31
968.725	-208
968.811	-1060
968.897	-531
968.983	-866
969.069	-510
969.154	-925
969.240	-772
969.326	-1913
969.412	-552
969.497	-1184
969.583	-245
969.669	-1313
969.755	-1385
969.840	-964
969.926	484
970.012	-781
970.097	-324
970.183	-974
970.268	-504
970.354	-166
970.439	-363
970.525	167
970.610	-453
970.696	-291
970.781	274
970.866	-1731
970.952	-572
971.037	-1837
971.122	-790
971.208	-898
971.293	-735
971.378	-1225
971.463	-496
971.549	-1148
971.634	-1103
971.719	-778
971.804	-83
971.889	-379
971.974	-888
972.059	-1081
972.144	-1027
972.229	-1695
972.314	-1239
972.399	-250
972.484	-743
972.569	-629
972.654	-463
972.739	113
972.824	-797
972.908	-926
972.993	-361
973.078	-1449
973.163	-818
973.247	-1388
973.332	-1500
973.417	-360
973.501	-1470
973.586	-481
973.671	-563
973.755	-1599
973.840	-396
973.924	-599
974.009	-412
974.093	-948
974.178	-126
974.262	-912
974.346	-1050
974.431	-401
974.515	-893
974.600	-1331
974.684	-1062
974.768	-518
974.852	-520
974.937	-1341
975.021	308
975.105	-1298
975.189	-1113
975.273	-1725
975.358	-1294
975.442	-1588
975.526	-1063
975.610	-1562
975.694	-1525
975.778	-1205
975.862	-1159
975.946	-2035
976.030	-41
976.114	-525
976.198	-954
976.281	-840
976.365	-97
976.449	-676
976.533	-1635
976.617	-1724
976.700	-909
976.784	-844
976.868	-828
976.951	-85
977.035	-686
977.119	-1116
977.202	-1390
977.286	-1174
977.369	-1502
977.453	-615
977.536	-1719
977.620	-1537
977.703	-1109
977.787	-1919
977.870	-1494
977.953	-1007
978.037	-1815
978.120	-958
978.203	-1740
978.287	-809
978.370	-437
978.453	-904
978.536	-917
978.620	-1314
978.703	-1422
978.786	-1461
978.869	-900
978.952	-2035
979.035	151
979.118	-641
979.201	-1090
979.284	-414
979.367	-1179
979.450	-960
979.533	-1212
979.616	-1827
979.699	-1399
979.782	-1431
979.865	-580
979.948	-851
980.030	-1703
980.113	-889
980.196	-2511
980.279	-967
980.361	-782
980.444	-1526
980.526	-522
980.609	-2013
980.692	-768
980.774	-1018
980.857	-2388
980.939	-1020
981.022	-1139
981.104	-1934
981.187	-934
981.269	-1561
981.352	-1280
981.434	-1761
981.516	-2153
981.599	-752
981.681	-1005
981.763	-1907
981.846	-1506
981.928	-1384
982.010	-836
982.092	-1797
982.174	-953
982.256	-892
982.339	-1083
982.421	-942
982.503	-1544
982.585	-2165
982.667	-1269
982.749	-1681
982.831	-1743
982.913	-1601
982.995	-824
983.077	-1173
983.158	-748
983.240	-2042
983.322	-1042
983.404	-1061
983.486	-2114
983.568	-1819
983.649	-1246
983.731	-1348
983.813	-1463
983.894	-512
983.976	-679
984.058	-917
984.139	-1006
984.221	-1866
984.302	-1574
984.384	-1579
984.465	-2137
984.547	-1760
984.628	-1432
984.710	-1003
984.791	-1009
984.872	-1669
984.954	-1377
985.035	-377
985.116	-1115
985.198	-2166
985.279	-684
985.360	-1858
985.441	-1753
985.522	-1083
985.604	-1432
985.685	-2827
985.766	-529
985.847	-769
985.928	-1222
986.009	-1242
986.090	-1355
986.171	-928
986.252	-1171
986.333	-1913
986.414	-829
986.495	-1053
986.576	-1789
986.656	-2434
986.737	-1336
986.818	-2349
986.899	-1524
986.980	-896
987.060	-1263
987.141	-2382
987.222	-1495
987.302	-1558
987.383	-1200
987.464	-1567
987.544	-1630
987.625	-1358
987.705	-1045
987.786	-1882
987.866	-1656
987.947	-1959
988.027	-2155
988.108	-1827
988.188	-1623
988.268	-1219
988.349	-1778
988.429	-716
988.509	-811
988.589	-1527
988.670	-1948
988.750	-747
988.830	-1244
988.910	-1211
988.990	-1857
989.070	-1112
989.151	-1498
989.231	-1853
989.311	-492
989.391	-2127
989.471	-1298
989.551	-2077
989.631	-2190
989.711	-1293
989.791	-1589
989.870	-2352
989.950	-486
990.030	-2071
990.110	-1567
990.190	-1936
990.269	-1524
990.349	-1844
990.429	-676
990.509	-1811
990.588	-1535
990.668	-1862
990.747	-1594
990.827	-1707
990.907	-451
990.986	-2575
991.066	-834
991.145	-1462
991.225	-879
991.304	-2234
991.383	-1303
991.463	-1792
991.542	-1674
991.622	-2207
991.701	-1149
991.780	-1861
991.859	-1175
991.939	-1661
992.018	-1293
992.097	-1468
992.176	-1864
992.256	-1826
992.335	-1913
992.414	-1499
992.493	-2217
992.572	-1839
992.651	-667
992.730	-1682
992.809	-1461
992.888	-2480
992.967	-1914
993.046	-1747
993.125	-2031
993.203	-1956
993.282	-1004
993.361	-2351
993.440	-1151
993.519	-1396
993.597	-1582
993.676	-1515
993.755	-488
993.834	-2278
993.912	-1989
993.991	-1384
994.069	-2329
994.148	-1984
994.226	-1201
994.305	-1099
994.384	-1884
994.462	-1214
994.540	-1182
994.619	-2122
994.697	-1884
994.776	-1897
994.854	-1521
994.932	-1779
995.011	-1351
995.089	-1889
995.167	-2015
995.245	-1801
995.324	-1805
995.402	-999
995.480	-1972
995.558	-2103
995.636	-2514
995.714	-2767
995.792	-1181
995.870	-2938
995.948	-1823
996.026	-2103
996.104	-2750
996.182	-1312
996.260	-1469
996.338	-1573
996.416	-2268
996.494	-2270
996.572	-1263
996.649	-1910
996.727	-1774
996.805	-2583
996.883	-1660
996.960	-1491
997.038	-1202
997.116	-1253
997.193	-1563
997.271	-2069
997.348	-1763
997.426	-2118
997.504	-2342
997.581	-2123
997.658	-1664
997.736	-2473
997.813	-2084
997.891	-1072
997.968	-1016
998.046	-1824
998.123	-2372
998.200	-1194
998.277	-2736
998.355	-1607
998.432	-2050
998.509	-2029
998.586	-1274
998.663	-2224
998.741	-2413
998.818	-2040
998.895	-1176
998.972	-1646
999.049	-1006
999.126	-2504
999.203	-1609
999.280	-1655
999.357	-1612
999.434	-2090
999.511	-1775
999.587	-1471
999.664	-1863
999.741	-2399
999.818	-1472
999.895	-2405
999.971	-1676
1000.048	-1800
1000.125	-1724
1000.202	-1946
1000.278	-1195
1000.355	-1035
1000.431	-1680
1000.508	-1539
1000.584	-1526
1000.661	-1768
1000.738	-2222
1000.814	-1999
1000.890	-1259
1000.967	-2390
1001.043	-1088
1001.120	-1930
1001.196	-1772
1001.272	-2186
1001.349	-2201
1001.425	-1025
1001.501	-1557
1001.577	-2847
1001.654	-1343
1001.730	-2927
1001.806	-2233
1001.882	-3279
1001.958	-1471
1002.034	-1860
1002.110	-1720
1002.186	-3027
1002.262	-2135
1002.338	-2723
1002.414	-1001
1002.490	-1750
1002.566	-2269
1002.642	-1767
1002.718	-2117
1002.794	-1888
1002.870	-1704
1002.945	-2403
1003.021	-2055
1003.097	-2712
1003.173	-1743
1003.248	-2771
1003.324	-2392
1003.400	-2137
1003.475	-2398
1003.551	-1717
1003.626	-2018
1003.702	-2826
1003.777	-2515
1003.853	-2369
1003.928	-2641
1004.004	-2414
1004.079	-1734
1004.155	-1604
1004.230	-3066
1004.305	-1647
1004.381	-1775
1004.456	-1998
1004.531	-2063
1004.607	-2491
1004.682	-1693
1004.757	-2179
1004.832	-2050
1004.907	-3441
1004.982	-2106
1005.057	-2195
1005.133	-2689
1005.208	-2974
1005.283	-1807
1005.358	-2193
1005.433	-2040
1005.508	-2410
1005.583	-3193
1005.657	-2164
1005.732	-1575
1005.807	-2014
1005.882	-2726
1005.957	-2664
1006.032	-1415
1006.106	-2741
1006.181	-1498
1006.256	-2333
1006.331	-2083
1006.405	-2167
1006.480	-2317
1006.554	-2337
1006.629	-2373
1006.704	-2560
1006.778	-1866
1006.853	-2427
1006.927	-2058
1007.002	-2661
1007.076	-2354
1007.150	-2260
1007.225	-2260
1007.299	-1415
1007.373	-2647
1007.448	-2442
1007.522	-1956
1007.596	-2168
1007.671	-1945
1007.745	-1864
1007.819	-1818
1007.893	-2309
1007.967	-1802
1008.041	-3090
1008.115	-1066
1008.190	-2407
1008.264	-2454
1008.338	-3536
1008.412	-2697
1008.486	-1587
1008.560	-2686
1008.633	-2492
1008.707	-2747
1008.781	-2573
1008.855	-2709
1008.929	-2668
1009.003	-2821
1009.076	-2147
1009.150	-2205
1009.224	-2162
1009.298	-2301
1009.371	-2987
1009.445	-1908
1009.519	-2927
1009.592	-2354
1009.666	-2899
1009.739	-2033
1009.813	-3154
1009.886	-824
1009.960	-3633
1010.033	-2170
1010.107	-2496
1010.180	-2518
1010.253	-2344
1010.327	-2032
1010.400	-1926
1010.473	-1821
1010.547	-1950
1010.620	-2420
1010.693	-1519
1010.766	-3137
1010.840	-2728
1010.913	-2450
1010.986	-2375
1011.059	-1934
1011.132	-2137
1011.205	-1719
1011.278	-2460
1011.351	-2522
1011.424	-3165
1011.497	-2569
1011.570	-1775
1011.643	-1804
1011.716	-2997
1011.789	-2045
1011.862	-2043
1011.934	-1966
1012.007	-3079
1012.080	-2281
1012.153	-2713
1012.225	-1970
1012.298	-2315
1012.371	-2507
1012.443	-2239
1012.516	-2969
1012.588	-3507
1012.661	-2752
1012.733	-3120
1012.806	-1612
1012.879	-2261
1012.951	-2093
1013.023	-2715
1013.096	-1613
1013.168	-2376
1013.241	-1751
1013.313	-2613
1013.385	-1722
1013.458	-2762
1013.530	-1963
1013.602	-2645
1013.674	-2386
1013.746	-3076
1013.819	-2365
1013.891	-2151
1013.963	-3232
1014.035	-2726
1014.107	-1804
1014.179	-2259
1014.251	-3177
1014.323	-2916
1014.395	-1647
1014.467	-2224
1014.539	-2279
1014.611	-2448
1014.683	-2238
1014.754	-2482
1014.826	-2604
1014.898	-2575
1014.970	-2968
1015.042	-2096
1015.113	-1562
1015.185	-2038
1015.257	-2486
1015.328	-2704
1015.400	-2750
1015.471	-2504
1015.543	-2428
1015.615	-2172
1015.686	-2557
1015.757	-2598
1015.829	-1525
1015.901	-2199
1015.972	-1796
1016.043	-1418
1016.115	-1657
1016.186	-2470
1016.257	-2496
1016.328	-2090
1016.400	-1574
1016.471	-3402
1016.542	-1836
1016.613	-2493
1016.685	-2425
1016.756	-2457
1016.827	-2410
1016.898	-3219
1016.969	-1632
1017.040	-2899
1017.111	-2660
1017.182	-2617
1017.253	-2177
1017.324	-1843
1017.395	-2847
1017.466	-2023
1017.537	-1898
1017.608	-2142
1017.678	-2150
1017.749	-1931
1017.820	-1870
1017.891	-2598
1017.961	-2654
1018.032	-2577
1018.103	-2212
1018.173	-1942
1018.244	-2543
1018.315	-3326
1018.385	-2049
1018.456	-3011
1018.526	-2359
1018.597	-2362
1018.667	-2009
1018.738	-2526
1018.808	-1292
1018.878	-1778
1018.949	-2440
1019.019	-3059
1019.089	-1679
1019.160	-3130
1019.230	-2315
1019.300	-2284
1019.371	-2946
1019.441	-2345
1019.511	-2777
1019.581	-2190
1019.651	-2564
1019.721	-2309
1019.791	-2368
1019.861	-2545
1019.931	-2119
1020.001	-3269
1020.071	-2525
1020.141	-2408
1020.211	-1770
1020.281	-2850
1020.351	-2258
1020.421	-1508
1020.491	-1046
1020.560	-2568
1020.630	-1721
1020.700	-2775
1020.770	-2346
1020.839	-2758
1020.909	-1758
1020.979	-2235
1021.048	-2935
1021.118	-1701
1021.187	-2021
1021.257	-2341
1021.326	-1868
1021.396	-1708
1021.465	-1922
1021.535	-1648
1021.604	-2476
1021.674	-1610
1021.743	-1601
1021.812	-2048
1021.882	-1964
1021.951	-2483
1022.020	-2302
1022.089	-2395
1022.159	-1853
1022.228	-2228
1022.297	-2182
1022.366	-2424
1022.435	-1739
1022.504	-1932
1022.573	-2545
1022.642	-2646
1022.711	-2904
1022.781	-2485
1022.849	-1305
1022.918	-2208
1022.987	-1749
1023.056	-1953
1023.125	-2022
1023.194	-2815
1023.263	-2611
1023.331	-1837
1023.400	-2364
1023.469	-1879
1023.538	-2082
1023.606	-2302
1023.675	-1904
1023.744	-2431
1023.812	-2219
1023.881	-2256
1023.949	-2199
1024.018	-2491
1024.086	-2391
1024.155	-1988
1024.223	-2236
1024.292	-2469
1024.360	-2155
1024.429	-2165
1024.497	-2396
1024.565	-2521
1024.634	-2406
1024.702	-2101
1024.770	-1738
1024.838	-2814
1024.907	-2045
1024.975	-2639
1025.043	-1903
1025.111	-2311
1025.179	-1727
1025.247	-2782
1025.315	-1793
1025.383	-2021
1025.451	-1966
1025.519	-1943
1025.587	-2145
1025.655	-2730
1025.723	-2115
1025.791	-2355
1025.859	-2083
1025.927	-2032
1025.995	-2311
1026.062	-2001
1026.130	-1977
1026.198	-2094
1026.266	-1769
1026.333	-2103
1026.401	-1170
1026.469	-2436
1026.536	-2273
1026.604	-2283
1026.671	-2600
1026.739	-2710
1026.806	-2202
1026.874	-1517
1026.941	-2508
1027.009	-2439
1027.076	-2332
1027.144	-1613
1027.211	-2584
1027.278	-2365
1027.345	-1989
1027.413	-2630
1027.480	-2104
1027.547	-2297
1027.614	-1941
1027.682	-1860
1027.749	-2214
1027.816	-2351
1027.883	-2684
1027.950	-3112
1028.017	-2784
1028.084	-1884
1028.151	-2154
1028.218	-2628
1028.285	-1967
1028.352	-2358
1028.419	-1834
1028.486	-2496
1028.553	-1165
1028.619	-3112
1028.686	-1391
1028.753	-2454
1028.820	-2708
1028.886	-2041
1028.953	-1529
1029.020	-2893
1029.086	-2355
1029.153	-2203
1029.220	-2815
1029.286	-1795
1029.353	-1526
1029.419	-2697
1029.486	-1743
1029.552	-1795
1029.619	-2956
1029.685	-2087
1029.751	-1931
1029.818	-1767
1029.884	-2396
1029.951	-1942
1030.017	-2427
1030.083	-2821
1030.149	-2857
1030.216	-2622
1030.282	-1774
1030.348	-2555
1030.414	-2209
1030.480	-3222
1030.546	-2848
1030.612	-3091
1030.678	-2514
1030.744	-2393
1030.810	-1823
1030.876	-2223
1030.942	-2550
1031.008	-2224
1031.074	-2875
1031.140	-1951
1031.206	-2204
1031.272	-2760
1031.337	-2353
1031.403	-2318
1031.469	-2492
1031.534	-3358
1031.600	-1843
1031.666	-2366
1031.731	-2095
1031.797	-2835
1031.863	-2225
1031.928	-2601
1031.994	-2185
1032.059	-1965
1032.125	-2366
1032.190	-2998
1032.256	-2184
1032.321	-2746
1032.386	-2361
1032.452	-2192
1032.517	-1992
1032.582	-2750
1032.647	-1980
1032.713	-2654
1032.778	-1744
1032.843	-2707
1032.908	-2176
1032.974	-2552
1033.039	-2957
1033.104	-1989
1033.169	-2697
1033.234	-2491
1033.299	-2183
1033.364	-2699
1033.429	-2666
1033.494	-1695
1033.559	-2469
1033.624	-3160
1033.688	-1921
1033.753	-2819
1033.818	-2523
1033.883	-3137
1033.948	-2910
1034.013	-2742
1034.077	-2320
1034.142	-1619
1034.207	-3016
1034.271	-3794
1034.336	-1980
1034.400	-3107
1034.465	-2098
1034.530	-2672
1034.594	-2187
1034.658	-2659
1034.723	-3592
1034.787	-2007
1034.852	-1869
1034.916	-3185
1034.981	-2470
1035.045	-2773
1035.109	-3056
1035.173	-2425
1035.238	-2729
1035.302	-2509
1035.366	-2171
1035.430	-2896
1035.495	-3047
1035.559	-2526
1035.623	-2182
1035.687	-1689
1035.751	-2221
1035.815	-1972
1035.879	-2492
1035.943	-2859
1036.007	-2734
1036.071	-2852
1036.135	-2458
1036.198	-2481
1036.262	-2402
1036.326	-3280
1036.390	-2457
1036.454	-2345
1036.517	-1949
1036.581	-2280
1036.645	-2676
1036.709	-3026
1036.772	-1994
1036.836	-2314
1036.900	-2856
1036.963	-3018
1037.026	-2148
1037.090	-2501
1037.154	-3391
1037.217	-2503
1037.280	-2679
1037.344	-3343
1037.407	-2562
1037.471	-3135
1037.534	-2345
1037.597	-2048
1037.661	-2558
1037.724	-2911
1037.787	-3466
1037.850	-2530
1037.913	-2561
1037.977	-2510
1038.040	-3355
1038.103	-2306
1038.166	-3302
1038.229	-2429
1038.292	-2586
1038.355	-2821
1038.418	-2110
1038.481	-2320
1038.544	-2541
1038.607	-3006
1038.670	-2406
1038.732	-3379
1038.795	-2639
1038.858	-2167
1038.921	-2402
1038.984	-1959
1039.046	-3097
1039.109	-2809
1039.172	-2272
1039.234	-3317
1039.297	-2094
1039.360	-2949
1039.422	-2331
1039.485	-2788
1039.547	-3080
1039.610	-2723
1039.672	-2550
1039.734	-3046
1039.797	-2213
1039.859	-2743
1039.922	-3358
1039.984	-3675
1040.046	-3242
1040.109	-2903
1040.171	-2423
1040.233	-3354
1040.295	-2173
1040.358	-3105
1040.420	-2598
1040.482	-3106
1040.544	-3211
1040.606	-2795
1040.668	-2463
1040.730	-2856
1040.792	-2918
1040.854	-3207
1040.916	-2777
1040.978	-2699
1041.040	-2614
1041.102	-3185
1041.164	-1812
1041.225	-3464
1041.287	-2836
1041.349	-2905
1041.411	-3393
1041.472	-3066
1041.534	-2586
1041.596	-3653
1041.657	-2898
1041.719	-3079
1041.781	-3204
1041.842	-2952
1041.904	-2492
1041.965	-2894
1042.027	-3277
1042.088	-3228
1042.150	-1969
1042.211	-3529
1042.272	-3071
1042.334	-3252
1042.395	-2851
1042.456	-3101
1042.518	-2805
1042.579	-2703
1042.640	-2719
1042.701	-2482
1042.763	-2881
1042.824	-2731
1042.885	-2577
1042.946	-2919
1043.007	-2234
1043.068	-3226
1043.129	-3583
1043.190	-3411
1043.251	-3001
1043.312	-4095
1043.373	-2175
1043.434	-2531
1043.495	-3213
1043.556	-2207
1043.616	-1295
1043.677	-2374
1043.738	-2926
1043.799	-3463
1043.859	-2361
1043.920	-2899
1043.981	-3150
1044.041	-3026
1044.102	-2350
1044.162	-2539
1044.223	-2599
1044.284	-3087
1044.344	-2445
1044.405	-3438
1044.465	-2272
1044.525	-2950
1044.586	-2193
1044.646	-2847
1044.707	-2398
1044.767	-3433
1044.827	-2844
1044.887	-2305
1044.948	-2374
1045.008	-2676
1045.068	-2717
1045.128	-2355
1045.188	-2695
1045.249	-2364
1045.309	-2857
1045.369	-2672
1045.429	-2067
1045.489	-2852
1045.549	-1989
1045.609	-2578
1045.669	-2102
1045.729	-1902
1045.789	-2499
1045.848	-2492
1045.908	-1901
1045.968	-2744
1046.028	-2136
1046.088	-1945
1046.147	-1675
1046.207	-2866
1046.267	-1723
1046.326	-2583
1046.386	-2158
1046.446	-2244
1046.505	-2709
1046.565	-2114
1046.624	-1250
1046.684	-1732
1046.743	-1425
1046.803	-1314
1046.862	-977
1046.922	0
