'Start Wavelength	183.907
'End Wavelength	1046.922
'Gate Delay	5.000
'Gate Width (ms)	1.050
'Laser Output Level	0.000
'X Position	0.000
'Y Position	0.000
'Z Position	0.000
'Grid Point Number	1.000
'Shot Number	100.000
183.907	605.000
183.977	-814.000
184.047	105
184.116	-308
184.186	236
184.256	-262
184.325	-258
184.395	-537
184.465	1002
184.534	137
184.604	92
184.674	-183
184.743	7
184.813	-343
184.883	-283
184.952	-561
185.022	408
185.092	-225
185.161	-729
185.231	-613
185.301	-179
185.370	-51
185.440	-156
185.509	224
185.579	-218
185.649	-1013
185.718	403
185.788	-145
185.857	-645
185.927	-297
185.996	271
186.066	-825
186.136	-260
186.205	-111
186.275	409
186.344	-375
186.414	-17
186.483	-1092
186.553	652
186.622	320
186.692	43
186.761	-153
186.831	283
186.900	-482
186.970	270
187.039	-445
187.109	1058
187.178	319
187.248	96
187.317	-539
187.387	275
187.456	-316
187.526	479
187.595	298
187.664	38
187.734	-216
187.803	-107
187.873	109
187.942	-39
188.012	85
188.081	106
188.150	-137
188.220	318
188.289	39
188.358	-64
188.428	101
188.497	96
188.567	70
188.636	-545
188.705	-235
188.775	-450
188.844	-81
188.913	709
188.983	-16
189.052	-365
189.121	243
189.191	491
189.260	243
189.329	1962
189.399	123
189.468	128
189.537	-566
189.606	584
189.676	-340
189.745	186
189.814	151
189.883	-300
189.953	749
190.022	806
190.091	3856
190.161	4321
190.230	1093
190.299	757
190.368	438
190.437	31
190.507	512
190.576	119
190.645	-492
190.714	106
190.783	-1094
190.853	340
190.922	-146
190.991	468
191.060	-366
191.129	382
191.198	-150
191.268	-67
191.337	39
191.406	303
191.475	313
191.544	36
191.613	100
191.682	-609
191.752	-451
191.821	-132
191.890	-677
191.959	-369
192.028	-377
192.097	342
192.166	-59
192.235	-471
192.304	499
192.373	3
192.442	-110
192.511	485
192.580	-810
192.650	315
192.719	-26
192.788	-320
192.857	-793
192.926	830
192.995	-44
193.064	1742
193.133	981
193.202	687
193.271	1051
193.340	345
193.409	-58
193.478	1351
193.547	1051
193.615	1810
193.684	1848
193.753	969
193.822	895
193.891	253
193.960	1459
194.029	283
194.098	485
194.167	194
194.236	593
194.305	1221
194.374	-582
194.443	79
194.512	508
194.580	434
194.649	-187
194.718	670
194.787	-347
194.856	-167
194.925	189
194.994	263
195.062	922
195.131	-319
195.200	217
195.269	445
195.338	455
195.407	-488
195.475	306
195.544	653
195.613	120
195.682	602
195.751	550
195.819	313
195.888	700
195.957	1815
196.026	975
196.094	203
196.163	980
196.232	179
196.301	613
196.369	1711
196.438	507
196.507	39
196.576	-873
196.644	737
196.713	110
196.782	316
196.850	632
196.919	454
196.988	545
197.056	-235
197.125	18
197.194	461
197.262	745
197.331	826
197.400	-236
197.468	848
197.537	58
197.606	1046
197.674	1361
197.743	5251
197.812	952
197.880	4374
197.949	2908
198.017	4441
198.086	2500
198.155	657
198.223	1041
198.292	4988
198.360	1735
198.429	1861
198.497	203
198.566	2968
198.635	5158
198.703	1933
198.772	1246
198.840	6707
198.909	6759
198.977	1592
199.046	1434
199.114	983
199.183	579
199.251	1484
199.320	550
199.388	644
199.457	-241
199.525	368
199.594	780
199.662	498
199.731	296
199.799	601
199.867	750
199.936	743
200.004	159
200.073	608
200.141	313
200.210	879
200.278	-218
200.346	312
200.415	-30
200.483	809
200.552	415
200.620	823
200.688	697
200.757	-95
200.825	267
200.893	1078
200.962	691
201.030	287
201.098	242
201.167	1000
201.235	-234
201.303	852
201.372	800
201.440	1204
201.508	558
201.577	1161
201.645	10
201.713	537
201.781	94
201.850	584
201.918	705
201.986	512
202.055	553
202.123	-30
202.191	758
202.259	785
202.327	850
202.396	770
202.464	348
202.532	903
202.600	2370
202.669	1780
202.737	27
202.805	465
202.873	394
202.941	425
203.009	556
203.078	86
203.146	550
203.214	900
203.282	183
203.350	609
203.418	432
203.487	739
203.555	317
203.623	784
203.691	774
203.759	643
203.827	446
203.895	1269
203.963	517
204.031	110
204.099	466
204.168	637
204.236	344
204.304	648
204.372	180
204.440	639
204.508	399
204.576	899
204.644	89
204.712	-167
204.780	919
204.848	428
204.916	980
204.984	681
205.052	978
205.120	735
205.188	143
205.256	385
205.324	556
205.392	1054
205.460	1006
205.528	1505
205.596	1813
205.664	1697
205.732	1258
205.799	5963
205.867	9665
205.935	2136
206.003	1185
206.071	786
206.139	1220
206.207	1215
206.275	896
206.343	974
206.411	-81
206.478	1821
206.546	1146
206.614	554
206.682	464
206.750	1338
206.818	1273
206.885	1670
206.953	331
207.021	1772
207.089	1035
207.157	1168
207.225	1673
207.292	2353
207.360	402
207.428	1007
207.496	292
207.563	1026
207.631	890
207.699	1177
207.767	1260
207.834	595
207.902	744
207.970	866
208.038	1278
208.105	512
208.173	1711
208.241	2243
208.309	1459
208.376	1365
208.444	3093
208.512	2212
208.579	757
208.647	1956
208.715	759
208.782	665
208.850	454
208.918	849
208.985	871
209.053	1453
209.120	1123
209.188	1196
209.256	828
209.323	1046
209.391	1649
209.459	2193
209.526	1093
209.594	733
209.661	1299
209.729	1902
209.796	771
209.864	739
209.932	-32
209.999	2088
210.067	950
210.134	1256
210.202	1413
210.269	1891
210.337	1582
210.404	1185
210.472	1656
210.539	2302
210.607	572
210.674	1142
210.742	1447
210.809	1122
210.877	1403
210.944	2086
211.012	239
211.079	2375
211.146	1946
211.214	2548
211.281	1602
211.349	1705
211.416	974
211.484	1820
211.551	827
211.618	1219
211.686	1591
211.753	1326
211.821	1276
211.888	1955
211.955	1455
212.023	1107
212.090	2363
212.157	2773
212.225	2497
212.292	6179
212.359	12537
212.427	40754
212.494	14379
212.561	4783
212.629	2836
212.696	2050
212.763	2499
212.831	1482
212.898	1606
212.965	1937
213.032	2172
213.100	2130
213.167	1661
213.234	2368
213.301	1687
213.369	1593
213.436	849
213.503	2118
213.570	2188
213.638	1943
213.705	1550
213.772	1615
213.839	2242
213.906	2322
213.973	1026
214.041	1085
214.108	912
214.175	1370
214.242	816
214.309	2089
214.376	1456
214.444	1801
214.511	2030
214.578	1799
214.645	2978
214.712	1413
214.779	1615
214.846	1707
214.913	1457
214.980	2636
215.048	2521
215.115	3241
215.182	2336
215.249	1694
215.316	1469
215.383	2385
215.450	1547
215.517	1688
215.584	1410
215.651	1421
215.718	1549
215.785	1994
215.852	964
215.919	2040
215.986	1693
216.053	896
216.120	1443
216.187	2558
216.254	1718
216.321	1440
216.388	2108
216.455	1836
216.522	1726
216.589	2223
216.656	4042
216.722	4828
216.789	2686
216.856	3526
216.923	3025
216.990	2766
217.057	2109
217.124	2339
217.191	2757
217.258	2979
217.324	4127
217.391	5080
217.458	3821
217.525	3585
217.592	2047
217.659	1178
217.725	2508
217.792	3460
217.859	3366
217.926	2277
217.993	1698
218.059	2238
218.126	2086
218.193	1149
218.260	1463
218.327	1483
218.393	1397
218.460	2193
218.527	951
218.594	2139
218.660	2731
218.727	4029
218.794	980
218.860	1910
218.927	766
218.994	2165
219.061	1315
219.127	1832
219.194	2605
219.261	2412
219.327	1384
219.394	2236
219.461	424
219.527	1857
219.594	2671
219.661	1750
219.727	811
219.794	1758
219.860	1676
219.927	2283
219.994	2900
220.060	3651
220.127	2332
220.193	2425
220.260	1685
220.326	3738
220.393	5429
220.460	7910
220.526	4331
220.593	3369
220.659	4282
220.726	4664
220.792	15114
220.859	9616
220.925	9604
220.992	14284
221.058	18447
221.125	21877
221.191	15934
221.258	4874
221.324	3566
221.391	3043
221.457	2114
221.524	3252
221.590	5617
221.657	22558
221.723	13866
221.789	13143
221.856	10144
221.922	4868
221.989	3549
222.055	2563
222.121	1666
222.188	3534
222.254	1785
222.321	1551
222.387	766
222.453	2529
222.520	1641
222.586	1476
222.652	2210
222.719	1114
222.785	1977
222.851	1640
222.918	1658
222.984	1339
223.050	1312
223.116	753
223.183	2272
223.249	1051
223.315	780
223.382	1775
223.448	1234
223.514	930
223.580	582
223.647	1270
223.713	1094
223.779	1442
223.845	1578
223.911	1379
223.978	772
224.044	1441
224.110	1495
224.176	1580
224.242	541
224.309	1061
224.375	1318
224.441	1469
224.507	1114
224.573	332
224.639	1365
224.705	736
224.772	1017
224.838	894
224.904	1309
224.970	1761
225.036	667
225.102	1267
225.168	914
225.234	1391
225.300	1760
225.366	1386
225.432	1514
225.499	1804
225.565	1574
225.631	1393
225.697	1524
225.763	2555
225.829	2320
225.895	2753
225.961	4349
226.027	4205
226.093	2696
226.159	4005
226.225	5279
226.291	10904
226.357	19841
226.423	9079
226.489	4951
226.554	3867
226.620	4083
226.686	3645
226.752	5755
226.818	9845
226.884	27869
226.950	23219
227.016	7846
227.082	5104
227.148	3326
227.214	3270
227.279	2643
227.345	2526
227.411	2802
227.477	2464
227.543	2695
227.609	3073
227.674	2004
227.740	1765
227.806	2956
227.872	2497
227.938	2179
228.003	2407
228.069	1556
228.135	1701
228.201	1806
228.267	1623
228.332	2144
228.398	1603
228.464	1709
228.530	536
228.595	1323
228.661	1063
228.727	2663
228.792	2901
228.858	1034
228.924	1620
228.990	2845
229.055	2260
229.121	3240
229.187	1175
229.252	1145
229.318	1794
229.384	2094
229.449	2338
229.515	215
229.581	295
229.646	3089
229.712	1870
229.777	3363
229.843	3616
229.909	2790
229.974	3665
230.040	2684
230.105	2805
230.171	2821
230.236	5609
230.302	8413
230.368	4954
230.433	3518
230.499	3499
230.564	3010
230.630	2803
230.695	2231
230.761	3621
230.826	1219
230.892	3592
230.957	1349
231.023	1586
231.088	2065
231.154	2770
231.219	2072
231.284	2508
231.350	2996
231.415	1327
231.481	1736
231.546	1652
231.612	1226
231.677	1416
231.742	-346
231.808	2674
231.873	597
231.939	-29
232.004	2912
232.069	3286
232.135	2268
232.200	920
232.265	2354
232.331	1386
232.396	1468
232.461	670
232.527	1551
232.592	984
232.657	1324
232.723	4124
232.788	2314
232.853	1722
232.918	1816
232.984	1025
233.049	1495
233.114	3261
233.179	2736
233.245	5891
233.310	6781
233.375	1804
233.440	2286
233.506	2184
233.571	1493
233.636	2083
233.701	1832
233.766	3281
233.832	4526
233.897	2421
233.962	817
234.027	2581
234.092	2026
234.157	1814
234.222	2278
234.288	4145
234.353	15800
234.418	11400
234.483	6361
234.548	4944
234.613	2573
234.678	3135
234.743	3848
234.808	13955
234.873	7489
234.938	4416
235.004	2967
235.069	3270
235.134	2506
235.199	3071
235.264	3165
235.329	1488
235.394	2522
235.459	4240
235.524	2443
235.589	2592
235.654	2007
235.719	1098
235.784	3244
235.849	3089
235.913	6478
235.978	7679
236.043	8067
236.108	3621
236.173	2554
236.238	4019
236.303	2048
236.368	2553
236.433	5486
236.498	9134
236.563	5938
236.627	9649
236.692	37595
236.757	26639
236.822	10365
236.887	7460
236.952	6817
237.017	5663
237.081	6451
237.146	6346
237.211	14058
237.276	37199
237.341	63368
237.405	24216
237.470	9064
237.535	7658
237.600	5219
237.664	4235
237.729	2879
237.794	4932
237.859	9541
237.923	7149
237.988	3763
238.053	6960
238.118	6959
238.182	26842
238.247	21328
238.312	6918
238.376	4930
238.441	3289
238.506	4645
238.570	2344
238.635	3819
238.700	2451
238.764	2150
238.829	9641
238.893	9833
238.958	4233
239.023	4147
239.087	2498
239.152	2871
239.216	2026
239.281	2498
239.346	3265
239.410	2677
239.475	3392
239.539	23702
239.604	17162
239.668	5070
239.733	3140
239.797	2776
239.862	4492
239.926	14029
239.991	4977
240.055	2914
240.120	2231
240.184	2374
240.249	2261
240.313	2808
240.378	2646
240.442	10918
240.507	19886
240.571	4976
240.635	8634
240.700	9962
240.764	3235
240.829	2523
240.893	1257
240.957	2283
241.022	11122
241.086	18232
241.151	6425
241.215	1140
241.279	5037
241.344	8561
241.408	4280
241.472	2208
241.537	4035
241.601	3655
241.665	2794
241.730	2007
241.794	4383
241.858	3083
241.922	3231
241.987	2922
242.051	2799
242.115	2376
242.179	2838
242.244	2951
242.308	3354
242.372	3248
242.436	4018
242.501	3387
242.565	2809
242.629	2470
242.693	4224
242.757	1518
242.822	2647
242.886	2997
242.950	3987
243.014	2817
243.078	3801
243.142	2578
243.206	3355
243.271	4213
243.335	4127
243.399	7227
243.463	34717
243.527	90385
243.591	24459
243.655	9568
243.719	4683
243.783	5378
243.847	9196
243.911	12925
243.975	8140
244.040	4432
244.104	4484
244.168	2829
244.232	4036
244.296	7479
244.360	9690
244.424	4878
244.488	4817
244.552	3487
244.615	1487
244.679	3200
244.743	2878
244.807	1842
244.871	2827
244.935	2380
244.999	1467
245.063	2191
245.127	4119
245.191	8619
245.255	6663
245.319	3846
245.383	1275
245.446	3672
245.510	1326
245.574	2511
245.638	2333
245.702	1137
245.766	5712
245.829	4082
245.893	2893
245.957	3029
246.021	4070
246.085	2441
246.149	4512
246.212	9431
246.276	14008
246.340	5038
246.404	4104
246.467	4592
246.531	4310
246.595	4008
246.659	4071
246.722	2659
246.786	3591
246.850	4261
246.913	5411
246.977	2036
247.041	3680
247.104	3479
247.168	3432
247.232	7119
247.295	20509
247.359	8357
247.423	3875
247.486	5800
247.550	4564
247.614	3663
247.677	4682
247.741	2820
247.804	3442
247.868	5846
247.932	7759
247.995	18336
248.059	6928
248.122	3131
248.186	5960
248.249	8124
248.313	34085
248.376	30561
248.440	18882
248.503	5258
248.567	6593
248.630	6687
248.694	9681
248.757	14367
248.821	36853
248.884	16695
248.948	17438
249.011	24314
249.075	42471
249.138	32648
249.202	11466
249.265	7802
249.328	14234
249.392	8064
249.455	6475
249.519	5574
249.582	5925
249.645	9144
249.709	8293
249.772	7243
249.835	6199
249.899	7359
249.962	6667
250.025	5501
250.089	14414
250.152	17052
250.215	8591
250.279	6680
250.342	8560
250.405	7607
250.468	7827
250.532	11306
250.595	19033
250.658	94209
250.721	145223
250.785	37466
250.848	19042
250.911	11250
250.974	10818
251.038	13981
251.101	23898
251.164	14746
251.227	14138
251.290	15438
251.354	27655
251.417	131848
251.480	115812
251.543	74489
251.606	251957
251.669	157248
251.732	50421
251.795	40196
251.859	47276
251.922	145542
251.985	69537
252.048	24226
252.111	16242
252.174	14673
252.237	23214
252.300	48085
252.363	68989
252.426	174323
252.489	57519
252.552	26098
252.615	17358
252.678	17824
252.741	39300
252.804	71426
252.867	185573
252.930	74278
252.993	30948
253.056	18306
253.119	13007
253.182	12383
253.245	26387
253.308	15921
253.371	11542
253.434	10088
253.497	9763
253.559	17702
253.622	11533
253.685	12041
253.748	10213
253.811	5895
253.874	11513
253.937	8725
254.000	6652
254.062	11811
254.125	17571
254.188	12330
254.251	9490
254.314	5634
254.376	9373
254.439	9719
254.502	8216
254.565	10821
254.628	19146
254.690	7756
254.753	5484
254.816	4345
254.878	5727
254.941	13344
255.004	13588
255.067	5486
255.129	4282
255.192	3266
255.255	2127
255.317	3394
255.380	2700
255.443	1766
255.505	2245
255.568	1642
255.631	2552
255.693	2537
255.756	1390
255.819	3591
255.881	2779
255.944	2200
256.006	2030
256.069	1540
256.132	2318
256.194	3583
256.257	14016
256.319	10250
256.382	8318
256.444	4667
256.507	3447
256.569	2454
256.632	3356
256.694	7466
256.757	18623
256.819	51911
256.882	19230
256.944	8110
257.007	6491
257.069	4486
257.132	4663
257.194	4335
257.257	3995
257.319	3340
257.381	5112
257.444	14157
257.506	68243
257.569	61409
257.631	33713
257.693	13530
257.756	8690
257.818	6721
257.880	4688
257.943	3824
258.005	3016
258.067	3447
258.130	3112
258.192	4085
258.254	7273
258.317	4843
258.379	4755
258.441	9720
258.503	9078
258.566	18974
258.628	23534
258.690	4665
258.753	5960
258.815	5456
258.877	4554
258.939	3395
259.001	4377
259.064	2749
259.126	4750
259.188	5926
259.250	5107
259.312	6020
259.375	18536
259.437	9469
259.499	4495
259.561	4101
259.623	4849
259.685	3841
259.747	4525
259.809	19525
259.872	34144
259.934	61349
259.996	39777
260.058	9307
260.120	4415
260.182	4132
260.244	3540
260.306	3003
260.368	3560
260.430	2151
260.492	5080
260.554	14675
260.616	12411
260.678	20284
260.740	30163
260.802	6572
260.864	5504
260.926	3067
260.988	4331
261.050	4392
261.112	6821
261.174	30892
261.236	26532
261.298	6664
261.359	13673
261.421	18581
261.483	4131
261.545	3693
261.607	1508
261.669	2778
261.731	8311
261.793	16811
261.854	5190
261.916	3863
261.978	2635
262.040	3726
262.102	4325
262.164	6397
262.225	4977
262.287	2744
262.349	6322
262.411	4722
262.472	3665
262.534	8033
262.596	19021
262.658	5189
262.719	3250
262.781	6003
262.843	17942
262.904	7208
262.966	6566
263.028	8339
263.090	50559
263.151	125909
263.213	31833
263.275	11642
263.336	5897
263.398	4156
263.459	2285
263.521	2780
263.583	5818
263.644	3019
263.706	1478
263.767	1623
263.829	2898
263.891	1783
263.952	1676
264.014	968
264.075	1968
264.137	4038
264.198	2300
264.260	1296
264.321	1520
264.383	3663
264.444	6928
264.506	1887
264.567	2053
264.629	3219
264.690	4585
264.752	2705
264.813	1910
264.875	1259
264.936	2481
264.998	1026
265.059	1735
265.120	1503
265.182	4154
265.243	24141
265.305	20516
265.366	4772
265.427	2408
265.489	2540
265.550	1121
265.611	1556
265.673	1569
265.734	613
265.795	1363
265.857	1837
265.918	2391
265.979	6125
266.040	43923
266.102	28558
266.163	8060
266.224	4264
266.286	3139
266.347	1498
266.408	1489
266.469	3192
266.530	1443
266.592	1242
266.653	3758
266.714	4254
266.775	2040
266.836	740
266.898	504
266.959	1066
267.020	1684
267.081	1792
267.142	1976
267.203	1212
267.264	1045
267.326	1632
267.387	967
267.448	963
267.509	1730
267.570	951
267.631	170
267.692	194
267.753	818
267.814	645
267.875	3264
267.936	6645
267.997	2771
268.058	1907
268.119	1493
268.180	1648
268.241	1677
268.302	1218
268.363	855
268.424	876
268.485	2001
268.546	670
268.607	628
268.668	1456
268.729	450
268.790	638
268.851	1149
268.912	4186
268.972	5324
269.033	1746
269.094	918
269.155	1049
269.216	469
269.277	1963
269.338	1309
269.398	1209
269.459	1511
269.520	1801
269.581	2981
269.642	2661
269.702	1792
269.763	2075
269.824	1066
269.885	1657
269.945	2795
270.006	1511
270.067	1549
270.128	902
270.188	628
270.249	482
270.310	1147
270.370	1029
270.431	2537
270.492	241
270.553	1552
270.613	3503
270.674	6521
270.734	2096
270.795	1771
270.856	2306
270.916	1683
270.977	1668
271.038	1658
271.098	2054
271.159	2962
271.219	3451
271.280	1633
271.340	2375
271.401	1677
271.462	7815
271.522	3470
271.583	1825
271.643	2716
271.704	1801
271.764	2802
271.825	5030
271.885	28428
271.946	37316
272.006	9471
272.066	16704
272.127	29315
272.187	6385
272.248	3706
272.308	3603
272.369	19387
272.429	8879
272.489	5553
272.550	3795
272.610	4868
272.671	3651
272.731	5557
272.791	9046
272.852	3380
272.912	3012
272.972	1764
273.033	2083
273.093	4092
273.153	2510
273.214	1850
273.274	2066
273.334	11172
273.394	22000
273.455	6748
273.515	7590
273.575	17077
273.635	6412
273.696	12953
273.756	26183
273.816	7857
273.876	5666
273.936	18562
273.997	30746
274.057	6175
274.117	3826
274.177	6218
274.237	28741
274.297	27029
274.358	20063
274.418	19095
274.478	12226
274.538	4998
274.598	4928
274.658	26565
274.718	30990
274.778	10219
274.838	5222
274.898	15056
274.958	47220
275.018	31972
275.078	16770
275.138	5606
275.198	3321
275.258	2762
275.318	4125
275.378	6812
275.438	5340
275.498	4473
275.558	22156
275.618	40390
275.678	15995
275.738	7633
275.798	5407
275.858	2548
275.918	2253
275.978	2578
276.038	1144
276.098	2084
276.157	4257
276.217	11439
276.277	4697
276.337	3243
276.397	1828
276.457	2671
276.517	1591
276.576	1821
276.636	1053
276.696	2586
276.756	8138
276.815	5225
276.875	1714
276.935	3019
276.995	2088
277.055	1654
277.114	1043
277.174	2340
277.234	10316
277.293	3380
277.353	1448
277.413	904
277.472	2333
277.532	1264
277.592	2229
277.651	7559
277.711	10729
277.771	3799
277.830	14636
277.890	11096
277.950	10668
278.009	32212
278.069	10687
278.128	9345
278.188	10220
278.248	4894
278.307	12195
278.367	8083
278.426	3802
278.486	3103
278.545	2688
278.605	2466
278.664	1854
278.724	3135
278.783	10115
278.843	27733
278.902	7067
278.962	4611
279.021	3449
279.081	8291
279.140	6447
279.199	4644
279.259	4813
279.318	7117
279.378	8559
279.437	16776
279.496	64538
279.556	237544
279.615	158522
279.675	33998
279.734	19428
279.793	27753
279.853	49147
279.912	16765
279.971	8935
280.031	8428
280.090	18931
280.149	33102
280.208	23446
280.268	152107
280.327	141526
280.386	25865
280.445	16586
280.505	12172
280.564	6684
280.623	5339
280.682	7543
280.742	9390
280.801	3203
280.860	3666
280.919	2206
280.978	2065
281.037	2106
281.097	2154
281.156	1965
281.215	2476
281.274	3256
281.333	16034
281.392	10588
281.451	3522
281.510	2316
281.569	1121
281.628	1626
281.688	1988
281.747	2155
281.806	1885
281.865	971
281.924	906
281.983	1147
282.042	1283
282.101	460
282.160	1268
282.219	1146
282.278	1481
282.337	5888
282.396	4293
282.454	1256
282.513	2393
282.572	8120
282.631	4126
282.690	1262
282.749	1541
282.808	1670
282.867	1866
282.926	1168
282.985	987
283.043	446
283.102	1770
283.161	1793
283.220	5600
283.279	12412
283.338	4293
283.396	1082
283.455	2608
283.514	1529
283.573	3088
283.631	1952
283.690	1500
283.749	1021
283.808	3588
283.866	3145
283.925	1415
283.984	1075
284.043	3124
284.101	1810
284.160	1695
284.219	2393
284.277	2008
284.336	2440
284.395	13575
284.453	10434
284.512	2721
284.570	3924
284.629	2669
284.688	2144
284.746	2183
284.805	3284
284.863	3171
284.922	5290
284.981	5600
285.039	7951
285.098	16325
285.156	46539
285.215	197435
285.273	169927
285.332	50754
285.390	22525
285.449	13063
285.507	9353
285.566	6227
285.624	5271
285.683	4711
285.741	4220
285.799	3008
285.858	3223
285.916	2806
285.975	1089
286.033	888
286.091	2137
286.150	1356
286.208	1757
286.267	2401
286.325	1982
286.383	3234
286.442	2481
286.500	1163
286.558	1590
286.616	1494
286.675	2314
286.733	2117
286.791	1695
286.850	2269
286.908	2732
286.966	5057
287.024	1495
287.083	1672
287.141	1258
287.199	2985
287.257	2613
287.315	2058
287.374	2303
287.432	6194
287.490	4905
287.548	3111
287.606	2812
287.664	2970
287.723	4850
287.781	5852
287.839	4938
287.897	6740
287.955	10951
288.013	18246
288.071	41499
288.129	183796
288.187	482273
288.245	198497
288.303	61906
288.361	34115
288.419	21287
288.477	14583
288.535	10821
288.593	7567
288.651	5952
288.709	4778
288.767	4117
288.825	3077
288.883	3264
288.941	2476
288.999	1851
289.057	2293
289.115	1330
289.173	2221
289.231	1925
289.289	1863
289.346	1473
289.404	1786
289.462	2387
289.520	3345
289.578	1296
289.636	1185
289.694	340
289.751	588
289.809	752
289.867	565
289.925	1439
289.983	1412
290.040	1368
290.098	1578
290.156	1260
290.214	1302
290.271	-104
290.329	954
290.387	236
290.444	505
290.502	464
290.560	608
290.617	444
290.675	-76
290.733	324
290.790	941
290.848	204
290.906	1157
290.963	95
291.021	1349
291.078	399
291.136	328
291.194	4243
291.251	9953
291.309	2225
291.366	1086
291.424	-258
291.481	1031
291.539	-12
291.596	1161
291.654	160
291.711	916
291.769	290
291.826	2241
291.884	1443
291.941	-1113
291.999	-56
292.056	518
292.114	708
292.171	-368
292.228	154
292.286	1282
292.343	2628
292.401	2460
292.458	2134
292.515	1127
292.573	1469
292.630	2020
292.687	2099
292.745	1621
292.802	1214
292.859	4962
292.917	12537
292.974	7527
293.031	1005
293.089	1298
293.146	455
293.203	160
293.260	827
293.318	3514
293.375	2915
293.432	917
293.489	900
293.546	717
293.604	2744
293.661	12005
293.718	32096
293.775	12218
293.832	4903
293.889	3471
293.947	6702
294.004	4019
294.061	2790
294.118	4522
294.175	10484
294.232	9818
294.289	3233
294.346	1956
294.403	2472
294.460	2634
294.517	2267
294.574	1512
294.631	1335
294.688	1675
294.745	8034
294.802	32213
294.859	25331
294.916	12610
294.973	9027
295.030	4233
295.087	3038
295.144	1726
295.201	1934
295.258	1531
295.315	2693
295.372	12197
295.429	23773
295.486	9527
295.542	3849
295.599	8811
295.656	12666
295.713	11106
295.770	18181
295.827	7297
295.883	3087
295.940	2483
295.997	4202
296.054	3367
296.111	1742
296.167	1979
296.224	1124
296.281	1877
296.338	810
296.394	2384
296.451	2211
296.508	8028
296.564	14303
296.621	10180
296.678	30104
296.734	42349
296.791	13140
296.848	6527
296.904	5835
296.961	10924
297.018	23426
297.074	18432
297.131	6987
297.187	4909
297.244	6871
297.301	30223
297.357	54777
297.414	18794
297.470	6109
297.527	3282
297.583	2557
297.640	3011
297.696	1188
297.753	1293
297.809	1259
297.866	1534
297.922	1240
297.979	1149
298.035	1280
298.092	3368
298.148	12818
298.204	11091
298.261	5655
298.317	12010
298.374	37913
298.430	21902
298.486	9185
298.543	6483
298.599	4480
298.656	5212
298.712	11642
298.768	45122
298.824	36147
298.881	10647
298.937	4208
298.993	2909
299.050	3300
299.106	2757
299.162	2123
299.218	3145
299.275	2136
299.331	2633
299.387	6843
299.443	32010
299.500	29679
299.556	9807
299.612	4020
299.668	2878
299.724	2355
299.780	3483
299.837	2280
299.893	4988
299.949	19613
300.005	20159
300.061	20883
300.117	40814
300.173	18284
300.229	7517
300.285	6815
300.341	6578
300.397	4080
300.453	1970
300.510	1569
300.566	2179
300.622	2326
300.678	5709
300.734	11700
300.790	18789
300.845	28210
300.901	14002
300.957	15116
301.013	12108
301.069	4642
301.125	2838
301.181	2708
301.237	1594
301.293	1221
301.349	1518
301.405	1539
301.461	1019
301.516	1239
301.572	2069
301.628	3713
301.684	3812
301.740	7155
301.796	11324
301.851	8270
301.907	12863
301.963	14677
302.019	33576
302.074	102563
302.130	96175
302.186	39913
302.242	15293
302.297	8790
302.353	8881
302.409	13354
302.464	12529
302.520	9781
302.576	27117
302.631	30789
302.687	14555
302.743	6227
302.798	3703
302.854	2940
302.910	2696
302.965	3460
303.021	5972
303.076	5188
303.132	6363
303.187	7943
303.243	4385
303.299	1898
303.354	2245
303.410	1049
303.465	1561
303.521	1363
303.576	1433
303.632	3079
303.687	8862
303.743	29832
303.798	24612
303.853	8854
303.909	4401
303.964	2980
304.020	5097
304.075	6081
304.130	5440
304.186	8749
304.241	10263
304.297	7822
304.352	4038
304.358	3845
304.407	2280
304.449	2567
304.463	2668
304.518	3348
304.539	3292
304.573	3204
304.629	3073
304.630	3136
304.684	6277
304.720	17098
304.739	22460
304.794	35257
304.811	29580
304.850	16145
304.902	6328
304.905	5704
304.960	4614
304.992	4520
305.015	4387
305.071	3142
305.083	3001
305.126	2610
305.173	1650
305.181	1485
305.236	1133
305.264	1647
305.292	2164
305.347	1906
305.354	1995
305.402	2618
305.445	3862
305.457	4182
305.512	3918
305.535	3955
305.567	4120
305.622	4345
305.626	4608
305.678	10256
305.716	22257
305.733	26571
305.788	28502
305.807	24811
305.843	19375
305.897	28778
305.898	28863
305.953	28434
305.988	18277
306.008	12991
306.063	6217
306.078	5634
306.118	4360
306.168	2755
306.173	2621
306.228	2716
306.259	2105
306.283	1586
306.338	2166
306.349	2124
306.393	2169
306.440	3674
306.448	3915
306.503	3313
306.530	3531
306.558	4310
306.613	9190
306.620	9770
306.668	13435
306.711	19393
306.723	20313
306.778	15209
306.801	11374
306.833	7234
306.888	3861
306.892	3744
306.943	2684
306.982	2755
306.997	2776
307.052	1917
307.072	2064
307.107	2726
307.162	3722
307.163	3738
307.217	5406
307.253	6754
307.272	7039
307.327	7040
307.343	6490
307.381	5615
307.434	4941
307.436	5042
307.491	9672
307.524	14992
307.546	16611
307.600	15883
307.614	13957
307.655	8568
307.704	5294
307.710	5190
307.765	5912
307.795	7391
307.819	8623
307.874	14271
307.885	14285
307.929	11935
307.975	9499
307.984	9726
308.038	14729
308.065	18947
308.093	36042
308.148	86302
308.156	100222
308.202	163266
308.246	189201
308.257	185939
308.312	92549
308.336	60320
308.366	40051
308.421	22628
308.426	21609
308.475	13892
308.517	9937
308.530	8952
308.585	6918
308.607	6895
308.639	7210
308.694	7539
308.697	7651
308.748	13320
308.787	19675
308.803	19618
308.857	14086
308.877	11629
308.912	10044
308.967	10554
308.967	10573
309.021	12744
309.058	16176
309.076	21437
309.130	40854
309.148	50562
309.185	116533
309.238	246079
309.239	246429
309.293	261742
309.328	209794
309.348	175247
309.402	72450
309.418	50362
309.457	30713
309.508	18784
309.511	18174
309.566	13144
309.598	11850
309.620	12072
309.674	14397
309.688	15055
309.729	13206
309.778	9527
309.783	9327
309.837	7614
309.868	7013
309.892	8584
309.946	14213
309.959	16121
310.001	20847
310.049	24081
310.055	23347
310.109	13861
310.139	8338
310.163	6498
310.218	4461
310.229	4144
310.272	3332
310.319	3013
310.326	3006
310.381	3079
310.409	3138
310.435	3028
310.489	2615
310.499	2609
310.543	2919
310.589	3027
310.598	2951
310.652	2746
310.679	2528
310.706	2358
310.760	1884
310.769	1838
310.814	1698
310.859	1662
310.868	1677
310.923	1606
310.948	1605
310.977	1765
311.031	2124
311.038	2158
311.085	1694
311.128	1350
311.139	1359
311.193	1383
311.218	1372
311.247	1564
311.301	1949
311.308	1999
311.356	1841
311.398	1653
311.410	1663
311.464	1756
311.488	1774
311.518	1353
311.572	648
311.578	568
311.626	1730
311.668	2828
311.680	2828
311.734	2708
311.758	2667
311.788	2574
311.842	2390
311.847	2368
311.896	3004
311.937	3579
311.950	3508
312.004	3181
312.027	3015
312.058	2572
312.112	1815
312.117	1744
312.165	2047
312.207	2319
312.297	1784
312.386	2309
312.476	1212
312.566	3638
312.656	1572
312.745	2197
312.835	2075
312.925	1638
313.015	2714
313.104	2314
313.194	1995
313.284	1992
313.374	1304
313.463	2346
313.553	1478
313.643	1468
313.732	944
313.822	1540
313.912	1133
314.001	1732
314.091	1001
314.180	1317
314.270	1186
314.360	2579
314.449	1596
314.539	500
314.628	1368
314.718	1787
314.808	2386
314.897	1800
314.987	1386
315.076	2501
315.166	3170
315.255	2564
315.345	2193
315.434	2283
315.524	2003
315.613	2290
315.703	2149
315.792	3116
315.881	4662
315.971	2344
316.060	4778
316.150	7466
316.239	7407
316.328	2214
316.418	952
316.507	1268
316.597	2224
316.686	1549
316.775	4455
316.865	8056
316.954	1426
317.043	1231
317.133	759
317.222	1272
317.311	1015
317.400	-3
317.490	2562
317.579	1947
317.668	1109
317.757	2337
317.847	4693
317.936	9435
318.025	5807
318.114	3028
318.203	2178
318.293	3666
318.382	5121
318.471	4167
318.560	6167
318.649	12311
318.738	2280
318.828	2478
318.917	1540
319.006	2934
319.095	8980
319.184	17570
319.273	9053
319.362	4902
319.451	1857
319.540	1958
319.629	5133
319.718	6725
319.807	2833
319.896	7058
319.985	22167
320.074	7181
320.163	2114
320.252	4819
320.341	2854
320.430	2135
320.519	3420
320.608	1646
320.697	868
320.786	1837
320.875	2386
320.964	3748
321.053	4277
321.142	7322
321.230	6080
321.319	6326
321.408	11124
321.497	4683
321.586	4564
321.675	7576
321.764	4914
321.852	4259
321.941	6985
322.030	3708
322.119	4973
322.207	14490
322.296	9420
322.385	3499
322.474	4966
322.562	15506
322.651	6116
322.740	6687
322.829	9803
322.917	10636
323.006	4607
323.095	3962
323.183	3261
323.272	5163
323.361	14507
323.449	43051
323.538	11239
323.626	29966
323.715	13396
323.804	6843
323.892	24780
323.981	9290
324.069	3425
324.158	13495
324.246	9315
324.335	3862
324.424	4007
324.512	1998
324.601	2464
324.689	3475
324.778	5606
324.866	8416
324.954	1935
325.043	2201
325.131	3926
325.220	9324
325.308	9880
325.397	7246
325.485	3003
325.574	1011
325.662	998
325.750	1712
325.839	773
325.927	1702
326.015	2417
326.104	4973
326.192	5818
326.280	1069
326.369	1185
326.457	2425
326.545	3709
326.634	1436
326.722	647
326.810	980
326.898	1559
326.987	1441
327.075	3587
327.163	4335
327.251	1886
327.340	1740
327.428	2456
327.516	1121
327.604	1721
327.692	1617
327.781	2525
327.869	4590
327.957	1294
328.045	2040
328.133	1495
328.221	2472
328.309	1695
328.397	1783
328.485	909
328.574	2669
328.662	9031
328.750	5475
328.838	1720
328.926	1750
329.014	1140
329.102	2146
329.190	4062
329.278	2865
329.366	980
329.454	1077
329.542	326
329.630	1383
329.718	721
329.806	2403
329.893	1848
329.981	719
330.069	2252
330.157	13516
330.245	38170
330.333	14608
330.421	1924
330.509	3212
330.597	10101
330.684	5258
330.772	2062
330.860	2127
330.948	2504
331.036	1710
331.123	531
331.211	1119
331.299	907
331.387	2507
331.475	4504
331.562	1953
331.650	753
331.738	1419
331.825	1938
331.913	956
332.001	494
332.089	1666
332.176	2972
332.264	11920
332.352	5985
332.439	1524
332.527	1506
332.614	492
332.702	1865
332.790	1648
332.877	5559
332.965	9656
333.052	1689
333.140	1837
333.228	4050
333.315	284
333.403	1432
333.490	5780
333.578	3441
333.665	3865
333.753	2686
333.840	717
333.928	2356
334.015	6544
334.103	10535
334.190	30464
334.278	5530
334.365	2896
334.452	1239
334.540	917
334.627	1340
334.715	2070
334.802	7850
334.889	56761
334.977	44792
335.064	3432
335.151	1555
335.239	2311
335.326	1696
335.413	11818
335.501	12830
335.588	1823
335.675	1269
335.762	1248
335.850	1908
335.937	2700
336.024	10471
336.111	48344
336.199	11563
336.286	1875
336.373	368
336.460	849
336.547	521
336.635	2379
336.722	1582
336.809	1463
336.896	1697
336.983	6254
337.070	15471
337.157	24115
337.245	31729
337.332	18431
337.419	912
337.506	1025
337.593	1478
337.680	4422
337.767	11040
337.854	3437
337.941	4190
338.028	8388
338.115	1240
338.202	2716
338.289	8057
338.376	30594
338.463	5661
338.550	7745
338.637	5632
338.724	4646
338.811	6971
338.898	566
338.984	415
339.071	-142
339.158	1258
339.245	4336
339.332	1640
339.419	5576
339.506	3474
339.593	-290
339.679	174
339.766	1083
339.853	1199
339.940	3118
340.027	1198
340.113	1350
340.200	1004
340.287	1206
340.374	944
340.460	2474
340.547	-265
340.634	2103
340.720	10743
340.807	4184
340.894	872
340.980	631
341.067	9
341.154	817
341.240	2115
341.327	4832
341.414	1141
341.500	882
341.587	541
341.674	1263
341.760	2584
341.847	1974
341.933	966
342.020	107
342.106	-455
342.193	590
342.279	1639
342.366	2468
342.452	1728
342.539	1455
342.625	3990
342.712	10597
342.798	3666
342.885	1300
342.971	-150
343.058	-1
343.144	285
343.230	851
343.317	839
343.403	439
343.490	-354
343.576	390
343.662	89
343.749	739
343.835	2808
343.921	5859
344.008	47920
344.094	91404
344.180	14195
344.267	3989
344.353	17293
344.439	15518
344.525	4333
344.612	2151
344.698	1856
344.784	980
344.870	870
344.957	785
345.043	1578
345.129	907
345.215	2037
345.301	930
345.387	224
345.474	699
345.560	725
345.646	1365
345.732	469
345.818	1262
345.904	804
345.990	2090
346.076	1693
346.162	2921
346.249	1614
346.335	809
346.421	1449
346.507	8258
346.593	26509
346.679	3335
346.765	1318
346.851	1075
346.937	-15
347.023	1377
347.108	931
347.194	274
347.280	446
347.366	1858
347.452	7840
347.538	34703
347.624	22097
347.710	13823
347.796	1596
347.882	611
347.967	480
348.053	473
348.139	267
348.225	374
348.311	429
348.397	600
348.482	1303
348.568	498
348.654	357
348.740	264
348.825	-453
348.911	3495
348.997	17327
349.083	30811
349.168	3342
349.254	1611
349.340	709
349.425	1187
349.511	518
349.597	1059
349.682	3810
349.768	15508
349.854	5350
349.939	1263
350.025	1013
350.110	962
350.196	-215
350.282	-429
350.367	374
350.453	2429
350.538	1704
350.624	439
350.709	1170
350.795	654
350.880	62
350.966	1476
351.051	2130
351.137	820
351.222	1217
351.308	4137
351.393	9338
351.479	2522
351.564	1072
351.649	630
351.735	674
351.820	673
351.906	394
351.991	1342
352.076	6863
352.162	9756
352.247	1145
352.332	1118
352.418	2222
352.503	3935
352.588	15628
352.673	9970
352.759	1732
352.844	1322
352.929	1137
353.014	1214
353.100	1858
353.185	3653
353.270	3433
353.355	4077
353.441	1110
353.526	2494
353.611	3307
353.696	2505
353.781	2055
353.866	964
353.952	1369
354.037	2486
354.122	7212
354.207	5597
354.292	1275
354.377	1242
354.462	199
354.547	1552
354.632	1228
354.717	1748
354.802	3048
354.887	796
354.972	575
355.057	328
355.142	214
355.227	1289
355.312	1312
355.397	5051
355.482	11155
355.567	4411
355.652	4160
355.737	4921
355.822	16679
355.907	12091
355.991	2835
356.076	610
356.161	826
356.246	676
356.331	921
356.416	5105
356.501	41927
356.585	37153
356.670	2475
356.755	3448
356.840	4200
356.924	32304
357.009	104351
357.094	30600
357.179	3563
357.263	1875
357.348	2561
357.433	2951
357.517	1766
357.602	1900
357.687	337
357.771	3465
357.856	7371
357.941	5719
358.025	29550
358.110	123667
358.195	45402
358.279	3941
358.364	2128
358.448	10880
358.533	26789
358.617	19411
358.702	19464
358.787	6521
358.871	3070
358.956	2318
359.040	-98
359.125	236
359.209	696
359.294	3220
359.378	4306
359.462	2549
359.547	1557
359.631	927
359.716	-720
359.800	196
359.885	1758
359.969	808
360.053	1000
360.138	387
360.222	1300
360.306	3132
360.391	1997
360.475	4825
360.559	8847
360.644	9372
360.728	6126
360.812	23706
360.896	57296
360.981	16028
361.065	5159
361.149	1480
361.233	1757
361.318	467
361.402	1300
361.486	1239
361.570	-416
361.654	1059
361.739	6156
361.823	41412
361.907	58853
361.991	7017
362.075	2313
362.159	5100
362.243	4415
362.327	825
362.411	3490
362.495	2249
362.580	566
362.664	549
362.748	-665
362.832	774
362.916	-962
363.000	5866
363.084	37380
363.168	65530
363.252	9959
363.336	2510
363.420	3772
363.503	15535
363.587	15026
363.671	1788
363.755	801
363.839	3173
363.923	30
364.007	2913
364.091	3463
364.175	5278
364.258	23747
364.342	9394
364.426	4646
364.510	1597
364.594	3061
364.677	10612
364.761	50768
364.845	32709
364.929	4897
365.013	4200
365.096	4074
365.180	3766
365.264	7843
365.347	25794
365.431	8831
365.515	1746
365.598	-99
365.682	1807
365.766	361
365.849	1624
365.933	327
366.017	2420
366.100	125
366.184	-709
366.267	1373
366.351	588
366.435	-108
366.518	-276
366.602	120
366.685	672
366.769	456
366.852	1638
366.936	2368
367.019	1371
367.103	-620
367.186	1900
367.270	712
367.353	-857
367.436	66
367.520	-154
367.603	402
367.687	747
367.770	3233
367.853	2567
367.937	12708
368.020	17534
368.104	2646
368.187	2461
368.270	3162
368.353	2595
368.437	7299
368.520	16604
368.603	7363
368.687	11576
368.770	20923
368.853	4071
368.936	3005
369.020	3300
369.103	838
369.186	437
369.269	601
369.352	3232
369.436	2824
369.519	1909
369.602	-818
369.685	1993
369.768	780
369.851	727
369.934	-366
370.018	1137
370.101	2007
370.184	3361
370.267	569
370.350	2414
370.433	4877
370.516	21771
370.599	23786
370.682	3640
370.765	9220
370.848	15741
370.931	28374
371.014	9374
371.097	46
371.180	1270
371.263	178
371.346	-910
371.429	313
371.511	-217
371.594	658
371.677	2989
371.760	3310
371.843	6245
371.926	45857
372.009	94993
372.091	23271
372.174	12541
372.257	31381
372.340	10422
372.423	4127
372.505	4871
372.588	1280
372.671	8771
372.754	27237
372.836	12610
372.919	6220
373.002	10970
373.085	2585
373.167	3634
373.250	11362
373.332	29893
373.415	63091
373.498	125200
373.580	39434
373.663	55635
373.746	73097
373.828	11017
373.911	3111
373.993	3260
374.076	12135
374.159	11087
374.241	7589
374.324	21176
374.406	14793
374.489	35458
374.571	87277
374.654	29528
374.736	15194
374.819	53089
374.901	86042
374.983	86182
375.066	10643
375.148	3036
375.231	10958
375.313	18556
375.395	5518
375.478	1074
375.560	1226
375.643	1999
375.725	16831
375.807	69855
375.890	50517
375.972	14470
376.054	8536
376.136	13127
376.219	5979
376.301	19373
376.383	49472
376.465	16697
376.548	6785
376.630	13438
376.712	38239
376.794	16596
376.877	1315
376.959	654
377.041	185
377.123	1567
377.205	1619
377.287	-182
377.369	871
377.452	385
377.534	204
377.616	-137
377.698	91
377.780	-299
377.862	330
377.944	1128
378.026	-396
378.108	861
378.190	24
378.272	978
378.354	-119
378.436	386
378.518	515
378.600	4115
378.682	5224
378.764	13745
378.846	10612
378.928	1936
379.010	2146
379.091	2099
379.173	-255
379.255	-86
379.337	809
379.419	8176
379.501	21981
379.583	7705
379.664	1540
379.746	3427
379.828	14104
379.910	18553
379.991	16185
380.073	1830
380.155	981
380.237	932
380.318	486
380.400	1020
380.482	3219
380.564	4454
380.645	4394
380.727	3564
380.809	2642
380.890	857
380.972	-108
381.053	1514
381.135	1339
381.217	4923
381.298	13750
381.380	5896
381.461	7575
381.543	42870
381.624	48080
381.706	7081
381.787	2069
381.869	4096
381.951	27489
382.032	94573
382.113	52871
382.195	4637
382.276	4312
382.358	13010
382.439	35335
382.521	51657
382.602	77725
382.684	29579
382.765	41469
382.846	33258
382.928	25701
383.009	12849
383.090	10131
383.172	41773
383.253	62129
383.334	30504
383.416	50367
383.497	25144
383.578	5150
383.659	8206
383.741	38739
383.822	100402
383.903	49168
383.984	26868
384.066	54880
384.147	31071
384.228	5155
384.309	3157
384.390	1880
384.471	1712
384.553	1205
384.634	2641
384.715	3257
384.796	1272
384.877	2378
384.958	13486
385.039	14173
385.120	4505
385.201	2545
385.282	2441
385.363	2623
385.444	2377
385.525	8016
385.606	30300
385.687	24541
385.768	4183
385.849	6639
385.930	44209
386.011	73886
386.092	16841
386.173	2634
386.254	2255
386.335	2569
386.416	2219
386.496	8308
386.577	12653
386.658	4618
386.739	1457
386.820	1738
386.901	877
386.981	1694
387.062	1030
387.143	2989
387.224	14118
387.304	11408
387.385	3585
387.466	-237
387.547	2395
387.627	820
387.708	6038
387.789	28858
387.869	35420
387.950	9796
388.031	535
388.111	-601
388.192	3505
388.273	4788
388.353	2728
388.434	1614
388.514	7793
388.595	39508
388.676	42379
388.756	14428
388.837	11244
388.917	5883
388.998	-118
389.078	1671
389.159	1986
389.239	238
389.320	4031
389.400	116
389.480	6495
389.561	14958
389.641	8210
389.722	1975
389.802	3027
389.883	7810
389.963	22101
390.043	12106
390.124	1837
390.204	4462
390.284	15383
390.365	9315
390.445	27531
390.525	105752
390.605	94268
390.686	11821
390.766	3110
390.846	2708
390.927	813
391.007	-159
391.087	1446
391.167	-447
391.247	13
391.328	2266
391.408	3000
391.488	1677
391.568	-459
391.648	1217
391.728	2604
391.808	2278
391.888	2465
391.969	8002
392.049	12589
392.129	4619
392.209	7659
392.289	19242
392.369	8879
392.449	3529
392.529	2440
392.609	2859
392.689	5930
392.769	17570
392.849	14758
392.929	8803
393.009	23108
393.089	14107
393.169	7123
393.248	39487
393.328	201877
393.408	207686
393.488	30581
393.568	4484
393.648	2410
393.728	1585
393.807	1023
393.887	2347
393.967	1495
394.047	2158
394.127	2826
394.206	9893
394.286	64514
394.366	269163
394.446	261443
394.525	41995
394.605	6685
394.685	4524
394.764	8814
394.844	10672
394.924	7952
395.003	2660
395.083	3200
395.163	2188
395.242	1646
395.322	2684
395.402	134
395.481	3151
395.561	5149
395.640	13036
395.720	11298
395.799	16066
395.879	13673
395.958	14971
396.038	91240
396.117	355862
396.197	350600
396.276	65458
396.356	12780
396.435	6250
396.515	4105
396.594	3330
396.673	8092
396.753	50881
396.832	170678
396.912	116189
396.991	18028
397.070	3943
397.150	1038
397.229	1804
397.308	845
397.388	1023
397.467	1369
397.546	1112
397.625	-527
397.705	1754
397.784	866
397.863	218
397.942	101
398.022	-429
398.101	3798
398.180	11231
398.259	4713
398.338	1075
398.417	922
398.497	153
398.576	998
398.655	-1072
398.734	231
398.813	1058
398.892	4613
398.971	13891
399.050	6756
399.129	242
399.208	-379
399.287	192
399.366	-424
399.445	160
399.524	670
399.603	-128
399.682	1213
399.761	5302
399.840	16236
399.919	11995
399.998	984
400.077	-1286
400.156	-855
400.235	2467
400.313	-513
400.392	447
400.471	6924
400.550	10701
400.629	1239
400.708	297
400.786	146
400.865	1160
400.944	2108
401.023	2045
401.102	-86
401.180	-398
401.259	196
401.338	-831
401.416	371
401.495	-635
401.574	838
401.652	-281
401.731	220
401.810	-705
401.888	-476
401.967	-1050
402.046	-217
402.124	241
402.203	7
402.281	663
402.360	-146
402.438	2004
402.517	719
402.596	766
402.674	-223
402.753	-1064
402.831	56
402.910	745
402.988	8761
403.066	24916
403.145	14923
403.223	9102
403.302	20137
403.380	16061
403.459	13661
403.537	4472
403.615	853
403.694	-937
403.772	700
403.850	-460
403.929	117
404.007	-745
404.085	2875
404.164	1544
404.242	402
404.320	5313
404.398	14773
404.477	20160
404.555	55306
404.633	47015
404.711	12145
404.789	5053
404.868	1542
404.946	0
405.024	899
405.102	-583
405.180	-263
405.258	-1862
405.336	372
405.415	-737
405.493	570
405.571	1716
405.649	-350
405.727	-1768
405.805	1091
405.883	1116
405.961	1057
406.039	-487
406.117	-1239
406.195	1759
406.273	11453
406.351	38087
406.429	22001
406.507	1156
406.585	39
406.663	574
406.740	588
406.818	40
406.896	-179
406.974	34
407.052	1899
407.130	21845
407.208	29082
407.285	5019
407.363	-167
407.441	301
407.519	141
407.596	-219
407.674	4493
407.752	12707
407.830	9685
407.907	2395
407.985	-148
408.063	-319
408.141	-550
408.218	1116
408.296	-444
408.373	586
408.451	324
408.529	280
408.606	-179
408.684	-257
408.762	703
408.839	-505
408.917	-770
408.994	-1123
409.072	-1450
409.149	-718
409.227	744
409.304	-63
409.382	-586
409.459	-1015
409.537	-254
409.614	59
409.692	-551
409.769	-293
409.846	-265
409.924	963
410.001	-887
410.079	-723
410.156	634
410.233	105
410.311	193
410.388	-56
410.465	-323
410.543	-983
410.620	523
410.697	775
410.775	89
410.852	-1045
410.929	669
411.006	660
411.083	-24
411.161	612
411.238	1221
411.315	-364
411.392	-186
411.469	456
411.547	1376
411.624	-1273
411.701	-666
411.778	291
411.855	1247
411.932	-239
412.009	-610
412.086	-235
412.163	452
412.240	-585
412.317	563
412.394	-379
412.471	-196
412.548	-1369
412.625	-206
412.702	-2
412.779	715
412.856	964
412.933	-667
413.010	111
413.087	2744
413.164	5094
413.241	8136
413.318	1054
413.395	922
413.471	578
413.548	-194
413.625	138
413.702	-1375
413.779	-153
413.855	-703
413.932	-272
414.009	-1644
414.086	108
414.162	75
414.239	733
414.316	5783
414.393	14339
414.469	3962
414.546	-415
414.623	-331
414.699	-541
414.776	-380
414.853	-250
414.929	345
415.006	-385
415.082	-572
415.159	269
415.236	534
415.312	-203
415.389	1115
415.465	330
415.542	1
415.618	-778
415.695	689
415.771	-4
415.848	-199
415.924	-186
416.000	-115
416.077	219
416.153	-831
416.230	-1745
416.306	-858
416.383	-462
416.459	371
416.535	-574
416.612	-558
416.688	-498
416.764	-482
416.841	-1399
416.917	-745
416.993	-940
417.069	550
417.146	195
417.222	642
417.298	-114
417.374	-17
417.451	164
417.527	-125
417.603	-492
417.679	489
417.755	99
417.831	-1285
417.908	-645
417.984	-305
418.060	-1816
418.136	1274
418.212	713
418.288	-334
418.364	-58
418.440	-692
418.516	836
418.592	747
418.668	1177
418.744	2959
418.820	2229
418.896	320
418.972	-1873
419.048	-494
419.124	1729
419.200	27
419.276	-798
419.352	-1123
419.428	-331
419.504	-135
419.579	-271
419.655	-48
419.731	60
419.807	2201
419.883	3779
419.959	2482
420.034	213
420.110	2021
420.186	7571
420.262	6041
420.337	-320
420.413	-725
420.489	-1073
420.565	-77
420.640	-977
420.716	241
420.792	-1694
420.867	134
420.943	-1149
421.019	340
421.094	-289
421.170	-629
421.245	-931
421.321	-119
421.397	-1696
421.472	2656
421.548	5876
421.623	3874
421.699	-317
421.774	794
421.850	-1460
421.925	938
422.001	780
422.076	-168
422.152	-471
422.227	1247
422.302	969
422.378	482
422.453	1178
422.529	9385
422.604	50389
422.679	109044
422.755	46912
422.830	5704
422.905	498
422.981	-186
423.056	-714
423.131	215
423.207	-448
423.282	-482
423.357	1436
423.432	772
423.508	865
423.583	3299
423.658	2469
423.733	-220
423.808	-118
423.883	1055
423.959	-760
424.034	-17
424.109	86
424.184	-800
424.259	-826
424.334	-578
424.409	-958
424.484	263
424.559	-815
424.634	-268
424.709	-587
424.784	669
424.859	-623
424.934	-98
425.009	5288
425.084	9024
425.159	2730
425.234	373
425.309	-1488
425.384	453
425.459	1372
425.534	-16
425.609	-1089
425.683	-703
425.758	-1248
425.833	-734
425.908	-434
425.983	2830
426.058	8997
426.132	3621
426.207	-754
426.282	1494
426.357	-903
426.431	-190
426.506	-416
426.581	-281
426.655	-1302
426.730	-615
426.805	-1119
426.879	-503
426.954	-423
427.029	1253
427.103	11962
427.178	30918
427.253	13911
427.327	401
427.402	-391
427.476	2133
427.551	410
427.625	-350
427.700	90
427.774	-679
427.849	-1479
427.923	-1193
427.998	-721
428.072	-1096
428.147	-355
428.221	2620
428.296	4623
428.370	1541
428.444	-1351
428.519	-223
428.593	531
428.667	1328
428.742	1038
428.816	1777
428.890	2591
428.965	6677
429.039	1796
429.113	1872
429.188	-146
429.262	-75
429.336	586
429.410	3799
429.485	1546
429.559	1171
429.633	245
429.707	-667
429.781	-51
429.855	5071
429.930	9178
430.004	6716
430.078	10106
430.152	8790
430.226	8025
430.300	8633
430.374	0
430.448	630
430.522	3356
430.596	11593
430.670	8750
430.744	19869
430.818	32888
430.892	6997
430.966	-521
431.040	-427
431.114	-1170
431.188	-1573
431.262	-535
431.336	-1107
431.410	257
431.484	1656
431.557	1684
431.631	-1737
431.705	-558
431.779	244
431.853	3460
431.927	2417
432.000	-65
432.074	-883
432.148	-928
432.222	-1197
432.295	-557
432.369	-799
432.443	322
432.516	13283
432.590	32657
432.664	12689
432.737	-216
432.811	-1698
432.885	-1227
432.958	-353
433.032	-1529
433.106	-605
433.179	-876
433.253	-846
433.326	-863
433.400	-408
433.473	-942
433.547	-905
433.620	-1080
433.694	147
433.767	-656
433.841	-444
433.914	-735
433.988	-1145
434.061	-688
434.134	-1100
434.208	-1127
434.281	-869
434.355	-1228
434.428	-1037
434.501	-1497
434.575	-439
434.648	-1312
434.721	-1116
434.795	-1310
434.868	-1203
434.941	-1447
435.014	-1066
435.088	-2073
435.161	-398
435.234	-291
435.307	-215
435.381	-1570
435.454	-946
435.527	-977
435.600	-1079
435.673	-873
435.746	-1269
435.819	-1259
435.892	-687
435.966	-473
436.039	-1532
436.112	-177
436.185	-1339
436.258	-670
436.331	-1185
436.404	-1380
436.477	-1311
436.550	-1300
436.623	-848
436.696	-1459
436.769	-67
436.842	-1206
436.915	-1446
436.987	-1315
437.060	-427
437.133	-955
437.206	-1501
437.279	-158
437.352	-628
437.425	-1175
437.498	-320
437.570	-325
437.643	131
437.716	-921
437.789	-1662
437.861	-761
437.934	1336
438.007	-742
438.080	-1669
438.152	-366
438.225	3072
438.298	23209
438.370	61403
438.443	24523
438.516	2227
438.588	-631
438.661	-969
438.734	-1162
438.806	-936
438.879	-422
438.951	-333
439.024	-479
439.096	-806
439.169	-2080
439.241	-1216
439.314	-2052
439.386	-639
439.459	-97
439.531	-325
439.604	-843
439.676	-1270
439.749	-1319
439.821	-1748
439.893	-781
439.966	-729
440.038	-270
440.110	-370
440.183	-1407
440.255	-1236
440.327	32
440.400	6821
440.472	28738
440.544	21433
440.617	1290
440.689	572
440.761	-386
440.833	1573
440.905	1107
440.978	-1179
441.050	-1022
441.122	-367
441.194	-1555
441.266	-693
441.338	-1347
441.411	565
441.483	6606
441.555	11842
441.627	725
441.699	411
441.771	-1341
441.843	-678
441.915	-1343
441.987	-870
442.059	-871
442.131	-509
442.203	-308
442.275	-34
442.347	-1210
442.419	607
442.491	206
442.563	3743
442.635	2100
442.706	1840
442.778	1781
442.850	-929
442.922	-821
442.994	16
443.066	-112
443.137	365
443.209	-757
443.281	-185
443.353	130
443.425	3117
443.496	7041
443.568	9431
443.640	2608
443.711	-590
443.783	-1317
443.855	-927
443.926	-966
443.998	-1049
444.070	-937
444.141	-1131
444.213	110
444.285	870
444.356	379
444.428	7
444.499	-1226
444.571	-1589
444.642	-1324
444.714	-848
444.785	-224
444.857	333
444.928	1040
445.000	724
445.071	31
445.143	725
445.214	496
445.285	383
445.357	2543
445.428	8325
445.500	18479
445.571	13642
445.642	3985
445.714	3129
445.785	3546
445.856	1041
445.928	-101
445.999	57
446.070	-223
446.141	76
446.213	1044
446.284	-168
446.355	-442
446.426	255
446.497	-1227
446.569	-344
446.640	591
446.711	133
446.782	-1289
446.853	-120
446.924	-1
446.995	-539
447.066	-433
447.138	-709
447.209	-503
447.280	-974
447.351	-1447
447.422	-840
447.493	-959
447.564	149
447.635	59
447.706	-83
447.777	-776
447.847	-685
447.918	-1763
447.989	-809
448.060	-494
448.131	1428
448.202	895
448.273	158
448.344	-452
448.414	-141
448.485	-909
448.556	-554
448.627	-1308
448.698	112
448.768	-1047
448.839	-1405
448.910	-1205
448.981	315
449.051	-726
449.122	-282
449.193	-1076
449.263	-1052
449.334	-1778
449.405	268
449.475	1791
449.546	1099
449.616	52
449.687	493
449.758	-561
449.828	-892
449.899	-1047
449.969	-982
450.040	-724
450.110	-44
450.181	384
450.251	-507
450.322	-1250
450.392	-383
450.463	-1000
450.533	-824
450.604	-880
450.674	-1257
450.744	-940
450.815	-1050
450.885	-947
450.955	-960
451.026	-2202
451.096	-1123
451.166	-1099
451.237	456
451.307	1883
451.377	680
451.447	-1579
451.518	-999
451.588	-635
451.658	-495
451.728	-411
451.799	2411
451.869	3215
451.939	419
452.009	-922
452.079	-656
452.149	-1054
452.219	139
452.289	3123
452.360	3194
452.430	-1005
452.500	-452
452.570	-655
452.640	-4
452.710	1266
452.780	3794
452.850	3739
452.920	3511
452.990	304
453.060	-270
453.129	192
453.199	928
453.269	4033
453.339	12618
453.409	21233
453.479	16506
453.549	25546
453.619	25781
453.688	10922
453.758	833
453.828	-694
453.898	-424
453.968	-815
454.037	-315
454.087	-517
454.107	-613
454.168	-818
454.177	-870
454.247	-1506
454.249	-1437
454.316	-200
454.330	-131
454.386	-12
454.411	429
454.456	950
454.492	1445
454.525	1909
454.574	1083
454.595	711
454.655	-428
454.665	-615
454.734	521
454.736	573
454.804	975
454.817	1597
454.873	3580
454.898	3891
454.943	4442
454.979	3063
455.013	1901
455.060	1213
455.082	1037
455.141	1609
455.152	1866
455.221	5361
455.222	5599
455.291	13507
455.303	15746
455.360	23425
455.384	33493
455.430	47391
455.465	33247
455.499	21762
455.546	10451
455.569	5283
455.627	3356
455.638	3018
455.707	551
455.708	569
455.777	560
455.789	592
455.846	481
455.869	279
455.916	91
455.950	384
455.985	484
456.031	129
456.054	6
456.112	358
456.124	385
456.193	-92
456.193	-111
456.262	984
456.274	1010
456.332	846
456.355	701
456.401	253
456.436	308
456.470	341
456.516	116
456.540	34
456.597	-167
456.609	-250
456.678	-1
456.678	-11
456.747	-235
456.759	-169
456.817	-28
456.840	-187
456.886	-423
456.920	-205
456.955	-79
457.001	278
457.024	424
457.082	829
457.093	972
457.162	541
457.163	565
457.232	1060
457.243	1079
457.301	1094
457.324	797
457.370	372
457.405	383
457.439	348
457.485	217
457.508	238
457.566	455
457.577	502
457.646	1325
457.647	1344
457.715	1690
457.727	1816
457.784	2854
457.808	3277
457.853	3150
457.889	3605
457.922	3746
457.969	3140
457.991	3332
458.050	4150
458.060	4337
458.129	5325
458.130	5419
458.198	4154
458.211	3510
458.267	2060
458.292	1620
458.336	1705
458.372	1708
458.405	2475
458.453	3768
458.474	4441
458.533	7058
458.543	7077
458.611	8249
458.614	8307
458.680	4608
458.694	3606
458.749	2723
458.775	2146
458.818	1476
458.855	1326
458.887	1135
458.936	843
458.955	826
459.016	970
459.024	974
459.093	1375
459.097	1408
459.162	1660
459.177	1581
459.230	1623
459.257	1993
459.299	2432
459.338	2420
459.368	2274
459.418	2375
459.437	2323
459.499	2224
459.505	2245
459.574	1999
459.579	2016
459.643	1979
459.659	1934
459.711	1812
459.740	1886
459.780	2160
459.820	2139
459.849	2013
459.900	2000
459.917	2067
459.981	2998
459.986	3016
460.054	2133
460.061	2182
460.123	3274
460.141	3256
460.191	3405
460.222	3939
460.260	4179
460.302	4287
460.328	4155
460.382	3613
460.397	3624
460.462	3769
460.465	3947
460.534	8717
460.543	9256
460.602	18119
460.623	21721
460.671	34292
460.703	44199
460.739	33342
460.783	18196
460.808	15727
460.864	5071
460.876	4168
460.944	3097
460.945	3079
461.013	2731
461.024	2702
461.081	2940
461.104	3185
461.150	3229
461.184	2918
461.218	2919
461.264	2867
461.286	2621
461.345	2301
461.355	2395
461.423	2744
461.425	2750
461.491	2926
461.505	3187
461.559	6132
461.585	7148
461.628	8793
461.665	10578
461.696	10238
461.745	10554
461.764	9524
461.825	4231
461.832	4178
461.901	3501
461.905	3508
461.969	2365
461.985	2088
462.037	3339
462.065	3877
462.105	3401
462.145	3409
462.173	4638
462.225	6321
462.241	6557
462.305	8574
462.310	8369
462.378	4791
462.385	4258
462.446	3391
462.465	3223
462.514	3323
462.545	3622
462.582	3524
462.625	3378
462.650	3389
462.705	3318
462.718	3368
462.785	3729
462.786	3743
462.854	4454
462.865	4557
462.922	5129
462.945	5462
462.990	4263
463.025	3032
463.058	2960
463.104	2956
463.126	2773
463.184	2400
463.194	2548
463.262	3391
463.264	3425
463.330	3702
463.344	3739
463.398	3665
463.424	3511
463.466	3214
463.504	3302
463.533	3479
463.583	3363
463.601	3506
463.663	4324
463.669	4391
463.737	4882
463.743	4936
463.805	7751
463.823	8543
463.873	11973
463.903	14226
463.940	12980
463.982	11577
464.008	9488
464.062	4594
464.076	4723
464.142	4570
464.144	4529
464.211	3753
464.221	3603
464.279	3946
464.301	4103
464.347	4172
464.381	4208
464.414	4511
464.461	4924
464.482	4944
464.540	5102
464.550	5185
464.617	5532
464.620	5537
464.685	7062
464.699	7383
464.753	9617
464.779	10665
464.820	10952
464.859	11437
464.888	10898
464.938	9560
464.956	9510
465.018	9332
465.023	9320
465.091	8913
465.098	8879
465.158	8359
465.177	8119
465.226	7967
465.257	7954
465.293	8430
465.336	8747
465.361	9236
465.416	10562
465.428	11030
465.495	13336
465.496	13387
465.563	17720
465.575	18433
465.631	18574
465.654	18772
465.698	13460
465.734	8705
465.765	8577
465.813	8262
465.833	8409
465.893	9046
465.900	8921
465.968	7680
465.972	7579
466.035	8335
466.052	8529
466.102	9041
466.131	9274
466.170	9491
466.210	9753
466.237	10045
466.290	10524
466.304	10629
466.369	10947
466.372	10964
466.439	10891
466.449	10841
466.506	12168
466.528	12677
466.573	15993
466.607	18411
466.641	22153
466.687	27304
466.708	27907
466.766	29467
466.775	27880
466.842	15480
466.845	14861
466.909	14033
466.925	13820
466.977	14125
467.004	14285
467.044	14987
467.083	15617
467.111	16868
467.163	19147
467.178	19047
467.242	18402
467.245	18360
467.312	16685
467.321	16426
467.379	15467
467.400	15072
467.446	15685
467.480	16071
467.559	13964
467.638	12855
467.717	12832
467.796	13781
467.875	14595
467.955	13240
468.034	19452
468.113	29186
468.192	33990
468.271	11445
468.350	11571
468.429	12376
468.508	11519
468.588	10903
468.667	10569
468.746	11422
468.825	10504
468.904	10387
468.983	12106
469.062	13799
469.141	14873
469.220	10454
469.299	10825
469.378	11848
469.456	15618
469.535	13857
469.614	11711
469.693	12448
469.772	13920
469.851	17193
469.930	12051
470.009	12187
470.088	10560
470.166	11630
470.245	13969
470.324	13782
470.403	11550
470.482	10249
470.560	10518
470.639	10814
470.718	11813
470.797	10777
470.875	12891
470.954	14450
471.033	13603
471.111	9021
471.190	9041
471.269	9574
471.347	8854
471.426	9768
471.505	11462
471.583	12854
471.662	10874
471.740	11081
471.819	10176
471.898	9381
471.976	9463
472.055	10380
472.133	10443
472.212	12058
472.290	11239
472.369	9602
472.447	8755
472.526	8773
472.604	10392
472.683	11545
472.761	10161
472.839	9548
472.918	9248
472.996	9723
473.075	9418
473.153	10219
473.231	8627
473.310	9404
473.388	9083
473.466	10639
473.545	11847
473.623	14067
473.701	11669
473.780	9402
473.858	9053
473.936	10655
474.014	9178
474.093	10201
474.171	11554
474.249	14100
474.327	9811
474.405	7730
474.484	8327
474.562	8808
474.640	8352
474.718	9548
474.796	9725
474.874	9427
474.952	8477
475.030	8680
475.108	9031
475.187	12332
475.265	14958
475.343	22304
475.421	21015
475.499	9095
475.577	9261
475.655	11578
475.733	17303
475.811	23340
475.889	20046
475.966	12670
476.044	10231
476.122	15328
476.200	20516
476.278	10979
476.356	7793
476.434	9997
476.512	13418
476.590	18197
476.667	11702
476.745	7047
476.823	8581
476.901	7673
476.979	6687
477.056	6489
477.134	7992
477.212	8111
477.290	7420
477.367	6643
477.445	5729
477.523	6657
477.601	7089
477.678	6299
477.756	7288
477.834	8448
477.911	6843
477.989	7632
478.066	6612
478.144	10085
478.222	14210
478.299	27966
478.377	15472
478.454	5765
478.532	5553
478.609	6339
478.687	7315
478.764	6390
478.842	6558
478.919	7674
478.997	7358
479.074	6235
479.152	7337
479.229	8385
479.307	4613
479.384	5360
479.461	6024
479.539	5863
479.616	6877
479.694	5594
479.771	5803
479.848	6778
479.926	7263
480.003	9710
480.080	5818
480.157	5525
480.235	5016
480.312	5849
480.389	6533
480.467	8897
480.544	8730
480.621	6047
480.698	5089
480.775	6223
480.853	6458
480.930	6073
481.007	5661
481.084	7433
481.161	8192
481.238	7258
481.315	4642
481.392	5540
481.470	5077
481.547	5911
481.624	5306
481.701	5257
481.778	5523
481.855	6940
481.932	9679
482.009	13505
482.086	7909
482.163	9053
482.240	17716
482.317	33636
482.393	14151
482.470	5173
482.547	5344
482.624	6234
482.701	4877
482.778	5261
482.855	4510
482.932	5381
483.009	3820
483.085	6300
483.162	5892
483.239	5907
483.316	4141
483.393	5378
483.469	4623
483.546	5246
483.623	6785
483.699	5100
483.776	5354
483.853	7032
483.930	10684
484.006	20799
484.083	32687
484.160	33169
484.236	51471
484.313	34541
484.389	26049
484.466	24315
484.543	23297
484.619	22628
484.696	23730
484.772	23914
484.849	24228
484.925	21941
485.002	21442
485.078	22244
485.155	20867
485.231	21057
485.308	19900
485.384	21619
485.461	23705
485.537	29337
485.614	28585
485.690	20201
485.766	19280
485.843	21399
485.919	24079
485.995	23248
486.072	18087
486.148	18170
486.224	18041
486.301	18033
486.377	19004
486.453	19619
486.530	21725
486.606	30637
486.682	30339
486.758	29520
486.835	28879
486.911	27679
486.987	37703
487.063	39868
487.139	45803
487.215	33353
487.292	22651
487.368	19660
487.444	21296
487.520	23756
487.596	20913
487.672	29394
487.748	47215
487.824	50409
487.900	22160
487.976	19534
488.052	18575
488.128	21884
488.204	17685
488.280	16899
488.356	21029
488.432	30769
488.508	33815
488.584	18618
488.660	16194
488.736	17155
488.812	18195
488.888	23370
488.964	27978
489.039	50199
489.115	60238
489.191	28897
489.267	16380
489.343	16670
489.418	13464
489.494	14080
489.570	12437
489.646	15289
489.722	13445
489.797	14904
489.873	20544
489.949	30572
490.024	21450
490.100	13152
490.176	13885
490.251	15605
490.327	17984
490.403	12110
490.478	12214
490.554	11350
490.629	11522
490.705	11170
490.781	13071
490.856	11345
490.932	13888
491.007	13348
491.083	12874
491.158	12064
491.234	16390
491.309	23171
491.385	17868
491.460	11307
491.536	12164
491.611	10489
491.686	13271
491.762	18158
491.837	30630
491.913	45619
491.988	61393
492.063	59175
492.139	16736
492.214	12390
492.289	9377
492.365	10266
492.440	10292
492.515	9643
492.590	10583
492.666	8747
492.741	13364
492.816	14132
492.891	9273
492.967	10817
493.042	9641
493.117	11819
493.192	16094
493.267	47109
493.342	130631
493.418	132582
493.493	15238
493.568	8788
493.643	9210
493.718	10371
493.793	12956
493.868	13851
493.943	9509
494.018	8796
494.093	6951
494.168	8658
494.243	7150
494.318	7107
494.393	6814
494.468	6585
494.543	7475
494.618	8483
494.693	6140
494.768	5992
494.842	7734
494.917	6570
494.992	7501
495.067	6260
495.142	6770
495.217	7813
495.292	6925
495.366	8177
495.441	9267
495.516	12295
495.591	21747
495.665	66590
495.740	116185
495.815	26579
495.890	9117
495.964	7216
496.039	10177
496.114	7725
496.188	9499
496.263	8881
496.338	6910
496.412	9797
496.487	10546
496.561	12062
496.636	11680
496.710	9132
496.785	10059
496.860	11502
496.934	8790
497.009	10385
497.083	10131
497.158	10988
497.232	11413
497.307	13819
497.381	12847
497.455	16286
497.530	16912
497.604	15443
497.679	16781
497.753	25428
497.827	30130
497.902	30930
497.976	38318
498.050	87444
498.125	220628
498.199	138916
498.273	42322
498.348	37876
498.422	29888
498.496	27366
498.570	21905
498.645	17800
498.719	15572
498.793	17234
498.867	22699
498.941	34660
499.016	99242
499.090	183215
499.164	32104
499.238	11078
499.312	10096
499.386	12630
499.460	9550
499.534	9265
499.609	11485
499.683	14042
499.757	17197
499.831	50296
499.905	137485
499.979	71524
500.053	16091
500.127	16724
500.201	11952
500.275	9358
500.349	8919
500.422	9419
500.496	17046
500.570	38458
500.644	81201
500.718	101922
500.792	13341
500.866	8868
500.940	10494
501.013	8608
501.087	10411
501.161	16447
501.235	19202
501.309	48706
501.382	110289
501.456	57343
501.530	20226
501.603	28451
501.677	8774
501.751	6137
501.825	10489
501.898	18355
501.972	38350
502.046	14263
502.119	9575
502.193	23739
502.266	39495
502.340	14746
502.413	22372
502.487	31257
502.561	14863
502.634	6145
502.708	7528
502.781	5321
502.855	5125
502.928	4177
503.002	4289
503.075	4523
503.149	5247
503.222	5368
503.295	4408
503.369	8275
503.442	11509
503.516	37587
503.589	64842
503.662	29210
503.736	14611
503.809	33351
503.882	22607
503.956	41975
504.029	26044
504.102	24200
504.175	22546
504.249	6929
504.322	6074
504.395	6282
504.468	4103
504.542	5459
504.615	3661
504.688	5310
504.761	2919
504.834	6879
504.907	8934
504.980	10510
505.053	4556
505.127	6659
505.200	9306
505.273	6331
505.346	4215
505.419	2617
505.492	4500
505.565	3614
505.638	3994
505.711	3409
505.784	2982
505.857	2785
505.930	4747
506.003	2412
506.076	5811
506.149	5377
506.221	4804
506.294	8229
506.367	21439
506.440	51044
506.513	15697
506.586	6293
506.659	2668
506.731	4221
506.804	5641
506.877	6539
506.950	4399
507.022	5395
507.095	4060
507.168	5483
507.241	5036
507.313	3335
507.386	3835
507.459	7071
507.531	3993
507.604	3138
507.677	3987
507.749	2968
507.822	7731
507.894	16648
507.967	17667
508.040	8972
508.112	9119
508.185	8608
508.257	5997
508.330	11256
508.402	7115
508.475	6539
508.547	6293
508.620	7724
508.692	8846
508.765	6596
508.837	5100
508.909	6797
508.982	5823
509.054	7131
509.127	5471
509.199	5283
509.271	4329
509.344	5643
509.416	5750
509.488	5357
509.560	5722
509.633	6835
509.705	6832
509.777	8105
509.849	9216
509.922	6269
509.994	5678
510.066	8934
510.138	9326
510.210	20623
510.283	14300
510.355	12205
510.427	10773
510.499	10399
510.571	8464
510.643	9561
510.715	13949
510.787	9020
510.859	10183
510.931	9138
511.003	12408
511.076	10910
511.148	7578
511.219	9669
511.291	12120
511.363	10721
511.435	7798
511.507	6381
511.579	8400
511.651	7588
511.723	6464
511.795	7231
511.867	7027
511.939	9797
512.010	11675
512.082	8763
512.154	6390
512.226	8874
512.298	16625
512.369	18722
512.441	13511
512.513	13563
512.585	9083
512.656	11055
512.728	9717
512.800	8879
512.871	9039
512.943	8787
513.015	7618
513.086	9069
513.158	9146
513.230	9154
513.301	11442
513.373	13405
513.444	7880
513.516	7949
513.588	8613
513.659	9256
513.731	9602
513.802	8757
513.874	20283
513.945	22028
514.016	7982
514.088	8750
514.159	8462
514.231	13392
514.302	15951
514.374	12724
514.445	10021
514.516	17238
514.588	9926
514.659	10856
514.730	14508
514.802	13278
514.873	13158
514.944	13637
515.016	11767
515.087	10679
515.158	13937
515.229	15640
515.301	15426
515.372	19016
515.443	9938
515.514	8970
515.585	6686
515.656	7961
515.728	7671
515.799	7302
515.870	7926
515.941	7440
516.012	8764
516.083	13329
516.154	11371
516.225	14243
516.296	12225
516.367	10932
516.438	10895
516.509	13095
516.580	20934
516.651	63227
516.722	143111
516.793	38007
516.864	16306
516.935	14575
517.006	16441
517.077	26178
517.148	63137
517.219	183983
517.289	162330
517.360	53336
517.431	15826
517.502	8273
517.573	10427
517.643	10337
517.714	11914
517.785	11219
517.856	10625
517.926	13449
517.997	13401
518.068	14682
518.138	19925
518.209	40242
518.280	156915
518.350	347287
518.421	62004
518.492	13778
518.562	10905
518.633	11002
518.703	10143
518.774	18518
518.845	30065
518.915	20487
518.986	10462
519.056	14527
519.127	24640
519.197	36139
519.268	59812
519.338	23232
519.408	12329
519.479	14701
519.549	8845
519.620	9257
519.690	6621
519.760	8261
519.831	7276
519.901	6756
519.971	5997
520.042	6193
520.112	6695
520.182	9922
520.253	8580
520.323	7719
520.393	8758
520.463	11876
520.534	7637
520.604	15812
520.674	7720
520.744	9189
520.814	17640
520.885	15124
520.955	29705
521.025	62973
521.095	12286
521.165	7926
521.235	5063
521.305	4772
521.375	5366
521.445	7143
521.515	7771
521.585	10117
521.655	6358
521.725	9003
521.795	6266
521.865	3706
521.935	10341
522.005	5522
522.075	3841
522.145	6866
522.215	5345
522.285	8840
522.355	10735
522.424	17284
522.494	10727
522.564	11417
522.634	27123
522.704	51979
522.774	10371
522.843	6812
522.913	6103
522.983	8138
523.053	5430
523.122	7015
523.192	10772
523.262	34148
523.331	17348
523.401	5506
523.471	4443
523.540	5160
523.610	3446
523.680	4489
523.749	4004
523.819	5999
523.888	3434
523.958	3987
524.027	3926
524.097	4598
524.166	3954
524.236	4352
524.305	5637
524.375	4073
524.444	2513
524.514	5795
524.583	4363
524.653	4418
524.722	5481
524.791	3590
524.861	4346
524.930	2464
524.999	4602
525.069	6446
525.138	3899
525.207	4520
525.277	4469
525.346	3483
525.415	4730
525.484	4975
525.554	4526
525.623	4448
525.692	4826
525.761	4156
525.830	5148
525.900	5223
525.969	7510
526.038	10816
526.107	23761
526.176	48673
526.245	24283
526.314	17523
526.383	33031
526.452	31349
526.522	71213
526.591	42008
526.660	21392
526.729	10892
526.797	19924
526.867	61922
526.935	191955
527.004	170234
527.073	39366
527.142	6144
527.211	5144
527.280	6380
527.349	4299
527.418	2229
527.487	4439
527.555	2940
527.624	2909
527.693	2383
527.762	3702
527.831	2066
527.899	2449
527.968	4150
528.037	1285
528.106	6371
528.174	8924
528.243	7013
528.312	10011
528.380	8536
528.449	1476
528.518	4146
528.586	683
528.655	3309
528.723	1397
528.792	1968
528.861	1918
528.929	1393
528.998	3098
529.066	2379
529.135	2205
529.203	2150
529.272	1219
529.340	3225
529.409	3899
529.477	2402
529.545	2338
529.614	5696
529.682	2285
529.751	4152
529.819	6149
529.887	3304
529.956	1480
530.024	3079
530.092	1838
530.161	4395
530.229	6278
530.297	2249
530.365	3040
530.434	3204
530.502	629
530.570	2861
530.638	429
530.707	2866
530.775	4183
530.843	2364
530.911	1774
530.979	2807
531.047	1794
531.115	2917
531.183	1918
531.252	2942
531.320	2986
531.388	2607
531.456	2917
531.524	1390
531.592	3293
531.660	4159
531.728	1430
531.796	1635
531.864	2096
531.932	3180
532.000	1567
532.067	2781
532.135	3230
532.203	5061
532.271	3903
532.339	12485
532.407	21213
532.475	8576
532.542	5731
532.610	6545
532.678	13406
532.746	68260
532.814	87750
532.881	11815
532.949	3426
533.017	2662
533.084	3159
533.152	2862
533.220	2717
533.287	3428
533.355	2694
533.423	3132
533.490	1791
533.558	2549
533.625	3515
533.693	3638
533.761	2983
533.828	5393
533.896	4759
533.963	12053
534.031	11461
534.098	15242
534.166	5397
534.233	3303
534.300	5290
534.368	5001
534.435	2721
534.503	4226
534.570	3969
534.637	2656
534.705	2770
534.772	5185
534.840	7727
534.907	28367
534.974	16722
535.041	3523
535.109	2700
535.176	2073
535.243	2851
535.310	3744
535.378	1588
535.445	2956
535.512	1631
535.579	3469
535.646	1341
535.714	4278
535.781	4947
535.848	4570
535.915	5659
535.982	5856
536.049	4701
536.116	5577
536.183	2137
536.250	3878
536.317	3486
536.384	5041
536.451	7660
536.518	6372
536.585	3404
536.652	7821
536.719	9407
536.786	4034
536.853	5330
536.920	9551
536.987	12560
537.053	15805
537.120	64320
537.187	24821
537.254	3507
537.321	2649
537.388	4090
537.454	2477
537.521	2258
537.588	2772
537.654	5238
537.721	6147
537.788	5126
537.855	4656
537.921	3707
537.988	3528
538.055	5444
538.121	3079
538.188	4410
538.254	8196
538.321	12954
538.388	6304
538.454	3795
538.521	3773
538.587	2884
538.654	2823
538.720	3001
538.787	3789
538.853	3898
538.920	4748
538.986	4954
539.053	3106
539.119	4366
539.185	3631
539.252	6169
539.318	7210
539.385	7139
539.451	5292
539.517	6167
539.583	8370
539.650	21251
539.716	30052
539.782	6048
539.849	4050
539.915	5506
539.981	5223
540.047	4275
540.114	5148
540.180	5387
540.246	4979
540.312	7110
540.378	13917
540.444	12516
540.510	23592
540.576	34911
540.643	6707
540.709	2706
540.775	4110
540.841	3563
540.907	7293
540.973	8358
541.039	9263
541.105	6806
541.171	5015
541.237	2743
541.303	5393
541.369	6663
541.435	8267
541.500	11460
541.566	4766
541.632	3285
541.698	3892
541.764	3615
541.830	3548
541.896	2530
541.961	5084
542.027	4167
542.093	4343
542.159	4871
542.224	5673
542.290	9113
542.356	14241
542.421	10679
542.487	5858
542.553	4532
542.618	5421
542.684	3861
542.750	4529
542.815	6159
542.881	14130
542.947	40130
543.012	13323
543.078	2997
543.143	4114
543.209	5434
543.274	4493
543.340	6719
543.405	18563
543.471	14674
543.536	3535
543.602	4532
543.667	2772
543.732	4665
543.798	3754
543.863	4395
543.928	2851
543.994	2358
544.059	3874
544.124	3678
544.190	3849
544.255	4209
544.320	4475
544.386	3614
544.451	7734
544.516	6446
544.581	9178
544.646	30022
544.712	25478
544.777	5892
544.842	5173
544.907	3968
544.972	5204
545.037	4462
545.102	5540
545.168	3963
545.233	5914
545.298	6666
545.363	7284
545.428	8247
545.493	18541
545.558	25040
545.623	8021
545.688	4466
545.753	5123
545.818	4506
545.883	5459
545.947	4682
546.012	4950
546.077	4263
546.142	5964
546.207	4847
546.272	7577
546.337	6057
546.401	6310
546.466	6374
546.531	4272
546.596	6240
546.661	6192
546.725	6689
546.790	4453
546.855	5078
546.919	4125
546.984	5127
547.049	6420
547.113	6044
547.178	5183
547.243	7678
547.307	8503
547.372	8816
547.436	8560
547.501	7789
547.565	8636
547.630	9542
547.695	8902
547.759	7616
547.823	7603
547.888	7570
547.952	7793
548.017	8355
548.081	9972
548.146	9916
548.210	8273
548.274	8225
548.339	8340
548.403	8173
548.468	6720
548.532	6026
548.596	7350
548.660	7289
548.725	8053
548.789	9008
548.853	9638
548.917	7685
548.982	10008
549.046	7731
549.110	6351
549.174	7231
549.238	7357
549.303	6347
549.367	9857
549.431	7003
549.495	7282
549.559	7778
549.623	9040
549.687	10184
549.751	12084
549.815	9345
549.879	10355
549.943	8063
550.007	10871
550.071	10584
550.135	11513
550.199	7919
550.263	8501
550.327	10337
550.391	9904
550.455	9072
550.519	9724
550.582	10190
550.646	13882
550.710	11249
550.774	10778
550.838	10677
550.901	11217
550.965	12450
551.029	11951
551.093	13291
551.156	16640
551.220	26492
551.284	20639
551.347	15910
551.411	25026
551.475	17608
551.538	12058
551.602	10731
551.666	9661
551.729	8189
551.793	10173
551.856	9924
551.920	10721
551.983	9147
552.047	8576
552.110	8870
552.174	9186
552.237	8896
552.301	7604
552.364	8299
552.428	7876
552.491	7553
552.554	8740
552.618	9002
552.681	10630
552.745	8357
552.808	13498
552.871	13446
552.934	9288
552.998	7996
553.061	9269
553.124	8990
553.187	9886
553.251	9122
553.314	10952
553.377	13509
553.440	26778
553.503	85040
553.567	72439
553.630	11727
553.693	9778
553.756	8520
553.819	7836
553.882	8430
553.945	8237
554.008	6945
554.071	7883
554.134	7174
554.197	6886
554.260	7827
554.323	8785
554.386	7693
554.449	8003
554.512	7571
554.575	6194
554.638	7656
554.701	7804
554.764	6592
554.827	6760
554.889	5979
554.952	6032
555.015	5716
555.078	6580
555.141	6124
555.203	6181
555.266	5723
555.329	7375
555.391	5398
555.454	6437
555.517	6414
555.580	6741
555.642	4623
555.705	4603
555.768	5686
555.830	6242
555.893	5001
555.955	5965
556.018	5274
556.080	5623
556.143	4981
556.206	5072
556.268	6232
556.330	5636
556.393	5073
556.455	6367
556.518	7731
556.580	7067
556.643	4610
556.705	4081
556.767	4226
556.830	6230
556.892	6444
556.955	8779
557.017	5821
557.079	5123
557.142	5128
557.204	6849
557.266	12595
557.328	7199
557.391	3245
557.453	4716
557.515	4119
557.577	5032
557.639	4672
557.701	4591
557.764	3558
557.826	5169
557.888	4914
557.950	4724
558.012	4776
558.074	7234
558.136	18648
558.198	23886
558.260	6884
558.322	4379
558.384	5462
558.446	6819
558.508	8150
558.570	10618
558.632	19619
558.694	23041
558.756	32921
558.818	108811
558.880	127867
558.942	25335
559.003	25561
559.065	8552
559.127	6603
559.189	6909
559.251	9054
559.312	16696
559.374	48052
559.436	90738
559.498	17549
559.559	6014
559.621	6629
559.683	9791
559.744	19731
559.806	59047
559.868	38204
559.929	7346
559.991	8319
560.052	16377
560.114	28180
560.176	12388
560.237	23407
560.299	19188
560.360	4679
560.422	4217
560.483	3667
560.545	3882
560.606	3583
560.667	3393
560.729	3392
560.790	3528
560.852	3866
560.913	4322
560.974	3014
561.036	3102
561.097	3630
561.158	3660
561.220	4330
561.281	3769
561.342	4147
561.403	6417
561.465	7779
561.526	21517
561.587	15107
561.648	3118
561.709	3798
561.771	4610
561.832	3640
561.893	4173
561.954	3671
562.015	3208
562.076	4089
562.137	2753
562.198	3448
562.259	4440
562.320	3761
562.381	5758
562.442	5601
562.503	4388
562.564	4417
562.625	4087
562.686	3538
562.747	3715
562.808	3345
562.869	3758
562.930	4517
562.991	3877
563.051	4226
563.112	4055
563.173	3233
563.234	2803
563.294	3472
563.355	3858
563.416	4069
563.477	4084
563.537	3501
563.598	3597
563.659	4151
563.720	3768
563.780	3908
563.841	3753
563.901	5034
563.962	3614
564.023	3155
564.083	4148
564.144	3849
564.204	4166
564.265	2987
564.325	5170
564.386	8727
564.446	5190
564.507	4113
564.567	4053
564.628	3440
564.688	3945
564.749	2967
564.809	5282
564.869	4476
564.930	4160
564.990	3662
565.050	2545
565.111	3512
565.171	3518
565.231	2643
565.292	4506
565.352	2697
565.412	4486
565.472	3174
565.532	4385
565.593	4032
565.653	4275
565.713	3690
565.773	4609
565.833	4518
565.893	7472
565.953	2945
566.013	4402
566.074	5123
566.134	6960
566.194	8928
566.254	8235
566.314	5613
566.374	4745
566.434	5083
566.494	5620
566.554	4977
566.614	5546
566.673	5664
566.733	5431
566.793	5475
566.853	6042
566.913	6715
566.973	7335
567.033	7160
567.092	6913
567.152	6218
567.212	7120
567.272	7719
567.331	8028
567.391	7882
567.451	9633
567.511	10611
567.570	9100
567.630	7880
567.690	8329
567.749	7613
567.809	9415
567.868	10741
567.928	12253
567.988	13785
568.047	17394
568.107	24294
568.166	37566
568.226	63681
568.285	75068
568.345	53703
568.404	40110
568.464	33982
568.523	32442
568.582	32159
568.642	39478
568.701	57147
568.761	96080
568.820	140658
568.879	109982
568.939	70842
568.998	47876
569.057	34960
569.116	26659
569.176	20275
569.235	16816
569.294	14159
569.353	12083
569.413	10900
569.472	10665
569.531	8076
569.590	8128
569.649	7912
569.708	7221
569.767	6839
569.827	7951
569.886	5584
569.945	6062
570.004	5114
570.063	5747
570.122	5607
570.181	5615
570.240	5103
570.299	5986
570.358	5285
570.417	4749
570.475	4310
570.534	6222
570.593	4853
570.652	4526
570.711	4499
570.770	5584
570.829	6780
570.887	5320
570.946	5978
571.005	3989
571.064	3238
571.122	4703
571.181	3422
571.240	3811
571.299	3216
571.357	4155
571.416	3420
571.475	5021
571.533	3557
571.592	3401
571.650	2795
571.709	4130
571.768	3211
571.826	3925
571.885	3173
571.943	2926
572.002	2588
572.060	3257
572.119	3225
572.177	3511
572.236	2403
572.294	3521
572.352	2907
572.411	3281
572.469	2714
572.528	2789
572.586	3094
572.644	3407
572.703	4622
572.761	2189
572.819	2663
572.877	2827
572.936	2139
572.994	2421
573.052	2513
573.110	3260
573.169	2890
573.227	2347
573.285	2502
573.343	2756
573.401	1656
573.459	3325
573.517	2167
573.576	3054
573.634	2957
573.692	2742
573.750	2574
573.808	3082
573.866	3270
573.924	4599
573.982	3206
574.040	3087
574.098	3245
574.155	2811
574.213	3027
574.271	2396
574.329	1919
574.387	2833
574.445	1852
574.503	2228
574.560	1765
574.618	1970
574.676	1222
574.734	1949
574.792	2030
574.849	2586
574.907	2143
574.965	1745
575.022	2117
575.080	2427
575.138	2625
575.195	3227
575.253	1661
575.311	3613
575.368	2355
575.426	3061
575.483	1757
575.541	3111
575.598	1191
575.656	2496
575.713	1735
575.771	2575
575.828	2161
575.886	2670
575.943	2641
576.001	2142
576.058	1803
576.115	2894
576.173	3209
576.230	4453
576.287	3862
576.345	2644
576.402	2669
576.459	2950
576.517	1745
576.574	3182
576.631	3637
576.688	3310
576.746	2645
576.803	2710
576.860	2559
576.917	3383
576.974	2297
577.031	3760
577.089	3292
577.146	2681
577.203	2547
577.260	4019
577.317	4122
577.374	4145
577.431	3082
577.488	3588
577.545	3187
577.602	2973
577.659	3473
577.716	4142
577.773	3828
577.830	3145
577.886	2960
577.943	2919
578.000	2846
578.057	3575
578.114	3566
578.171	6208
578.227	5374
578.284	4993
578.341	4802
578.398	3342
578.454	3430
578.511	4151
578.568	4340
578.625	3418
578.681	2790
578.738	2126
578.794	2915
578.851	2195
578.908	3196
578.964	3153
579.021	2824
579.077	3368
579.134	2423
579.190	2461
579.247	2664
579.303	2781
579.360	2376
579.416	2350
579.473	2548
579.529	3117
579.586	2617
579.642	2662
579.698	2600
579.755	3183
579.811	2651
579.867	3776
579.924	3764
579.980	3956
580.036	4700
580.093	6369
580.149	8731
580.205	9154
580.261	5582
580.317	4480
580.374	4489
580.430	4383
580.486	3877
580.542	4154
580.598	3348
580.619	3361
580.654	3386
580.692	3014
580.710	2838
580.765	3285
580.767	3299
580.823	2843
580.838	2878
580.879	2983
580.911	2265
580.935	1734
580.984	2093
580.991	2151
581.047	3610
581.057	3514
581.103	3072
581.130	3608
581.159	4169
581.203	4828
581.215	5010
581.270	4229
581.276	4143
581.326	3346
581.349	3122
581.382	2782
581.422	3110
581.438	3242
581.494	2998
581.494	3003
581.550	3701
581.567	3608
581.606	3419
581.640	3967
581.661	4305
581.713	4161
581.717	4155
581.773	3330
581.786	3069
581.829	2095
581.859	2765
581.885	3431
581.932	3472
581.940	3470
581.996	4246
582.004	4057
582.052	2974
582.077	3065
582.107	3207
582.150	2970
582.163	2892
582.219	3637
582.223	3606
582.274	3187
582.296	3388
582.330	3804
582.368	3073
582.386	2737
582.441	2832
582.441	2832
582.497	3505
582.514	3816
582.552	4483
582.587	4619
582.608	4666
582.659	4094
582.663	4050
582.719	3555
582.732	3648
582.774	3996
582.805	3857
582.830	3749
582.877	4242
582.885	4342
582.941	3939
582.950	4002
582.996	4016
583.023	4052
583.052	4403
583.095	5537
583.107	5786
583.162	7020
583.168	7037
583.218	6985
583.240	6181
583.273	5074
583.313	4897
583.328	4866
583.384	4402
583.385	4397
583.439	4020
583.458	3923
583.494	3830
583.531	3967
583.549	4032
583.603	3848
583.605	3846
583.660	4159
583.676	4051
583.715	3737
583.748	3930
583.770	4059
583.820	4344
583.825	4366
583.881	4538
583.893	4411
583.936	4096
583.965	4403
583.991	4602
584.038	4476
584.046	4429
584.101	4114
584.110	4010
584.156	3802
584.183	4242
584.211	4559
584.255	4369
584.266	4352
584.321	4079
584.328	4057
584.376	4076
584.400	4443
584.431	4619
584.472	4282
584.486	4264
584.541	4718
584.545	4732
584.596	4793
584.617	4739
584.651	4929
584.689	5073
584.706	4980
584.761	5054
584.762	5055
584.816	5340
584.834	5406
584.871	5403
584.906	5159
584.926	5059
584.978	4948
584.980	4950
585.035	5419
585.051	5567
585.090	5799
585.123	5960
585.145	6079
585.195	6026
585.200	6109
585.254	7799
585.267	8664
585.309	11517
585.340	12593
585.364	12518
585.412	8919
585.419	8410
585.473	8095
585.484	8091
585.528	8841
585.556	9638
585.583	10450
585.628	13187
585.637	13927
585.692	24355
585.700	24713
585.747	25207
585.772	19224
585.801	11835
585.845	9195
585.856	8747
585.910	7683
585.917	7645
585.965	7326
585.989	7302
586.019	7650
586.061	7872
586.074	7907
586.128	7770
586.133	7829
586.183	8217
586.205	8164
586.237	8159
586.277	8064
586.292	8088
586.346	8485
586.349	8514
586.401	8605
586.421	8542
586.455	8705
586.493	9381
586.509	9854
586.564	11414
586.565	11504
586.618	15592
586.637	15107
586.672	12553
586.709	11160
586.727	10722
586.781	10073
586.781	10069
586.835	10115
586.853	10249
586.889	10441
586.925	10611
586.944	10705
586.996	10723
586.998	10717
587.052	11424
587.068	11495
587.106	11965
587.140	12371
587.161	12487
587.212	12475
587.215	12460
587.269	13038
587.284	13077
587.323	13247
587.356	13394
587.377	13771
587.427	15235
587.431	15261
587.485	15470
587.499	15567
587.539	16700
587.571	17610
587.593	18068
587.643	18894
587.648	18946
587.702	20381
587.715	20744
587.755	22279
587.786	23588
587.810	24600
587.858	26557
587.864	26733
587.917	29524
587.930	30189
587.971	32516
588.001	34441
588.025	36292
588.073	40180
588.079	40706
588.133	46497
588.145	48049
588.187	53565
588.217	57544
588.241	61239
588.288	69856
588.295	71094
588.348	84050
588.360	87014
588.402	98604
588.431	107889
588.456	116246
588.503	135475
588.510	138475
588.564	169323
588.575	177056
588.617	209708
588.646	239864
588.671	272043
588.718	347580
588.725	363457
588.778	522055
588.789	563110
588.832	819798
588.861	1015323
588.886	1240431
588.932	1584787
588.939	1598538
588.993	1629546
589.004	1627013
589.047	1276701
589.075	989230
589.100	784471
589.147	472957
589.154	451513
589.207	335123
589.218	316460
589.261	294366
589.290	290362
589.314	303675
589.361	348596
589.368	363250
589.421	519378
589.433	562099
589.475	859878
589.504	1074821
589.528	1251078
589.576	1494339
589.582	1457224
589.635	1036964
589.647	938027
589.689	561345
589.718	336523
589.742	270471
589.790	165776
589.795	159893
589.849	116999
589.861	108280
589.902	90994
589.932	79436
589.955	72534
590.004	59867
590.009	58862
590.062	50280
590.075	48294
590.115	43708
590.146	40612
590.168	38631
590.218	34470
590.222	34181
590.275	31768
590.289	31005
590.328	29126
590.360	28110
590.381	27315
590.431	25373
590.435	25225
590.488	23221
590.503	22742
590.541	22022
590.574	21529
590.594	21024
590.645	19741
590.647	19684
590.700	18707
590.716	18376
590.753	17308
590.787	16345
590.806	15928
590.859	15227
590.859	15201
590.912	14421
590.930	14231
590.965	14350
591.001	14510
591.018	14422
591.071	14097
591.072	14101
591.124	14232
591.143	14251
591.177	13118
591.214	12024
591.230	12117
591.283	12604
591.285	12624
591.336	12662
591.356	12683
591.389	12713
591.427	12810
591.442	12461
591.495	11033
591.498	10940
591.547	11127
591.569	11206
591.600	10925
591.640	10527
591.653	10685
591.706	11416
591.711	11488
591.759	10712
591.782	10363
591.811	11104
591.853	12089
591.864	11732
591.917	9912
591.924	9656
591.969	10246
591.995	10586
592.022	10106
592.066	9282
592.075	9398
592.127	10182
592.137	10330
592.180	10932
592.208	11259
592.233	10604
592.279	9449
592.285	9487
592.338	9758
592.350	9834
592.390	9657
592.421	9496
592.443	9227
592.491	8641
592.495	8650
592.548	8814
592.562	8866
592.600	8407
592.633	8019
592.653	8167
592.704	8542
592.705	8589
592.775	8563
592.846	8136
592.916	9354
592.987	9023
593.058	8150
593.128	7985
593.199	7939
593.270	7768
593.341	6728
593.411	7502
593.482	7888
593.553	7504
593.623	7828
593.694	7918
593.764	7681
593.835	7507
593.906	6992
593.976	7977
594.047	6804
594.117	8670
594.188	7976
594.258	7148
594.329	7101
594.399	7000
594.470	6432
594.540	6680
594.611	6838
594.681	7057
594.751	6824
594.822	9002
594.892	9247
594.963	8241
595.033	7880
595.103	7750
595.174	7290
595.244	9234
595.314	10243
595.384	6947
595.455	6150
595.525	6656
595.595	6833
595.665	6644
595.736	7177
595.806	7196
595.876	6215
595.946	6558
596.016	6238
596.087	5937
596.157	6326
596.227	6633
596.297	6766
596.367	6560
596.437	7352
596.507	8679
596.577	9928
596.647	7355
596.717	5649
596.787	6252
596.857	5635
596.927	6407
596.997	5742
597.067	6421
597.137	8156
597.207	7790
597.277	6103
597.347	6983
597.417	6951
597.487	6761
597.557	6400
597.626	6496
597.696	7292
597.766	8029
597.836	8799
597.906	7592
597.975	6765
598.045	7125
598.115	6990
598.185	6477
598.254	6468
598.324	6780
598.394	6832
598.464	7698
598.533	6436
598.603	6580
598.672	6825
598.742	6366
598.812	5866
598.881	6341
598.951	5933
599.020	5642
599.090	5839
599.159	6431
599.229	5907
599.299	5423
599.368	6289
599.437	6150
599.507	5244
599.576	6380
599.646	7236
599.715	8284
599.785	5935
599.854	6306
599.924	6595
599.993	6222
600.062	5826
600.132	5334
600.201	5423
600.270	7720
600.340	5882
600.409	6250
600.478	6027
600.547	6414
600.617	5860
600.686	6154
600.755	5437
600.824	6176
600.894	5414
600.963	5483
601.032	6087
601.101	6077
601.170	5358
601.239	6346
601.308	6711
601.378	6416
601.447	5337
601.516	5017
601.585	6498
601.654	6783
601.723	5231
601.792	5556
601.861	5460
601.930	8815
601.999	6969
602.068	6016
602.137	7326
602.206	7121
602.275	5513
602.343	6348
602.412	6626
602.481	5188
602.550	4819
602.619	4555
602.688	5783
602.756	5471
602.825	4770
602.894	5324
602.963	4525
603.032	5544
603.100	4202
603.169	5524
603.238	4298
603.307	5180
603.375	5217
603.444	5420
603.513	4495
603.581	4786
603.650	4637
603.719	5104
603.787	4253
603.856	5580
603.924	4535
603.993	5561
604.061	4829
604.130	5275
604.198	5361
604.267	4816
604.335	4309
604.404	5367
604.472	4170
604.541	5628
604.609	5122
604.678	5555
604.746	5034
604.815	5260
604.883	4807
604.951	5772
605.020	5013
605.088	4861
605.156	5027
605.225	5711
605.293	5341
605.361	4985
605.429	6227
605.498	5328
605.566	6033
605.634	5494
605.702	5002
605.771	6263
605.839	5294
605.907	5462
605.975	4714
606.043	4971
606.111	6023
606.180	6211
606.248	7122
606.316	9156
606.384	5518
606.452	7462
606.520	7079
606.588	5918
606.656	4223
606.724	5168
606.792	5410
606.860	4686
606.928	4678
606.996	4999
607.064	5178
607.132	4673
607.200	5352
607.267	5008
607.335	3816
607.403	5162
607.471	4111
607.539	4723
607.607	3693
607.674	4207
607.742	5021
607.810	5093
607.878	4525
607.946	4738
608.013	3865
608.081	5242
608.149	4655
608.216	3819
608.284	5548
608.352	5273
608.419	3962
608.487	7111
608.555	4832
608.622	4983
608.690	4685
608.757	4708
608.825	4227
608.893	4552
608.960	5733
609.028	6477
609.095	6959
609.163	4822
609.230	4788
609.298	5320
609.365	4328
609.432	5671
609.500	5014
609.567	5323
609.635	4979
609.702	5792
609.769	5222
609.837	5722
609.904	5423
609.971	4829
610.039	7107
610.106	8365
610.173	13118
610.241	31126
610.308	48048
610.375	34625
610.442	8471
610.509	5594
610.577	5539
610.644	4665
610.711	4647
610.778	6167
610.845	4946
610.912	6295
610.980	6848
611.047	12811
611.114	7462
611.181	6138
611.248	4583
611.315	6581
611.382	4281
611.449	4853
611.516	6069
611.583	5252
611.650	4819
611.717	5173
611.784	4769
611.851	5593
611.918	5927
611.984	6078
612.051	8834
612.118	14904
612.185	34187
612.252	21528
612.319	5579
612.386	6166
612.452	6217
612.519	5559
612.586	6841
612.653	6748
612.719	6288
612.786	5385
612.853	4827
612.919	4476
612.986	4654
613.053	5323
613.120	4622
613.186	4076
613.253	5947
613.319	5084
613.386	4488
613.453	5145
613.519	6219
613.586	7005
613.652	11327
613.719	8308
613.785	7555
613.852	6679
613.918	5919
613.985	11296
614.051	21427
614.118	58445
614.184	56205
614.250	9204
614.317	5831
614.383	5658
614.449	4999
614.516	5740
614.582	5458
614.648	4470
614.715	5008
614.781	5364
614.847	4914
614.914	5058
614.980	5639
615.046	5895
615.112	4960
615.179	5483
615.245	5976
615.311	8042
615.377	13813
615.443	14539
615.509	9184
615.575	7858
615.642	7565
615.708	8373
615.774	8448
615.840	10005
615.906	11997
615.972	16851
616.038	29952
616.104	37459
616.170	51432
616.236	41842
616.302	13642
616.368	9518
616.434	7143
616.500	8023
616.565	8000
616.631	7870
616.697	6525
616.763	7768
616.829	8018
616.895	11563
616.961	10676
617.026	7433
617.092	5494
617.158	6707
617.224	5482
617.289	5834
617.355	5346
617.421	4737
617.487	5659
617.552	4096
617.618	5229
617.684	4072
617.749	6685
617.815	5238
617.880	4605
617.946	4693
618.012	4674
618.077	4139
618.143	4930
618.208	5720
618.274	4434
618.339	4914
618.405	3878
618.470	5301
618.536	4235
618.601	5371
618.667	4881
618.732	4970
618.798	5033
618.863	4747
618.928	4207
618.994	5438
619.059	6596
619.124	9205
619.190	5971
619.255	3851
619.320	4391
619.386	5318
619.451	3852
619.516	5148
619.581	4815
619.647	4118
619.712	4993
619.777	5646
619.842	5394
619.907	4581
619.972	4585
620.038	5349
620.103	4112
620.168	3387
620.233	5028
620.298	3290
620.363	4057
620.428	4747
620.493	4433
620.558	4808
620.623	4897
620.688	4643
620.753	3642
620.818	4271
620.883	4427
620.948	4745
621.013	5069
621.078	5010
621.143	2793
621.207	6959
621.272	4964
621.337	4942
621.402	5171
621.467	6745
621.532	6573
621.596	5954
621.661	5191
621.726	4596
621.791	5218
621.855	5581
621.920	6159
621.985	5721
622.049	5858
622.114	5582
622.179	5172
622.243	5682
622.308	5114
622.373	5635
622.437	5546
622.502	6169
622.566	6068
622.631	4392
622.695	5354
622.760	6491
622.824	5140
622.889	5701
622.953	5493
623.018	10047
623.082	9830
623.147	5835
623.211	5428
623.276	5488
623.340	4205
623.404	5463
623.469	4399
623.533	6215
623.597	4009
623.662	4764
623.726	4522
623.790	5173
623.854	5214
623.919	5119
623.983	4387
624.047	5866
624.111	5361
624.176	5637
624.240	5310
624.304	7141
624.368	4850
624.432	5829
624.496	6055
624.560	6698
624.625	5901
624.689	5758
624.753	4228
624.817	5537
624.881	4535
624.945	5656
625.009	4876
625.073	5483
625.137	4497
625.201	7236
625.265	5962
625.329	5577
625.393	5058
625.456	5468
625.520	5244
625.584	5360
625.648	6714
625.712	8890
625.776	18531
625.839	22019
625.903	9336
625.967	5580
626.031	10278
626.095	13411
626.158	5352
626.222	3950
626.286	4525
626.349	4372
626.413	3053
626.477	5406
626.540	3247
626.604	3624
626.668	4497
626.731	3810
626.795	3990
626.858	4812
626.922	3199
626.986	4440
627.049	2186
627.113	4162
627.176	4737
627.240	4439
627.303	3760
627.366	3841
627.430	2965
627.493	4347
627.557	3914
627.620	4774
627.684	3654
627.747	3932
627.810	2071
627.874	4445
627.937	3143
628.000	5675
628.064	4057
628.127	1721
628.190	4034
628.253	3757
628.317	3411
628.380	3582
628.443	2644
628.506	3177
628.569	4081
628.632	3659
628.696	3924
628.759	3384
628.822	2498
628.885	2807
628.948	2795
629.011	4061
629.074	3171
629.137	2776
629.200	2327
629.263	4951
629.326	2923
629.389	2518
629.452	3162
629.515	3832
629.578	2473
629.641	3990
629.704	2486
629.767	2726
629.830	3605
629.892	2800
629.955	2661
630.018	4891
630.081	3429
630.144	5297
630.207	2689
630.269	4789
630.332	3111
630.395	3259
630.458	2774
630.520	1709
630.583	3566
630.646	3112
630.708	2657
630.771	2139
630.834	2423
630.896	2511
630.959	2117
631.021	1656
631.084	2310
631.146	3297
631.209	3165
631.272	2446
631.334	2623
631.397	2848
631.459	2299
631.522	3312
631.584	1872
631.646	2868
631.709	2844
631.771	3752
631.834	3475
631.896	2984
631.958	1747
632.021	3114
632.083	1420
632.145	2559
632.208	2825
632.270	4222
632.332	1394
632.395	1823
632.457	3335
632.519	2106
632.581	3855
632.643	1700
632.706	3062
632.768	1535
632.830	3531
632.892	2651
632.954	1324
633.016	3351
633.078	2772
633.141	2432
633.203	2001
633.265	2522
633.327	2293
633.389	2443
633.451	2146
633.513	3816
633.575	3493
633.637	2424
633.698	2329
633.760	3136
633.822	2791
633.884	2638
633.946	1742
634.008	2665
634.070	2228
634.132	4108
634.193	2693
634.255	3039
634.317	2263
634.379	3570
634.441	3241
634.502	3668
634.564	6518
634.626	11022
634.687	14045
634.749	5994
634.811	3848
634.873	2209
634.934	1910
634.996	2888
635.057	1377
635.119	1913
635.181	2041
635.242	2005
635.304	1040
635.365	4236
635.427	1462
635.488	2706
635.550	1664
635.611	2629
635.673	387
635.734	3423
635.796	2078
635.857	4063
635.918	1846
635.980	3591
636.041	975
636.102	2720
636.164	1528
636.225	3330
636.286	784
636.348	3166
636.409	2610
636.470	1935
636.531	1509
636.593	1690
636.654	2511
636.715	2267
636.776	1883
636.838	1914
636.899	2582
636.960	3421
637.021	4239
637.082	6319
637.143	5567
637.204	2156
637.265	1459
637.326	2917
637.387	2118
637.448	972
637.509	2109
637.570	1383
637.631	2766
637.692	1478
637.753	566
637.814	2083
637.875	1323
637.936	2352
637.997	1248
638.058	1350
638.119	2599
638.179	1553
638.240	1873
638.301	1946
638.362	601
638.423	1299
638.483	2296
638.544	737
638.605	1568
638.666	1158
638.726	2324
638.787	2669
638.848	766
638.908	1293
638.969	1420
639.030	1639
639.090	315
639.151	1533
639.211	1817
639.272	2026
639.332	4019
639.393	3415
639.453	999
639.514	1135
639.574	1921
639.635	1921
639.695	2082
639.756	650
639.816	2910
639.877	2212
639.937	4509
639.997	5750
640.058	777
640.118	1455
640.178	2166
640.239	1463
640.299	81
640.359	1369
640.420	1386
640.480	2533
640.540	1346
640.600	1269
640.661	1706
640.721	864
640.781	2563
640.841	552
640.901	2504
640.961	2322
641.021	2061
641.082	2083
641.142	2985
641.202	3720
641.262	-271
641.322	2898
641.382	289
641.442	2706
641.502	798
641.562	2470
641.622	822
641.682	1881
641.742	1091
641.802	2390
641.861	913
641.921	1575
641.981	2785
642.041	2112
642.101	2464
642.161	1112
642.221	920
642.280	1445
642.340	641
642.400	671
642.460	2029
642.519	909
642.579	1224
642.639	2921
642.698	-1197
642.758	3643
642.818	2022
642.877	905
642.937	568
642.997	2485
643.056	2715
643.116	1182
643.175	2554
643.235	626
643.294	571
643.354	1861
643.414	1095
643.473	1299
643.532	1150
643.592	1975
643.651	2053
643.711	4253
643.770	6016
643.830	13226
643.889	31037
643.948	8438
644.008	1840
644.067	1531
644.126	325
644.186	1232
644.245	1715
644.304	833
644.363	2858
644.423	624
644.482	1909
644.541	1701
644.600	-471
644.659	1039
644.719	105
644.778	1838
644.837	1619
644.896	3216
644.955	5560
645.014	2961
645.073	2551
645.132	1653
645.191	1610
645.250	522
645.309	2942
645.368	784
645.427	1695
645.486	998
645.545	3330
645.604	1600
645.663	2170
645.722	1737
645.781	1518
645.840	2649
645.898	1479
645.957	3384
646.016	994
646.075	3431
646.134	4384
646.192	12493
646.251	19670
646.310	3704
646.369	1609
646.427	971
646.486	-639
646.545	1103
646.603	855
646.662	1324
646.721	1519
646.779	-26
646.838	108
646.896	1697
646.955	570
647.014	1977
647.072	1174
647.131	4179
647.189	1086
647.248	664
647.306	2453
647.365	1514
647.423	-854
647.481	2387
647.540	-463
647.598	1256
647.657	72
647.715	2439
647.773	673
647.832	1080
647.890	-70
647.948	1099
648.007	2086
648.065	1613
648.123	710
648.181	3650
648.240	3450
648.298	3263
648.356	1475
648.414	2711
648.472	2109
648.531	2582
648.589	2604
648.647	2078
648.705	2182
648.763	2422
648.821	2059
648.879	1600
648.937	1343
648.995	1800
649.053	701
649.111	1760
649.169	2477
649.227	3074
649.285	3870
649.343	10799
649.401	7937
649.459	7766
649.516	8971
649.574	7261
649.632	22285
649.690	30445
649.748	6354
649.806	4459
649.863	7923
649.921	4865
649.979	984
650.037	1284
650.094	-245
650.152	1202
650.210	-201
650.268	1673
650.325	1489
650.383	1315
650.440	79
650.498	1089
650.556	818
650.613	494
650.671	799
650.728	272
650.786	842
650.843	1136
650.901	-1247
650.958	1002
651.016	41
651.073	218
651.131	-432
651.188	119
651.246	-361
651.303	-431
651.360	520
651.418	328
651.475	513
651.532	416
651.590	363
651.647	322
651.704	770
651.762	174
651.819	761
651.876	1005
651.933	-98
651.990	1416
652.048	-1254
652.105	-513
652.162	609
652.219	652
652.276	547
652.333	1447
652.390	-460
652.448	166
652.505	437
652.562	863
652.619	573
652.676	3153
652.733	4246
652.790	704
652.847	-513
652.904	759
652.961	-330
653.017	-85
653.074	851
653.131	781
653.188	-242
653.245	-59
653.302	323
653.359	1035
653.415	487
653.472	284
653.529	598
653.586	116
653.642	-216
653.699	605
653.756	-128
653.813	59
653.869	155
653.926	202
653.983	-267
654.039	321
654.096	38
654.152	1259
654.209	-614
654.266	1148
654.322	162
654.379	1301
654.435	803
654.492	772
654.548	252
654.605	1847
654.661	1584
654.717	535
654.774	1225
654.830	1043
654.887	868
654.943	1331
655.000	1002
655.056	1391
655.112	878
655.168	1370
655.225	1142
655.281	1186
655.337	1484
655.394	1918
655.450	1651
655.506	2570
655.562	2599
655.618	4831
655.675	2525
655.731	3358
655.787	3809
655.843	4940
655.899	4672
655.955	6879
656.011	7362
656.067	8121
656.123	11137
656.179	12486
656.235	13437
656.291	11555
656.347	11501
656.403	8718
656.459	7389
656.515	6658
656.571	5856
656.627	5028
656.683	3987
656.739	4894
656.795	3273
656.850	3654
656.906	2071
656.962	3277
657.018	900
657.074	1239
657.129	1050
657.185	1378
657.241	798
657.297	1589
657.352	882
657.408	252
657.464	1342
657.519	998
657.575	-583
657.630	1095
657.686	208
657.742	-449
657.797	-216
657.853	465
657.908	1299
657.964	-550
658.019	193
658.075	419
658.130	579
658.186	-416
658.241	166
658.297	-176
658.352	89
658.407	1384
658.463	-1235
658.518	443
658.573	830
658.629	100
658.684	-181
658.739	1096
658.795	-1161
658.850	429
658.905	-650
658.960	244
659.016	-703
659.071	339
659.126	702
659.181	-134
659.236	1144
659.291	2112
659.346	-129
659.401	421
659.457	1409
659.512	1665
659.567	1189
659.622	-222
659.677	-461
659.732	-888
659.787	88
659.842	407
659.897	194
659.952	920
660.007	145
660.061	808
660.116	-1340
660.171	255
660.226	230
660.281	697
660.336	-452
660.391	671
660.445	-595
660.500	-16
660.555	-465
660.610	-931
660.664	-183
660.719	42
660.774	32
660.828	-35
660.883	356
660.938	-79
660.992	-1716
661.047	378
661.101	-684
661.156	-194
661.211	-840
661.265	-584
661.320	-1388
661.374	-308
661.429	-276
661.483	531
661.538	-483
661.592	317
661.647	102
661.701	296
661.755	-166
661.810	464
661.864	-707
661.919	-629
661.973	87
662.027	-312
662.081	-602
662.136	-289
662.190	205
662.244	340
662.299	-759
662.353	278
662.407	-588
662.461	154
662.515	198
662.569	-736
662.624	364
662.678	233
662.732	-595
662.786	517
662.840	-281
662.894	-95
662.948	-835
663.002	-46
663.056	75
663.110	-1109
663.164	329
663.218	-115
663.272	-363
663.326	-110
663.380	61
663.434	-374
663.488	-770
663.542	-479
663.595	-266
663.649	-641
663.703	-64
663.757	54
663.811	-1222
663.864	41
663.918	-319
663.972	-277
664.026	-420
664.079	810
664.133	116
664.187	-95
664.240	246
664.294	-82
664.348	179
664.401	448
664.455	100
664.508	127
664.562	90
664.615	885
664.669	-1308
664.722	1266
664.776	-138
664.829	909
664.883	225
664.936	-314
664.990	-195
665.043	-57
665.097	689
665.150	1355
665.203	-375
665.257	-363
665.310	-49
665.363	-127
665.417	432
665.470	238
665.523	536
665.576	244
665.630	866
665.683	-24
665.736	282
665.789	85
665.842	127
665.895	10
665.949	1197
666.002	749
666.055	-1097
666.108	-24
666.161	-140
666.214	256
666.267	-101
666.320	138
666.373	-624
666.426	-18
666.479	-328
666.532	-278
666.585	-197
666.638	1253
666.691	-941
666.744	644
666.796	-752
666.849	-184
666.902	-250
666.955	-399
667.008	-117
667.060	-446
667.113	-1146
667.166	240
667.219	-37
667.271	-159
667.324	-383
667.377	497
667.430	535
667.482	754
667.535	108
667.587	559
667.640	166
667.693	42
667.745	481
667.798	1689
667.850	229
667.903	-243
667.955	-461
668.008	-643
668.060	34
668.113	-45
668.165	47
668.218	50
668.270	73
668.322	-369
668.375	-1019
668.427	151
668.479	-649
668.532	204
668.584	-304
668.636	-181
668.689	-191
668.741	-428
668.793	-448
668.845	110
668.898	-456
668.950	295
669.002	-381
669.054	-306
669.106	-742
669.158	774
669.211	-121
669.263	1006
669.315	92
669.367	1406
669.419	-808
669.471	1136
669.523	1175
669.575	2348
669.627	-78
669.679	371
669.731	991
669.783	558
669.835	1073
669.886	1284
669.938	-203
669.990	-253
670.042	-820
670.094	1107
670.146	569
670.197	1212
670.249	2435
670.301	2447
670.353	4491
670.404	8560
670.456	12146
670.508	20779
670.560	34502
670.611	59900
670.663	105123
670.715	250752
670.766	442310
670.818	153004
670.869	21459
670.921	9954
670.972	6222
671.024	4341
671.075	2381
671.127	2660
671.178	1396
671.230	1822
671.281	1258
671.333	888
671.384	622
671.436	1136
671.487	591
671.538	1201
671.590	965
671.641	1398
671.692	770
671.744	1730
671.795	1740
671.846	880
671.897	362
671.949	1545
672.000	499
672.051	1076
672.102	360
672.153	190
672.204	977
672.256	170
672.307	215
672.358	1217
672.409	626
672.460	956
672.511	654
672.562	-156
672.613	-671
672.664	-23
672.715	287
672.766	783
672.817	427
672.868	747
672.919	494
672.970	-426
673.021	-454
673.071	65
673.122	-35
673.173	460
673.224	-473
673.275	-41
673.326	-95
673.376	-266
673.427	-585
673.478	-420
673.528	504
673.579	135
673.630	43
673.680	762
673.731	-333
673.782	-355
673.832	81
673.883	18
673.934	-58
673.984	434
674.035	-193
674.085	243
674.136	391
674.186	811
674.237	-657
674.287	620
674.338	54
674.388	-300
674.438	-653
674.489	667
674.539	466
674.589	449
674.640	-330
674.690	424
674.740	-559
674.791	298
674.841	-498
674.891	14
674.942	-157
674.992	617
675.042	-229
675.092	107
675.142	-1233
675.193	-701
675.243	-989
675.293	340
675.343	-1452
675.393	339
675.443	-67
675.493	-17
675.543	-805
675.593	-191
675.643	-256
675.693	-186
675.743	29
675.793	94
675.843	-1282
675.893	-452
675.943	-408
675.993	-261
676.043	-447
676.093	-101
676.142	-867
676.192	72
676.242	-280
676.292	-408
676.341	-638
676.391	-51
676.441	71
676.491	334
676.540	-575
676.590	-577
676.640	-1038
676.689	98
676.739	-1637
676.789	-53
676.838	-354
676.888	594
676.937	-712
676.987	-645
677.037	-704
677.086	-653
677.136	-603
677.185	-777
677.235	-86
677.284	-433
677.333	-1293
677.383	-487
677.432	4
677.482	-705
677.531	137
677.580	-262
677.630	-610
677.679	-574
677.728	-332
677.778	-195
677.827	-644
677.876	173
677.925	-870
677.975	71
678.024	-723
678.073	-365
678.122	-1240
678.171	-1141
678.220	-1052
678.269	141
678.319	-389
678.368	-524
678.417	-756
678.466	-229
678.515	-123
678.564	258
678.613	54
678.662	-1490
678.711	-505
678.760	347
678.809	-808
678.857	-689
678.906	-526
678.955	-379
679.004	-305
679.053	-603
679.102	-934
679.151	-309
679.199	-947
679.248	-788
679.297	-667
679.346	-851
679.394	-1176
679.443	-1216
679.492	-1255
679.540	532
679.589	-925
679.638	-232
679.686	-511
679.735	-805
679.784	139
679.832	-97
679.881	-782
679.929	-992
679.978	-739
680.026	-769
680.075	-642
680.123	25
680.172	-1029
680.220	-826
680.268	-716
680.317	-666
680.365	-1734
680.414	194
680.462	-1104
680.510	157
680.559	-296
680.607	-680
680.655	-819
680.703	-975
680.752	-2031
680.800	-522
680.848	-527
680.896	-482
680.945	-785
680.993	-491
681.041	-774
681.089	-335
681.137	-798
681.185	-286
681.233	-1988
681.258	-1217
681.281	-502
681.329	-506
681.377	-789
681.380	-765
681.425	-564
681.473	-90
681.502	-445
681.521	-724
681.569	-56
681.617	-498
681.624	-516
681.665	-708
681.713	-357
681.745	-499
681.761	-591
681.809	-781
681.857	446
681.867	176
681.904	-794
681.952	-301
681.989	-494
682.000	-571
682.048	128
682.096	55
682.111	-60
682.143	-354
682.191	-1135
682.233	-16
682.239	139
682.286	-13
682.334	249
682.354	-147
682.382	-665
682.430	-389
682.476	-277
682.477	-288
682.525	-301
682.572	-235
682.598	-200
682.620	-156
682.667	27
682.715	339
682.720	349
682.763	263
682.810	307
682.841	284
682.857	275
682.905	350
682.952	260
682.963	341
683.000	509
683.047	44
683.085	848
683.095	1072
683.142	-87
683.190	137
683.206	-92
683.237	-550
683.284	1201
683.328	58
683.332	-48
683.379	765
683.426	-102
683.449	56
683.473	232
683.521	-457
683.568	959
683.571	947
683.615	622
683.662	1010
683.693	194
683.709	-288
683.757	168
683.804	356
683.814	423
683.851	733
683.898	799
683.936	939
683.945	944
683.992	541
684.039	1695
684.057	1317
684.086	766
684.133	1164
684.179	567
684.180	533
684.227	932
684.274	1553
684.300	1547
684.321	1563
684.368	956
684.415	1927
684.422	1710
684.462	278
684.509	624
684.543	638
684.556	682
684.603	1159
684.649	1061
684.665	1188
684.696	1409
684.743	1306
684.786	1302
684.790	1295
684.837	1374
684.883	1567
684.908	1618
684.930	1570
684.977	1277
685.023	1513
685.029	1427
685.070	922
685.117	1372
685.150	1249
685.164	1164
685.210	1329
685.257	1833
685.272	1723
685.303	1510
685.350	1965
685.393	1308
685.396	1256
685.443	2100
685.490	2307
685.514	2344
685.536	2295
685.583	2193
685.629	1946
685.636	1911
685.675	1563
685.722	1601
685.757	1531
685.768	1577
685.815	1702
685.861	1990
685.878	2191
685.908	2445
685.954	1465
686.000	1941
686.000	1946
686.047	1672
686.093	2052
686.121	2227
686.139	2304
686.185	2307
686.232	1375
686.242	1648
686.278	2558
686.324	1884
686.363	2073
686.370	2115
686.416	1480
686.463	2618
686.484	2269
686.509	1917
686.555	2361
686.601	2404
686.606	2449
686.647	2669
686.693	2397
686.727	2450
686.739	2504
686.785	1995
686.831	2938
686.848	2775
686.877	2378
686.923	2051
686.969	1755
686.969	1754
687.015	2221
687.061	1915
687.090	2314
687.107	2427
687.153	2015
687.199	2064
687.211	1934
687.245	1800
687.291	2447
687.332	2157
687.336	2124
687.382	2474
687.428	2635
687.453	2836
687.474	2937
687.520	3179
687.565	2744
687.574	2648
687.611	2343
687.657	2606
687.695	2521
687.702	2524
687.748	2922
687.794	2736
687.816	3076
687.839	3216
687.885	2977
687.931	2698
687.937	2592
687.976	2189
688.022	2603
688.058	2646
688.067	2668
688.113	2190
688.158	2573
688.179	2883
688.204	3244
688.249	2542
688.295	2956
688.300	2938
688.340	2763
688.386	2820
688.421	2304
688.431	2220
688.477	2977
688.522	3022
688.542	3252
688.567	3423
688.613	3092
688.658	3172
688.663	3171
688.703	3171
688.749	2698
688.784	2783
688.794	2832
688.839	2852
688.884	2998
688.905	3150
688.930	3243
688.975	3251
689.020	2799
689.026	2784
689.065	2924
689.110	2806
689.146	2845
689.155	2858
689.201	3587
689.246	3173
689.267	3292
689.291	3338
689.336	3286
689.381	3217
689.388	3188
689.426	3136
689.471	3106
689.509	2846
689.516	2807
689.561	3085
689.606	2672
689.630	2982
689.651	3310
689.696	3314
689.741	3838
689.750	3773
689.785	3441
689.830	3499
689.871	3129
689.875	3097
689.920	3286
689.965	3150
689.992	3428
690.010	3631
690.054	3411
690.099	3243
690.112	3157
690.144	3249
690.189	3886
690.233	3889
690.233	3893
690.278	4060
690.323	3625
690.354	3612
690.367	3789
690.412	3927
690.457	4552
690.474	4583
690.501	4360
690.546	4540
690.590	4173
690.595	4126
690.635	4187
690.680	4191
690.716	4689
690.724	4834
690.769	5452
690.813	6017
690.836	6030
690.857	6801
690.902	9011
690.946	10984
690.957	11525
690.991	15842
691.035	21775
691.077	27488
691.080	27569
691.124	26425
691.168	25772
691.198	25463
691.213	23549
691.257	18541
691.301	12781
691.318	10519
691.346	9626
691.390	8578
691.434	6962
691.439	6802
691.478	6223
691.522	5872
691.559	5211
691.567	5236
691.611	5607
691.655	5524
691.680	5726
691.699	5653
691.743	4934
691.787	4904
691.800	4697
691.831	4552
691.875	4600
691.919	4949
691.921	4931
691.964	4545
692.008	4729
692.041	4435
692.052	4403
692.096	4492
692.139	5328
692.162	4992
692.183	4580
692.227	4591
692.271	4468
692.282	4431
692.315	4682
692.359	4807
692.402	5336
692.403	5349
692.447	4893
692.490	4995
692.523	4653
692.534	4612
692.578	5149
692.622	4830
692.643	5081
692.666	5165
692.709	4784
692.753	4723
692.763	4562
692.797	4448
692.840	5043
692.884	4990
692.884	5002
692.928	5202
692.971	5230
693.004	5405
693.015	5465
693.059	5447
693.102	5366
693.124	5421
693.146	5575
693.189	5922
693.233	6076
693.245	6117
693.276	6365
693.320	6904
693.363	7165
693.365	7150
693.407	7318
693.450	7868
693.485	8428
693.493	8829
693.537	10330
693.580	12042
693.605	13082
693.624	14742
693.667	18460
693.710	22540
693.725	23903
693.753	32547
693.797	46339
693.840	60356
693.845	61747
693.883	60154
693.926	58575
693.966	57294
693.970	56110
694.013	42781
694.056	29132
694.086	19786
694.099	18713
694.142	15307
694.185	12147
694.206	10388
694.229	10043
694.272	9474
694.315	8851
694.326	8696
694.358	8337
694.401	7822
694.444	7187
694.446	7145
694.487	7108
694.530	6875
694.566	6806
694.573	6789
694.616	6324
694.659	6189
694.686	5886
694.702	5845
694.745	5977
694.787	5897
694.806	5886
694.830	5835
694.873	5762
694.916	5434
694.926	5400
694.959	5596
695.002	5778
695.044	5690
695.046	5689
695.087	5896
695.130	5735
695.166	5792
695.172	5873
695.215	6151
695.258	6517
695.286	6550
695.301	6362
695.343	5980
695.386	5443
695.406	5336
695.428	5526
695.471	5546
695.514	5712
695.526	5708
695.556	5545
695.599	5535
695.641	5289
695.646	5259
695.684	5253
695.726	5111
695.766	5142
695.769	5175
695.811	5005
695.854	5281
695.886	5369
695.896	5435
695.938	5677
695.981	5807
696.005	5993
696.023	5941
696.065	5458
696.108	5317
696.125	5108
696.150	5106
696.192	5379
696.235	5323
696.245	5364
696.277	5371
696.319	5189
696.361	5116
696.365	5085
696.404	5482
696.446	6016
696.485	6355
696.488	6351
696.530	6203
696.572	5949
696.604	5746
696.614	5786
696.656	5894
696.698	6018
696.724	6129
696.740	6144
696.783	5941
696.825	5925
696.844	5851
696.867	5822
696.909	5661
696.951	5558
696.964	5563
696.992	5572
697.034	5412
697.076	5253
697.083	5206
697.118	5453
697.160	5780
697.202	6035
697.203	6025
697.244	5791
697.286	5529
697.323	5199
697.327	5268
697.369	5841
697.411	6337
697.442	6716
697.453	6693
697.494	6417
697.536	6304
697.562	6204
697.578	6345
697.620	6649
697.661	6820
697.682	6918
697.703	6776
697.744	6434
697.786	6254
697.801	6122
697.828	6463
697.869	6974
697.911	7482
697.921	7589
697.952	7168
697.994	6550
698.035	5992
698.040	5902
698.077	5919
698.118	5889
698.160	5885
698.160	5866
698.201	5917
698.243	5919
698.279	5927
698.284	5966
698.325	6130
698.367	6337
698.399	6448
698.408	6401
698.449	6136
698.491	5834
698.518	5613
698.532	5733
698.573	6046
698.614	6386
698.638	6562
698.656	6580
698.697	6547
698.738	6508
698.757	6483
698.779	6446
698.820	6328
698.862	6220
698.877	6157
698.903	6382
698.944	6720
698.985	7055
698.996	7130
699.026	7080
699.067	6980
699.116	6843
699.235	5331
699.354	6289
699.474	5617
699.593	7418
699.713	6196
699.832	7504
699.951	6783
700.070	6980
700.190	6235
700.309	7786
700.428	6527
700.547	7314
700.667	6811
700.786	7980
700.905	5481
701.024	6193
701.143	6452
701.262	6523
701.381	5821
701.500	6915
701.619	7224
701.738	6891
701.857	6498
701.976	6263
702.095	5831
702.214	6123
702.333	6488
702.452	7165
702.571	5566
702.690	6498
702.809	5328
702.928	6557
703.047	5592
703.165	6501
703.284	4690
703.403	6333
703.522	6096
703.640	6876
703.759	7173
703.878	8008
703.997	4797
704.115	6981
704.234	6218
704.353	5838
704.471	5480
704.590	5597
704.708	5017
704.827	5935
704.946	4894
705.064	5350
705.183	4694
705.301	6110
705.420	6974
705.538	8011
705.656	6029
705.775	7529
705.893	16914
706.012	25249
706.130	7668
706.249	6874
706.367	5587
706.485	6556
706.604	5516
706.722	6200
706.840	7959
706.958	8459
707.077	6056
707.195	6365
707.313	5904
707.431	6375
707.549	5552
707.668	5921
707.786	5730
707.904	6078
708.022	4925
708.140	4963
708.258	5012
708.376	5599
708.494	4852
708.612	6378
708.730	6868
708.848	7164
708.966	6153
709.084	6942
709.202	5911
709.320	6677
709.438	5490
709.556	6405
709.674	5821
709.791	6596
709.909	5372
710.027	6649
710.145	5566
710.263	6683
710.380	5664
710.498	6194
710.616	5975
710.733	5795
710.851	4775
710.969	5724
711.086	4924
711.204	7044
711.322	5188
711.439	5610
711.557	6290
711.674	6314
711.792	5476
711.909	7344
712.027	7803
712.144	5932
712.262	5285
712.379	6158
712.497	8096
712.614	8720
712.732	6741
712.849	6281
712.966	7016
713.084	8168
713.201	6573
713.318	6943
713.436	6742
713.553	6959
713.670	6460
713.787	7391
713.905	6993
714.022	6402
714.139	5611
714.256	7028
714.373	5737
714.490	8308
714.608	8382
714.725	22678
714.842	27388
714.959	6967
715.076	5365
715.193	5471
715.310	5314
715.427	6607
715.544	6989
715.661	8653
715.778	6895
715.895	5941
716.011	6345
716.128	6156
716.245	5620
716.362	7561
716.479	7137
716.596	6584
716.713	5833
716.829	6261
716.946	6206
717.063	6277
717.180	5047
717.296	5691
717.413	5883
717.530	5997
717.646	5496
717.763	5885
717.880	4828
717.996	5598
718.113	5289
718.229	5117
718.346	4635
718.462	5398
718.579	5691
718.695	10677
718.812	8112
718.928	6794
719.045	4606
719.161	4894
719.277	4893
719.394	6012
719.510	5661
719.626	5294
719.743	5131
719.859	4927
719.975	4811
720.092	8512
720.208	14174
720.324	6190
720.440	4868
720.557	5872
720.673	7737
720.789	10501
720.905	17886
721.021	8577
721.137	4347
721.253	5592
721.369	4319
721.486	5661
721.602	5954
721.718	5858
721.834	3144
721.950	4388
722.066	3448
722.181	4563
722.297	4470
722.413	5086
722.529	3310
722.645	3757
722.761	4528
722.877	4321
722.993	3603
723.108	4968
723.224	3884
723.340	4341
723.456	4413
723.571	4558
723.687	3577
723.803	5178
723.918	3081
724.034	4056
724.150	3869
724.265	4863
724.381	7186
724.497	9866
724.612	3395
724.728	4235
724.843	3853
724.959	4714
725.074	7798
725.190	8867
725.305	4473
725.421	4003
725.536	3397
725.651	4256
725.767	3276
725.882	3798
725.997	3574
726.113	4324
726.228	2729
726.343	3559
726.459	3864
726.574	3633
726.689	2940
726.804	3382
726.920	2895
727.035	3729
727.150	3375
727.265	3245
727.380	3840
727.495	4735
727.610	3956
727.725	4304
727.841	4572
727.956	11127
728.071	8913
728.186	4289
728.301	2650
728.416	3731
728.531	3879
728.645	4218
728.760	4384
728.875	6415
728.990	4839
729.105	5024
729.220	4570
729.335	4072
729.449	3521
729.564	3713
729.679	2746
729.794	3736
729.908	2972
730.023	2742
730.138	2452
730.253	3796
730.367	2448
730.482	3483
730.596	2632
730.711	3829
730.826	3190
730.940	3098
731.055	3749
731.169	3156
731.284	2668
731.398	2906
731.513	3284
731.627	3346
731.742	2830
731.856	3681
731.970	2700
732.085	3309
732.199	2677
732.313	3279
732.428	3144
732.542	6962
732.656	5231
732.771	4164
732.885	2219
732.999	3437
733.113	2697
733.227	3301
733.342	2998
733.456	3392
733.570	2303
733.684	2638
733.798	2717
733.912	3051
734.026	1931
734.140	3102
734.254	2567
734.368	4873
734.482	5591
734.596	2655
734.710	3277
734.824	3165
734.938	1270
735.052	3053
735.166	2563
735.280	3748
735.393	2716
735.507	2688
735.621	2540
735.735	4748
735.849	2430
735.962	1965
736.076	1705
736.190	4202
736.303	2796
736.417	5336
736.531	2294
736.644	3045
736.758	1783
736.872	2608
736.985	2334
737.099	2816
737.212	2035
737.326	2866
737.439	1818
737.553	2214
737.666	2543
737.780	3080
737.893	1722
738.007	2357
738.120	2017
738.233	3416
738.347	1955
738.460	3091
738.573	2718
738.687	2642
738.800	2344
738.913	4035
739.026	3251
739.140	2543
739.253	2928
739.366	2414
739.479	2898
739.592	2487
739.705	1734
739.818	2622
739.932	2435
740.045	3033
740.158	2490
740.271	3334
740.384	2925
740.497	3678
740.610	3990
740.723	3382
740.836	4179
740.949	4438
741.062	4525
741.174	4793
741.287	2710
741.400	3473
741.513	3656
741.626	5009
741.739	3430
741.851	4037
741.964	2812
742.077	4019
742.189	4763
742.302	13232
742.415	10217
742.527	4413
742.640	2861
742.753	2953
742.865	2135
742.978	2728
743.090	1941
743.203	2813
743.316	2224
743.428	2678
743.541	1870
743.653	2486
743.766	1841
743.878	3810
743.990	4926
744.103	11977
744.215	21528
744.327	7255
744.440	4622
744.552	5513
744.664	1793
744.777	2976
744.889	1781
745.001	2606
745.113	1512
745.226	2036
745.338	1635
745.450	1929
745.562	1349
745.674	2206
745.786	1313
745.898	2487
746.010	2314
746.122	2042
746.234	1174
746.347	3124
746.459	3281
746.570	5282
746.682	11991
746.794	33215
746.906	13592
747.018	4367
747.130	2349
747.242	3540
747.354	1701
747.466	3109
747.577	1419
747.689	2877
747.801	1692
747.913	2817
748.024	1288
748.136	1981
748.248	1717
748.359	2782
748.471	1771
748.583	1941
748.694	1064
748.806	2824
748.918	1760
749.029	3164
749.141	1996
749.252	3058
749.364	2633
749.475	4232
749.587	3629
749.698	2644
749.809	2165
749.921	2202
750.032	1954
750.144	1462
750.255	2098
750.366	2146
750.478	1632
750.589	2149
750.700	1207
750.811	3342
750.923	2687
751.034	4894
751.145	6087
751.256	2035
751.367	1090
751.479	2242
751.590	1385
751.701	1752
751.812	1402
751.923	2726
752.034	1470
752.145	1933
752.256	1500
752.367	2007
752.478	1613
752.589	2073
752.700	1547
752.811	2170
752.922	1319
753.032	2529
753.143	2026
753.254	1138
753.365	1013
753.476	1227
753.586	1416
753.697	2192
753.808	969
753.919	2279
754.029	1231
754.140	1372
754.251	1239
754.361	1211
754.472	2145
754.582	2117
754.693	1903
754.804	2439
754.914	969
755.025	2039
755.135	1699
755.246	2049
755.356	1295
755.466	1706
755.577	2045
755.687	2349
755.798	1631
755.908	2307
756.018	1359
756.129	1349
756.239	1919
756.349	1533
756.460	1306
756.570	2739
756.680	1509
756.790	2520
756.900	2258
757.011	1988
757.121	511
757.231	1864
757.341	2079
757.451	2002
757.561	961
757.671	1362
757.781	1007
757.891	3017
758.001	1825
758.111	2408
758.221	2486
758.331	2720
758.441	2239
758.551	3368
758.661	3457
758.771	2710
758.880	1026
758.990	1924
759.100	1329
759.210	2718
759.320	2352
759.429	1825
759.539	1698
759.649	3226
759.758	1644
759.868	2639
759.978	1486
760.087	3001
760.197	2192
760.307	2674
760.416	2446
760.526	2225
760.635	1946
760.745	3023
760.854	1538
760.964	3306
761.073	2556
761.182	2837
761.292	2337
761.401	4621
761.511	2736
761.620	3550
761.729	2627
761.839	3724
761.948	3111
762.057	3598
762.166	3648
762.276	2605
762.385	3967
762.494	3933
762.603	3014
762.712	3988
762.822	3600
762.931	4397
763.040	4285
763.149	5013
763.258	4216
763.367	5616
763.476	4640
763.585	5235
763.694	5542
763.803	6287
763.912	6056
764.021	7669
764.130	6551
764.238	6836
764.347	8010
764.456	8289
764.565	7847
764.674	9456
764.783	9380
764.891	10741
765.000	12932
765.109	14637
765.217	15774
765.326	19729
765.435	23190
765.543	29567
765.652	34840
765.761	46593
765.869	65324
765.978	97529
766.086	152875
766.195	269213
766.303	514342
766.412	827757
766.520	712055
766.629	461704
766.737	239200
766.846	140258
766.954	93210
767.062	64932
767.171	49286
767.279	36770
767.387	28541
767.496	24703
767.604	19920
767.712	17471
767.820	15668
767.928	15009
768.037	13008
768.145	13959
768.253	13006
768.361	11773
768.469	12189
768.577	13099
768.685	12208
768.793	14330
768.901	14435
769.009	18004
769.117	20916
769.225	28795
769.333	38399
769.441	61852
769.549	105265
769.657	214932
769.765	487114
769.873	695065
769.981	443551
770.088	188110
770.196	93152
770.304	59011
770.412	39788
770.519	30739
770.627	22612
770.735	18821
770.842	14515
770.950	13457
771.058	11322
771.165	11225
771.273	9973
771.380	8818
771.488	7555
771.595	7272
771.703	6604
771.810	7700
771.918	5391
772.025	6155
772.133	4993
772.240	4990
772.348	4646
772.455	4752
772.562	3602
772.670	4112
772.777	3733
772.884	3723
772.991	4216
773.099	3743
773.206	2605
773.313	3495
773.420	3178
773.528	2806
773.635	2693
773.742	3120
773.849	2679
773.956	2491
774.063	2575
774.170	2775
774.277	2884
774.384	3349
774.491	1214
774.598	2403
774.705	1514
774.812	2715
774.919	2605
775.026	2756
775.133	2090
775.239	2607
775.346	1935
775.453	2472
775.560	1229
775.667	1867
775.773	1356
775.880	3335
775.987	1511
776.093	2746
776.200	1144
776.307	2436
776.413	2654
776.520	2060
776.627	2976
776.733	3238
776.840	3102
776.946	8835
777.053	21644
777.159	60759
777.266	35707
777.372	49236
777.478	41662
777.585	20172
777.691	3806
777.798	3352
777.904	2799
778.010	4706
778.117	2385
778.223	2294
778.329	1371
778.435	1540
778.542	1740
778.648	1351
778.754	311
778.860	2014
778.966	845
779.072	1862
779.178	1359
779.284	1045
779.391	865
779.497	1325
779.603	3789
779.708	3170
779.815	8356
779.920	28439
780.026	66137
780.132	12122
780.238	2338
780.344	1358
780.450	1894
780.556	2669
780.661	1340
780.767	1877
780.873	709
780.979	2478
781.085	314
781.190	922
781.296	635
781.402	1759
781.507	620
781.613	1778
781.719	142
781.824	594
781.930	545
782.035	1627
782.141	196
782.246	836
782.352	76
782.457	1470
782.563	-318
782.668	215
782.773	1595
782.879	1053
782.984	1697
783.090	1779
783.195	1931
783.300	2372
783.405	972
783.511	1677
783.616	694
783.721	1047
783.826	901
783.932	1717
784.037	258
784.142	1046
784.247	444
784.352	1395
784.457	-283
784.562	791
784.667	-16
784.772	1266
784.877	487
784.982	605
785.087	538
785.192	1773
785.297	357
785.402	1046
785.507	275
785.611	655
785.716	566
785.821	1036
785.926	-231
786.031	795
786.135	-291
786.240	929
786.345	-726
786.450	1363
786.554	276
786.659	887
786.763	-466
786.868	1611
786.973	1102
787.077	677
787.182	-231
787.286	1211
787.391	779
787.495	-88
787.600	151
787.704	720
787.809	-277
787.913	552
788.017	377
788.122	941
788.226	521
788.330	335
788.435	-358
788.539	662
788.643	-140
788.747	1060
788.852	488
788.956	703
789.060	1572
789.164	957
789.268	-764
789.372	1443
789.476	-675
789.580	1081
789.684	-403
789.788	585
789.892	-473
789.996	779
790.100	-260
790.204	1187
790.308	242
790.412	1010
790.516	948
790.620	1378
790.724	390
790.828	1085
790.931	-172
791.035	1744
791.139	609
791.242	11
791.346	1391
791.450	839
791.554	656
791.657	591
791.761	1985
791.864	2097
791.968	853
792.072	784
792.175	-243
792.279	830
792.382	912
792.486	1672
792.589	590
792.693	550
792.796	240
792.899	1656
793.003	963
793.106	305
793.209	261
793.313	2214
793.416	-895
793.519	1957
793.623	844
793.726	2152
793.829	182
793.932	818
794.035	-1075
794.138	2245
794.242	1841
794.345	1575
794.448	2239
794.551	4849
794.654	16017
794.757	35943
794.860	7933
794.963	2248
795.066	1299
795.169	3028
795.272	310
795.375	819
795.477	366
795.580	1855
795.683	-1163
795.786	90
795.889	-647
795.991	1131
796.094	1408
796.197	-704
796.300	824
796.402	585
796.505	-858
796.608	702
796.710	581
796.813	530
796.915	-219
797.018	1092
797.120	443
797.223	-507
797.326	977
797.428	497
797.530	-517
797.633	1084
797.735	853
797.838	713
797.940	695
798.042	508
798.145	-623
798.247	466
798.349	-1671
798.452	993
798.554	-590
798.656	-647
798.758	827
798.860	558
798.962	-263
799.065	-704
799.167	-852
799.269	1883
799.371	484
799.473	452
799.575	-1092
799.677	214
799.779	1221
799.881	395
799.983	1309
800.085	74
800.187	96
800.289	-123
800.390	-351
800.492	395
800.594	528
800.696	-66
800.798	291
800.899	-118
801.001	-617
801.103	230
801.205	-685
801.306	489
801.408	-425
801.509	400
801.611	-47
801.713	868
801.814	-472
801.916	444
802.017	258
802.119	-657
802.220	396
802.322	-1489
802.423	964
802.525	-1120
802.626	-550
802.727	1141
802.829	-216
802.930	-669
803.031	201
803.133	584
803.234	-934
803.335	93
803.436	-1210
803.538	54
803.639	-922
803.740	869
803.841	-1265
803.942	1087
804.043	239
804.144	-713
804.245	-77
804.346	-471
804.447	-955
804.548	-5
804.649	1176
804.750	100
804.851	-1692
804.952	-261
805.053	-331
805.154	-339
805.255	363
805.355	-78
805.456	230
805.557	226
805.658	-1243
805.758	930
805.859	-638
805.960	271
806.061	-908
806.161	-263
806.262	-285
806.362	-486
806.463	-991
806.564	280
806.664	-695
806.765	208
806.865	-254
806.966	-159
807.066	-1074
807.166	1271
807.267	-814
807.367	-125
807.468	-641
807.568	-965
807.668	124
807.769	797
807.869	-816
807.969	-280
808.069	-819
808.170	424
808.270	-1183
808.370	93
808.470	-31
808.570	-108
808.670	-643
808.770	201
808.870	-476
808.970	115
809.070	-799
809.170	-916
809.271	-517
809.370	-61
809.470	-662
809.570	-293
809.670	-233
809.770	-475
809.870	-154
809.970	-78
810.070	-514
810.169	700
810.269	-2267
810.369	876
810.469	-1418
810.568	-708
810.668	-924
810.768	1
810.867	39
810.967	-218
811.066	-1197
811.166	-550
811.265	-13
811.365	-560
811.464	-259
811.564	218
811.663	-341
811.763	-1016
811.862	363
811.962	-125
812.061	-862
812.160	-355
812.260	-282
812.359	-30
812.458	-410
812.557	2540
812.657	3759
812.756	1599
812.855	-663
812.954	-195
813.053	-866
813.153	328
813.252	-1483
813.351	529
813.450	-904
813.549	-645
813.648	-672
813.747	-27
813.846	-382
813.945	-367
814.044	-1322
814.143	-118
814.242	-81
814.341	-210
814.439	282
814.538	204
814.637	-1216
814.736	-272
814.835	-216
814.933	-43
815.032	-550
815.131	-274
815.229	-524
815.328	23
815.427	-1279
815.525	-227
815.624	-93
815.722	-698
815.821	-590
815.919	319
816.018	-1110
816.116	1061
816.215	-812
816.313	38
816.412	-45
816.510	182
816.609	1401
816.707	37
816.805	-203
816.904	634
817.002	-99
817.100	1843
817.198	637
817.296	660
817.395	52
817.493	2867
817.591	1094
817.689	2533
817.787	3181
817.885	7233
817.983	14756
818.081	30986
818.179	75929
818.277	190571
818.375	193022
818.473	60446
818.571	22493
818.669	14526
818.767	15892
818.865	13484
818.963	11450
819.061	16435
819.158	27989
819.256	61476
819.354	143586
819.452	328843
819.549	245472
819.647	71940
819.745	26439
819.842	15457
819.940	9625
820.038	8377
820.135	5874
820.233	5761
820.330	2103
820.428	2299
820.525	2797
820.623	1451
820.720	851
820.818	2792
820.915	2353
821.012	3207
821.110	1843
821.207	2607
821.304	1490
821.402	3786
821.499	8262
821.596	18946
821.693	10143
821.791	3484
821.888	1559
821.985	3443
822.082	2762
822.179	5526
822.276	7698
822.373	3890
822.470	-27
822.567	1191
822.664	-929
822.761	760
822.858	-1809
822.955	903
823.052	511
823.149	188
823.246	-800
823.343	578
823.440	272
823.536	569
823.633	-850
823.730	-612
823.827	132
823.923	376
824.020	1706
824.117	3096
824.213	4939
824.310	3451
824.407	-748
824.503	-542
824.600	-902
824.696	-161
824.793	-830
824.889	-401
824.986	-49
825.082	104
825.179	-70
825.275	57
825.371	-1500
825.468	131
825.564	-1273
825.660	335
825.757	-739
825.853	332
825.949	-1160
826.045	78
826.142	-923
826.238	124
826.334	-96
826.430	-497
826.526	-1207
826.622	-783
826.718	-418
826.814	-1307
826.910	929
827.006	-455
827.102	-1463
827.198	396
827.294	-1190
827.390	-932
827.486	-375
827.582	-831
827.678	-1281
827.774	-139
827.869	-1331
827.965	955
828.061	-1594
828.157	-91
828.252	-846
828.348	-1230
828.444	-743
828.539	-918
828.635	-796
828.731	257
828.826	-1272
828.922	46
829.017	-1405
829.113	-547
829.208	-1831
829.304	-993
829.399	12
829.495	-1471
829.590	-550
829.685	-979
829.781	-626
829.876	-1268
829.971	-851
830.066	-224
830.162	-1646
830.257	-246
830.352	-1636
830.447	352
830.543	-1069
830.638	-1082
830.733	487
830.828	-376
830.923	-1313
831.018	-668
831.113	-665
831.208	-1309
831.303	-1078
831.398	-260
831.493	-672
831.588	254
831.683	-1012
831.778	-545
831.873	-1420
831.967	308
832.062	-1069
832.157	-1224
832.252	-431
832.346	-663
832.441	-609
832.536	-406
832.631	724
832.725	1202
832.820	-1140
832.914	-1175
833.009	-1780
833.104	511
833.198	-400
833.293	-610
833.387	-1383
833.482	-763
833.576	-1442
833.670	-160
833.765	-1847
833.859	-1165
833.954	-499
834.048	-520
834.142	-515
834.237	-702
834.331	-682
834.425	52
834.519	-2442
834.613	-63
834.708	-1444
834.802	-225
834.896	-1335
834.990	-1203
835.084	-627
835.178	-1205
835.272	-1362
835.366	-1916
835.460	-103
835.554	-799
835.648	-857
835.742	-691
835.836	-269
835.930	-1295
836.024	-840
836.117	205
836.211	-1145
836.305	109
836.399	-537
836.493	-639
836.586	-435
836.680	-1323
836.774	-1309
836.867	729
836.961	-1947
837.055	-1031
837.148	-1539
837.242	184
837.335	-1620
837.429	-673
837.522	-1203
837.616	-357
837.709	-162
837.803	-1872
837.896	-463
837.989	-628
838.083	-726
838.176	206
838.269	-999
838.363	-19
838.456	-1511
838.549	194
838.642	-1281
838.735	1806
838.829	9
838.922	-1022
839.015	365
839.108	-1332
839.201	-437
839.294	-567
839.387	-374
839.480	-1030
839.573	-1126
839.666	-57
839.759	-936
839.852	-1057
839.945	-1593
840.038	-700
840.131	-881
840.223	-1195
840.316	-578
840.409	-657
840.502	-2056
840.594	-393
840.687	-2333
840.780	-551
840.873	-1178
840.965	-1117
841.058	-330
841.150	-123
841.243	-1220
841.336	-324
841.428	-803
841.521	-505
841.613	-2162
841.706	-333
841.798	-1113
841.890	-491
841.983	-2223
842.075	-334
842.167	-803
842.260	-1060
842.352	-413
842.444	-246
842.537	-290
842.629	1053
842.721	-255
842.813	-661
842.905	-1718
842.997	54
843.090	-1466
843.182	-647
843.274	-1450
843.366	2368
843.458	4161
843.550	3417
843.642	-1441
843.734	-486
843.826	-339
843.918	129
844.009	-777
844.101	-377
844.193	547
844.285	669
844.377	2754
844.469	6733
844.560	11841
844.652	12032
844.744	3216
844.835	229
844.927	-1016
845.019	-241
845.110	-796
845.202	-775
845.293	-1347
845.385	-480
845.476	-743
845.568	-461
845.659	-1152
845.751	379
845.842	-2037
845.934	-790
846.025	-1226
846.116	-620
846.208	-1721
846.299	-898
846.390	-830
846.482	36
846.573	-979
846.664	-792
846.755	-56
846.846	660
846.937	-2967
847.029	-939
847.120	-1834
847.211	-1517
847.302	-639
847.393	-668
847.484	-237
847.575	14
847.666	-1211
847.757	-1128
847.847	-1127
847.938	-218
848.029	-1750
848.120	-1027
848.211	-1134
848.302	-1140
848.392	-621
848.483	-689
848.574	-2056
848.664	-1176
848.755	-1153
848.846	-809
848.936	-1500
849.027	-309
849.118	-1327
849.208	-1466
849.299	-627
849.389	-1032
849.480	-1053
849.570	-1199
849.661	-228
849.751	1621
849.841	-764
849.932	-885
850.022	-1049
850.112	-18
850.203	-939
850.293	-310
850.383	-1715
850.474	-1033
850.564	-1407
850.654	-179
850.744	-1051
850.834	-1159
850.924	-1067
851.014	-334
851.104	-2017
851.194	-780
851.284	-1547
851.374	-519
851.464	-1506
851.554	492
851.644	-1419
851.734	-366
851.824	-1182
851.914	-971
852.004	-605
852.094	-924
852.183	-667
852.273	45
852.363	-2198
852.452	-560
852.542	-1434
852.632	-1170
852.721	-931
852.811	-1966
852.901	-2043
852.990	-1033
853.080	-1617
853.169	-1079
853.259	-1388
853.348	-1516
853.438	-1313
853.527	213
853.617	-541
853.706	-126
853.795	-925
853.885	2202
853.974	3418
854.063	8460
854.152	14171
854.242	5660
854.331	-1099
854.420	-1103
854.509	-638
854.598	-1202
854.687	-1050
854.777	-580
854.866	-2028
854.955	-120
855.044	-952
855.133	-1306
855.222	-1738
855.311	-593
855.400	-265
855.488	-39
855.577	-1418
855.666	375
855.755	671
855.844	-113
855.933	-609
856.021	-1003
856.110	-994
856.199	-268
856.288	-1444
856.376	-680
856.465	-729
856.554	-203
856.642	-420
856.731	212
856.819	-283
856.908	-1358
856.996	-1941
857.085	-486
857.173	-1223
857.262	-1351
857.350	-812
857.438	75
857.527	-1806
857.615	-992
857.703	-1151
857.792	-1597
857.880	-1005
857.968	-1010
858.056	-1134
858.145	-599
858.233	-1388
858.321	-822
858.409	-1056
858.497	-771
858.585	-2267
858.673	-785
858.761	-1703
858.849	-758
858.937	-1302
859.025	-553
859.113	-994
859.201	-180
859.289	569
859.377	1236
859.465	-468
859.552	66
859.640	-775
859.728	-1013
859.816	-1492
859.903	287
859.991	-1554
860.079	-1242
860.166	-1513
860.254	-1196
860.342	-1380
860.429	-1599
860.517	-2486
860.604	-1273
860.692	-1037
860.779	-711
860.867	-1796
860.954	-488
861.042	-1263
861.129	-100
861.216	-1229
861.304	-1190
861.391	-861
861.478	-1855
861.565	-1372
861.653	-261
861.740	-1639
861.827	-620
861.914	-834
862.001	178
862.089	-1115
862.176	-656
862.263	-533
862.350	-760
862.437	-1037
862.524	-267
862.611	17
862.698	2307
862.785	2802
862.871	4411
862.958	1223
863.045	-218
863.132	-1816
863.219	-1013
863.306	-1554
863.392	284
863.479	-787
863.566	-460
863.652	-1233
863.739	-1420
863.826	-934
863.912	-1247
863.999	-2370
864.086	-1142
864.172	-1444
864.259	-1399
864.345	-984
864.432	-862
864.518	-1190
864.604	-934
864.691	-1192
864.777	-1108
864.863	-1129
864.950	-6
865.036	-1892
865.122	-1264
865.209	-1119
865.295	-588
865.381	-951
865.467	834
865.553	-214
865.639	-987
865.726	-681
865.812	274
865.898	1457
865.984	2272
866.070	4948
866.156	7981
866.242	327
866.328	-368
866.414	-1262
866.499	-968
866.585	-1467
866.671	-1002
866.757	-1562
866.843	-562
866.928	-1957
867.014	-1083
867.100	-1458
867.186	-278
867.271	-994
867.357	181
867.442	27
867.528	1456
867.614	998
867.699	4402
867.785	5855
867.870	11089
867.956	14553
868.041	8766
868.127	4692
868.212	8498
868.297	7248
868.383	3471
868.468	2312
868.553	3960
868.639	1501
868.724	1847
868.809	1152
868.894	715
868.979	-1571
869.065	-505
869.150	-1658
869.235	-319
869.320	-1494
869.405	-736
869.490	-1492
869.575	-1129
869.660	-1832
869.745	-661
869.830	-2030
869.915	-13
870.000	-632
870.085	399
870.169	741
870.254	2465
870.339	-457
870.424	-1110
870.509	-903
870.593	-569
870.678	-1009
870.763	-336
870.847	127
870.932	401
871.016	1648
871.101	2024
871.186	-710
871.270	-262
871.355	-524
871.439	-1
871.523	-817
871.608	7
871.692	866
871.777	1961
871.861	612
871.945	-875
872.030	-1193
872.114	-719
872.198	-1435
872.282	-1343
872.367	-1123
872.451	-578
872.535	-2060
872.619	-609
872.703	-1457
872.787	-206
872.871	-1109
872.955	-395
873.039	-1884
873.123	-962
873.207	-685
873.291	-829
873.375	-1994
873.459	-1273
873.543	-1462
873.627	-1100
873.711	-1076
873.794	171
873.878	-1645
873.962	-1325
874.045	-859
874.129	-72
874.137	-200
874.213	-1480
874.245	-1363
874.296	-1172
874.352	-1542
874.380	-1727
874.460	-877
874.464	-843
874.547	-1020
874.568	-649
874.631	417
874.676	-630
874.714	-1477
874.784	-679
874.798	-528
874.881	-425
874.892	-504
874.965	-1016
874.999	-957
875.048	-918
875.107	-597
875.131	-448
875.215	-494
875.215	-494
875.298	-766
875.323	-991
875.381	-1555
875.430	-1284
875.465	-1065
875.538	-1106
875.548	-1113
875.631	-954
875.646	-1102
875.714	-1896
875.753	-1441
875.798	-843
875.861	-1574
875.881	-1811
875.964	-1233
875.968	-1222
876.047	-1043
876.076	-822
876.130	-431
876.183	-1036
876.213	-1356
876.291	-363
876.296	-299
876.379	-1507
876.398	-1263
876.462	-407
876.506	-537
876.545	-663
876.613	-699
876.628	-679
876.711	-1042
876.721	-914
876.794	-162
876.828	-363
876.877	-594
876.935	-417
876.960	-349
877.043	-1087
877.043	-1085
877.125	-309
877.150	-326
877.208	-619
877.258	-237
877.291	108
877.365	-471
877.374	-536
877.456	-274
877.472	-280
877.539	-293
877.579	-249
877.622	-320
877.687	-565
877.704	-597
877.787	-104
877.794	-180
877.869	-1094
877.901	-763
877.952	-81
878.008	-514
878.034	-791
878.115	-340
878.117	-326
878.199	-599
878.222	-284
878.282	351
878.329	-75
878.364	-312
878.437	-216
878.447	-214
878.529	-1103
878.544	-995
878.611	-549
878.651	-576
878.694	-491
878.758	-337
878.776	-319
878.858	-589
878.865	-570
878.941	-351
878.972	-386
879.023	-434
879.078	-466
879.105	-405
879.185	-794
879.187	-807
879.269	-574
879.292	-704
879.351	-746
879.399	-542
879.433	-536
879.506	-1219
879.516	-1292
879.598	-1115
879.613	-1188
879.680	-1378
879.720	-964
879.762	-636
879.827	-555
879.844	-506
879.926	-784
879.933	-767
880.007	-796
880.040	-921
880.089	-687
880.147	-291
880.171	-339
880.253	375
880.254	370
880.335	-277
880.360	-152
880.417	278
880.467	863
880.499	1448
880.574	3516
880.580	3567
880.662	481
880.680	213
880.744	-382
880.787	-850
880.825	-1120
880.893	-1139
880.907	-1114
880.989	-933
881.000	-894
881.070	-443
881.106	-319
881.152	-239
881.213	66
881.233	6
881.315	-1282
881.319	-1273
881.396	-394
881.426	-437
881.478	-544
881.532	-23
881.559	172
881.639	-809
881.641	-828
881.722	-190
881.745	-302
881.803	-453
881.852	-492
881.885	-593
881.958	-71
881.966	-3
882.047	-293
882.064	-290
882.129	-250
882.171	14
882.210	229
882.277	11
882.291	-29
882.372	110
882.383	27
882.454	-646
882.489	-654
882.535	-495
882.596	-571
882.616	-612
882.697	-559
882.702	-556
882.778	-334
882.808	-198
882.859	-167
882.914	-418
882.940	-402
883.020	75
883.021	80
883.102	-206
883.127	-251
883.183	-389
883.233	-416
883.264	-470
883.339	-608
883.345	-603
883.426	-724
883.445	-595
883.507	33
883.551	-192
883.587	-678
883.657	-715
883.668	-595
883.749	-465
883.763	-291
883.830	-150
883.869	-530
883.910	-365
883.975	169
883.991	41
884.072	-840
884.081	-881
884.152	-252
884.187	-159
884.233	-302
884.292	-260
884.314	-205
884.394	-438
884.398	-443
884.475	-484
884.504	-445
884.555	-511
884.610	-706
884.636	-538
884.716	-44
884.716	-38
884.797	221
884.821	256
884.877	-134
884.927	-592
884.958	-422
885.033	-71
885.038	-81
885.118	212
885.139	76
885.199	-283
885.244	-78
885.279	-32
885.350	-546
885.359	-558
885.439	-252
885.456	-336
885.520	-704
885.561	-543
885.600	-199
885.667	175
885.680	160
885.760	-43
885.773	-70
885.840	-49
885.878	16
885.920	101
885.984	-51
886.000	-146
886.080	-171
886.089	-259
886.160	-978
886.195	-976
886.240	-360
886.300	16
886.320	-73
886.400	-76
886.406	-92
886.480	-165
886.511	-154
886.560	-58
886.616	-60
886.640	-137
886.720	-306
886.722	-321
886.800	-294
886.827	-93
886.879	-59
886.932	-275
886.959	-243
887.038	-48
887.039	-40
887.119	86
887.143	169
887.198	342
887.248	341
887.278	99
887.354	-351
887.358	-322
887.437	195
887.459	309
887.517	477
887.564	554
887.596	435
887.669	262
887.676	239
887.755	-170
887.774	-250
887.835	-84
887.880	9
887.914	196
887.985	531
887.994	474
888.073	-124
888.090	-216
888.153	201
888.195	337
888.232	256
888.300	312
888.311	360
888.391	471
888.405	509
888.470	797
888.510	912
888.549	793
888.615	709
888.628	633
888.708	-13
888.720	-98
888.787	36
888.825	11
888.866	67
888.930	344
888.945	329
889.024	82
889.035	57
889.103	-66
889.140	-170
889.182	-112
889.245	17
889.261	-12
889.340	-181
889.349	-201
889.419	214
889.454	414
889.498	441
889.559	506
889.577	521
889.656	557
889.664	560
889.735	79
889.768	-153
889.814	256
889.873	800
889.978	563
890.083	-2
890.187	1486
890.292	25
890.397	721
890.501	753
890.606	678
890.710	385
890.815	102
890.919	629
891.024	-496
891.128	727
891.233	328
891.337	359
891.442	334
891.546	320
891.650	541
891.755	118
891.859	413
891.963	467
892.068	665
892.172	195
892.276	-348
892.380	1263
892.484	59
892.589	885
892.693	578
892.797	622
892.901	502
893.005	31
893.109	586
893.213	736
893.317	130
893.421	160
893.525	-78
893.629	-154
893.733	106
893.837	265
893.941	-137
894.045	887
894.148	-178
894.252	1465
894.356	-120
894.460	-3
894.564	-324
894.667	-103
894.771	-557
894.875	250
894.978	270
895.082	-70
895.186	818
895.289	458
895.393	-157
895.496	143
895.600	-780
895.703	-927
895.807	341
895.910	213
896.014	-551
896.117	-830
896.221	400
896.324	274
896.427	-144
896.531	-609
896.634	-274
896.737	-280
896.840	-332
896.944	14
897.047	-481
897.150	-223
897.253	-230
897.356	342
897.460	-427
897.563	-41
897.666	-340
897.769	542
897.872	-19
897.975	539
898.078	-493
898.181	136
898.284	-257
898.387	-54
898.490	-118
898.593	620
898.695	-601
898.798	200
898.901	57
899.004	361
899.107	62
899.209	243
899.312	62
899.415	462
899.518	-1167
899.620	-196
899.723	-173
899.826	896
899.928	607
900.031	392
900.133	561
900.236	448
900.338	-518
900.441	130
900.543	-333
900.646	20
900.748	-189
900.851	754
900.953	-446
901.055	59
901.158	-582
901.260	-311
901.362	609
901.465	-147
901.567	232
901.669	823
901.771	-605
901.873	-55
901.976	-154
902.078	28
902.180	-418
902.282	192
902.384	272
902.486	396
902.588	-21
902.690	168
902.792	662
902.894	735
902.996	-92
903.098	-136
903.200	493
903.302	329
903.404	-497
903.505	-96
903.607	-253
903.709	392
903.811	-604
903.913	-149
904.014	-451
904.116	366
904.218	-22
904.319	1134
904.421	1716
904.523	2487
904.624	1263
904.726	849
904.827	1058
904.929	1441
905.030	1275
905.132	877
905.233	661
905.335	81
905.436	-295
905.537	-128
905.639	-258
905.740	280
905.841	263
905.943	1152
906.044	2061
906.145	1687
906.247	94
906.348	31
906.449	684
906.550	-152
906.651	-313
906.752	328
906.854	198
906.955	-118
907.056	-330
907.157	-519
907.258	99
907.359	-320
907.460	-133
907.561	63
907.662	-575
907.762	90
907.863	-170
907.964	610
908.065	56
908.166	411
908.267	-254
908.367	-79
908.468	-125
908.569	359
908.670	-368
908.770	-75
908.871	-175
908.971	-79
909.072	-109
909.173	156
909.273	-213
909.374	-8
909.474	-256
909.575	-43
909.675	-1631
909.776	153
909.876	-890
909.977	274
910.077	-216
910.177	152
910.278	-885
910.378	-640
910.478	-379
910.579	-766
910.679	-35
910.779	32
910.879	278
910.980	-61
911.080	-759
911.180	-474
911.280	-399
911.380	-282
911.480	-245
911.580	-610
911.680	635
911.780	39
911.880	-312
911.980	-368
912.080	-668
912.180	-586
912.280	290
912.380	-69
912.480	-64
912.580	837
912.679	-98
912.779	-152
912.879	264
912.979	-450
913.078	97
913.178	701
913.278	-250
913.377	-245
913.477	-665
913.577	-260
913.676	172
913.776	-828
913.875	-204
913.975	-135
914.074	-131
914.174	80
914.273	-188
914.373	119
914.472	-529
914.572	-1242
914.671	-765
914.770	-268
914.870	-438
914.969	-15
915.068	-686
915.167	-111
915.267	-182
915.366	78
915.465	-545
915.564	-527
915.663	-1187
915.763	-303
915.862	-2
915.961	-152
916.060	-363
916.159	-124
916.258	-520
916.357	371
916.456	-314
916.555	-297
916.654	-440
916.752	385
916.851	-547
916.950	880
917.049	123
917.148	-839
917.247	167
917.345	-362
917.444	-1302
917.543	-305
917.642	-237
917.740	668
917.839	-330
917.937	-17
918.036	-550
918.135	168
918.233	-475
918.332	525
918.430	-737
918.529	33
918.627	-641
918.726	-36
918.824	-404
918.923	-312
919.021	-1201
919.119	537
919.218	-493
919.316	-73
919.414	-64
919.512	-572
919.611	-634
919.709	607
919.807	-28
919.905	-225
920.003	-82
920.102	-67
920.200	-255
920.298	-249
920.396	153
920.494	-324
920.592	-700
920.690	323
920.788	-157
920.886	-516
920.984	-332
921.082	-208
921.180	172
921.277	-130
921.375	296
921.473	-127
921.571	-962
921.669	-418
921.766	278
921.864	-628
921.962	-3
922.060	50
922.157	-130
922.255	-230
922.352	-63
922.450	436
922.548	-217
922.645	-320
922.743	-372
922.840	-863
922.938	-1178
923.035	-213
923.133	-784
923.230	-72
923.327	97
923.425	-507
923.522	33
923.619	118
923.717	-1309
923.814	333
923.911	-210
924.008	141
924.106	-710
924.203	297
924.300	-809
924.397	-264
924.494	590
924.591	-291
924.688	-606
924.786	154
924.883	249
924.979	-207
925.077	-269
925.173	-350
925.270	-182
925.367	-75
925.464	359
925.561	174
925.658	818
925.755	958
925.852	485
925.948	843
926.045	3007
926.142	1893
926.239	3474
926.335	3216
926.432	2845
926.529	4071
926.625	4456
926.722	2685
926.818	1021
926.915	409
927.011	-293
927.108	66
927.204	-514
927.301	-200
927.397	-408
927.494	-647
927.590	-568
927.687	441
927.783	-662
927.879	-762
927.976	-1302
928.072	-200
928.168	-364
928.264	-245
928.361	-100
928.457	-184
928.553	-615
928.649	-526
928.745	-517
928.841	-627
928.937	-1375
929.033	-52
929.129	-425
929.225	-546
929.321	-456
929.417	28
929.513	-389
929.609	-334
929.705	-669
929.801	-18
929.897	-942
929.993	-691
930.089	-50
930.184	97
930.280	-651
930.376	-602
930.471	-1075
930.567	-253
930.663	-253
930.758	-869
930.854	-740
930.950	-459
931.045	-968
931.141	358
931.236	-611
931.332	-820
931.427	-967
931.523	-822
931.618	-652
931.714	-435
931.809	-662
931.905	106
932.000	-363
932.095	-355
932.191	-199
932.286	-1252
932.381	-1159
932.476	-1215
932.572	-1115
932.667	-119
932.762	-1016
932.857	-3
932.952	-682
933.047	-113
933.142	-404
933.237	-839
933.332	-1075
933.427	-705
933.522	-786
933.617	140
933.712	-165
933.807	-491
933.902	-511
933.997	-669
934.092	-1415
934.187	-54
934.282	-900
934.376	-908
934.471	-697
934.566	-689
934.661	-256
934.755	-227
934.850	-530
934.945	-597
935.039	-158
935.134	-716
935.228	-1324
935.323	-494
935.417	-1137
935.512	-1148
935.606	-604
935.701	-612
935.795	-221
935.890	-226
935.984	-708
936.079	-933
936.173	-305
936.267	-1018
936.362	-1028
936.456	-782
936.550	-728
936.644	-556
936.738	-1325
936.833	-1455
936.927	-388
937.021	200
937.115	-672
937.209	-887
937.303	220
937.397	-93
937.491	-514
937.585	-519
937.679	-159
937.773	-326
937.867	-268
937.961	-227
938.055	-569
938.149	553
938.243	-210
938.337	-753
938.430	170
938.524	2186
938.618	5281
938.712	3929
938.805	398
938.899	376
938.993	11
939.086	2730
939.180	6946
939.274	8740
939.367	1527
939.461	-928
939.554	-488
939.648	-292
939.741	-971
939.835	209
939.928	-1008
940.022	-49
940.115	-942
940.208	-1120
940.302	-314
940.395	-145
940.488	-1728
940.582	181
940.675	-1219
940.768	394
940.861	-303
940.954	-744
941.048	-1613
941.141	-207
941.234	-309
941.327	254
941.420	1928
941.513	1021
941.606	-1187
941.699	-256
941.792	-726
941.885	-858
941.978	-1041
942.071	-461
942.164	-1024
942.257	-349
942.349	-150
942.442	-360
942.535	-1037
942.628	-846
942.721	-1201
942.813	-1391
942.906	-373
942.999	-1032
943.091	-864
943.184	-1067
943.277	-1122
943.369	-120
943.462	-838
943.554	-305
943.647	-1456
943.739	-5
943.832	-568
943.924	-1146
944.017	-676
944.109	-954
944.201	-649
944.294	-341
944.386	-552
944.478	159
944.571	-579
944.663	-721
944.755	-442
944.847	-797
944.940	-942
945.032	-926
945.124	-376
945.216	593
945.308	-1501
945.400	-645
945.492	-1688
945.584	-1112
945.676	-803
945.768	-182
945.860	-930
945.952	-393
946.044	170
946.136	-115
946.228	-390
946.320	-1004
946.412	-1131
946.503	49
946.595	-1219
946.687	-244
946.779	-890
946.870	167
946.962	-792
947.054	-35
947.145	-454
947.237	-538
947.329	-1296
947.420	-1624
947.512	-916
947.603	-458
947.695	-945
947.786	-835
947.878	-745
947.969	-17
948.061	-1059
948.152	-1308
948.243	-632
948.335	-359
948.426	-999
948.517	-630
948.609	-986
948.700	-284
948.791	-1104
948.882	-395
948.973	-869
949.065	-738
949.156	-446
949.247	-767
949.338	-284
949.429	-929
949.520	-403
949.611	-931
949.702	-482
949.793	400
949.884	-826
949.975	-617
950.066	-1615
950.157	-954
950.247	-678
950.338	-1481
950.429	-1630
950.520	-1197
950.611	-580
950.701	-1356
950.792	-1147
950.883	206
950.973	-532
951.064	95
951.155	-752
951.245	85
951.336	-1279
951.427	-630
951.517	-343
951.608	-890
951.698	-350
951.788	-134
951.879	-670
951.969	-688
952.060	-932
952.150	-919
952.240	-302
952.331	-1781
952.421	-677
952.511	-384
952.602	-786
952.692	-653
952.782	-533
952.872	-201
952.962	-1487
953.052	-15
953.143	-1027
953.233	-298
953.323	-155
953.413	-829
953.503	-507
953.593	-390
953.683	-507
953.773	-916
953.863	-1255
953.953	-1193
954.042	-575
954.132	-1012
954.222	-7
954.312	-404
954.402	-893
954.492	-823
954.581	-158
954.671	-341
954.761	-1434
954.850	622
954.940	-1055
955.030	-655
955.119	-1117
955.209	-1072
955.298	-867
955.388	-543
955.477	-1114
955.567	-1182
955.656	-511
955.746	-136
955.835	-972
955.925	-399
956.014	-934
956.103	-464
956.193	-193
956.282	-718
956.371	-270
956.461	-979
956.550	-1355
956.639	-1119
956.728	-1032
956.817	-17
956.906	-1463
956.995	-304
957.085	-900
957.174	-554
957.263	-1193
957.352	-483
957.441	-917
957.530	-450
957.619	-1289
957.708	-993
957.796	-1265
957.885	-359
957.974	-1167
958.063	417
958.152	-1529
958.241	-319
958.329	-939
958.418	-363
958.507	-1782
958.596	190
958.684	-684
958.773	227
958.861	-173
958.950	-363
959.039	-2
959.127	282
959.216	-434
959.304	70
959.393	-792
959.481	-414
959.570	-863
959.658	-283
959.746	-250
959.835	-151
959.923	-105
960.011	-115
960.100	-523
960.188	53
960.276	-175
960.365	-1085
960.453	-478
960.541	-626
960.629	-406
960.717	-1036
960.805	-464
960.893	-214
960.981	-1118
961.069	-206
961.158	-848
961.245	-1063
961.333	-681
961.421	-505
961.509	-1142
961.597	-922
961.685	-463
961.773	-733
961.861	-2301
961.949	-286
962.036	-2093
962.124	-191
962.212	-1205
962.299	-1011
962.387	-1020
962.475	-1372
962.562	-862
962.650	-555
962.738	-527
962.825	-703
962.913	-213
963.000	-895
963.088	-1227
963.175	-1112
963.263	-808
963.350	-876
963.438	-826
963.525	-528
963.612	-245
963.700	-544
963.787	1338
963.874	264
963.962	-553
964.049	-875
964.136	-1570
964.223	-811
964.310	-1332
964.398	-856
964.485	-1508
964.572	-710
964.659	-730
964.746	-114
964.833	-405
964.920	-1363
965.007	-681
965.094	-204
965.181	-640
965.268	-294
965.355	-1209
965.441	-1029
965.528	-1550
965.615	-313
965.702	-665
965.789	-1358
965.875	-1402
965.962	-1424
966.049	-1891
966.136	-639
966.222	-1192
966.309	-285
966.395	-1684
966.482	-235
966.569	-1337
966.655	-645
966.742	-1488
966.828	-1444
966.915	-784
967.001	-566
967.087	-1854
967.174	-1104
967.260	-1452
967.347	-768
967.433	-159
967.519	907
967.605	-537
967.692	-925
967.778	-1000
967.864	-92
967.950	-1598
968.036	-1930
968.123	-993
968.209	-1689
968.295	-1786
968.381	316
968.467	-673
968.553	-1312
968.639	-506
968.725	-1034
968.811	-952
968.897	-935
968.983	-1277
969.069	-973
969.154	-1109
969.240	-1039
969.326	-1344
969.412	-1564
969.497	-1382
969.583	-1303
969.669	-1314
969.755	-1014
969.840	-1664
969.926	-841
970.012	-1572
970.097	-1108
970.183	-1415
970.268	-664
970.354	-395
970.439	-1601
970.525	731
970.610	-1352
970.696	-269
970.781	-780
970.866	-2020
970.952	-506
971.037	-1857
971.122	-765
971.208	-1022
971.293	-1342
971.378	-1994
971.463	-754
971.549	-1499
971.634	-1873
971.719	-1572
971.804	-1174
971.889	-331
971.974	-891
972.059	-1013
972.144	-915
972.229	-1530
972.314	-1817
972.399	-1522
972.484	-1176
972.569	-1277
972.654	-2234
972.739	-403
972.824	-1044
972.908	-1466
972.993	-804
973.078	-1773
973.163	-1340
973.247	-1654
973.332	-2321
973.417	-736
973.501	-1772
973.586	-1319
973.671	-1802
973.755	-1481
973.840	-1214
973.924	-1236
974.009	-647
974.093	-2220
974.178	253
974.262	-830
974.346	-1061
974.431	-2297
974.515	-1515
974.600	-724
974.684	-1032
974.768	-1679
974.852	-358
974.937	-1998
975.021	-785
975.105	-2095
975.189	-1285
975.273	-901
975.358	-2505
975.442	-1847
975.526	-783
975.610	-1534
975.694	-1380
975.778	-1083
975.862	-2055
975.946	-2731
976.030	-44
976.114	-2284
976.198	-814
976.281	-1541
976.365	-824
976.449	-1432
976.533	-994
976.617	-1907
976.700	-1415
976.784	-1695
976.868	-1851
976.951	-808
977.035	-1430
977.119	-2273
977.202	-823
977.286	-1383
977.369	-985
977.453	-2082
977.536	-740
977.620	-2149
977.703	-1172
977.787	-2480
977.870	-630
977.953	-932
978.037	-2630
978.120	-1512
978.203	-1747
978.287	-1379
978.370	-1290
978.453	-1758
978.536	-1040
978.620	-700
978.703	-965
978.786	-1222
978.869	-1436
978.952	-2143
979.035	-10
979.118	-1506
979.201	-2009
979.284	-1214
979.367	-1420
979.450	-1339
979.533	-1663
979.616	-1561
979.699	-1030
979.782	-649
979.865	-1027
979.948	-1071
980.030	-476
980.113	-1198
980.196	-1929
980.279	-1428
980.361	-1592
980.444	-2249
980.526	-904
980.609	-1421
980.692	-1563
980.774	-1703
980.857	-2373
980.939	-565
981.022	-1343
981.104	-1583
981.187	-829
981.269	-767
981.352	-1478
981.434	-2328
981.516	-1712
981.599	-1485
981.681	-1649
981.763	-1370
981.846	-1054
981.928	-662
982.010	-1149
982.092	-1617
982.174	-975
982.256	-1317
982.339	-573
982.421	-1606
982.503	-1115
982.585	-1446
982.667	-1681
982.749	-1313
982.831	-1017
982.913	-2877
982.995	-523
983.077	-2007
983.158	-458
983.240	-1904
983.322	-308
983.404	-1496
983.486	-1604
983.568	-1485
983.649	-2078
983.731	-1454
983.813	-1570
983.894	-1944
983.976	-2162
984.058	-1255
984.139	-489
984.221	-2268
984.302	-699
984.384	-1964
984.465	-2160
984.547	-1791
984.628	-2434
984.710	-803
984.791	-1883
984.872	-1787
984.954	-1908
985.035	-1160
985.116	-1936
985.198	-1615
985.279	-1265
985.360	-1502
985.441	-1401
985.522	-2053
985.604	-1598
985.685	-3589
985.766	-601
985.847	-738
985.928	-1922
986.009	-1569
986.090	-1479
986.171	-1082
986.252	-891
986.333	-969
986.414	-1323
986.495	-1298
986.576	-1205
986.656	-2288
986.737	-1194
986.818	-1808
986.899	-1312
986.980	-1658
987.060	-1160
987.141	-1407
987.222	-739
987.302	-1353
987.383	-1235
987.464	-1553
987.544	-833
987.625	-2327
987.705	-918
987.786	-1033
987.866	-1376
987.947	-2259
988.027	-1455
988.108	-2387
988.188	-1694
988.268	-1250
988.349	-1523
988.429	-1606
988.509	-1609
988.589	-1994
988.670	-2539
988.750	-621
988.830	-2237
988.910	-1676
988.990	-1258
989.070	-1774
989.151	-1243
989.231	-2509
989.311	-1149
989.391	-1259
989.471	-860
989.551	-2845
989.631	-1836
989.711	-1198
989.791	-1981
989.870	-1428
989.950	-1034
990.030	-2638
990.110	-1495
990.190	-1667
990.269	-1086
990.349	-1598
990.429	-1220
990.509	-2155
990.588	-1934
990.668	-2254
990.747	-968
990.827	-1914
990.907	-1012
990.986	-2260
991.066	-1490
991.145	-2389
991.225	-1764
991.304	-2047
991.383	-986
991.463	-1059
991.542	-645
991.622	-2227
991.701	-1317
991.780	-1552
991.859	-1400
991.939	-1270
992.018	-1653
992.097	-2132
992.176	-1640
992.256	-1690
992.335	-2487
992.414	-1259
992.493	-1912
992.572	-2333
992.651	-1351
992.730	-1869
992.809	-1151
992.888	-1830
992.967	-1919
993.046	-1428
993.125	-2452
993.203	-1594
993.282	-401
993.361	-868
993.440	-1233
993.519	-1788
993.597	-1708
993.676	-2512
993.755	-606
993.834	-1939
993.912	-2155
993.991	-1582
994.069	-1410
994.148	-1850
994.226	-1571
994.305	-1329
994.384	-1811
994.462	-1556
994.540	-2067
994.619	-2058
994.697	-1065
994.776	-2252
994.854	-1339
994.932	-1722
995.011	-764
995.089	-2025
995.167	-1722
995.245	-1598
995.324	-1517
995.402	-1120
995.480	-1995
995.558	-1474
995.636	-2086
995.714	-1687
995.792	-738
995.870	-2754
995.948	-1620
996.026	-1768
996.104	-1822
996.182	-1226
996.260	-1561
996.338	-982
996.416	-2798
996.494	-2030
996.572	-636
996.649	-1994
996.727	-2299
996.805	-1393
996.883	-2129
996.960	-1951
997.038	-1415
997.116	-1359
997.193	-2034
997.271	-1514
997.348	-1975
997.426	-2205
997.504	-2545
997.581	-1523
997.658	-1280
997.736	-1627
997.813	-1431
997.891	-869
997.968	-1652
998.046	-1443
998.123	-1325
998.200	-1920
998.277	-2639
998.355	-1347
998.432	-2202
998.509	-1898
998.586	-1026
998.663	-1997
998.741	-1995
998.818	-2219
998.895	-2596
998.972	-1530
999.049	-1627
999.126	-1534
999.203	-1472
999.280	-1657
999.357	-2974
999.434	-1901
999.511	-1669
999.587	-1410
999.664	-1986
999.741	-2137
999.818	-1255
999.895	-1519
999.971	-2213
1000.048	-1869
1000.125	153
1000.202	-2492
1000.278	-1728
1000.355	-1200
1000.431	-1512
1000.508	-2860
1000.584	-1612
1000.661	-982
1000.738	-1563
1000.814	-1675
1000.890	-1357
1000.967	-2353
1001.043	-1013
1001.120	-2202
1001.196	-1615
1001.272	-1839
1001.349	-1626
1001.425	-1629
1001.501	-1150
1001.577	-2366
1001.654	-1247
1001.730	-1789
1001.806	-1831
1001.882	-1870
1001.958	-1538
1002.034	-1484
1002.110	-1413
1002.186	-1957
1002.262	-1465
1002.338	-2587
1002.414	-1334
1002.490	-1432
1002.566	-1430
1002.642	-2271
1002.718	-1059
1002.794	-1708
1002.870	-1983
1002.945	-2461
1003.021	-1569
1003.097	-2141
1003.173	-1842
1003.248	-1627
1003.324	-1261
1003.400	-1744
1003.475	-2584
1003.551	-890
1003.626	-1394
1003.702	-2454
1003.777	-1962
1003.853	-2064
1003.928	-2432
1004.004	-1961
1004.079	-1356
1004.155	-2114
1004.230	-2248
1004.305	-904
1004.381	-1816
1004.456	-1473
1004.531	-1691
1004.607	-2143
1004.682	-1878
1004.757	-1955
1004.832	-1992
1004.907	-2261
1004.982	-1013
1005.057	-1163
1005.133	-2094
1005.208	-2162
1005.283	-2541
1005.358	-1125
1005.433	-2239
1005.508	-1725
1005.583	-2971
1005.657	-1840
1005.732	-1275
1005.807	-2599
1005.882	-2010
1005.957	-2053
1006.032	-1513
1006.106	-2354
1006.181	-1886
1006.256	-1708
1006.331	-2376
1006.405	-3071
1006.480	-1900
1006.554	-2080
1006.629	-1325
1006.704	-1974
1006.778	-1596
1006.853	-2208
1006.927	-2001
1007.002	-3182
1007.076	-1556
1007.150	-2141
1007.225	-2271
1007.299	-1748
1007.373	-1837
1007.448	-1617
1007.522	-1259
1007.596	-1235
1007.671	-1635
1007.745	-1893
1007.819	-2494
1007.893	-2502
1007.967	-1759
1008.041	-2674
1008.115	-1699
1008.190	-2695
1008.264	-2047
1008.338	-3169
1008.412	-1965
1008.486	-2300
1008.560	-1504
1008.633	-2377
1008.707	-2355
1008.781	-1083
1008.855	-2624
1008.929	-1919
1009.003	-1999
1009.076	-2717
1009.150	-1690
1009.224	-2379
1009.298	-1687
1009.371	-2687
1009.445	-954
1009.519	-2394
1009.592	-1995
1009.666	-2721
1009.739	-1800
1009.813	-2731
1009.886	-1092
1009.960	-2017
1010.033	-1955
1010.107	-1734
1010.180	-2248
1010.253	-1911
1010.327	-2970
1010.400	-2324
1010.473	-1778
1010.547	-475
1010.620	-2013
1010.693	-1922
1010.766	-1356
1010.840	-1495
1010.913	-1177
1010.986	-1618
1011.059	-1290
1011.132	-2222
1011.205	-1687
1011.278	-1556
1011.351	-817
1011.424	-1103
1011.497	-1334
1011.570	-1526
1011.643	-1495
1011.716	-2327
1011.789	-2536
1011.862	-1877
1011.934	-1803
1012.007	-2411
1012.080	-1022
1012.153	-2224
1012.225	-2046
1012.298	-3439
1012.371	-2372
1012.443	-2165
1012.516	-2642
1012.588	-2067
1012.661	-2240
1012.733	-2694
1012.806	-1698
1012.879	-2723
1012.951	-2426
1013.023	-2785
1013.096	-1559
1013.168	-2494
1013.241	-1787
1013.313	-2198
1013.385	-2517
1013.458	-2829
1013.530	-2301
1013.602	-2706
1013.674	-1002
1013.746	-3452
1013.819	-2358
1013.891	-2090
1013.963	-2875
1014.035	-2256
1014.107	-1764
1014.179	-2052
1014.251	-2696
1014.323	-1983
1014.395	-2266
1014.467	-1872
1014.539	-1297
1014.611	-2544
1014.683	-1633
1014.754	-2097
1014.826	-2337
1014.898	-2518
1014.970	-2766
1015.042	-1247
1015.113	-1426
1015.185	-2410
1015.257	-3236
1015.328	-2298
1015.400	-2283
1015.471	-1749
1015.543	-2994
1015.615	-1965
1015.686	-2617
1015.757	-1734
1015.829	-1641
1015.901	-2140
1015.972	-2245
1016.043	-2719
1016.115	-1561
1016.186	-1861
1016.257	-2010
1016.328	-1455
1016.400	-1522
1016.471	-3128
1016.542	-2336
1016.613	-2685
1016.685	-2567
1016.756	-1647
1016.827	-3002
1016.898	-3145
1016.969	-1168
1017.040	-2458
1017.111	-3025
1017.182	-2485
1017.253	-1705
1017.324	-2607
1017.395	-2461
1017.466	-2460
1017.537	-2318
1017.608	-2185
1017.678	-2026
1017.749	-1953
1017.820	-2354
1017.891	-2253
1017.961	-2674
1018.032	-2677
1018.103	-1310
1018.173	-1890
1018.244	-2214
1018.315	-2318
1018.385	-2120
1018.456	-2495
1018.526	-2908
1018.597	-2661
1018.667	-2453
1018.738	-2930
1018.808	-2208
1018.878	-2817
1018.949	-1607
1019.019	-1798
1019.089	-1604
1019.160	-2001
1019.230	-2143
1019.300	-1542
1019.371	-2824
1019.441	-2376
1019.511	-1810
1019.581	-2314
1019.651	-1858
1019.721	-2765
1019.791	-2150
1019.861	-2385
1019.931	-2381
1020.001	-2216
1020.071	-2385
1020.141	-2102
1020.211	-2329
1020.281	-2609
1020.351	-2128
1020.421	-2077
1020.491	-1916
1020.560	-3789
1020.630	-1448
1020.700	-2631
1020.770	-2378
1020.839	-2637
1020.909	-2072
1020.979	-2510
1021.048	-2607
1021.118	-2653
1021.187	-1673
1021.257	-2304
1021.326	-2171
1021.396	-2592
1021.465	-2113
1021.535	-2623
1021.604	-3225
1021.674	-2452
1021.743	-1998
1021.812	-2257
1021.882	-2251
1021.951	-2803
1022.020	-2052
1022.089	-2554
1022.159	-2476
1022.228	-2652
1022.297	-1968
1022.366	-2286
1022.435	-2202
1022.504	-2473
1022.573	-2379
1022.642	-2124
1022.711	-2566
1022.781	-2808
1022.849	-1819
1022.918	-2614
1022.987	-2172
1023.056	-2905
1023.125	-1648
1023.194	-2566
1023.263	-2478
1023.331	-1931
1023.400	-2312
1023.469	-2542
1023.538	-1840
1023.606	-2616
1023.675	-1966
1023.744	-2189
1023.812	-2395
1023.881	-2323
1023.949	-1749
1024.018	-2630
1024.086	-3334
1024.155	-2377
1024.223	-2580
1024.292	-1824
1024.360	-1820
1024.429	-2353
1024.497	-2415
1024.565	-2121
1024.634	-2523
1024.702	-2557
1024.770	-1552
1024.838	-2634
1024.907	-2329
1024.975	-2513
1025.043	-1692
1025.111	-1977
1025.179	-2451
1025.247	-2446
1025.315	-2416
1025.383	-2410
1025.451	-1459
1025.519	-2292
1025.587	-2022
1025.655	-2017
1025.723	-1975
1025.791	-2321
1025.859	-1968
1025.927	-2140
1025.995	-2344
1026.062	-2310
1026.130	-2679
1026.198	-2423
1026.266	-2766
1026.333	-2314
1026.401	-1831
1026.469	-2382
1026.536	-2063
1026.604	-2225
1026.671	-2635
1026.739	-2791
1026.806	-1190
1026.874	-2190
1026.941	-1912
1027.009	-2235
1027.076	-2179
1027.144	-1381
1027.211	-2108
1027.278	-2614
1027.345	-2100
1027.413	-1664
1027.480	-2074
1027.547	-3151
1027.614	-2254
1027.682	-1816
1027.749	-2383
1027.816	-2318
1027.883	-1835
1027.950	-2365
1028.017	-1432
1028.084	-1403
1028.151	-2732
1028.218	-1881
1028.285	-1996
1028.352	-2832
1028.419	-2382
1028.486	-2738
1028.553	-1790
1028.619	-2202
1028.686	-1622
1028.753	-2450
1028.820	-2278
1028.886	-2471
1028.953	-1941
1029.020	-2400
1029.086	-1979
1029.153	-2087
1029.220	-2757
1029.286	-1223
1029.353	-1676
1029.419	-1907
1029.486	-2219
1029.552	-3259
1029.619	-1876
1029.685	-2760
1029.751	-1626
1029.818	-2109
1029.884	-2754
1029.951	-1481
1030.017	-2151
1030.083	-2265
1030.149	-1581
1030.216	-2375
1030.282	-2375
1030.348	-2220
1030.414	-2602
1030.480	-2655
1030.546	-1071
1030.612	-2677
1030.678	-2806
1030.744	-2159
1030.810	-2496
1030.876	-2509
1030.942	-2875
1031.008	-2510
1031.074	-2814
1031.140	-2938
1031.206	-1720
1031.272	-2050
1031.337	-1681
1031.403	-1810
1031.469	-2009
1031.534	-2248
1031.600	-1789
1031.666	-2455
1031.731	-2519
1031.797	-3090
1031.863	-2634
1031.928	-2875
1031.994	-2500
1032.059	-2548
1032.125	-2168
1032.190	-2593
1032.256	-2778
1032.321	-1702
1032.386	-1581
1032.452	-1555
1032.517	-1594
1032.582	-1840
1032.647	-2037
1032.713	-2213
1032.778	-1998
1032.843	-3141
1032.908	-2268
1032.974	-1720
1033.039	-2474
1033.104	-1753
1033.169	-2792
1033.234	-2478
1033.299	-2166
1033.364	-1893
1033.429	-2249
1033.494	-2803
1033.559	-2174
1033.624	-2232
1033.688	-2557
1033.753	-3163
1033.818	-2049
1033.883	-3260
1033.948	-2375
1034.013	-2638
1034.077	-1973
1034.142	-2468
1034.207	-1901
1034.271	-2311
1034.336	-1446
1034.400	-2561
1034.465	-1640
1034.530	-2200
1034.594	-2433
1034.658	-2611
1034.723	-2256
1034.787	-2474
1034.852	-1492
1034.916	-1984
1034.981	-1678
1035.045	-1922
1035.109	-2167
1035.173	-1740
1035.238	-2610
1035.302	-2424
1035.366	-2441
1035.430	-2142
1035.495	-1978
1035.559	-2672
1035.623	-2182
1035.687	-2477
1035.751	-2939
1035.815	-2051
1035.879	-2384
1035.943	-2497
1036.007	-1829
1036.071	-2824
1036.135	-1999
1036.198	-1990
1036.262	-2574
1036.326	-2675
1036.390	-1959
1036.454	-1751
1036.517	-2252
1036.581	-2649
1036.645	-2437
1036.709	-1906
1036.772	-2716
1036.836	-2555
1036.900	-2339
1036.963	-2500
1037.026	-2153
1037.090	-2478
1037.154	-2144
1037.217	-2142
1037.280	-2424
1037.344	-2313
1037.407	-2167
1037.471	-2469
1037.534	-2257
1037.597	-1930
1037.661	-2713
1037.724	-2911
1037.787	-2134
1037.850	-1978
1037.913	-2142
1037.977	-2963
1038.040	-2483
1038.103	-3433
1038.166	-2524
1038.229	-1931
1038.292	-2562
1038.355	-2569
1038.418	-2947
1038.481	-2462
1038.544	-2779
1038.607	-2636
1038.670	-2025
1038.732	-2316
1038.795	-1986
1038.858	-3046
1038.921	-2563
1038.984	-2248
1039.046	-2407
1039.109	-2361
1039.172	-2339
1039.234	-2366
1039.297	-2610
1039.360	-2516
1039.422	-2350
1039.485	-2150
1039.547	-2934
1039.610	-2507
1039.672	-2408
1039.734	-2040
1039.797	-2525
1039.859	-2541
1039.922	-3045
1039.984	-2596
1040.046	-2996
1040.109	-2584
1040.171	-2153
1040.233	-3168
1040.295	-2270
1040.358	-2913
1040.420	-2240
1040.482	-3575
1040.544	-3266
1040.606	-3312
1040.668	-2466
1040.730	-2638
1040.792	-2835
1040.854	-1883
1040.916	-2587
1040.978	-2454
1041.040	-1751
1041.102	-2193
1041.164	-1925
1041.225	-3456
1041.287	-2158
1041.349	-2768
1041.411	-1960
1041.472	-2694
1041.534	-2590
1041.596	-3557
1041.657	-1627
1041.719	-2273
1041.781	-3193
1041.842	-3268
1041.904	-1750
1041.965	-2733
1042.027	-2232
1042.088	-2317
1042.150	-2372
1042.211	-1896
1042.272	-1914
1042.334	-2740
1042.395	-1973
1042.456	-2619
1042.518	-2636
1042.579	-2294
1042.640	-2544
1042.701	-2788
1042.763	-2507
1042.824	-2995
1042.885	-2611
1042.946	-3026
1043.007	-1890
1043.068	-2294
1043.129	-2083
1043.190	-3160
1043.251	-2120
1043.312	-3139
1043.373	-2663
1043.434	-3858
1043.495	-2660
1043.556	-1819
1043.616	-1922
1043.677	-2705
1043.738	-2382
1043.799	-3344
1043.859	-2599
1043.920	-2560
1043.981	-2516
1044.041	-1855
1044.102	-2086
1044.162	-2874
1044.223	-3554
1044.284	-2878
1044.344	-1360
1044.405	-2580
1044.465	-2550
1044.525	-2305
1044.586	-2261
1044.646	-2951
1044.707	-2502
1044.767	-2741
1044.827	-2030
1044.887	-2645
1044.948	-2761
1045.008	-2726
1045.068	-2818
1045.128	-2785
1045.188	-2053
1045.249	-2879
1045.309	-2309
1045.369	-2335
1045.429	-1963
1045.489	-2537
1045.549	-2548
1045.609	-2469
1045.669	-2395
1045.729	-2437
1045.789	-2231
1045.848	-2010
1045.908	-2222
1045.968	-2122
1046.028	-1876
1046.088	-2383
1046.147	-1616
1046.207	-1862
1046.267	-2343
1046.326	-2649
1046.386	-2464
1046.446	-1239
1046.505	-1650
1046.565	-1880
1046.624	-1595
1046.684	-1525
1046.743	-1409
1046.803	-1675
1046.862	-912
1046.922	0
