'Start Wavelength	183.907
'End Wavelength	1046.922
'Gate Delay	5.000
'Gate Width (ms)	1.050
'Laser Output Level	0.000
'X Position	0.000
'Y Position	0.000
'Z Position	0.000
'Grid Point Number	1.000
'Shot Number	100.000
183.907	882.000
183.977	278.000
184.047	-72
184.116	868
184.186	531
184.256	-250
184.325	-243
184.395	27
184.465	1161
184.534	1028
184.604	907
184.674	267
184.743	338
184.813	461
184.883	731
184.952	304
185.022	365
185.092	718
185.161	-300
185.231	-57
185.301	305
185.370	895
185.440	381
185.509	62
185.579	-250
185.649	955
185.718	52
185.788	821
185.857	222
185.927	263
185.996	178
186.066	-36
186.136	-363
186.205	-23
186.275	137
186.344	305
186.414	689
186.483	-503
186.553	1145
186.622	1528
186.692	137
186.761	9
186.831	308
186.900	-128
186.970	731
187.039	392
187.109	1216
187.178	527
187.248	251
187.317	634
187.387	148
187.456	1080
187.526	296
187.595	1055
187.664	153
187.734	658
187.803	856
187.873	311
187.942	2007
188.012	421
188.081	349
188.150	978
188.220	461
188.289	1207
188.358	1093
188.428	230
188.497	43
188.567	427
188.636	341
188.705	-223
188.775	168
188.844	-221
188.913	1120
188.983	1014
189.052	-371
189.121	172
189.191	1268
189.260	197
189.329	374
189.399	381
189.468	418
189.537	634
189.606	463
189.676	278
189.745	479
189.814	33
189.883	526
189.953	850
190.022	1503
190.091	1711
190.161	2116
190.230	497
190.299	278
190.368	551
190.437	202
190.507	149
190.576	565
190.645	867
190.714	-123
190.783	685
190.853	931
190.922	654
190.991	776
191.060	1015
191.129	759
191.198	267
191.268	132
191.337	905
191.406	803
191.475	520
191.544	271
191.613	1120
191.682	391
191.752	1419
191.821	876
191.890	850
191.959	44
192.028	874
192.097	595
192.166	874
192.235	131
192.304	1211
192.373	247
192.442	346
192.511	468
192.580	9
192.650	728
192.719	844
192.788	1002
192.857	117
192.926	419
192.995	277
193.064	1365
193.133	1292
193.202	1850
193.271	1883
193.340	1659
193.409	1504
193.478	1556
193.547	1777
193.615	2344
193.684	2141
193.753	1430
193.822	1597
193.891	288
193.960	568
194.029	700
194.098	991
194.167	633
194.236	923
194.305	240
194.374	690
194.443	276
194.512	862
194.580	233
194.649	1362
194.718	1258
194.787	1179
194.856	848
194.925	1109
194.994	902
195.062	1521
195.131	977
195.200	1854
195.269	1842
195.338	1416
195.407	890
195.475	1431
195.544	1082
195.613	1460
195.682	1310
195.751	1242
195.819	1126
195.888	1112
195.957	1702
196.026	1071
196.094	1568
196.163	945
196.232	689
196.301	1697
196.369	1487
196.438	930
196.507	1038
196.576	538
196.644	751
196.713	641
196.782	848
196.850	1412
196.919	1211
196.988	966
197.056	875
197.125	319
197.194	1302
197.262	725
197.331	935
197.400	1421
197.468	683
197.537	1030
197.606	569
197.674	2310
197.743	2627
197.812	978
197.880	2615
197.949	1678
198.017	1920
198.086	1444
198.155	1340
198.223	1098
198.292	3039
198.360	2640
198.429	851
198.497	917
198.566	1718
198.635	3531
198.703	1851
198.772	1385
198.840	2849
198.909	3110
198.977	1727
199.046	1628
199.114	1557
199.183	1490
199.251	954
199.320	858
199.388	1084
199.457	468
199.525	1029
199.594	1048
199.662	923
199.731	541
199.799	1328
199.867	1607
199.936	1132
200.004	555
200.073	1247
200.141	929
200.210	1029
200.278	1248
200.346	1565
200.415	1970
200.483	2279
200.552	1748
200.620	1506
200.688	576
200.757	1319
200.825	840
200.893	1591
200.962	1361
201.030	626
201.098	943
201.167	1054
201.235	891
201.303	781
201.372	1363
201.440	1334
201.508	1448
201.577	1185
201.645	1202
201.713	927
201.781	1296
201.850	2217
201.918	660
201.986	1024
202.055	1678
202.123	1249
202.191	706
202.259	1364
202.327	1729
202.396	814
202.464	1959
202.532	1153
202.600	3405
202.669	2418
202.737	1494
202.805	1427
202.873	522
202.941	1290
203.009	1478
203.078	1095
203.146	1787
203.214	758
203.282	1136
203.350	1942
203.418	1482
203.487	1473
203.555	1068
203.623	1664
203.691	1729
203.759	1013
203.827	1197
203.895	1469
203.963	1326
204.031	1145
204.099	1068
204.168	776
204.236	1696
204.304	1257
204.372	1603
204.440	1201
204.508	1286
204.576	1006
204.644	1788
204.712	705
204.780	1208
204.848	1874
204.916	1465
204.984	1644
205.052	1017
205.120	1237
205.188	1525
205.256	484
205.324	1740
205.392	1281
205.460	2238
205.528	1523
205.596	1524
205.664	1109
205.732	1758
205.799	4426
205.867	5838
205.935	2240
206.003	2394
206.071	1716
206.139	2394
206.207	1702
206.275	1393
206.343	1379
206.411	2061
206.478	1591
206.546	1766
206.614	1975
206.682	2328
206.750	1248
206.818	2760
206.885	2197
206.953	1201
207.021	2086
207.089	1510
207.157	1366
207.225	2236
207.292	1479
207.360	2482
207.428	1629
207.496	2011
207.563	1285
207.631	1007
207.699	1549
207.767	1930
207.834	1340
207.902	2794
207.970	1871
208.038	1772
208.105	2167
208.173	2374
208.241	2277
208.309	2534
208.376	2644
208.444	4136
208.512	2623
208.579	1644
208.647	2610
208.715	2915
208.782	2164
208.850	2469
208.918	2192
208.985	2029
209.053	2032
209.120	1605
209.188	1565
209.256	1848
209.323	1834
209.391	2734
209.459	2822
209.526	2093
209.594	2174
209.661	2100
209.729	2188
209.796	1356
209.864	2289
209.932	1814
209.999	3480
210.067	2507
210.134	2215
210.202	2055
210.269	2417
210.337	3414
210.404	2996
210.472	2376
210.539	3018
210.607	2316
210.674	3369
210.742	2973
210.809	2768
210.877	2782
210.944	3903
211.012	2690
211.079	3391
211.146	2371
211.214	2502
211.281	3089
211.349	2996
211.416	3067
211.484	3349
211.551	2167
211.618	2824
211.686	2614
211.753	2803
211.821	3012
211.888	2764
211.955	2780
212.023	2551
212.090	2607
212.157	3080
212.225	2970
212.292	4665
212.359	8038
212.427	14759
212.494	8031
212.561	4780
212.629	3125
212.696	3113
212.763	3261
212.831	2168
212.898	2598
212.965	2541
213.032	2228
213.100	3186
213.167	2710
213.234	2841
213.301	3051
213.369	2575
213.436	3100
213.503	2590
213.570	2888
213.638	3569
213.705	3136
213.772	2509
213.839	4465
213.906	4394
213.973	3813
214.041	2185
214.108	3449
214.175	2923
214.242	3118
214.309	3074
214.376	3428
214.444	3249
214.511	3639
214.578	3203
214.645	3394
214.712	3770
214.779	3170
214.846	3856
214.913	3486
214.980	2948
215.048	3756
215.115	4734
215.182	3685
215.249	3992
215.316	2759
215.383	2501
215.450	3267
215.517	2689
215.584	2766
215.651	3189
215.718	2954
215.785	3386
215.852	2248
215.919	3304
215.986	3624
216.053	3498
216.120	2298
216.187	3600
216.254	2708
216.321	2799
216.388	3139
216.455	3481
216.522	4387
216.589	3513
216.656	5790
216.722	4833
216.789	4454
216.856	4247
216.923	4762
216.990	4237
217.057	4594
217.124	4879
217.191	4950
217.258	5557
217.324	6428
217.391	5883
217.458	5323
217.525	4245
217.592	4629
217.659	3891
217.725	4873
217.792	4718
217.859	4858
217.926	3802
217.993	3677
218.059	4473
218.126	2512
218.193	3377
218.260	2410
218.327	3312
218.393	2874
218.460	2220
218.527	2724
218.594	3266
218.660	4094
218.727	5140
218.794	2792
218.860	4062
218.927	2759
218.994	3406
219.061	2969
219.127	2853
219.194	4707
219.261	2618
219.327	2102
219.394	3640
219.461	1478
219.527	2256
219.594	4099
219.661	3159
219.727	2570
219.794	3551
219.860	2154
219.927	3071
219.994	4545
220.060	7207
220.127	5721
220.193	4133
220.260	4553
220.326	6491
220.393	8054
220.460	9809
220.526	7258
220.593	5641
220.659	7100
220.726	5972
220.792	10890
220.859	11226
220.925	13629
220.992	13953
221.058	13498
221.125	13902
221.191	10187
221.258	5703
221.324	4812
221.391	4646
221.457	3467
221.524	4814
221.590	5589
221.657	10933
221.723	8511
221.789	8279
221.856	7684
221.922	4607
221.989	4152
222.055	3426
222.121	3820
222.188	5963
222.254	4202
222.321	3441
222.387	3066
222.453	2994
222.520	3047
222.586	2242
222.652	2319
222.719	2378
222.785	3119
222.851	2942
222.918	2861
222.984	3109
223.050	2830
223.116	2053
223.183	3770
223.249	2811
223.315	2388
223.382	1879
223.448	1912
223.514	1823
223.580	1520
223.647	2610
223.713	2365
223.779	2282
223.845	2664
223.911	3045
223.978	2495
224.044	2669
224.110	2146
224.176	2450
224.242	2532
224.309	1794
224.375	2192
224.441	1765
224.507	2155
224.573	1785
224.639	2840
224.705	2146
224.772	2090
224.838	2142
224.904	3530
224.970	2558
225.036	2186
225.102	1885
225.168	3123
225.234	3225
225.300	2591
225.366	2349
225.432	2532
225.499	2328
225.565	3360
225.631	3366
225.697	3380
225.763	4075
225.829	5021
225.895	3774
225.961	6220
226.027	5112
226.093	4824
226.159	6596
226.225	9866
226.291	18309
226.357	24139
226.423	15511
226.489	9429
226.554	6452
226.620	6736
226.686	7670
226.752	10971
226.818	17963
226.884	30612
226.950	26028
227.016	13724
227.082	8889
227.148	7035
227.214	6610
227.279	6648
227.345	4643
227.411	4188
227.477	4988
227.543	8919
227.609	9581
227.674	7203
227.740	3966
227.806	4394
227.872	3774
227.938	3861
228.003	5048
228.069	3722
228.135	2490
228.201	3030
228.267	2604
228.332	4555
228.398	3762
228.464	3766
228.530	2858
228.595	2626
228.661	1759
228.727	4502
228.792	4281
228.858	2685
228.924	1755
228.990	3855
229.055	3186
229.121	4214
229.187	2674
229.252	3120
229.318	2980
229.384	3246
229.449	3417
229.515	885
229.581	1462
229.646	4041
229.712	3237
229.777	6528
229.843	6135
229.909	5593
229.974	5666
230.040	5327
230.105	3626
230.171	4619
230.236	5910
230.302	8389
230.368	6804
230.433	4271
230.499	4536
230.564	5340
230.630	3668
230.695	4137
230.761	4319
230.826	2413
230.892	6298
230.957	3206
231.023	2819
231.088	3425
231.154	3529
231.219	3795
231.284	5051
231.350	5233
231.415	2885
231.481	3591
231.546	3380
231.612	3126
231.677	3184
231.742	1984
231.808	3672
231.873	2544
231.939	1212
232.004	5141
232.069	5198
232.135	2920
232.200	2850
232.265	3832
232.331	1852
232.396	2824
232.461	1819
232.527	2648
232.592	2070
232.657	2811
232.723	4107
232.788	3935
232.853	3855
232.918	3037
232.984	1946
233.049	2124
233.114	3222
233.179	3757
233.245	5453
233.310	5153
233.375	2297
233.440	3548
233.506	2453
233.571	2845
233.636	3258
233.701	2885
233.766	4107
233.832	4577
233.897	2808
233.962	1495
234.027	4149
234.092	2763
234.157	2772
234.222	3440
234.288	4451
234.353	9651
234.418	8624
234.483	5944
234.548	5950
234.613	5340
234.678	5480
234.743	4858
234.808	10509
234.873	6528
234.938	5615
235.004	3871
235.069	4093
235.134	3985
235.199	4409
235.264	2862
235.329	3058
235.394	4147
235.459	4607
235.524	3642
235.589	4138
235.654	3996
235.719	2885
235.784	4514
235.849	4343
235.913	5804
235.978	6676
236.043	6483
236.108	3547
236.173	3919
236.238	4700
236.303	3617
236.368	4196
236.433	5873
236.498	7712
236.563	7351
236.627	15155
236.692	40394
236.757	34558
236.822	15819
236.887	11038
236.952	10119
237.017	7634
237.081	9172
237.146	11618
237.211	23017
237.276	41178
237.341	54924
237.405	32461
237.470	15989
237.535	10788
237.600	7964
237.664	6272
237.729	5537
237.794	7774
237.859	13914
237.923	8554
237.988	5494
238.053	6081
238.118	5685
238.182	13396
238.247	11447
238.312	5391
238.376	5198
238.441	4052
238.506	5189
238.570	3516
238.635	4448
238.700	3383
238.764	3377
238.829	6199
238.893	6978
238.958	5689
239.023	5238
239.087	4328
239.152	4380
239.216	3395
239.281	3381
239.346	3024
239.410	3555
239.475	3992
239.539	12550
239.604	8739
239.668	4361
239.733	3749
239.797	6887
239.862	14760
239.926	12813
239.991	5557
240.055	4239
240.120	3735
240.184	4674
240.249	2322
240.313	3220
240.378	2733
240.442	6946
240.507	10915
240.571	4780
240.635	6252
240.700	7236
240.764	3505
240.829	3877
240.893	2128
240.957	2579
241.022	7993
241.086	10548
241.151	4772
241.215	2507
241.279	5294
241.344	5507
241.408	5181
241.472	4760
241.537	6029
241.601	5440
241.665	3904
241.730	4042
241.794	5210
241.858	5009
241.922	4452
241.987	4160
242.051	4519
242.115	4182
242.179	5044
242.244	3322
242.308	4585
242.372	5077
242.436	5369
242.501	4231
242.565	3618
242.629	3707
242.693	4045
242.757	3040
242.822	3977
242.886	4151
242.950	4249
243.014	3978
243.078	4431
243.142	4614
243.206	4573
243.271	4642
243.335	4911
243.399	8083
243.463	25149
243.527	52907
243.591	18745
243.655	9058
243.719	5418
243.783	6588
243.847	9234
243.911	11531
243.975	11500
244.040	8005
244.104	6301
244.168	4703
244.232	6231
244.296	8787
244.360	10522
244.424	5520
244.488	4575
244.552	4266
244.615	3440
244.679	3892
244.743	4990
244.807	4191
244.871	3398
244.935	3795
244.999	3425
245.063	3596
245.127	4340
245.191	7092
245.255	7231
245.319	5790
245.383	4769
245.446	4926
245.510	2563
245.574	3436
245.638	3951
245.702	4101
245.766	9546
245.829	6732
245.893	4679
245.957	4305
246.021	5011
246.085	4404
246.149	5655
246.212	12186
246.276	18193
246.340	7884
246.404	5773
246.467	6461
246.531	8162
246.595	7006
246.659	5936
246.722	4983
246.786	6726
246.850	7390
246.913	8968
246.977	4360
247.041	4194
247.104	5371
247.168	5477
247.232	12720
247.295	23111
247.359	11622
247.423	6924
247.486	10696
247.550	7181
247.614	6292
247.677	7366
247.741	5200
247.804	5578
247.868	6757
247.932	11079
247.995	21664
248.059	8206
248.122	4370
248.186	7337
248.249	13153
248.313	37528
248.376	37513
248.440	23765
248.503	9430
248.567	9310
248.630	10971
248.694	15697
248.757	20320
248.821	40117
248.884	24792
248.948	21914
249.011	30753
249.075	45317
249.138	37186
249.202	16599
249.265	10432
249.328	11614
249.392	9917
249.455	8798
249.519	6440
249.582	8734
249.645	14602
249.709	10333
249.772	9385
249.835	7633
249.899	7389
249.962	7834
250.025	6957
250.089	16742
250.152	19293
250.215	10545
250.279	8056
250.342	8551
250.405	9065
250.468	7458
250.532	10563
250.595	16511
250.658	53798
250.721	78129
250.785	32941
250.848	18555
250.911	11547
250.974	10870
251.038	14491
251.101	24536
251.164	13780
251.227	14478
251.290	13545
251.354	22446
251.417	71715
251.480	69658
251.543	57422
251.606	115575
251.669	94009
251.732	42021
251.795	40159
251.859	41077
251.922	78471
251.985	48479
252.048	20411
252.111	15781
252.174	14569
252.237	24152
252.300	49005
252.363	54368
252.426	94451
252.489	42108
252.552	21895
252.615	15744
252.678	17572
252.741	38233
252.804	51422
252.867	98910
252.930	61675
252.993	33495
253.056	20204
253.119	14484
253.182	11689
253.245	19799
253.308	14609
253.371	11565
253.434	11485
253.497	11411
253.559	21639
253.622	14210
253.685	16345
253.748	16132
253.811	8592
253.874	10800
253.937	9366
254.000	8214
254.062	15463
254.125	21957
254.188	21365
254.251	17199
254.314	8113
254.376	15052
254.439	15885
254.502	13394
254.565	15407
254.628	25416
254.690	13794
254.753	8375
254.816	6833
254.878	7841
254.941	16297
255.004	16276
255.067	7557
255.129	6646
255.192	4705
255.255	3876
255.317	5887
255.380	4381
255.443	3302
255.505	3228
255.568	3364
255.631	4063
255.693	4371
255.756	3536
255.819	4443
255.881	3528
255.944	3892
256.006	3542
256.069	3649
256.132	3859
256.194	4532
256.257	9852
256.319	7755
256.382	6406
256.444	6239
256.507	6762
256.569	5250
256.632	5046
256.694	8882
256.757	25737
256.819	67465
256.882	28942
256.944	13380
257.007	9910
257.069	9352
257.132	6533
257.194	7283
257.257	7162
257.319	7031
257.381	8254
257.444	21378
257.506	77338
257.569	85963
257.631	46474
257.693	23189
257.756	11211
257.818	9796
257.880	6838
257.943	6501
258.005	4658
258.067	5691
258.130	5748
258.192	6606
258.254	9793
258.317	6220
258.379	6802
258.441	17813
258.503	14606
258.566	13364
258.628	14907
258.690	5921
258.753	6634
258.815	9911
258.877	6850
258.939	5458
259.001	6547
259.064	4946
259.126	5111
259.188	6989
259.250	6730
259.312	10295
259.375	25427
259.437	13332
259.499	6834
259.561	7381
259.623	7889
259.685	5251
259.747	5433
259.809	13137
259.872	20661
259.934	34067
259.996	32521
260.058	10314
260.120	6179
260.182	4945
260.244	4562
260.306	4859
260.368	3831
260.430	4039
260.492	10856
260.554	24687
260.616	17261
260.678	21311
260.740	21627
260.802	6909
260.864	6978
260.926	5333
260.988	5908
261.050	5642
261.112	14705
261.174	29263
261.236	17335
261.298	7387
261.359	10401
261.421	13770
261.483	5881
261.545	5847
261.607	3637
261.669	5059
261.731	6749
261.793	16054
261.854	7358
261.916	7593
261.978	6477
262.040	6812
262.102	4303
262.164	5665
262.225	5158
262.287	5607
262.349	11406
262.411	9871
262.472	5673
262.534	6958
262.596	12022
262.658	5793
262.719	3849
262.781	5902
262.843	12267
262.904	6129
262.966	5274
263.028	8301
263.090	32563
263.151	76296
263.213	26044
263.275	14775
263.336	7642
263.398	6003
263.459	3959
263.521	4775
263.583	10533
263.644	6819
263.706	3768
263.767	2208
263.829	3303
263.891	3039
263.952	2792
264.014	2631
264.075	8168
264.137	17205
264.198	7373
264.260	3181
264.321	4657
264.383	10179
264.444	25377
264.506	6911
264.567	5870
264.629	11889
264.690	22687
264.752	8792
264.813	5205
264.875	4366
264.936	4403
264.998	4531
265.059	3750
265.120	4430
265.182	7713
265.243	37328
265.305	37485
265.366	9519
265.427	5196
265.489	5956
265.550	2955
265.611	4726
265.673	4009
265.734	4531
265.795	3389
265.857	3441
265.918	5236
265.979	12561
266.040	60451
266.102	49009
266.163	14901
266.224	10818
266.286	6502
266.347	4407
266.408	4747
266.469	4410
266.530	3591
266.592	3389
266.653	7122
266.714	11047
266.775	4265
266.836	3732
266.898	2455
266.959	6293
267.020	4390
267.081	4385
267.142	3290
267.203	2905
267.264	2914
267.326	4927
267.387	3241
267.448	2698
267.509	3665
267.570	2950
267.631	2316
267.692	3185
267.753	2790
267.814	2911
267.875	8031
267.936	17171
267.997	11131
268.058	8321
268.119	4447
268.180	5287
268.241	2523
268.302	3557
268.363	3063
268.424	3017
268.485	3594
268.546	2578
268.607	1806
268.668	2174
268.729	3145
268.790	2795
268.851	4387
268.912	9746
268.972	9867
269.033	5217
269.094	2747
269.155	2980
269.216	3001
269.277	2920
269.338	3285
269.398	3395
269.459	3341
269.520	5551
269.581	6349
269.642	7051
269.702	5093
269.763	4921
269.824	4610
269.885	4500
269.945	7434
270.006	3777
270.067	2684
270.128	3320
270.188	3166
270.249	2828
270.310	2969
270.370	3139
270.431	3582
270.492	1962
270.553	4283
270.613	7212
270.674	14100
270.734	5677
270.795	4072
270.856	5499
270.916	4453
270.977	3785
271.038	4171
271.098	3979
271.159	7238
271.219	6346
271.280	3870
271.340	2884
271.401	3739
271.462	7375
271.522	5498
271.583	3713
271.643	3996
271.704	3644
271.764	4271
271.825	11434
271.885	35707
271.946	44179
272.006	14613
272.066	22113
272.127	34933
272.187	11804
272.248	6897
272.308	7970
272.369	25033
272.429	12751
272.489	10284
272.550	11050
272.610	10066
272.671	8329
272.731	6266
272.791	10096
272.852	6441
272.912	5671
272.972	3696
273.033	3715
273.093	5461
273.153	6099
273.214	4758
273.274	5973
273.334	20030
273.394	34183
273.455	13253
273.515	14422
273.575	30467
273.635	11992
273.696	15396
273.756	31555
273.816	11559
273.876	7378
273.936	12966
273.997	21040
274.057	6987
274.117	5999
274.177	10207
274.237	42382
274.297	32121
274.358	20127
274.418	27037
274.478	19142
274.538	7696
274.598	5903
274.658	17826
274.718	20250
274.778	8929
274.838	5377
274.898	10355
274.958	27486
275.018	31455
275.078	20065
275.138	7994
275.198	5015
275.258	4058
275.318	5132
275.378	9240
275.438	9640
275.498	6766
275.558	13924
275.618	29361
275.678	22447
275.738	15180
275.798	11046
275.858	6604
275.918	4161
275.978	4721
276.038	4989
276.098	4181
276.157	8508
276.217	21978
276.277	10690
276.337	7345
276.397	4447
276.457	5983
276.517	4069
276.576	3092
276.636	3173
276.696	5898
276.756	14271
276.815	9467
276.875	4311
276.935	5126
276.995	5320
277.055	3423
277.114	4282
277.174	7156
277.234	18938
277.293	8080
277.353	4866
277.413	4015
277.472	4036
277.532	4030
277.592	5786
277.651	15846
277.711	24288
277.771	10094
277.830	33553
277.890	24326
277.950	19999
278.009	52818
278.069	18734
278.128	20139
278.188	25104
278.248	12124
278.307	29396
278.367	17233
278.426	6097
278.486	5083
278.545	4528
278.605	4075
278.664	3821
278.724	4962
278.783	14523
278.843	33365
278.902	9488
278.962	6225
279.021	6493
279.081	7299
279.140	7920
279.199	7891
279.259	7516
279.318	6278
279.378	10693
279.437	21213
279.496	71149
279.556	135405
279.615	93530
279.675	27922
279.734	19212
279.793	32486
279.853	56492
279.912	21703
279.971	12631
280.031	11621
280.090	25661
280.149	41951
280.208	26433
280.268	91147
280.327	82361
280.386	22012
280.445	18990
280.505	17149
280.564	8936
280.623	8303
280.682	11915
280.742	16498
280.801	6048
280.860	4951
280.919	4990
280.978	4208
281.037	3652
281.097	2523
281.156	3955
281.215	3538
281.274	5828
281.333	22510
281.392	15883
281.451	3925
281.510	4245
281.569	3783
281.628	2853
281.688	3142
281.747	4652
281.806	4235
281.865	2817
281.924	2918
281.983	2723
282.042	2631
282.101	2536
282.160	2891
282.219	2297
282.278	4191
282.337	11556
282.396	7900
282.454	4054
282.513	5451
282.572	17472
282.631	9638
282.690	4140
282.749	3198
282.808	4080
282.867	4403
282.926	4433
282.985	2714
283.043	1982
283.102	2653
283.161	3750
283.220	10255
283.279	20631
283.338	7497
283.396	3819
283.455	3785
283.514	4079
283.573	5992
283.631	4562
283.690	3854
283.749	3540
283.808	7700
283.866	8051
283.925	4053
283.984	3378
284.043	4519
284.101	4977
284.160	3344
284.219	4858
284.277	4743
284.336	7248
284.395	24181
284.453	18013
284.512	7098
284.570	9523
284.629	8626
284.688	7395
284.746	6437
284.805	8031
284.863	10186
284.922	13534
284.981	15754
285.039	23895
285.098	45067
285.156	107408
285.215	189904
285.273	187825
285.332	107327
285.390	56949
285.449	34989
285.507	24558
285.566	18119
285.624	13845
285.683	9600
285.741	8225
285.799	7309
285.858	6277
285.916	6488
285.975	5370
286.033	4311
286.091	4080
286.150	4188
286.208	4542
286.267	5040
286.325	4598
286.383	7244
286.442	6263
286.500	3486
286.558	2475
286.616	3124
286.675	5384
286.733	3879
286.791	4344
286.850	4249
286.908	6221
286.966	9341
287.024	4485
287.083	2589
287.141	2272
287.199	2888
287.257	5448
287.315	4047
287.374	4653
287.432	11045
287.490	6708
287.548	4513
287.606	4201
287.664	4643
287.723	5160
287.781	7275
287.839	4498
287.897	5664
287.955	8755
288.013	13973
288.071	32665
288.129	107976
288.187	230077
288.245	116256
288.303	40825
288.361	25207
288.419	17854
288.477	12590
288.535	9364
288.593	7154
288.651	5248
288.709	4156
288.767	3908
288.825	3459
288.883	3409
288.941	3560
288.999	3068
289.057	2889
289.115	2394
289.173	2441
289.231	3325
289.289	3010
289.346	2426
289.404	2728
289.462	5833
289.520	5498
289.578	3040
289.636	1763
289.694	2539
289.751	1960
289.809	2108
289.867	2221
289.925	3617
289.983	4099
290.040	1753
290.098	2200
290.156	2524
290.214	3499
290.271	1846
290.329	2693
290.387	1795
290.444	1466
290.502	1329
290.560	2445
290.617	2472
290.675	1764
290.733	1950
290.790	2699
290.848	2199
290.906	2801
290.963	2262
291.021	1905
291.078	2978
291.136	3299
291.194	11782
291.251	22954
291.309	6441
291.366	2476
291.424	3072
291.481	3101
291.539	2905
291.596	1982
291.654	1091
291.711	1689
291.769	1973
291.826	5881
291.884	3193
291.941	2434
291.999	1812
292.056	3078
292.114	3168
292.171	1916
292.228	2390
292.286	3399
292.343	4970
292.401	6274
292.458	3844
292.515	3179
292.573	4593
292.630	4187
292.687	3841
292.745	2929
292.802	5166
292.859	13965
292.917	20987
292.974	10713
293.031	4676
293.089	2763
293.146	3423
293.203	2316
293.260	2438
293.318	6046
293.375	7929
293.432	2915
293.489	2531
293.546	2652
293.604	4685
293.661	13603
293.718	35048
293.775	16958
293.832	8220
293.889	6614
293.947	9525
294.004	7549
294.061	6254
294.118	11941
294.175	22843
294.232	29510
294.289	10808
294.346	5709
294.403	6643
294.460	4745
294.517	3858
294.574	3760
294.631	4192
294.688	5454
294.745	12160
294.802	42238
294.859	44893
294.916	19865
294.973	12721
295.030	8268
295.087	5658
295.144	4371
295.201	3440
295.258	3620
295.315	5113
295.372	15363
295.429	27335
295.486	11313
295.542	8778
295.599	22827
295.656	35940
295.713	22934
295.770	26506
295.827	9854
295.883	5462
295.940	5845
295.997	8027
296.054	7659
296.111	3796
296.167	2750
296.224	2870
296.281	2564
296.338	3080
296.394	3367
296.451	4549
296.508	12265
296.564	23645
296.621	16754
296.678	31216
296.734	43749
296.791	15524
296.848	8371
296.904	9880
296.961	19191
297.018	29850
297.074	22087
297.131	8553
297.187	6684
297.244	10716
297.301	30568
297.357	52714
297.414	16742
297.470	7770
297.527	5363
297.583	5337
297.640	3912
297.696	4048
297.753	2544
297.809	3003
297.866	1492
297.922	2986
297.979	2307
298.035	3121
298.092	6040
298.148	18138
298.204	16120
298.261	9078
298.317	15386
298.374	37499
298.430	19971
298.486	9134
298.543	6208
298.599	6055
298.656	8467
298.712	13877
298.768	34512
298.824	24048
298.881	8363
298.937	5712
298.993	4496
299.050	6052
299.106	5125
299.162	4897
299.218	4127
299.275	3368
299.331	4961
299.387	10136
299.443	31962
299.500	34049
299.556	13565
299.612	7454
299.668	6552
299.724	9587
299.780	9546
299.837	5977
299.893	9672
299.949	28688
300.005	31978
300.061	27522
300.117	45703
300.173	21641
300.229	9351
300.285	11176
300.341	12156
300.397	6352
300.453	4830
300.510	4310
300.566	4807
300.622	7122
300.678	20003
300.734	31867
300.790	26812
300.845	31725
300.901	21200
300.957	29189
301.013	20519
301.069	8454
301.125	6340
301.181	5963
301.237	4682
301.293	3541
301.349	3068
301.405	3140
301.461	3450
301.516	5094
301.572	4424
301.628	8514
301.684	7243
301.740	10801
301.796	17962
301.851	12285
301.907	20386
301.963	20949
302.019	34891
302.074	88917
302.130	84124
302.186	36246
302.242	15663
302.297	10771
302.353	11390
302.409	19445
302.464	17531
302.520	13538
302.576	31986
302.631	35153
302.687	18286
302.743	8421
302.798	5683
302.854	4611
302.910	5288
302.965	5786
303.021	10267
303.076	8975
303.132	10966
303.187	13814
303.243	7071
303.299	4282
303.354	3244
303.410	3874
303.465	3227
303.521	2854
303.576	3195
303.632	5737
303.687	9881
303.743	28009
303.798	23364
303.853	9111
303.909	5353
303.964	4746
304.020	7469
304.075	11870
304.130	10042
304.186	17138
304.241	16821
304.297	12980
304.352	7153
304.358	6989
304.407	5658
304.449	6535
304.463	6829
304.518	6636
304.539	6243
304.573	5607
304.629	5817
304.630	5891
304.684	9601
304.720	18137
304.739	22352
304.794	32489
304.811	27647
304.850	15613
304.902	7580
304.905	7097
304.960	5681
304.992	5534
305.015	5435
305.071	5891
305.083	5588
305.126	4397
305.173	2955
305.181	2757
305.236	3031
305.264	3784
305.292	4560
305.347	5113
305.354	5169
305.402	5463
305.445	6998
305.457	7394
305.512	8248
305.535	7905
305.567	7519
305.622	8054
305.626	8345
305.678	15865
305.716	29640
305.733	34264
305.788	36569
305.807	31838
305.843	24291
305.897	31812
305.898	31871
305.953	31544
305.988	21249
306.008	15815
306.063	10384
306.078	9278
306.118	6995
306.168	4993
306.173	4849
306.228	4836
306.259	4469
306.283	4225
306.338	3899
306.349	4066
306.393	4997
306.440	5826
306.448	5957
306.503	7100
306.530	7413
306.558	9284
306.613	17646
306.620	18802
306.668	26925
306.711	34755
306.723	34919
306.778	27080
306.801	20723
306.833	13817
306.888	7981
306.892	7709
306.943	6626
306.982	6092
306.997	5921
307.052	6029
307.072	6035
307.107	6577
307.162	7927
307.163	7944
307.217	11111
307.253	13154
307.272	13521
307.327	14631
307.343	13777
307.381	11965
307.434	10991
307.436	11278
307.491	21402
307.524	29796
307.546	32120
307.600	32181
307.614	29666
307.655	19187
307.704	11408
307.710	11325
307.765	12936
307.795	15307
307.819	17941
307.874	26851
307.885	27188
307.929	24735
307.975	21708
307.984	22692
308.038	34510
308.065	42686
308.093	67672
308.148	129472
308.156	141800
308.202	203503
308.246	240686
308.257	233825
308.312	146905
308.336	111962
308.366	86521
308.421	53116
308.426	50004
308.475	34291
308.517	24625
308.530	23428
308.585	19781
308.607	18355
308.639	17752
308.694	18541
308.697	18611
308.748	26341
308.787	35261
308.803	35714
308.857	30089
308.877	27394
308.912	26034
308.967	26517
308.967	26506
309.021	37079
309.058	46211
309.076	58628
309.130	100299
309.148	116431
309.185	176055
309.238	273580
309.239	274665
309.293	296476
309.328	286914
309.348	256191
309.402	153898
309.418	127568
309.457	93744
309.508	56693
309.511	55863
309.566	44657
309.598	39062
309.620	39337
309.674	40775
309.688	41406
309.729	40459
309.778	36772
309.783	36273
309.837	29904
309.868	26802
309.892	32126
309.946	46675
309.959	50721
310.001	66224
310.049	81265
310.055	78469
310.109	47232
310.139	29744
310.163	24387
310.218	15368
310.229	13703
310.272	12033
310.319	10274
310.326	10111
310.381	9335
310.409	8889
310.435	8877
310.489	8585
310.499	8595
310.543	8631
310.589	8444
310.598	8656
310.652	10280
310.679	10791
310.706	9938
310.760	8271
310.769	7998
310.814	7521
310.859	7067
310.868	7084
310.923	7011
310.948	7052
310.977	7787
311.031	8983
311.038	9152
311.085	8768
311.128	8066
311.139	8129
311.193	8631
311.218	8731
311.247	8230
311.301	7358
311.308	7228
311.356	7819
311.398	8257
311.410	8229
311.464	7982
311.488	7868
311.518	7885
311.572	7896
311.578	7867
311.626	10361
311.668	12579
311.680	12607
311.734	12419
311.758	12330
311.788	12318
311.842	12210
311.847	12162
311.896	16417
311.937	20030
311.950	19855
312.004	18795
312.027	18244
312.058	15372
312.112	10144
312.117	9590
312.165	9505
312.207	9376
312.297	17729
312.386	12578
312.476	10921
312.566	18401
312.656	10274
312.745	8611
312.835	9728
312.925	11425
313.015	9786
313.104	9440
313.194	8165
313.284	8942
313.374	11596
313.463	11373
313.553	8919
313.643	8770
313.732	8486
313.822	7556
313.912	9256
314.001	9815
314.091	12483
314.180	17686
314.270	13123
314.360	12998
314.449	10524
314.539	9231
314.628	9165
314.718	9579
314.808	11688
314.897	9090
314.987	8232
315.076	10419
315.166	11931
315.255	11343
315.345	11659
315.434	11193
315.524	11328
315.613	11327
315.703	13718
315.792	15960
315.881	22197
315.971	13770
316.060	18134
316.150	22173
316.239	23271
316.328	12298
316.418	8573
316.507	7969
316.597	11372
316.686	11174
316.775	13190
316.865	23238
316.954	9254
317.043	8128
317.133	9150
317.222	8044
317.311	7931
317.400	7493
317.490	11174
317.579	11935
317.668	9136
317.757	11853
317.847	19275
317.936	36819
318.025	28353
318.114	17913
318.203	14944
318.293	23265
318.382	50193
318.471	37607
318.560	51151
318.649	100810
318.738	25720
318.828	14111
318.917	15601
319.006	18087
319.095	35129
319.184	114931
319.273	63758
319.362	30762
319.451	12787
319.540	11905
319.629	20368
319.718	34574
319.807	22369
319.896	37606
319.985	137077
320.074	53255
320.163	16782
320.252	20057
320.341	22501
320.430	23126
320.519	21367
320.608	14320
320.697	13704
320.786	12757
320.875	13410
320.964	16182
321.053	23427
321.142	31365
321.230	35922
321.319	29910
321.408	64809
321.497	30434
321.586	25715
321.675	26998
321.764	28459
321.852	22157
321.941	37176
322.030	26449
322.119	29457
322.207	58795
322.296	40055
322.385	26947
322.474	28607
322.562	70292
322.651	43733
322.740	29419
322.829	43399
322.917	32299
323.006	23503
323.095	22726
323.183	15855
323.272	23412
323.361	33843
323.449	80615
323.538	33414
323.626	60738
323.715	42024
323.804	20305
323.892	51207
323.981	35457
324.069	16145
324.158	28556
324.246	29125
324.335	17641
324.424	24869
324.512	11766
324.601	16009
324.689	25893
324.778	48602
324.866	28727
324.954	11909
325.043	11090
325.131	17193
325.220	24226
325.308	28776
325.397	21113
325.485	16443
325.574	10520
325.662	10512
325.750	10522
325.839	10162
325.927	8520
326.015	11793
326.104	12702
326.192	14881
326.280	8501
326.369	9222
326.457	13498
326.545	21375
326.634	11173
326.722	7657
326.810	8353
326.898	9119
326.987	10217
327.075	19463
327.163	18192
327.251	12695
327.340	19279
327.428	29690
327.516	9629
327.604	8422
327.692	9194
327.781	9467
327.869	13441
327.957	11378
328.045	10845
328.133	7474
328.221	8671
328.309	9273
328.397	9054
328.485	11087
328.574	13206
328.662	38258
328.750	22467
328.838	12135
328.926	9845
329.014	10279
329.102	14050
329.190	34561
329.278	24597
329.366	10723
329.454	11453
329.542	12368
329.630	13353
329.718	15447
329.806	19048
329.893	26327
329.981	41343
330.069	81116
330.157	236738
330.245	458475
330.333	305889
330.421	85741
330.509	40678
330.597	57349
330.684	42367
330.772	21626
330.860	27364
330.948	35967
331.036	17906
331.123	10469
331.211	10569
331.299	14156
331.387	27347
331.475	49392
331.562	15127
331.650	9253
331.738	9803
331.825	12365
331.913	8477
332.001	8017
332.089	10108
332.176	19167
332.264	27670
332.352	26466
332.439	13014
332.527	11263
332.614	8053
332.702	10035
332.790	8088
332.877	15309
332.965	25945
333.052	11502
333.140	10621
333.228	18063
333.315	9915
333.403	9204
333.490	17974
333.578	17627
333.665	19808
333.753	14339
333.840	9061
333.928	11713
334.015	22184
334.103	40095
334.190	126160
334.278	41103
334.365	15870
334.452	12952
334.540	10664
334.627	12308
334.715	16930
334.802	26091
334.889	88649
334.977	90457
335.064	19981
335.151	13439
335.239	15294
335.326	21092
335.413	68276
335.501	98461
335.588	19391
335.675	13822
335.762	18819
335.850	33030
335.937	22204
336.024	38125
336.111	121704
336.199	58924
336.286	17728
336.373	11791
336.460	9912
336.547	9751
336.635	11737
336.722	10886
336.809	10326
336.896	15972
336.983	45715
337.070	109553
337.157	142142
337.245	71176
337.332	45186
337.419	11398
337.506	9472
337.593	13305
337.680	38613
337.767	118914
337.854	35127
337.941	37841
338.028	26635
338.115	13307
338.202	17954
338.289	25430
338.376	60601
338.463	28816
338.550	65251
338.637	76235
338.724	18028
338.811	20718
338.898	8338
338.984	8514
339.071	11973
339.158	11404
339.245	25148
339.332	17505
339.419	15275
339.506	16596
339.593	6616
339.679	7663
339.766	7101
339.853	11039
339.940	19126
340.027	8961
340.113	8378
340.200	10684
340.287	9161
340.374	10371
340.460	16746
340.547	9357
340.634	12759
340.720	41916
340.807	26510
340.894	7797
340.980	6598
341.067	7381
341.154	8301
341.240	11157
341.327	22796
341.414	9595
341.500	9670
341.587	8821
341.674	7108
341.760	16092
341.847	18596
341.933	8509
342.020	4750
342.106	6245
342.193	7939
342.279	12466
342.366	10285
342.452	16291
342.539	9995
342.625	20575
342.712	48548
342.798	22095
342.885	10747
342.971	5976
343.058	4945
343.144	6236
343.230	5946
343.317	7021
343.403	6182
343.490	5140
343.576	5838
343.662	5919
343.749	7524
343.835	10436
343.921	18807
344.008	86426
344.094	197413
344.180	51339
344.267	19637
344.353	54005
344.439	59022
344.525	25559
344.612	17730
344.698	19699
344.784	13867
344.870	7913
344.957	6881
345.043	10840
345.129	8821
345.215	16847
345.301	9985
345.387	7891
345.474	5406
345.560	5942
345.646	7315
345.732	7423
345.818	9317
345.904	7205
345.990	7898
346.076	7589
346.162	11636
346.249	7701
346.335	6064
346.421	8253
346.507	22662
346.593	78174
346.679	23067
346.765	10052
346.851	6705
346.937	8042
347.023	6483
347.108	7977
347.194	6208
347.280	8377
347.366	9028
347.452	24150
347.538	94619
347.624	71038
347.710	57590
347.796	10963
347.882	8644
347.967	7955
348.053	12232
348.139	9468
348.225	6300
348.311	6198
348.397	5554
348.482	8329
348.568	10071
348.654	6391
348.740	8528
348.825	10108
348.911	13088
348.997	42625
349.083	85853
349.168	16621
349.254	7760
349.340	9011
349.425	5365
349.511	8707
349.597	11779
349.682	18537
349.768	56497
349.854	30862
349.939	9420
350.025	6123
350.110	7608
350.196	5923
350.282	4647
350.367	5656
350.453	8416
350.538	9542
350.624	9524
350.709	10210
350.795	5522
350.880	5950
350.966	7908
351.051	8924
351.137	7438
351.222	7373
351.308	18141
351.393	51352
351.479	15193
351.564	6887
351.649	6519
351.735	5732
351.820	5190
351.906	7069
351.991	9133
352.076	30902
352.162	48745
352.247	11651
352.332	8704
352.418	15214
352.503	19589
352.588	69305
352.673	57535
352.759	13997
352.844	8183
352.929	8393
353.014	11165
353.100	10914
353.185	23560
353.270	22591
353.355	17417
353.441	8367
353.526	8094
353.611	14634
353.696	17130
353.781	11577
353.866	6918
353.952	7307
354.037	14965
354.122	31269
354.207	28635
354.292	13964
354.377	6945
354.462	7182
354.547	8624
354.632	10761
354.717	19999
354.802	29565
354.887	11557
354.972	7560
355.057	6004
355.142	5039
355.227	7800
355.312	11842
355.397	22526
355.482	47596
355.567	26694
355.652	18496
355.737	21091
355.822	61482
355.907	53579
355.991	11914
356.076	6211
356.161	6456
356.246	5929
356.331	8258
356.416	16865
356.501	91889
356.585	101734
356.670	20190
356.755	13641
356.840	20562
356.924	81254
357.009	227971
357.094	92763
357.179	22361
357.263	15604
357.348	14273
357.433	15413
357.517	13435
357.602	12022
357.687	11093
357.771	23742
357.856	63606
357.941	40090
358.025	57114
358.110	222966
358.195	118748
358.279	22488
358.364	15929
358.448	41739
358.533	115726
358.617	88481
358.702	86161
358.787	33823
358.871	19293
358.956	17894
359.040	7096
359.125	5954
359.209	8517
359.294	27949
359.378	51896
359.462	19014
359.547	11559
359.631	6902
359.716	6073
359.800	8014
359.885	13705
359.969	8287
360.053	7273
360.138	7665
360.222	9814
360.306	16898
360.391	16205
360.475	30489
360.559	64323
360.644	45384
360.728	35241
360.812	54078
360.896	144966
360.981	71220
361.065	41456
361.149	12008
361.233	11261
361.318	9324
361.402	9439
361.486	9653
361.570	8412
361.654	10252
361.739	22594
361.823	89659
361.907	144342
361.991	32765
362.075	18554
362.159	34682
362.243	29711
362.327	30720
362.411	31254
362.495	18550
362.580	13535
362.664	11916
362.748	12859
362.832	17866
362.916	29057
363.000	61215
363.084	123590
363.168	174663
363.252	50956
363.336	21729
363.420	25739
363.503	94552
363.587	120458
363.671	25182
363.755	17113
363.839	22138
363.923	14024
364.007	22937
364.091	28657
364.175	46283
364.258	165257
364.342	127814
364.426	102678
364.510	58521
364.594	37528
364.677	37194
364.761	126250
364.845	97063
364.929	33373
365.013	26377
365.096	21242
365.180	26616
365.264	40895
365.347	150913
365.431	76230
365.515	23908
365.598	9806
365.682	10157
365.766	22743
365.849	30003
365.933	12814
366.017	16828
366.100	17433
366.184	6622
366.267	7900
366.351	7011
366.435	6705
366.518	5593
366.602	6200
366.685	6366
366.769	7248
366.852	17536
366.936	29002
367.019	13844
367.103	15303
367.186	32244
367.270	10691
367.353	5170
367.436	6774
367.520	5714
367.603	9368
367.687	11292
367.770	20064
367.853	14028
367.937	41019
368.020	71057
368.104	17797
368.187	15197
368.270	24354
368.353	24102
368.437	23116
368.520	40528
368.603	31610
368.687	45949
368.770	89869
368.853	25483
368.936	24072
369.020	30375
369.103	11388
369.186	7638
369.269	9307
369.352	13828
369.436	20537
369.519	14293
369.602	8751
369.685	9211
369.768	9728
369.851	9108
369.934	6372
370.018	8499
370.101	16234
370.184	15922
370.267	13854
370.350	21221
370.433	31613
370.516	70994
370.599	82974
370.682	25380
370.765	49114
370.848	56989
370.931	105958
371.014	49231
371.097	11599
371.180	8721
371.263	7322
371.346	5593
371.429	8070
371.511	7501
371.594	13118
371.677	22970
371.760	33764
371.843	24520
371.926	91861
372.009	213221
372.091	76564
372.174	43148
372.257	102712
372.340	44559
372.423	38414
372.505	50688
372.588	22845
372.671	31210
372.754	99881
372.836	56308
372.919	49971
373.002	102018
373.085	31702
373.167	20507
373.250	45528
373.332	103632
373.415	131660
373.498	257649
373.580	108540
373.663	122427
373.746	175786
373.828	47418
373.911	21971
373.993	23688
374.076	91676
374.159	89284
374.241	32471
374.324	88049
374.406	63013
374.489	76027
374.571	218580
374.654	99576
374.736	45382
374.819	133064
374.901	182935
374.983	188607
375.066	42885
375.148	19073
375.231	71122
375.313	143580
375.395	61641
375.478	15280
375.560	10612
375.643	12601
375.725	36995
375.807	152169
375.890	119853
375.972	44528
376.054	27074
376.136	34586
376.219	19402
376.301	44793
376.383	134682
376.465	56972
376.548	31724
376.630	38263
376.712	113662
376.794	56876
376.877	9702
376.959	6619
377.041	10262
377.123	24252
377.205	32293
377.287	7485
377.369	5747
377.452	6171
377.534	5992
377.616	6524
377.698	7127
377.780	5314
377.862	6974
377.944	6962
378.026	4787
378.108	5806
378.190	5809
378.272	5367
378.354	4678
378.436	4790
378.518	12575
378.600	46619
378.682	35976
378.764	61378
378.846	52649
378.928	17681
379.010	24327
379.091	13886
379.173	7654
379.255	6337
379.337	9438
379.419	28364
379.501	87497
379.583	39447
379.664	11917
379.746	21362
379.828	61896
379.910	84939
379.991	74236
380.073	15695
380.155	10075
380.237	7244
380.318	6161
380.400	7158
380.482	14371
380.564	21294
380.645	27541
380.727	26340
380.809	13756
380.890	10124
380.972	8894
381.053	8659
381.135	10361
381.217	21921
381.298	66073
381.380	35784
381.461	27040
381.543	108518
381.624	141182
381.706	31229
381.787	18177
381.869	20102
381.951	51045
382.032	188511
382.113	127503
382.195	32248
382.276	23952
382.358	49226
382.439	114886
382.521	117844
382.602	179713
382.684	84640
382.765	144259
382.846	146420
382.928	142762
383.009	87460
383.090	74883
383.172	214920
383.253	290054
383.334	134040
383.416	162719
383.497	93728
383.578	44058
383.659	74533
383.741	210007
383.822	434847
383.903	241828
383.984	114766
384.066	196072
384.147	129980
384.228	30813
384.309	21843
384.390	18544
384.471	14011
384.553	14904
384.634	19638
384.715	19809
384.796	12520
384.877	14994
384.958	55029
385.039	72027
385.120	28050
385.201	14974
385.282	18567
385.363	20003
385.444	16449
385.525	27594
385.606	89416
385.687	81368
385.768	24476
385.849	28164
385.930	97501
386.011	177556
386.092	56612
386.173	16299
386.254	12821
386.335	13758
386.416	14909
386.496	41135
386.577	69021
386.658	30323
386.739	18397
386.820	18764
386.901	15739
386.981	15216
387.062	10271
387.143	15544
387.224	59096
387.304	61304
387.385	24046
387.466	18056
387.547	23453
387.627	15863
387.708	24660
387.789	103719
387.869	135211
387.950	40869
388.031	11580
388.111	13469
388.192	31489
388.273	45161
388.353	25898
388.434	14723
388.514	22911
388.595	98560
388.676	135231
388.756	66216
388.837	58092
388.917	39242
388.998	11519
389.078	11572
389.159	7995
389.239	6999
389.320	13466
389.400	12486
389.480	25735
389.561	70481
389.641	37915
389.722	13896
389.802	21014
389.883	30349
389.963	79355
390.043	54028
390.124	21584
390.204	24563
390.284	70199
390.365	48657
390.445	67069
390.525	144166
390.605	117187
390.686	45246
390.766	16836
390.846	10025
390.927	7402
391.007	8631
391.087	10979
391.167	11200
391.247	8509
391.328	13480
391.408	24880
391.488	22132
391.568	7950
391.648	10861
391.728	14350
391.808	13909
391.888	15456
391.969	37385
392.049	64732
392.129	34794
392.209	33463
392.289	78766
392.369	49547
392.449	51782
392.529	31117
392.609	20661
392.689	24231
392.769	75282
392.849	68835
392.929	50449
393.009	120687
393.089	89218
393.169	65225
393.248	175904
393.328	556221
393.408	585498
393.488	190857
393.568	62378
393.648	34914
393.728	24624
393.807	19100
393.887	19495
393.967	18201
394.047	22029
394.127	28510
394.206	47910
394.286	142176
394.366	472639
394.446	539250
394.525	197144
394.605	61911
394.685	42257
394.764	72586
394.844	117016
394.924	83137
395.003	27426
395.083	17872
395.163	15720
395.242	14986
395.322	15716
395.402	13595
395.481	18096
395.561	45257
395.640	120608
395.720	94654
395.799	134796
395.879	117054
395.958	81200
396.038	218878
396.117	593838
396.197	669851
396.276	327365
396.356	130027
396.435	85886
396.515	53315
396.594	46272
396.673	64743
396.753	189119
396.832	523051
396.912	414092
396.991	124081
397.070	39119
397.150	22826
397.229	18921
397.308	23864
397.388	41454
397.467	27825
397.546	13476
397.625	9133
397.705	13501
397.784	13111
397.863	8697
397.942	7876
398.022	9418
398.101	33528
398.180	111194
398.259	66155
398.338	18360
398.417	10888
398.497	8471
398.576	9034
398.655	6152
398.734	6865
398.813	8271
398.892	30741
398.971	112767
399.050	60552
399.129	9249
399.208	5773
399.287	6477
399.366	5100
399.445	5991
399.524	5842
399.603	5287
399.682	10892
399.761	30946
399.840	113274
399.919	95213
399.998	15558
400.077	5303
400.156	4341
400.235	7807
400.313	6053
400.392	8145
400.471	31507
400.550	54040
400.629	15978
400.708	8739
400.786	9148
400.865	31509
400.944	35497
401.023	15686
401.102	3752
401.180	4497
401.259	5716
401.338	7768
401.416	7794
401.495	8085
401.574	7814
401.652	6406
401.731	9765
401.810	12188
401.888	5951
401.967	4290
402.046	6401
402.124	9347
402.203	10905
402.281	7606
402.360	12020
402.438	37897
402.517	29973
402.596	10898
402.674	9323
402.753	6731
402.831	5286
402.910	8729
402.988	33547
403.066	116125
403.145	72818
403.223	38940
403.302	106607
403.380	84571
403.459	85343
403.537	37811
403.615	15216
403.694	5012
403.772	5256
403.850	3689
403.929	4228
404.007	6276
404.085	17038
404.164	24375
404.242	12012
404.320	26175
404.398	93543
404.477	112131
404.555	155213
404.633	140635
404.711	72175
404.789	52346
404.868	19014
404.946	8842
405.024	4995
405.102	4046
405.180	3706
405.258	3377
405.336	4906
405.415	4524
405.493	15708
405.571	17862
405.649	5869
405.727	5709
405.805	9548
405.883	10546
405.961	10495
406.039	12934
406.117	5689
406.195	9046
406.273	31157
406.351	122097
406.429	82029
406.507	19240
406.585	7804
406.663	5650
406.740	7348
406.818	6459
406.896	4177
406.974	5725
407.052	10777
407.130	68583
407.208	103874
407.285	23265
407.363	5534
407.441	4498
407.519	4405
407.596	5810
407.674	14535
407.752	46821
407.830	54296
407.907	27622
407.985	11504
408.063	4987
408.141	3342
408.218	12016
408.296	14834
408.373	10800
408.451	6791
408.529	5546
408.606	3424
408.684	3142
408.762	2561
408.839	1955
408.917	1842
408.994	3919
409.072	3306
409.149	3543
409.227	6139
409.304	7917
409.382	5916
409.459	6913
409.537	9133
409.614	8528
409.692	7978
409.769	6832
409.846	9925
409.924	13499
410.001	11848
410.079	10075
410.156	8184
410.233	8983
410.311	6205
410.388	5370
410.465	6188
410.543	7482
410.620	5257
410.697	4363
410.775	5822
410.852	3228
410.929	6321
411.006	8612
411.083	5738
411.161	14401
411.238	17391
411.315	10657
411.392	4064
411.469	6988
411.547	8554
411.624	4864
411.701	4989
411.778	5073
411.855	9776
411.932	5478
412.009	3479
412.086	3607
412.163	5460
412.240	6060
412.317	8122
412.394	8656
412.471	3699
412.548	2876
412.625	2823
412.702	5795
412.779	11669
412.856	9449
412.933	3852
413.010	2704
413.087	6108
413.164	28978
413.241	45096
413.318	11949
413.395	7192
413.471	10058
413.548	4949
413.625	3742
413.702	4765
413.779	5926
413.855	1983
413.932	2450
414.009	2174
414.086	3033
414.162	3004
414.239	6341
414.316	26772
414.393	65225
414.469	25470
414.546	3725
414.623	1792
414.699	2210
414.776	4358
414.853	3259
414.929	3515
415.006	3638
415.082	6157
415.159	4765
415.236	3743
415.312	3011
415.389	5938
415.465	9134
415.542	5212
415.618	2998
415.695	5889
415.771	3945
415.848	3127
415.924	4042
416.000	5028
416.077	3520
416.153	756
416.230	1214
416.306	1980
416.383	2159
416.459	2800
416.535	892
416.612	2172
416.688	2207
416.764	1907
416.841	1169
416.917	2678
416.993	3071
417.069	4302
417.146	7586
417.222	13312
417.298	7159
417.374	2852
417.451	4104
417.527	4468
417.603	5288
417.679	3850
417.755	3570
417.831	1327
417.908	2283
417.984	2325
418.060	1720
418.136	7873
418.212	10667
418.288	4228
418.364	3238
418.440	2004
418.516	5748
418.592	10724
418.668	15961
418.744	19462
418.820	14761
418.896	4852
418.972	2150
419.048	2565
419.124	9391
419.200	7268
419.276	2579
419.352	145
419.428	2521
419.504	2428
419.579	3860
419.655	3286
419.731	3226
419.807	10421
419.883	21347
419.959	16093
420.034	6128
420.110	9736
420.186	39923
420.262	34591
420.337	7596
420.413	5251
420.489	3086
420.565	3314
420.640	3151
420.716	3935
420.792	2564
420.867	4483
420.943	3591
421.019	7083
421.094	6144
421.170	5554
421.245	4218
421.321	4980
421.397	5337
421.472	11020
421.548	26126
421.623	19862
421.699	10174
421.774	8962
421.850	9259
421.925	13450
422.001	14595
422.076	14173
422.152	17274
422.227	24751
422.302	33631
422.378	47760
422.453	85721
422.529	184459
422.604	402567
422.679	516064
422.755	428012
422.830	221236
422.905	97644
422.981	54821
423.056	36546
423.131	26877
423.207	19439
423.282	16568
423.357	21187
423.432	16305
423.508	15952
423.583	25881
423.658	20160
423.733	9465
423.808	10757
423.883	10475
423.959	8991
424.034	6899
424.109	6295
424.184	4617
424.259	4634
424.334	3910
424.409	3400
424.484	3708
424.559	4397
424.634	3928
424.709	4843
424.784	4998
424.859	4161
424.934	6475
425.009	25727
425.084	47577
425.159	19785
425.234	4461
425.309	3202
425.384	14716
425.459	29127
425.534	9150
425.609	4019
425.683	3767
425.758	3391
425.833	3119
425.908	5728
425.983	15274
426.058	45232
426.132	22943
426.207	6764
426.282	11019
426.357	9836
426.431	3658
426.506	3098
426.581	4625
426.655	4124
426.730	2589
426.805	2651
426.879	3797
426.954	3802
427.029	8220
427.103	38531
427.178	104201
427.253	51756
427.327	8633
427.402	12588
427.476	34833
427.551	18222
427.625	6406
427.700	6294
427.774	3368
427.849	5693
427.923	3148
427.998	3976
428.072	4757
428.147	12738
428.221	43838
428.296	130361
428.370	71832
428.444	12455
428.519	14794
428.593	30504
428.667	26524
428.742	31357
428.816	30182
428.890	90547
428.965	144187
429.039	51352
429.113	35488
429.188	14210
429.262	4309
429.336	7876
429.410	22605
429.485	18200
429.559	24253
429.633	21239
429.707	7737
429.781	18263
429.855	98895
429.930	144701
430.004	80791
430.078	128914
430.152	115790
430.226	169673
430.300	171702
430.374	34486
430.448	13503
430.522	38086
430.596	114877
430.670	72097
430.744	123448
430.818	176578
430.892	39284
430.966	7585
431.040	4108
431.114	2468
431.188	2330
431.262	2579
431.336	2786
431.410	11853
431.484	33447
431.557	21255
431.631	5033
431.705	5618
431.779	25242
431.853	111023
431.927	81657
432.000	12245
432.074	4155
432.148	5557
432.222	5550
432.295	3099
432.369	3035
432.443	6786
432.516	39270
432.590	103322
432.664	42393
432.737	5839
432.811	1276
432.885	1656
432.958	1679
433.032	1242
433.106	321
433.179	866
433.253	515
433.326	900
433.400	488
433.473	2261
433.547	302
433.620	1802
433.694	4791
433.767	5765
433.841	1972
433.914	1225
433.988	1419
434.061	1683
434.134	1080
434.208	1038
434.281	288
434.355	686
434.428	2101
434.501	1366
434.575	1361
434.648	1879
434.721	1678
434.795	582
434.868	438
434.941	984
435.014	169
435.088	971
435.161	1865
435.234	4473
435.307	5993
435.381	3170
435.454	1961
435.527	3563
435.600	2703
435.673	3442
435.746	2422
435.819	2368
435.892	1944
435.966	1681
436.039	1996
436.112	2595
436.185	-142
436.258	761
436.331	257
436.404	866
436.477	376
436.550	1269
436.623	1026
436.696	982
436.769	960
436.842	2661
436.915	2023
436.987	3564
437.060	1767
437.133	1349
437.206	458
437.279	1828
437.352	1192
437.425	1392
437.498	2371
437.570	6748
437.643	6833
437.716	2344
437.789	876
437.861	5262
437.934	18355
438.007	8589
438.080	1686
438.152	2697
438.225	7299
438.298	47557
438.370	136456
438.443	63634
438.516	17784
438.588	4505
438.661	717
438.734	1903
438.806	2083
438.879	3176
438.951	4508
439.024	9913
439.096	2748
439.169	2149
439.241	774
439.314	1730
439.386	3939
439.459	5946
439.531	8470
439.604	3628
439.676	1847
439.749	1279
439.821	683
439.893	842
439.966	950
440.038	2942
440.110	2784
440.183	1996
440.255	1348
440.327	4024
440.400	20297
440.472	88282
440.544	58214
440.617	8897
440.689	7211
440.761	9344
440.833	14140
440.905	9049
440.978	1879
441.050	645
441.122	1227
441.194	830
441.266	1786
441.338	1158
441.411	4496
441.483	26592
441.555	41952
441.627	9854
441.699	7113
441.771	8239
441.843	1973
441.915	1331
441.987	1398
442.059	1273
442.131	3467
442.203	6011
442.275	8020
442.347	8243
442.419	12092
442.491	52929
442.563	119142
442.635	58136
442.706	35197
442.778	26174
442.850	5280
442.922	3026
442.994	4731
443.066	8495
443.137	6217
443.209	6245
443.281	9498
443.353	22418
443.425	72974
443.496	219919
443.568	206778
443.640	78655
443.711	20037
443.783	8310
443.855	5278
443.926	3531
443.998	3968
444.070	5744
444.141	4766
444.213	6791
444.285	6807
444.356	5327
444.428	4495
444.499	2856
444.571	1786
444.642	2250
444.714	2804
444.785	5729
444.857	8566
444.928	23940
445.000	13422
445.071	16170
445.143	21421
445.214	14766
445.285	23045
445.357	64007
445.428	163348
445.500	319141
445.571	212381
445.642	108259
445.714	48572
445.785	45088
445.856	14550
445.928	9096
445.999	8055
446.070	6696
446.141	6686
446.213	9592
446.284	5581
446.355	5760
446.426	4189
446.497	3721
446.569	7250
446.640	9093
446.711	5730
446.782	1965
446.853	2126
446.924	3753
446.995	2457
447.066	3617
447.138	8219
447.209	4534
447.280	1164
447.351	1310
447.422	730
447.493	3635
447.564	3738
447.635	4025
447.706	1979
447.777	552
447.847	68
447.918	877
447.989	3642
448.060	5735
448.131	14617
448.202	12055
448.273	6202
448.344	3530
448.414	1730
448.485	1586
448.556	1333
448.627	600
448.698	1479
448.768	624
448.839	1962
448.910	6970
448.981	6695
449.051	2956
449.122	667
449.193	1460
449.263	1877
449.334	1469
449.405	2140
449.475	7819
449.546	5533
449.616	8672
449.687	7091
449.758	3002
449.828	2578
449.899	2030
449.969	1336
450.040	2383
450.110	1888
450.181	2485
450.251	2396
450.322	2216
450.392	2285
450.463	1976
450.533	1480
450.604	1757
450.674	800
450.744	1910
450.815	1524
450.885	2769
450.955	1447
451.026	1325
451.096	1649
451.166	2947
451.237	9057
451.307	26310
451.377	8885
451.447	2014
451.518	1401
451.588	1682
451.658	1787
451.728	4676
451.799	24968
451.869	28993
451.939	6245
452.009	1879
452.079	1139
452.149	2233
452.219	5739
452.289	30385
452.360	21132
452.430	4016
452.500	1940
452.570	3866
452.640	6163
452.710	17471
452.780	29259
452.850	16494
452.920	12927
452.990	4888
453.060	4178
453.129	5618
453.199	7628
453.269	28724
453.339	61859
453.409	95045
453.479	95078
453.549	142766
453.619	153273
453.688	55651
453.758	8159
453.828	3989
453.898	2252
453.968	2578
454.037	2006
454.087	2173
454.107	2233
454.168	1042
454.177	851
454.247	2635
454.249	2588
454.316	1180
454.330	1553
454.386	2933
454.411	6806
454.456	13112
454.492	17633
454.525	21643
454.574	10032
454.595	5001
454.655	2866
454.665	2541
454.734	3098
454.736	3217
454.804	6781
454.817	10350
454.873	24563
454.898	25527
454.943	26996
454.979	16412
455.013	6868
455.060	3724
455.082	2630
455.141	4696
455.152	4947
455.221	16916
455.222	17175
455.291	34435
455.303	32172
455.360	20806
455.384	26399
455.430	36106
455.465	28940
455.499	21842
455.546	23218
455.569	23788
455.627	14606
455.638	12980
455.707	2356
455.708	2364
455.777	1718
455.789	1649
455.846	1200
455.869	1148
455.916	1057
455.950	1499
455.985	1842
456.031	1400
456.054	1205
456.112	1299
456.124	1309
456.193	923
456.193	908
456.262	2058
456.274	2333
456.332	3263
456.355	3238
456.401	3066
456.436	2253
456.470	1360
456.516	1218
456.540	1260
456.597	402
456.609	202
456.678	603
456.678	591
456.747	873
456.759	792
456.817	384
456.840	640
456.886	1206
456.920	739
456.955	175
457.001	611
457.024	995
457.082	1759
457.093	1857
457.162	2791
457.163	2810
457.232	3163
457.243	3086
457.301	2115
457.324	1576
457.370	1107
457.405	1306
457.439	1356
457.485	1158
457.508	1159
457.566	1919
457.577	2034
457.646	2104
457.647	2129
457.715	4598
457.727	5088
457.784	7743
457.808	9437
457.853	12373
457.889	15841
457.922	16939
457.969	13214
457.991	12862
458.050	13539
458.060	13735
458.129	20400
458.130	20632
458.198	25762
458.211	24769
458.267	16348
458.292	12116
458.336	7866
458.372	6700
458.405	7332
458.453	9514
458.474	11691
458.533	20672
458.543	21716
458.611	35741
458.614	36116
458.680	31500
458.694	27479
458.749	13859
458.775	9776
458.818	6096
458.855	4729
458.887	3822
458.936	3371
458.955	3283
459.016	2461
459.024	2365
459.093	2927
459.097	2908
459.162	2893
459.177	3104
459.230	3243
459.257	3189
459.299	3465
459.338	3815
459.368	3850
459.418	4272
459.437	4271
459.499	3294
459.505	3211
459.574	2248
459.579	2242
459.643	2525
459.659	2527
459.711	2241
459.740	2301
459.780	2948
459.820	3076
459.849	2922
459.900	3709
459.917	3868
459.981	3841
459.986	3811
460.054	2986
460.061	2948
460.123	3205
460.141	3368
460.191	3801
460.222	3928
460.260	4408
460.302	5557
460.328	5481
460.382	4386
460.397	4384
460.462	3613
460.465	3656
460.534	6320
460.543	6732
460.602	21314
460.623	26808
460.671	38731
460.703	54713
460.739	61029
460.783	58831
460.808	50690
460.864	11763
460.876	7773
460.944	4274
460.945	4233
461.013	3777
461.024	3603
461.081	3044
461.104	3298
461.150	3708
461.184	3621
461.218	3508
461.264	3294
461.286	3293
461.345	3400
461.355	3401
461.423	3946
461.425	3941
461.491	3158
461.505	3185
461.559	7163
461.585	8996
461.628	14046
461.665	19407
461.696	22720
461.745	32214
461.764	30157
461.825	10860
461.832	10076
461.901	4950
461.905	4898
461.969	4048
461.985	3696
462.037	4124
462.065	4590
462.105	4785
462.145	4694
462.173	6765
462.225	10967
462.241	11963
462.305	18091
462.310	17857
462.378	14010
462.385	12826
462.446	5198
462.465	3925
462.514	4536
462.545	5139
462.582	5022
462.625	4749
462.650	4608
462.705	4347
462.718	4503
462.785	5333
462.786	5373
462.854	7668
462.865	8137
462.922	9507
462.945	10162
462.990	8839
463.025	6614
463.058	5538
463.104	4602
463.126	4403
463.184	4494
463.194	4603
463.262	4686
463.264	4708
463.330	5299
463.344	5312
463.398	5646
463.424	5973
463.466	5764
463.504	5510
463.533	5548
463.583	5713
463.601	6038
463.663	6566
463.669	6606
463.737	7481
463.743	7581
463.805	12656
463.823	14116
463.873	20512
463.903	24753
463.940	27758
463.982	32465
464.008	27939
464.062	13576
464.076	12198
464.142	5920
464.144	5869
464.211	5687
464.221	5734
464.279	5626
464.301	5460
464.347	5864
464.381	6279
464.414	7196
464.461	8497
464.482	9061
464.540	10872
464.550	10522
464.617	7214
464.620	7097
464.685	7448
464.699	7527
464.753	8481
464.779	9035
464.820	9557
464.859	9882
464.888	9989
464.938	10293
464.956	10692
465.018	12117
465.023	11971
465.091	9477
465.098	9214
465.158	9089
465.177	9066
465.226	9230
465.257	9367
465.293	9403
465.336	9358
465.361	9762
465.416	10708
465.428	11540
465.495	16117
465.496	16207
465.563	26444
465.575	28350
465.631	35683
465.654	39118
465.698	27854
465.734	16635
465.765	13696
465.813	9773
465.833	9711
465.893	10429
465.900	10441
465.968	10245
465.972	10224
466.035	10652
466.052	10707
466.102	10934
466.131	11092
466.170	11638
466.210	12120
466.237	12216
466.290	12394
466.304	12738
466.369	14053
466.372	14072
466.439	14059
466.449	14023
466.506	14965
466.528	15289
466.573	19327
466.607	22296
466.641	30543
466.687	42040
466.708	46270
466.766	58162
466.775	54644
466.842	27207
466.845	25848
466.909	18959
466.925	17448
466.977	17536
467.004	17579
467.044	17855
467.083	18114
467.111	18507
467.163	19124
467.178	19301
467.242	19893
467.245	19848
467.312	18227
467.321	17984
467.379	18448
467.400	18565
467.446	19193
467.480	19590
467.559	18673
467.638	15909
467.717	15213
467.796	17489
467.875	17005
467.955	17264
468.034	21722
468.113	47109
468.192	65933
468.271	27922
468.350	15642
468.429	15469
468.508	15457
468.588	14038
468.667	14063
468.746	14917
468.825	13028
468.904	12257
468.983	12765
469.062	19684
469.141	24377
469.220	13509
469.299	10933
469.378	12430
469.456	11757
469.535	12152
469.614	11596
469.693	11909
469.772	15079
469.851	19936
469.930	16425
470.009	11090
470.088	9957
470.166	11144
470.245	11003
470.324	13888
470.403	12522
470.482	11630
470.560	10328
470.639	10530
470.718	11442
470.797	11278
470.875	12660
470.954	18420
471.033	19397
471.111	10569
471.190	7844
471.269	8445
471.347	9258
471.426	10232
471.505	10043
471.583	11256
471.662	10282
471.740	10327
471.819	9629
471.898	9179
471.976	9179
472.055	9237
472.133	10670
472.212	14873
472.290	14772
472.369	11332
472.447	9062
472.526	8950
472.604	9262
472.683	10498
472.761	10827
472.839	9775
472.918	9050
472.996	9308
473.075	11381
473.153	10634
473.231	8826
473.310	10416
473.388	11222
473.466	9684
473.545	10291
473.623	12905
473.701	12846
473.780	9060
473.858	9291
473.936	12008
474.014	9397
474.093	10758
474.171	15181
474.249	21340
474.327	17118
474.405	9192
474.484	8405
474.562	8929
474.640	8746
474.718	11345
474.796	11658
474.874	12282
474.952	10432
475.030	11169
475.108	11582
475.187	14224
475.265	16055
475.343	26033
475.421	31282
475.499	15885
475.577	10840
475.655	13438
475.733	25939
475.811	44393
475.889	41411
475.966	34737
476.044	11616
476.122	16915
476.200	23785
476.278	22417
476.356	9740
476.434	11046
476.512	13489
476.590	22486
476.667	20479
476.745	9215
476.823	9536
476.901	9654
476.979	9034
477.056	9335
477.134	9586
477.212	9962
477.290	9005
477.367	9212
477.445	8402
477.523	8323
477.601	8135
477.678	8646
477.756	11021
477.834	12546
477.911	9068
477.989	8481
478.066	9123
478.144	10989
478.222	15934
478.299	28652
478.377	34279
478.454	12064
478.532	7992
478.609	9097
478.687	10225
478.764	8539
478.842	8972
478.919	9014
478.997	9676
479.074	8434
479.152	10266
479.229	13732
479.307	9723
479.384	8122
479.461	7090
479.539	9095
479.616	9302
479.694	9714
479.771	8541
479.848	10463
479.926	12015
480.003	16425
480.080	9230
480.157	8782
480.235	8256
480.312	8376
480.389	7979
480.467	15185
480.544	18543
480.621	12643
480.698	9813
480.775	10426
480.853	10554
480.930	9650
481.007	10559
481.084	12980
481.161	14092
481.238	13874
481.315	7740
481.392	8652
481.470	8882
481.547	9501
481.624	8763
481.701	8552
481.778	8201
481.855	10749
481.932	14721
482.009	25496
482.086	24443
482.163	11377
482.240	18297
482.317	38538
482.393	41542
482.470	11919
482.547	9775
482.624	9723
482.701	9805
482.778	10082
482.855	7704
482.932	8087
483.009	8246
483.085	9772
483.162	11140
483.239	13675
483.316	8689
483.393	9524
483.469	8626
483.546	9924
483.623	11459
483.699	9039
483.776	9120
483.853	10616
483.930	13673
484.006	37369
484.083	63879
484.160	38650
484.236	31771
484.313	29719
484.389	22100
484.466	21111
484.543	18317
484.619	18740
484.696	19706
484.772	20988
484.849	22323
484.925	19113
485.002	16613
485.078	19106
485.155	19869
485.231	17715
485.308	16519
485.384	17807
485.461	21450
485.537	37063
485.614	50576
485.690	22223
485.766	17291
485.843	17421
485.919	21278
485.995	26232
486.072	15870
486.148	14738
486.224	15398
486.301	16244
486.377	18457
486.453	20135
486.530	18635
486.606	21373
486.682	23887
486.758	31175
486.835	40070
486.911	31000
486.987	45703
487.063	53060
487.139	51791
487.215	43336
487.292	26277
487.368	19913
487.444	22232
487.520	27893
487.596	29269
487.672	38517
487.748	80505
487.824	138958
487.900	102122
487.976	40486
488.052	27525
488.128	28897
488.204	23441
488.280	20532
488.356	21422
488.432	44484
488.508	73343
488.584	35505
488.660	16846
488.736	15998
488.812	16669
488.888	19609
488.964	22623
489.039	44196
489.115	74294
489.191	60252
489.267	21124
489.343	17765
489.418	14760
489.494	15165
489.570	13005
489.646	15957
489.722	14465
489.797	15721
489.873	22245
489.949	51183
490.024	58431
490.100	16895
490.176	15463
490.251	17865
490.327	20532
490.403	17853
490.478	13844
490.554	12395
490.629	12343
490.705	13049
490.781	14467
490.856	14701
490.932	15608
491.007	16415
491.083	14552
491.158	14889
491.234	18330
491.309	38867
491.385	52994
491.460	19014
491.536	16802
491.611	14892
491.686	15464
491.762	18898
491.837	30004
491.913	55288
491.988	73243
492.063	101470
492.139	46153
492.214	27707
492.289	13006
492.365	11923
492.440	13244
492.515	15106
492.590	15231
492.666	13008
492.741	15161
492.816	25119
492.891	18525
492.967	13411
493.042	11139
493.117	11896
493.192	12327
493.267	18800
493.342	50288
493.418	85096
493.493	25308
493.568	11152
493.643	11061
493.718	14948
493.793	19515
493.868	22730
493.943	15802
494.018	12404
494.093	11425
494.168	13240
494.243	10524
494.318	10386
494.393	10481
494.468	10228
494.543	10639
494.618	11598
494.693	11988
494.768	11897
494.842	12252
494.917	11537
494.992	10672
495.067	11933
495.142	10106
495.217	11470
495.292	12675
495.366	14442
495.441	16573
495.516	20157
495.591	22192
495.665	59643
495.740	147541
495.815	113918
495.890	24250
495.964	18177
496.039	19813
496.114	19198
496.188	21635
496.263	22979
496.338	18880
496.412	20530
496.487	24098
496.561	24285
496.636	26075
496.710	24121
496.785	24217
496.860	28950
496.934	25844
497.009	26156
497.083	25969
497.158	28110
497.232	31816
497.307	38170
497.381	37776
497.455	41648
497.530	50857
497.604	47290
497.679	46567
497.753	60792
497.827	76384
497.902	77176
497.976	82682
498.050	118303
498.125	333163
498.199	486331
498.273	130049
498.348	87607
498.422	79466
498.496	75081
498.570	70937
498.645	63027
498.719	58743
498.793	59854
498.867	67000
498.941	79429
499.016	143464
499.090	378294
499.164	260645
499.238	44140
499.312	33437
499.386	35729
499.460	35904
499.534	32635
499.609	32994
499.683	41239
499.757	44157
499.831	62625
499.905	226952
499.979	328940
500.053	64225
500.127	48430
500.201	33718
500.275	25061
500.349	22266
500.422	24655
500.496	29983
500.570	49908
500.644	127084
500.718	280330
500.792	124774
500.866	25206
500.940	26889
501.013	27002
501.087	21190
501.161	30190
501.235	42029
501.309	76451
501.382	219200
501.456	290115
501.530	63023
501.603	81537
501.677	55442
501.751	17672
501.825	18624
501.898	30330
501.972	90474
502.046	96553
502.119	21250
502.193	38314
502.266	102021
502.340	84079
502.413	43554
502.487	97426
502.561	70059
502.634	29546
502.708	14582
502.781	14133
502.855	12881
502.928	11819
503.002	11912
503.075	11328
503.149	11710
503.222	13271
503.295	13639
503.369	17589
503.442	21993
503.516	61254
503.589	180554
503.662	171429
503.736	51462
503.809	80548
503.882	96106
503.956	93767
504.029	128702
504.102	63827
504.175	80982
504.249	55288
504.322	32298
504.395	25126
504.468	16587
504.542	15729
504.615	12087
504.688	11021
504.761	9045
504.834	13883
504.907	13785
504.980	20647
505.053	14014
505.127	12473
505.200	18517
505.273	18522
505.346	14924
505.419	10026
505.492	10133
505.565	8641
505.638	8110
505.711	8465
505.784	8257
505.857	9162
505.930	9949
506.003	8684
506.076	10643
506.149	13475
506.221	16085
506.294	15752
506.367	30702
506.440	119484
506.513	114326
506.586	21364
506.659	12869
506.731	10576
506.804	9904
506.877	14710
506.950	14077
507.022	9469
507.095	10609
507.168	16881
507.241	9910
507.313	8736
507.386	8226
507.459	11872
507.531	9028
507.604	7637
507.677	8619
507.749	7436
507.822	9391
507.894	15243
507.967	21823
508.040	13533
508.112	10802
508.185	11196
508.257	10315
508.330	15116
508.402	11250
508.475	10167
508.547	11811
508.620	11617
508.692	17557
508.765	15866
508.837	8073
508.909	8759
508.982	9245
509.054	11044
509.127	9624
509.199	9047
509.271	7927
509.344	7740
509.416	8198
509.488	8894
509.560	9341
509.633	9390
509.705	9859
509.777	9845
509.849	13124
509.922	12024
509.994	9082
510.066	9790
510.138	9367
510.210	16165
510.283	15538
510.355	13903
510.427	12298
510.499	11286
510.571	12407
510.643	11187
510.715	15235
510.787	15948
510.859	12059
510.931	13700
511.003	15711
511.076	17239
511.148	10997
511.219	11448
511.291	15959
511.363	25686
511.435	13262
511.507	9959
511.579	10697
511.651	10586
511.723	9117
511.795	10113
511.867	10222
511.939	12338
512.010	23719
512.082	27006
512.154	10724
512.226	11445
512.298	13239
512.369	20109
512.441	16276
512.513	15293
512.585	12253
512.656	13752
512.728	14021
512.800	12685
512.871	10966
512.943	11853
513.015	9020
513.086	11502
513.158	11497
513.230	12336
513.301	14902
513.373	18250
513.444	12318
513.516	10407
513.588	10062
513.659	11546
513.731	12624
513.802	12094
513.874	19521
513.945	37607
514.016	23193
514.088	11950
514.159	10736
514.231	14056
514.302	19260
514.374	17088
514.445	13808
514.516	29728
514.588	30989
514.659	17118
514.730	28318
514.802	30784
514.873	22902
514.944	32575
515.016	28854
515.087	26589
515.158	27968
515.229	40944
515.301	33209
515.372	45270
515.443	44071
515.514	34437
515.585	23579
515.656	19997
515.728	16319
515.799	14043
515.870	13446
515.941	14150
516.012	12342
516.083	16006
516.154	15379
516.225	18924
516.296	18134
516.367	17013
516.438	17966
516.509	20919
516.580	25772
516.651	59849
516.722	222479
516.793	209362
516.864	38822
516.935	32342
517.006	31859
517.077	39820
517.148	73027
517.219	207662
517.289	500128
517.360	249420
517.431	107531
517.502	23041
517.573	18469
517.643	17860
517.714	17897
517.785	20480
517.856	18478
517.926	23086
517.997	26402
518.068	29893
518.138	39239
518.209	49387
518.280	138880
518.350	565770
518.421	477081
518.492	69905
518.562	34809
518.633	33432
518.703	35709
518.774	53193
518.845	96046
518.915	118281
518.986	61155
519.056	38615
519.127	40685
519.197	58105
519.268	138928
519.338	151713
519.408	31342
519.479	27587
519.549	24022
519.620	17277
519.690	13591
519.760	13367
519.831	13027
519.901	14795
519.971	11862
520.042	14319
520.112	15211
520.182	16705
520.253	18992
520.323	14038
520.393	17022
520.463	30994
520.534	20194
520.604	41607
520.674	28362
520.744	19704
520.814	38881
520.885	51146
520.955	41697
521.025	167893
521.095	127589
521.165	19773
521.235	14690
521.305	12595
521.375	11536
521.445	13312
521.515	14027
521.585	17618
521.655	19066
521.725	14487
521.795	14519
521.865	11329
521.935	17929
522.005	19728
522.075	12004
522.145	12579
522.215	13636
522.285	20148
522.355	24304
522.424	47670
522.494	52329
522.564	27906
522.634	26815
522.704	82530
522.774	60661
522.843	14680
522.913	13037
522.983	14828
523.053	13010
523.122	13884
523.192	15168
523.262	36590
523.331	60415
523.401	19269
523.471	9590
523.540	11133
523.610	9481
523.680	10292
523.749	9982
523.819	13182
523.888	16597
523.958	11058
524.027	10839
524.097	12096
524.166	10745
524.236	10473
524.305	12569
524.375	9959
524.444	9867
524.514	12617
524.583	10030
524.653	14267
524.722	16800
524.791	12572
524.861	11005
524.930	9869
524.999	9566
525.069	15522
525.138	13930
525.207	17488
525.277	13875
525.346	11525
525.415	11059
525.484	11514
525.554	14407
525.623	17827
525.692	14751
525.761	17746
525.830	17329
525.900	20630
525.969	28320
526.038	46044
526.107	73229
526.176	217862
526.245	273421
526.314	101696
526.383	112098
526.452	204701
526.522	236700
526.591	387143
526.660	124347
526.729	57666
526.797	48117
526.867	71531
526.935	257827
527.004	570577
527.073	540788
527.142	89472
527.211	29635
527.280	20621
527.349	18900
527.418	12949
527.487	13194
527.555	10949
527.624	9823
527.693	8760
527.762	10323
527.831	8921
527.899	9360
527.968	10662
528.037	9524
528.106	11469
528.174	17424
528.243	19116
528.312	18444
528.380	32532
528.449	14535
528.518	9922
528.586	6723
528.655	9255
528.723	7894
528.792	9253
528.861	8344
528.929	8232
528.998	8285
529.066	8569
529.135	7418
529.203	7972
529.272	8366
529.340	10304
529.409	11184
529.477	9279
529.545	11037
529.614	16439
529.682	12816
529.751	20082
529.819	17079
529.887	16494
529.956	10899
530.024	12268
530.092	9081
530.161	11432
530.229	14682
530.297	12774
530.365	10179
530.434	10620
530.502	9968
530.570	9937
530.638	7838
530.707	9651
530.775	11813
530.843	9966
530.911	9038
530.979	9743
531.047	9075
531.115	10695
531.183	9485
531.252	10519
531.320	9698
531.388	9052
531.456	9695
531.524	8295
531.592	10731
531.660	12385
531.728	8878
531.796	8835
531.864	9003
531.932	10456
532.000	9834
532.067	10866
532.135	12276
532.203	14069
532.271	12990
532.339	17642
532.407	37527
532.475	38348
532.542	18001
532.610	17417
532.678	19166
532.746	52196
532.814	189923
532.881	85709
532.949	17440
533.017	13725
533.084	11377
533.152	11444
533.220	11359
533.287	11708
533.355	11518
533.423	11676
533.490	9727
533.558	11147
533.625	10786
533.693	11895
533.761	11834
533.828	12828
533.896	10648
533.963	17522
534.031	24317
534.098	34526
534.166	24828
534.233	13703
534.300	13346
534.368	14101
534.435	12524
534.503	14200
534.570	15580
534.637	16622
534.705	16518
534.772	19777
534.840	26170
534.907	89777
534.974	201285
535.041	47261
535.109	18836
535.176	13986
535.243	11701
535.310	11158
535.378	10253
535.445	10108
535.512	9493
535.579	10828
535.646	8964
535.714	10832
535.781	12298
535.848	12893
535.915	12697
535.982	12718
536.049	12791
536.116	14238
536.183	11786
536.250	12103
536.317	12392
536.384	14859
536.451	16530
536.518	17245
536.585	14917
536.652	17501
536.719	20352
536.786	17764
536.853	15819
536.920	19831
536.987	27809
537.053	26501
537.120	75918
537.187	116241
537.254	18246
537.321	11845
537.388	12163
537.454	10720
537.521	9720
537.588	9725
537.654	12318
537.721	13906
537.788	14802
537.855	11255
537.921	10853
537.988	11425
538.055	10506
538.121	10469
538.188	12095
538.254	15031
538.321	25424
538.388	21483
538.454	12063
538.521	12112
538.587	10387
538.654	9840
538.720	10145
538.787	9723
538.853	10058
538.920	12864
538.986	14335
539.053	13050
539.119	12692
539.185	12034
539.252	13087
539.318	16897
539.385	16319
539.451	15117
539.517	16097
539.583	15278
539.650	23254
539.716	75813
539.782	39387
539.849	13074
539.915	12282
539.981	12940
540.047	13384
540.114	13387
540.180	14027
540.246	13098
540.312	15462
540.378	25779
540.444	28694
540.510	25534
540.576	78750
540.643	47961
540.709	12863
540.775	12765
540.841	11465
540.907	15762
540.973	25108
541.039	20083
541.105	18493
541.171	13250
541.237	11255
541.303	13594
541.369	14471
541.435	16459
541.500	22088
541.566	18925
541.632	11677
541.698	10896
541.764	11083
541.830	10810
541.896	10272
541.961	12594
542.027	12797
542.093	13133
542.159	12343
542.224	12739
542.290	17670
542.356	23427
542.421	27735
542.487	18152
542.553	12127
542.618	15026
542.684	13272
542.750	13411
542.815	14361
542.881	19408
542.947	61760
543.012	77784
543.078	14954
543.143	11962
543.209	13408
543.274	13737
543.340	13578
543.405	23307
543.471	52187
543.536	19711
543.602	11459
543.667	10526
543.732	11805
543.798	10404
543.863	11542
543.928	10442
543.994	9352
544.059	10759
544.124	10666
544.190	11328
544.255	12323
544.320	11710
544.386	11515
544.451	16343
544.516	17420
544.581	16480
544.646	35140
544.712	86423
544.777	27226
544.842	15947
544.907	16968
544.972	15437
545.037	13234
545.102	16439
545.168	15246
545.233	16913
545.298	17050
545.363	18951
545.428	19918
545.493	26891
545.558	58536
545.623	40696
545.688	17104
545.753	16052
545.818	14621
545.883	16406
545.947	14850
546.012	17131
546.077	17167
546.142	16953
546.207	14304
546.272	19341
546.337	19815
546.401	18385
546.466	16767
546.531	15811
546.596	17803
546.661	18327
546.725	17293
546.790	16019
546.855	16283
546.919	16159
546.984	17961
547.049	20362
547.113	23829
547.178	21452
547.243	21969
547.307	25188
547.372	27526
547.436	32346
547.501	26469
547.565	25465
547.630	26833
547.695	28572
547.759	28854
547.823	31329
547.888	25054
547.952	25750
548.017	25998
548.081	31946
548.146	36376
548.210	37340
548.274	26710
548.339	26738
548.403	25552
548.468	23091
548.532	22608
548.596	24363
548.660	23943
548.725	26513
548.789	27468
548.853	33481
548.917	28285
548.982	31367
549.046	37533
549.110	23989
549.174	21905
549.238	23548
549.303	24100
549.367	26864
549.431	24837
549.495	24786
549.559	22784
549.623	26036
549.687	29006
549.751	36582
549.815	34638
549.879	33469
549.943	29580
550.007	33343
550.071	32536
550.135	35855
550.199	32801
550.263	30052
550.327	30534
550.391	38997
550.455	37266
550.519	33420
550.582	34812
550.646	40487
550.710	45299
550.774	39231
550.838	37375
550.901	40322
550.965	44296
551.029	46465
551.093	53392
551.156	64474
551.220	92986
551.284	121783
551.347	72098
551.411	84599
551.475	117429
551.538	52807
551.602	37864
551.666	36328
551.729	32979
551.793	33242
551.856	31340
551.920	32202
551.983	31645
552.047	30621
552.110	30593
552.174	31333
552.237	32172
552.301	30767
552.364	28421
552.428	28274
552.491	28030
552.554	30270
552.618	28975
552.681	32067
552.745	30994
552.808	37023
552.871	43032
552.934	41543
552.998	32883
553.061	33837
553.124	33070
553.187	31730
553.251	32780
553.314	34211
553.377	33331
553.440	41681
553.503	79633
553.567	181858
553.630	65753
553.693	32144
553.756	30932
553.819	29996
553.882	27129
553.945	27803
554.008	26839
554.071	26723
554.134	26792
554.197	26376
554.260	23937
554.323	27141
554.386	26638
554.449	27107
554.512	26163
554.575	25983
554.638	26069
554.701	26185
554.764	24869
554.827	26701
554.889	24340
554.952	22259
555.015	21720
555.078	22555
555.141	22906
555.203	23071
555.266	23877
555.329	23855
555.391	21615
555.454	23822
555.517	23707
555.580	23301
555.642	21108
555.705	21639
555.768	21588
555.830	22310
555.893	20424
555.955	20565
556.018	19738
556.080	20568
556.143	19970
556.206	20978
556.268	21497
556.330	22228
556.393	22105
556.455	21761
556.518	26755
556.580	33289
556.643	19906
556.705	20765
556.767	18540
556.830	20529
556.892	20906
556.955	26414
557.017	25876
557.079	20220
557.142	19751
557.204	20464
557.266	31393
557.328	35873
557.391	20504
557.453	18590
557.515	18813
557.577	21392
557.639	24149
557.701	21322
557.764	19363
557.826	22314
557.888	23857
557.950	25512
558.012	27027
558.074	33832
558.136	62993
558.198	208395
558.260	133087
558.322	37218
558.384	32615
558.446	36654
558.508	40253
558.570	49614
558.632	65265
558.694	96860
558.756	113468
558.818	272787
558.880	893180
558.942	520658
559.003	244629
559.065	183893
559.127	59739
559.189	50415
559.251	54071
559.312	67891
559.374	138617
559.436	523975
559.498	483997
559.559	87402
559.621	55427
559.683	54611
559.744	75206
559.806	212155
559.868	505859
559.929	167449
559.991	58325
560.052	67527
560.114	183432
560.176	193332
560.237	99980
560.299	222272
560.360	88736
560.422	29031
560.483	23949
560.545	21374
560.606	18954
560.667	19194
560.729	18306
560.790	18038
560.852	18718
560.913	17611
560.974	16470
561.036	17160
561.097	17030
561.158	17642
561.220	18262
561.281	17359
561.342	17376
561.403	20504
561.465	21061
561.526	35621
561.587	60117
561.648	27758
561.709	18384
561.771	18029
561.832	17975
561.893	16182
561.954	16317
562.015	16803
562.076	17086
562.137	17088
562.198	16386
562.259	17299
562.320	16256
562.381	17554
562.442	21795
562.503	22724
562.564	16676
562.625	16403
562.686	16826
562.747	17966
562.808	17884
562.869	16951
562.930	20351
562.991	20991
563.051	19411
563.112	18372
563.173	17713
563.234	16614
563.294	17196
563.355	15908
563.416	17474
563.477	17671
563.537	18097
563.598	19131
563.659	18422
563.720	18440
563.780	17602
563.841	18968
563.901	19068
563.962	18074
564.023	18060
564.083	19282
564.144	18521
564.204	19371
564.265	18397
564.325	22271
564.386	34608
564.446	42891
564.507	20034
564.567	19439
564.628	20030
564.688	20009
564.749	20060
564.809	22139
564.869	25031
564.930	23373
564.990	19913
565.050	19553
565.111	21049
565.171	20736
565.231	20306
565.292	21230
565.352	21208
565.412	22120
565.472	22233
565.532	24585
565.593	24895
565.653	24272
565.713	24533
565.773	26224
565.833	26921
565.893	33373
565.953	28807
566.013	28183
566.074	30171
566.134	34529
566.194	44238
566.254	53045
566.314	41742
566.374	36344
566.434	37180
566.494	39883
566.554	40869
566.614	43861
566.673	45494
566.733	48906
566.793	51527
566.853	54337
566.913	54577
566.973	56505
567.033	55916
567.092	56215
567.152	56055
567.212	59408
567.272	58515
567.331	62768
567.391	64328
567.451	68528
567.511	72863
567.570	74366
567.630	61953
567.690	60078
567.749	59779
567.809	64889
567.868	71327
567.928	78597
567.988	91847
568.047	107225
568.107	128678
568.166	159871
568.226	213239
568.285	285134
568.345	310041
568.404	297728
568.464	278554
568.523	266572
568.582	262458
568.642	273867
568.701	303490
568.761	365173
568.820	474719
568.879	539298
568.939	511569
568.998	451261
569.057	379467
569.116	323254
569.176	273149
569.235	232874
569.294	200920
569.353	174346
569.413	151179
569.472	134430
569.531	118714
569.590	106684
569.649	95192
569.708	86765
569.767	79040
569.827	75569
569.886	70424
569.945	61277
570.004	58028
570.063	54731
570.122	50876
570.181	48194
570.240	47140
570.299	46212
570.358	44581
570.417	39961
570.475	35904
570.534	36189
570.593	33656
570.652	33501
570.711	33185
570.770	30786
570.829	31122
570.887	30093
570.946	29784
571.005	27947
571.064	25196
571.122	27191
571.181	27567
571.240	26977
571.299	23961
571.357	24971
571.416	24125
571.475	25534
571.533	26553
571.592	22762
571.650	23381
571.709	23057
571.768	21506
571.826	21624
571.885	20767
571.943	20505
572.002	19816
572.060	21074
572.119	18303
572.177	19290
572.236	17378
572.294	17441
572.352	18061
572.411	18263
572.469	17952
572.528	16753
572.586	17752
572.644	18306
572.703	21634
572.761	19607
572.819	16790
572.877	17335
572.936	16209
572.994	16424
573.052	16586
573.110	16661
573.169	16958
573.227	16007
573.285	15670
573.343	16477
573.401	15428
573.459	16478
573.517	14762
573.576	16368
573.634	15255
573.692	16727
573.750	16453
573.808	15604
573.866	15983
573.924	19612
573.982	20273
574.040	17839
574.098	15856
574.155	15799
574.213	14766
574.271	15036
574.329	14785
574.387	15430
574.445	13914
574.503	14869
574.560	14001
574.618	13897
574.676	12777
574.734	14326
574.792	14671
574.849	13494
574.907	13809
574.965	13677
575.022	13075
575.080	14021
575.138	13444
575.195	14651
575.253	14401
575.311	15746
575.368	13774
575.426	13960
575.483	13391
575.541	13166
575.598	13216
575.656	14346
575.713	13194
575.771	14822
575.828	14585
575.886	14183
575.943	15358
576.001	14983
576.058	14486
576.115	14831
576.173	16271
576.230	17984
576.287	18593
576.345	18294
576.402	14951
576.459	15748
576.517	15462
576.574	16950
576.631	16749
576.688	15223
576.746	15045
576.803	15420
576.860	14664
576.917	15557
576.974	14516
577.031	15142
577.089	14543
577.146	15279
577.203	15540
577.260	17100
577.317	15797
577.374	18443
577.431	17132
577.488	16108
577.545	14944
577.602	16455
577.659	15557
577.716	16529
577.773	16984
577.830	16093
577.886	15589
577.943	15495
578.000	15275
578.057	16983
578.114	17307
578.171	17084
578.227	17572
578.284	19706
578.341	19208
578.398	18453
578.454	18096
578.511	18697
578.568	19400
578.625	17909
578.681	16006
578.738	15949
578.794	16221
578.851	16021
578.908	16873
578.964	15783
579.021	16201
579.077	15702
579.134	15908
579.190	15961
579.247	14588
579.303	15898
579.360	15810
579.416	15771
579.473	15737
579.529	15893
579.586	15872
579.642	16151
579.698	15716
579.755	17345
579.811	16907
579.867	16943
579.924	16827
579.980	16713
580.036	18044
580.093	20669
580.149	21650
580.205	24944
580.261	24176
580.317	23661
580.374	21845
580.430	22610
580.486	20610
580.542	20644
580.598	20031
580.619	19781
580.654	19359
580.692	18855
580.710	18623
580.765	19571
580.767	19610
580.823	18499
580.838	18572
580.879	18794
580.911	18706
580.935	18661
580.984	18651
580.991	18655
581.047	17999
581.057	18244
581.103	19373
581.130	19688
581.159	20045
581.203	20319
581.215	20377
581.270	19611
581.276	19650
581.326	20141
581.349	20291
581.382	20506
581.422	20269
581.438	20180
581.494	20654
581.494	20651
581.550	20338
581.567	20331
581.606	20397
581.640	20968
581.661	21277
581.713	21567
581.717	21592
581.773	19410
581.786	19784
581.829	20991
581.859	21595
581.885	22209
581.932	21598
581.940	21451
581.996	21375
582.004	21397
582.052	21567
582.077	21729
582.107	21895
582.150	21295
582.163	21156
582.219	22505
582.223	22532
582.274	22728
582.296	23033
582.330	23502
582.368	23568
582.386	23596
582.441	23747
582.441	23744
582.497	22542
582.514	23038
582.552	24253
582.587	24763
582.608	24972
582.659	25456
582.663	25489
582.719	24761
582.732	24802
582.774	25014
582.805	25616
582.830	26087
582.877	26383
582.885	26454
582.941	25122
582.950	25476
582.996	27191
583.023	27326
583.052	27630
583.095	29342
583.107	29809
583.162	30022
583.168	30309
583.218	32448
583.240	31876
583.273	30893
583.313	30935
583.328	31063
583.384	30448
583.385	30486
583.439	31205
583.458	30861
583.494	30517
583.531	31074
583.549	31323
583.603	31506
583.605	31513
583.660	32602
583.676	32445
583.715	32066
583.748	32265
583.770	32473
583.820	32749
583.825	32788
583.881	34320
583.893	34300
583.936	34016
583.965	34097
583.991	34369
584.038	35842
584.046	36051
584.101	35404
584.110	35451
584.156	36095
584.183	36798
584.211	37386
584.255	37512
584.266	37577
584.321	37958
584.328	38011
584.376	38850
584.400	39613
584.431	40544
584.472	40671
584.486	40696
584.541	42276
584.545	42215
584.596	41716
584.617	42295
584.651	43720
584.689	44987
584.706	45329
584.761	45945
584.762	45927
584.816	47117
584.834	47728
584.871	48979
584.906	49270
584.926	49464
584.978	51905
584.980	52017
585.035	51503
585.051	51959
585.090	54203
585.123	56185
585.145	57477
585.195	59601
585.200	59869
585.254	63106
585.267	63837
585.309	66730
585.340	69882
585.364	72502
585.412	76114
585.419	76579
585.473	80502
585.484	81178
585.528	87631
585.556	94358
585.583	106853
585.628	136965
585.637	149528
585.692	246825
585.700	268299
585.747	372561
585.772	371591
585.801	301300
585.845	168536
585.856	147843
585.910	102857
585.917	98993
585.965	92986
585.989	90446
586.019	88775
586.061	87257
586.074	87403
586.128	89646
586.133	89771
586.183	91839
586.205	92393
586.237	93912
586.277	95648
586.292	96418
586.346	98589
586.349	98659
586.401	101724
586.421	102445
586.455	105194
586.493	109327
586.509	112807
586.564	123676
586.565	123920
586.618	149324
586.637	155036
586.672	148486
586.709	135888
586.727	132952
586.781	132496
586.781	132683
586.835	136270
586.853	137096
586.889	139142
586.925	141150
586.944	143576
586.996	150408
586.998	150803
587.052	157456
587.068	159222
587.106	164947
587.140	170010
587.161	173334
587.212	180464
587.215	181192
587.269	191739
587.284	194196
587.323	202063
587.356	208440
587.377	213069
587.427	223404
587.431	224612
587.485	238349
587.499	241305
587.539	253930
587.571	263919
587.593	271780
587.643	288452
587.648	290698
587.702	311717
587.715	316315
587.755	336979
587.786	352567
587.810	364888
587.858	388881
587.864	392946
587.917	429443
587.930	437200
587.971	470240
588.001	493772
588.025	516259
588.073	559817
588.079	567160
588.133	626926
588.145	639583
588.187	698030
588.217	738006
588.241	780545
588.288	861937
588.295	876157
588.348	988547
588.360	1010972
588.402	1128064
588.431	1209104
588.456	1294317
588.503	1454888
588.510	1487103
588.564	1729865
588.575	1778071
588.617	2018812
588.646	2177221
588.671	2311544
588.718	2551122
588.725	2582728
588.778	2769522
588.789	2792942
588.832	2722396
588.861	2633636
588.886	2368438
588.932	1820818
588.939	1778993
588.993	1470160
589.004	1429128
589.047	2044156
589.075	2472989
589.100	2676501
589.147	2996922
589.154	3001778
589.207	2921417
589.218	2894084
589.261	2804435
589.290	2736904
589.314	2746561
589.361	2755980
589.368	2772498
589.421	2862182
589.433	2869158
589.475	2740660
589.504	2607758
589.528	2337225
589.576	1777879
589.582	1820988
589.635	2281646
589.647	2386084
589.689	2706618
589.718	2880258
589.742	2781740
589.790	2516986
589.795	2480973
589.849	2074096
589.861	1975720
589.902	1733725
589.932	1548883
589.955	1448509
590.004	1230451
590.009	1218003
590.062	1055831
590.075	1014155
590.115	925050
590.146	853669
590.168	820274
590.218	740229
590.222	736485
590.275	666641
590.289	646932
590.328	606788
590.360	572424
590.381	555673
590.431	511653
590.435	510675
590.488	472356
590.503	460823
590.541	440973
590.574	421418
590.594	412174
590.645	386133
590.647	386291
590.700	363225
590.716	355484
590.753	343202
590.787	330146
590.806	325312
590.859	309013
590.859	309591
590.912	293302
590.930	287041
590.965	279054
591.001	270085
591.018	267578
591.071	257201
591.072	256370
591.124	248728
591.143	245024
591.177	239813
591.214	232721
591.230	230815
591.283	222201
591.285	221211
591.336	214918
591.356	211451
591.389	208542
591.427	203908
591.442	202531
591.495	194928
591.498	193791
591.547	189609
591.569	186901
591.600	184596
591.640	180074
591.653	179556
591.706	175392
591.711	174368
591.759	172454
591.782	170802
591.811	172488
591.853	173561
591.864	172186
591.917	162356
591.924	160437
591.969	158794
591.995	156972
592.022	155893
592.066	152829
592.075	153364
592.127	153716
592.137	153287
592.180	156956
592.208	158431
592.233	153794
592.279	143432
592.285	143497
592.338	140154
592.350	138925
592.390	136144
592.421	133265
592.443	133433
592.491	132366
592.495	132708
592.548	131210
592.562	130355
592.600	129259
592.633	127474
592.653	126652
592.704	122696
592.705	123381
592.775	122150
592.846	121333
592.916	117973
592.987	118418
593.058	114756
593.128	113713
593.199	110293
593.270	107566
593.341	106832
593.411	103648
593.482	103977
593.553	103359
593.623	100323
593.694	98844
593.764	101711
593.835	97688
593.906	96046
593.976	95940
594.047	96306
594.117	102224
594.188	103478
594.258	92907
594.329	90621
594.399	90510
594.470	89065
594.540	88494
594.611	87606
594.681	87404
594.751	86136
594.822	89100
594.892	87730
594.963	89897
595.033	89246
595.103	89057
595.174	91186
595.244	105223
595.314	122741
595.384	92117
595.455	86217
595.525	87919
595.595	86171
595.665	88364
595.736	85615
595.806	85645
595.876	84634
595.946	84982
596.016	84049
596.087	86607
596.157	84803
596.227	85021
596.297	87431
596.367	90692
596.437	94791
596.507	105091
596.577	120473
596.647	95849
596.717	91302
596.787	92497
596.857	91521
596.927	91465
596.997	90447
597.067	92732
597.137	96157
597.207	94957
597.277	92771
597.347	91082
597.417	88335
597.487	89371
597.557	91321
597.626	92577
597.696	94904
597.766	101118
597.836	115259
597.906	93859
597.975	84629
598.045	84588
598.115	85848
598.185	88548
598.254	93406
598.324	97788
598.394	97897
598.464	97843
598.533	94197
598.603	93099
598.672	90423
598.742	89782
598.812	90916
598.881	93543
598.951	91933
599.020	90668
599.090	90956
599.159	94284
599.229	93238
599.299	91367
599.368	91741
599.437	91797
599.507	87854
599.576	89377
599.646	90254
599.715	89865
599.785	86637
599.854	89030
599.924	91952
599.993	89897
600.062	85870
600.132	86980
600.201	89417
600.270	97767
600.340	99884
600.409	98056
600.478	97314
600.547	98570
600.617	96296
600.686	88063
600.755	81531
600.824	81405
600.894	81206
600.963	80453
601.032	80514
601.101	79372
601.170	78474
601.239	80277
601.308	82455
601.378	83542
601.447	81026
601.516	80824
601.585	83633
601.654	88326
601.723	85445
601.792	85407
601.861	87833
601.930	93249
601.999	93158
602.068	90978
602.137	94311
602.206	97483
602.275	91574
602.343	93787
602.412	93218
602.481	90468
602.550	92070
602.619	92212
602.688	92118
602.756	93037
602.825	93788
602.894	93842
602.963	93346
603.032	95449
603.100	94898
603.169	94264
603.238	97120
603.307	95404
603.375	93090
603.444	95706
603.513	93904
603.581	95493
603.650	99223
603.719	90111
603.787	88323
603.856	90530
603.924	92316
603.993	94958
604.061	95318
604.130	97742
604.198	100025
604.267	101671
604.335	101349
604.404	102814
604.472	103860
604.541	104865
604.609	105959
604.678	108272
604.746	107324
604.815	111284
604.883	111167
604.951	110026
605.020	108983
605.088	108125
605.156	106422
605.225	107027
605.293	105919
605.361	107115
605.429	106156
605.498	109599
605.566	110085
605.634	113956
605.702	115490
605.771	117627
605.839	119396
605.907	114397
605.975	111124
606.043	111744
606.111	109404
606.180	112998
606.248	113568
606.316	113989
606.384	113718
606.452	110806
606.520	103680
606.588	101016
606.656	98273
606.724	97006
606.792	92157
606.860	85543
606.928	78660
606.996	77848
607.064	76003
607.132	77936
607.200	80734
607.267	82846
607.335	83257
607.403	84935
607.471	84508
607.539	80766
607.607	80692
607.674	75690
607.742	75349
607.810	76431
607.878	74325
607.946	75934
608.013	77448
608.081	80002
608.149	79536
608.216	80146
608.284	82460
608.352	82894
608.419	85643
608.487	93613
608.555	84063
608.622	80572
608.690	83007
608.757	89331
608.825	91856
608.893	91017
608.960	89465
609.028	92001
609.095	98604
609.163	86414
609.230	78540
609.298	73683
609.365	74072
609.432	77609
609.500	83350
609.567	92953
609.635	103587
609.702	109006
609.769	105213
609.837	94084
609.904	85196
609.971	87035
610.039	100866
610.106	132975
610.173	234369
610.241	527072
610.308	441827
610.375	169514
610.442	99391
610.509	84013
610.577	79498
610.644	80887
610.711	81082
610.778	82863
610.845	84697
610.912	91113
610.980	95480
611.047	105569
611.114	97643
611.181	87968
611.248	85991
611.315	89921
611.382	91423
611.449	94056
611.516	96325
611.583	96467
611.650	97907
611.717	100290
611.784	104577
611.851	112463
611.918	129338
611.984	158086
612.051	223995
612.118	431042
612.185	1029568
612.252	884421
612.319	220769
612.386	142137
612.452	123476
612.519	117282
612.586	126441
612.653	116586
612.719	110559
612.786	105200
612.853	99000
612.919	95397
612.986	96931
613.053	93222
613.120	86858
613.186	84049
613.253	85737
613.319	84544
613.386	85471
613.453	87903
613.519	89035
613.586	92520
613.652	101443
613.719	94638
613.785	94258
613.852	90265
613.918	86576
613.985	91137
614.051	98969
614.118	119922
614.184	123866
614.250	90079
614.317	88715
614.383	86700
614.449	87768
614.516	86932
614.582	89574
614.648	88656
614.715	85788
614.781	86342
614.847	87779
614.914	89954
614.980	87582
615.046	86429
615.112	90763
615.179	96281
615.245	107317
615.311	134026
615.377	199519
615.443	259497
615.509	177001
615.575	128908
615.642	114862
615.708	114894
615.774	125434
615.840	149338
615.906	190076
615.972	281857
616.038	509863
616.104	835734
616.170	1358247
616.236	1407932
616.302	387676
616.368	216520
616.434	161625
616.500	137946
616.565	139228
616.631	165099
616.697	151785
616.763	144021
616.829	189063
616.895	316150
616.961	357800
617.026	193829
617.092	116844
617.158	102563
617.224	96485
617.289	89492
617.355	86499
617.421	85777
617.487	85318
617.552	79848
617.618	77371
617.684	76065
617.749	78913
617.815	74991
617.880	73594
617.946	74248
618.012	75243
618.077	76062
618.143	73540
618.208	73545
618.274	77217
618.339	80393
618.405	69522
618.470	69302
618.536	69861
618.601	72035
618.667	68709
618.732	63836
618.798	62985
618.863	64490
618.928	62643
618.994	66137
619.059	67161
619.124	74779
619.190	68274
619.255	63784
619.320	63010
619.386	63489
619.451	61875
619.516	62208
619.581	60981
619.647	63530
619.712	62274
619.777	60643
619.842	60672
619.907	61591
619.972	62485
620.038	63229
620.103	59778
620.168	59171
620.233	59757
620.298	59511
620.363	59570
620.428	62804
620.493	62476
620.558	63996
620.623	64102
620.688	63999
620.753	61192
620.818	63291
620.883	62938
620.948	64306
621.013	63865
621.078	64483
621.143	63613
621.207	67752
621.272	64951
621.337	67811
621.402	68455
621.467	75349
621.532	79530
621.596	72084
621.661	67497
621.726	64899
621.791	64274
621.855	66691
621.920	67352
621.985	70110
622.049	74937
622.114	73923
622.179	69741
622.243	73941
622.308	72026
622.373	73998
622.437	72727
622.502	69235
622.566	68564
622.631	68881
622.695	70107
622.760	70562
622.824	68798
622.889	69340
622.953	70960
623.018	81531
623.082	83929
623.147	71729
623.211	70193
623.276	70270
623.340	67644
623.404	65398
623.469	66335
623.533	65193
623.597	64308
623.662	63214
623.726	61840
623.790	59473
623.854	58655
623.919	61289
623.983	59357
624.047	61842
624.111	59991
624.176	60936
624.240	63840
624.304	67409
624.368	61017
624.432	61005
624.496	61750
624.560	63593
624.625	66607
624.689	63739
624.753	64668
624.817	62391
624.881	60160
624.945	57903
625.009	56851
625.073	57297
625.137	59522
625.201	65393
625.265	66208
625.329	58823
625.393	61235
625.456	61881
625.520	62929
625.584	67083
625.648	76091
625.712	97918
625.776	175612
625.839	209571
625.903	107500
625.967	63240
626.031	83507
626.095	128457
626.158	71742
626.222	51210
626.286	47880
626.349	46945
626.413	43951
626.477	46711
626.540	44382
626.604	45092
626.668	44164
626.731	43717
626.795	45743
626.858	46755
626.922	44079
626.986	43090
627.049	41925
627.113	45267
627.176	42172
627.240	42118
627.303	41915
627.366	42102
627.430	43203
627.493	42693
627.557	42789
627.620	44825
627.684	43014
627.747	42853
627.810	41336
627.874	40083
627.937	37830
628.000	41643
628.064	41066
628.127	35339
628.190	36802
628.253	36837
628.317	35381
628.380	34341
628.443	33709
628.506	36596
628.569	33787
628.632	33109
628.696	32139
628.759	33452
628.822	31008
628.885	32332
628.948	31832
629.011	30836
629.074	31276
629.137	29566
629.200	29898
629.263	32349
629.326	29822
629.389	29577
629.452	29934
629.515	31609
629.578	30300
629.641	31497
629.704	30063
629.767	31879
629.830	28371
629.892	29025
629.955	28051
630.018	31194
630.081	29308
630.144	32889
630.207	30978
630.269	33195
630.332	32633
630.395	31046
630.458	27771
630.520	27230
630.583	28223
630.646	27627
630.708	27799
630.771	26655
630.834	28034
630.896	27837
630.959	26776
631.021	27077
631.084	27595
631.146	29007
631.209	32983
631.272	28256
631.334	26651
631.397	27445
631.459	27768
631.522	28238
631.584	28147
631.646	28925
631.709	30375
631.771	33690
631.834	30299
631.896	28289
631.958	27168
632.021	26950
632.083	26132
632.145	28192
632.208	26284
632.270	26782
632.332	25208
632.395	25263
632.457	27071
632.519	26151
632.581	25593
632.643	24617
632.706	25257
632.768	24418
632.830	25297
632.892	24431
632.954	25127
633.016	26513
633.078	24098
633.141	24149
633.203	23917
633.265	25400
633.327	24589
633.389	24477
633.451	26880
633.513	29214
633.575	29565
633.637	28246
633.698	26631
633.760	26911
633.822	26154
633.884	26443
633.946	25763
634.008	26534
634.070	27555
634.132	31535
634.193	29745
634.255	30140
634.317	29390
634.379	30074
634.441	28402
634.502	26682
634.564	26127
634.626	25670
634.687	24569
634.749	24234
634.811	24259
634.873	23581
634.934	22755
634.996	24306
635.057	23122
635.119	22772
635.181	24385
635.242	24612
635.304	22115
635.365	25304
635.427	23335
635.488	23622
635.550	23346
635.611	23903
635.673	23002
635.734	27831
635.796	25651
635.857	28250
635.918	26864
635.980	29630
636.041	29388
636.102	30153
636.164	29960
636.225	29552
636.286	25996
636.348	27123
636.409	24926
636.470	23643
636.531	23564
636.593	26582
636.654	24950
636.715	21967
636.776	20104
636.838	20161
636.899	22035
636.960	20780
637.021	20991
637.082	20069
637.143	20771
637.204	19660
637.265	19210
637.326	20207
637.387	20053
637.448	19371
637.509	19351
637.570	19862
637.631	19948
637.692	19189
637.753	18149
637.814	19039
637.875	18384
637.936	19608
637.997	18054
638.058	19855
638.119	19921
638.179	20107
638.240	17655
638.301	19264
638.362	18547
638.423	18702
638.483	18708
638.544	17655
638.605	18574
638.666	17894
638.726	18756
638.787	18781
638.848	17975
638.908	17893
638.969	17190
639.030	18534
639.090	17416
639.151	17567
639.211	18590
639.272	20363
639.332	26640
639.393	22597
639.453	17340
639.514	19249
639.574	17765
639.635	16707
639.695	17445
639.756	16587
639.816	16867
639.877	17784
639.937	23143
639.997	27578
640.058	18416
640.118	16827
640.178	16640
640.239	17077
640.299	16292
640.359	16405
640.420	16468
640.480	17489
640.540	18125
640.600	18745
640.661	18744
640.721	18139
640.781	22024
640.841	22161
640.901	17951
640.961	17489
641.021	17139
641.082	18356
641.142	20417
641.202	18507
641.262	13787
641.322	15987
641.382	14913
641.442	16532
641.502	15865
641.562	16333
641.622	15264
641.682	16967
641.742	16908
641.802	18117
641.861	16967
641.921	16683
641.981	16568
642.041	17422
642.101	18210
642.161	16471
642.221	14819
642.280	15271
642.340	14559
642.400	14061
642.460	16251
642.519	15972
642.579	15740
642.639	16528
642.698	13757
642.758	17705
642.818	15035
642.877	15946
642.937	15499
642.997	17506
643.056	21136
643.116	16627
643.175	17177
643.235	16243
643.294	16654
643.354	19177
643.414	19938
643.473	25589
643.532	29942
643.592	39763
643.651	58319
643.711	92590
643.770	157641
643.830	343733
643.889	825178
643.948	309665
644.008	52786
644.067	31081
644.126	23640
644.186	21587
644.245	19429
644.304	16467
644.363	17927
644.423	16758
644.482	17152
644.541	17417
644.600	16824
644.659	22732
644.719	24440
644.778	33793
644.837	47010
644.896	84307
644.955	205183
645.014	108736
645.073	28037
645.132	20044
645.191	19109
645.250	17688
645.309	19360
645.368	17823
645.427	21082
645.486	27751
645.545	48177
645.604	25569
645.663	17371
645.722	17523
645.781	18732
645.840	21974
645.898	26325
645.957	38210
646.016	52370
646.075	83469
646.134	147803
646.192	346375
646.251	647893
646.310	154292
646.369	36619
646.427	27331
646.486	21232
646.545	19107
646.603	17901
646.662	15824
646.721	16251
646.779	15213
646.838	16213
646.896	20505
646.955	22741
647.014	31632
647.072	48978
647.131	125745
647.189	95353
647.248	21056
647.306	15497
647.365	15154
647.423	11672
647.481	14227
647.540	11337
647.598	13311
647.657	11887
647.715	13996
647.773	11089
647.832	12898
647.890	11421
647.948	12084
648.007	13051
648.065	12046
648.123	11288
648.181	14574
648.240	15263
648.298	14433
648.356	11060
648.414	12930
648.472	11812
648.531	13188
648.589	12183
648.647	12157
648.705	12653
648.763	12618
648.821	12538
648.879	13575
648.937	15351
648.995	18713
649.053	20915
649.111	30311
649.169	42728
649.227	65045
649.285	119014
649.343	333009
649.401	253077
649.459	51471
649.516	33710
649.574	23627
649.632	31249
649.690	40683
649.748	28964
649.806	32528
649.863	53384
649.921	89183
649.979	87518
650.037	21927
650.094	12364
650.152	11878
650.210	11960
650.268	13139
650.325	12421
650.383	13806
650.440	11614
650.498	10794
650.556	10362
650.613	10433
650.671	10065
650.728	11171
650.786	11418
650.843	12436
650.901	9625
650.958	10415
651.016	9076
651.073	9233
651.131	8656
651.188	9705
651.246	10823
651.303	9877
651.360	9254
651.418	9128
651.475	10522
651.532	8229
651.590	9830
651.647	9706
651.704	9776
651.762	9611
651.819	9481
651.876	10221
651.933	8948
651.990	9895
652.048	7472
652.105	9593
652.162	9143
652.219	8761
652.276	9079
652.333	10064
652.390	7944
652.448	9517
652.505	9589
652.562	9997
652.619	10870
652.676	15029
652.733	15844
652.790	9495
652.847	8293
652.904	9190
652.961	8306
653.017	8503
653.074	7820
653.131	9213
653.188	7978
653.245	8610
653.302	8710
653.359	8735
653.415	9177
653.472	8641
653.529	8103
653.586	7739
653.642	8218
653.699	8630
653.756	7458
653.813	8851
653.869	8448
653.926	7496
653.983	8514
654.039	8311
654.096	7761
654.152	9278
654.209	7774
654.266	8782
654.322	7923
654.379	10709
654.435	10846
654.492	10682
654.548	12654
654.605	18497
654.661	13088
654.717	9249
654.774	9455
654.830	9310
654.887	9210
654.943	10019
655.000	10666
655.056	9295
655.112	9183
655.168	9238
655.225	9360
655.281	10957
655.337	12092
655.394	18848
655.450	15468
655.506	14049
655.562	18066
655.618	18025
655.675	9173
655.731	9205
655.787	8120
655.843	10045
655.899	7461
655.955	8987
656.011	9417
656.067	8410
656.123	8170
656.179	9468
656.235	9693
656.291	7475
656.347	10167
656.403	9004
656.459	9266
656.515	9620
656.571	10459
656.627	9732
656.683	9166
656.739	9353
656.795	8207
656.850	9119
656.906	9733
656.962	9197
657.018	7454
657.074	9542
657.129	9561
657.185	11533
657.241	16345
657.297	15203
657.352	9646
657.408	8155
657.464	9038
657.519	9369
657.575	7048
657.630	9099
657.686	7774
657.742	7877
657.797	7744
657.853	8406
657.908	9459
657.964	8238
658.019	7966
658.075	8657
658.130	9023
658.186	7484
658.241	8286
658.297	6833
658.352	7515
658.407	9471
658.463	7254
658.518	8648
658.573	7620
658.629	7976
658.684	7142
658.739	8695
658.795	6220
658.850	8441
658.905	7326
658.960	9033
659.016	7126
659.071	7844
659.126	7607
659.181	8334
659.236	11189
659.291	11968
659.346	9300
659.401	9820
659.457	9918
659.512	13644
659.567	10546
659.622	9635
659.677	8120
659.732	7773
659.787	8152
659.842	9758
659.897	11575
659.952	8783
660.007	8845
660.061	7355
660.116	7682
660.171	7845
660.226	8084
660.281	8592
660.336	7603
660.391	8074
660.445	7224
660.500	8601
660.555	8347
660.610	7847
660.664	8091
660.719	7322
660.774	7481
660.828	8577
660.883	7975
660.938	8261
660.992	6854
661.047	8942
661.101	7689
661.156	7737
661.211	7074
661.265	7154
661.320	7632
661.374	8286
661.429	6798
661.483	8832
661.538	7015
661.592	7304
661.647	8127
661.701	9354
661.755	8774
661.810	8513
661.864	6639
661.919	7083
661.973	7933
662.027	7264
662.081	7590
662.136	7928
662.190	7630
662.244	8509
662.299	7763
662.353	8889
662.407	7231
662.461	7561
662.515	8462
662.569	8232
662.624	8849
662.678	8188
662.732	7734
662.786	7716
662.840	7806
662.894	7571
662.948	7617
663.002	8364
663.056	7338
663.110	7103
663.164	7455
663.218	8411
663.272	7156
663.326	8251
663.380	7989
663.434	8073
663.488	8180
663.542	8143
663.595	8769
663.649	8052
663.703	8622
663.757	8357
663.811	7365
663.864	7486
663.918	8869
663.972	7669
664.026	7041
664.079	7311
664.133	7502
664.187	8132
664.240	7486
664.294	7874
664.348	8436
664.401	8099
664.455	7202
664.508	7762
664.562	7223
664.615	7433
664.669	6630
664.722	8226
664.776	7557
664.829	8178
664.883	8334
664.936	7372
664.990	8200
665.043	9372
665.097	8999
665.150	10074
665.203	8112
665.257	8846
665.310	7862
665.363	8727
665.417	8052
665.470	8512
665.523	8145
665.576	8167
665.630	8005
665.683	9144
665.736	8693
665.789	8797
665.842	7819
665.895	8125
665.949	8537
666.002	8932
666.055	8651
666.108	9209
666.161	9041
666.214	8694
666.267	8266
666.320	9928
666.373	8799
666.426	9017
666.479	8323
666.532	9783
666.585	8711
666.638	11224
666.691	9677
666.744	10417
666.796	9304
666.849	10133
666.902	8259
666.955	8630
667.008	7714
667.060	7716
667.113	7057
667.166	8775
667.219	7185
667.271	8716
667.324	8010
667.377	8863
667.430	9400
667.482	9587
667.535	9784
667.587	9703
667.640	8746
667.693	9856
667.745	12017
667.798	13837
667.850	9401
667.903	8288
667.955	7857
668.008	8740
668.060	9753
668.113	9764
668.165	9568
668.218	9881
668.270	9292
668.322	9121
668.375	8588
668.427	9219
668.479	9028
668.532	9966
668.584	9683
668.636	8875
668.689	9272
668.741	9943
668.793	9534
668.845	8678
668.898	9035
668.950	9171
669.002	9688
669.054	8855
669.106	8625
669.158	9657
669.211	8868
669.263	9559
669.315	10685
669.367	11074
669.419	9817
669.471	11653
669.523	10252
669.575	12187
669.627	10904
669.679	10136
669.731	9189
669.783	10743
669.835	10323
669.886	10714
669.938	9346
669.990	10380
670.042	9225
670.094	10199
670.146	9429
670.197	12926
670.249	13719
670.301	16611
670.353	20092
670.404	27632
670.456	38467
670.508	56392
670.560	83003
670.611	131564
670.663	217529
670.715	458328
670.766	851760
670.818	375162
670.869	67749
670.921	30097
670.972	23232
671.024	17961
671.075	14462
671.127	13761
671.178	12066
671.230	11987
671.281	12246
671.333	12501
671.384	12387
671.436	14800
671.487	14953
671.538	16669
671.590	19509
671.641	25660
671.692	35578
671.744	55701
671.795	60742
671.846	35249
671.897	21013
671.949	14741
672.000	12456
672.051	12565
672.102	11099
672.153	9702
672.204	10596
672.256	10225
672.307	9344
672.358	10051
672.409	10170
672.460	8479
672.511	8181
672.562	9352
672.613	8587
672.664	8842
672.715	8244
672.766	9213
672.817	8554
672.868	8564
672.919	7957
672.970	8467
673.021	8621
673.071	8245
673.122	7970
673.173	8290
673.224	7797
673.275	8750
673.326	8010
673.376	8960
673.427	7893
673.478	7791
673.528	8300
673.579	7541
673.630	8129
673.680	8394
673.731	7631
673.782	7557
673.832	8737
673.883	8400
673.934	7835
673.984	8124
674.035	8005
674.085	8743
674.136	7974
674.186	9134
674.237	9836
674.287	13833
674.338	10859
674.388	7700
674.438	7593
674.489	8189
674.539	8332
674.589	8277
674.640	8377
674.690	8162
674.740	8343
674.791	8998
674.841	8425
674.891	8740
674.942	7990
674.992	7589
675.042	7315
675.092	6971
675.142	7418
675.193	8154
675.243	7097
675.293	7573
675.343	7718
675.393	7547
675.443	8578
675.493	6532
675.543	6633
675.593	8130
675.643	7619
675.693	7948
675.743	7683
675.793	7736
675.843	7489
675.893	7439
675.943	7718
675.993	7707
676.043	7293
676.093	7824
676.142	6478
676.192	7069
676.242	6590
676.292	7257
676.341	6849
676.391	7545
676.441	5929
676.491	7126
676.540	6396
676.590	6730
676.640	6697
676.689	7188
676.739	6664
676.789	6271
676.838	6570
676.888	7385
676.937	6694
676.987	6938
677.037	6609
677.086	5614
677.136	6551
677.185	7096
677.235	5824
677.284	6682
677.333	5651
677.383	6877
677.432	5751
677.482	6401
677.531	5667
677.580	6625
677.630	6248
677.679	6357
677.728	6090
677.778	6488
677.827	5503
677.876	6432
677.925	5811
677.975	5931
678.024	6032
678.073	6892
678.122	5995
678.171	6894
678.220	6388
678.269	7899
678.319	7511
678.368	7857
678.417	6978
678.466	7749
678.515	7302
678.564	7808
678.613	6627
678.662	7254
678.711	6292
678.760	7600
678.809	6530
678.857	6942
678.906	5907
678.955	6680
679.004	6494
679.053	7340
679.102	6959
679.151	7261
679.199	5901
679.248	6130
679.297	6307
679.346	6376
679.394	6076
679.443	6757
679.492	6340
679.540	6312
679.589	7826
679.638	5936
679.686	5829
679.735	6610
679.784	6503
679.832	7335
679.881	5989
679.929	5724
679.978	5612
680.026	6240
680.075	6365
680.123	6463
680.172	5714
680.220	6165
680.268	5176
680.317	6513
680.365	6337
680.414	5497
680.462	6237
680.510	5966
680.559	5103
680.607	6524
680.655	5596
680.703	6218
680.752	6120
680.800	6046
680.848	5648
680.896	5324
680.945	5010
680.993	5575
681.041	6142
681.089	5941
681.137	5026
681.185	5135
681.233	5483
681.258	6047
681.281	6572
681.329	5641
681.377	5212
681.380	5209
681.425	4954
681.473	6914
681.502	6687
681.521	6511
681.569	6181
681.617	5865
681.624	5923
681.665	6238
681.713	5983
681.745	6352
681.761	6520
681.809	4665
681.857	6749
681.867	6556
681.904	5822
681.952	6276
681.989	6147
682.000	6106
682.048	5374
682.096	4994
682.111	5303
682.143	5897
682.191	5360
682.233	6084
682.239	6185
682.286	5715
682.334	5574
682.354	5077
682.382	4389
682.430	5874
682.476	6216
682.477	6213
682.525	5641
682.572	5885
682.598	5678
682.620	5478
682.667	5721
682.715	6145
682.720	6112
682.763	5727
682.810	5387
682.841	5752
682.857	5912
682.905	5794
682.952	5989
682.963	6064
683.000	6298
683.047	5618
683.085	5868
683.095	5925
683.142	4805
683.190	5511
683.206	5501
683.237	5469
683.284	6394
683.328	5570
683.332	5492
683.379	6932
683.426	5418
683.449	5563
683.473	5669
683.521	5743
683.568	5831
683.571	5820
683.615	5602
683.662	6300
683.693	5593
683.709	5187
683.757	5901
683.804	5682
683.814	5851
683.851	6432
683.898	6340
683.936	6020
683.945	5935
683.992	5115
684.039	6378
684.057	6027
684.086	5452
684.133	5791
684.179	5788
684.180	5775
684.227	6433
684.274	6752
684.300	6390
684.321	6130
684.368	5989
684.415	5652
684.422	5746
684.462	6206
684.509	5889
684.543	5850
684.556	5839
684.603	6558
684.649	5498
684.665	5715
684.696	6171
684.743	5931
684.786	6938
684.790	7022
684.837	5906
684.883	6996
684.908	7124
684.930	7200
684.977	7638
685.023	7279
685.029	7266
685.070	6909
685.117	6570
685.150	6699
685.164	6820
685.210	7167
685.257	7741
685.272	7513
685.303	6897
685.350	7559
685.393	6899
685.396	6852
685.443	7132
685.490	7270
685.514	7378
685.536	7400
685.583	7087
685.629	8021
685.636	7916
685.675	7242
685.722	7452
685.757	7093
685.768	6994
685.815	7493
685.861	7392
685.878	7395
685.908	7441
685.954	7061
686.000	7961
686.000	7973
686.047	8441
686.093	9325
686.121	9698
686.139	9781
686.185	8618
686.232	8032
686.242	8068
686.278	8100
686.324	7745
686.363	7063
686.370	6973
686.416	6453
686.463	7459
686.484	7338
686.509	7249
686.555	7595
686.601	6971
686.606	7042
686.647	7553
686.693	6937
686.727	7156
686.739	7289
686.785	7143
686.831	7410
686.848	7492
686.877	7480
686.923	7131
686.969	6837
686.969	6835
687.015	7775
687.061	7001
687.090	7391
687.107	7615
687.153	7512
687.199	8077
687.211	7801
687.245	7159
687.291	7470
687.332	7732
687.336	7755
687.382	8399
687.428	7548
687.453	7665
687.474	7627
687.520	7837
687.565	7691
687.574	7504
687.611	7034
687.657	7740
687.695	7713
687.702	7744
687.748	9007
687.794	9633
687.816	9460
687.839	8956
687.885	7995
687.931	7762
687.937	7671
687.976	7349
688.022	7492
688.058	8157
688.067	8352
688.113	7669
688.158	7744
688.179	7843
688.204	7934
688.249	8040
688.295	7882
688.300	7846
688.340	7693
688.386	8495
688.421	8275
688.431	8183
688.477	8059
688.522	7695
688.542	8004
688.567	8438
688.613	8226
688.658	8308
688.663	8287
688.703	8052
688.749	7971
688.784	8062
688.794	8116
688.839	7920
688.884	8239
688.905	8104
688.930	7983
688.975	8016
689.020	8212
689.026	8239
689.065	8400
689.110	8415
689.146	8390
689.155	8361
689.201	7997
689.246	7600
689.267	7809
689.291	8141
689.336	7837
689.381	7988
689.388	7950
689.426	7867
689.471	8296
689.509	8460
689.516	8474
689.561	8722
689.606	8175
689.630	8193
689.651	8243
689.696	8030
689.741	8454
689.750	8456
689.785	8514
689.830	8920
689.871	8229
689.875	8150
689.920	8384
689.965	8364
689.992	8382
690.010	8502
690.054	8190
690.099	8736
690.112	8570
690.144	8223
690.189	8940
690.233	8722
690.233	8729
690.278	9032
690.323	8831
690.354	8977
690.367	8983
690.412	8696
690.457	8851
690.474	8593
690.501	8469
690.546	9077
690.590	8943
690.595	8956
690.635	9053
690.680	9246
690.716	9622
690.724	9830
690.769	10410
690.813	11582
690.836	11623
690.857	11985
690.902	13730
690.946	15756
690.957	16092
690.991	19658
691.035	25857
691.077	32419
691.080	32506
691.124	30141
691.168	27415
691.198	25527
691.213	23987
691.257	20189
691.301	15979
691.318	14644
691.346	13711
691.390	12326
691.434	10150
691.439	9997
691.478	10217
691.522	10516
691.559	10154
691.567	10043
691.611	10046
691.655	8964
691.680	9032
691.699	9363
691.743	9845
691.787	9601
691.800	9580
691.831	9555
691.875	10061
691.919	10238
691.921	10235
691.964	10352
692.008	9852
692.041	10040
692.052	10157
692.096	10245
692.139	10422
692.162	10113
692.183	9731
692.227	10371
692.271	9918
692.282	9967
692.315	10339
692.359	9977
692.402	10461
692.403	10479
692.447	10190
692.490	10445
692.523	10470
692.534	10529
692.578	10641
692.622	10415
692.643	10586
692.666	10714
692.709	10578
692.753	10276
692.763	10258
692.797	10171
692.840	10080
692.884	9795
692.884	9814
692.928	10360
692.971	10589
693.004	11192
693.015	11224
693.059	10771
693.102	10652
693.124	10486
693.146	10681
693.189	10833
693.233	11170
693.245	11363
693.276	11778
693.320	11826
693.363	11953
693.365	11934
693.407	12675
693.450	13941
693.485	14503
693.493	14738
693.537	16443
693.580	17834
693.605	18622
693.624	20194
693.667	23748
693.710	27918
693.725	29328
693.753	36488
693.797	48414
693.840	61437
693.845	62654
693.883	59803
693.926	53941
693.966	49550
693.970	48633
694.013	38502
694.056	28970
694.086	22468
694.099	21698
694.142	19285
694.185	17010
694.206	15782
694.229	15361
694.272	14570
694.315	14207
694.326	13947
694.358	13578
694.401	13457
694.444	13030
694.446	12992
694.487	12929
694.530	12796
694.566	12902
694.573	12832
694.616	11620
694.659	11020
694.686	10391
694.702	10395
694.745	10385
694.787	10382
694.806	10493
694.830	10547
694.873	10475
694.916	10280
694.926	10194
694.959	10231
695.002	10508
695.044	10377
695.046	10371
695.087	10914
695.130	11224
695.166	11464
695.172	11475
695.215	11365
695.258	11146
695.286	11090
695.301	11083
695.343	11050
695.386	10600
695.406	10653
695.428	10810
695.471	10550
695.514	10618
695.526	10557
695.556	10669
695.599	10979
695.641	11250
695.646	11255
695.684	11271
695.726	11148
695.766	11150
695.769	11169
695.811	11092
695.854	10854
695.886	10770
695.896	10760
695.938	10642
695.981	10331
696.005	10173
696.023	10316
696.065	10646
696.108	11228
696.125	11310
696.150	11440
696.192	11692
696.235	11866
696.245	11905
696.277	11720
696.319	11362
696.361	11362
696.365	11304
696.404	11376
696.446	11629
696.485	11706
696.488	11748
696.530	12086
696.572	12367
696.604	12629
696.614	12585
696.656	12074
696.698	11667
696.724	11393
696.740	11438
696.783	11592
696.825	11620
696.844	11623
696.867	11557
696.909	11400
696.951	11220
696.964	11140
696.992	11144
697.034	11059
697.076	11003
697.083	10980
697.118	11266
697.160	11554
697.202	11844
697.203	11822
697.244	11668
697.286	11666
697.323	11566
697.327	11594
697.369	11586
697.411	11508
697.442	11493
697.453	11551
697.494	11632
697.536	11790
697.562	11786
697.578	11756
697.620	11713
697.661	11616
697.682	11554
697.703	11659
697.744	11775
697.786	11994
697.801	11999
697.828	12252
697.869	12660
697.911	13053
697.921	13125
697.952	12815
697.994	12324
698.035	11900
698.040	11815
698.077	11706
698.118	11549
698.160	11408
698.160	11380
698.201	11834
698.243	12288
698.279	12707
698.284	12744
698.325	12716
698.367	12769
698.399	12730
698.408	12639
698.449	12136
698.491	11603
698.518	11232
698.532	11445
698.573	11960
698.614	12546
698.638	12835
698.656	12987
698.697	13274
698.738	13560
698.757	13670
698.779	13531
698.820	13179
698.862	12843
698.877	12689
698.903	12986
698.944	13404
698.985	13828
698.996	13914
699.026	13777
699.067	13541
699.116	13229
699.235	13120
699.354	12620
699.474	13275
699.593	14326
699.713	13861
699.832	13369
699.951	12827
700.070	12678
700.190	13253
700.309	12285
700.428	13409
700.547	12351
700.667	12601
700.786	13060
700.905	12229
701.024	12577
701.143	11356
701.262	11995
701.381	11674
701.500	12204
701.619	12007
701.738	11519
701.857	11589
701.976	11327
702.095	11619
702.214	12872
702.333	12044
702.452	12938
702.571	11960
702.690	12771
702.809	11507
702.928	11204
703.047	11450
703.165	11930
703.284	11625
703.403	11459
703.522	12175
703.640	12286
703.759	14123
703.878	16272
703.997	12054
704.115	11620
704.234	10959
704.353	11801
704.471	11354
704.590	10766
704.708	11117
704.827	10517
704.946	11296
705.064	12817
705.183	11755
705.301	14575
705.420	18636
705.538	16768
705.656	14802
705.775	15047
705.893	26374
706.012	27133
706.130	16486
706.249	15241
706.367	15265
706.485	17007
706.604	15843
706.722	15641
706.840	17606
706.958	21201
707.077	16881
707.195	14951
707.313	14551
707.431	15005
707.549	14735
707.668	13504
707.786	14437
707.904	14287
708.022	13990
708.140	13441
708.258	13386
708.376	13837
708.494	14023
708.612	15629
708.730	22028
708.848	19625
708.966	18273
709.084	17545
709.202	17241
709.320	17780
709.438	17368
709.556	17018
709.674	17683
709.791	17447
709.909	17059
710.027	17642
710.145	17099
710.263	16967
710.380	16913
710.498	16848
710.616	16097
710.733	16948
710.851	16714
710.969	17383
711.086	17289
711.204	16683
711.322	16730
711.439	15886
711.557	16769
711.674	16711
711.792	16257
711.909	17955
712.027	17962
712.144	15753
712.262	15612
712.379	18447
712.497	25436
712.614	23967
712.732	21141
712.849	19454
712.966	19774
713.084	22681
713.201	20479
713.318	21295
713.436	20651
713.553	20748
713.670	22704
713.787	23055
713.905	22684
714.022	20937
714.139	20893
714.256	24059
714.373	26692
714.490	40246
714.608	87510
714.725	337478
714.842	267502
714.959	32983
715.076	22196
715.193	21167
715.310	20209
715.427	18500
715.544	18118
715.661	18622
715.778	18982
715.895	20259
716.011	20353
716.128	18735
716.245	19342
716.362	19042
716.479	18711
716.596	17933
716.713	18279
716.829	16767
716.946	17580
717.063	17373
717.180	17152
717.296	16626
717.413	16071
717.530	17139
717.646	16287
717.763	15951
717.880	16937
717.996	15980
718.113	16024
718.229	16327
718.346	15125
718.462	15729
718.579	17458
718.695	20197
718.812	19896
718.928	20347
719.045	17041
719.161	15853
719.277	15050
719.394	14634
719.510	16228
719.626	16610
719.743	19130
719.859	22226
719.975	34601
720.092	112887
720.208	190598
720.324	30410
720.440	17813
720.557	17857
720.673	22092
720.789	29866
720.905	55998
721.021	22769
721.137	15300
721.253	15004
721.369	15458
721.486	17215
721.602	20313
721.718	14619
721.834	13592
721.950	14629
722.066	13580
722.181	13026
722.297	14931
722.413	14488
722.529	13336
722.645	12975
722.761	13789
722.877	13893
722.993	14119
723.108	14501
723.224	13369
723.340	13961
723.456	13086
723.571	13065
723.687	13245
723.803	13280
723.918	11906
724.034	12123
724.150	12912
724.265	15485
724.381	25774
724.497	28140
724.612	13696
724.728	11836
724.843	12393
724.959	15220
725.074	25015
725.190	24678
725.305	13386
725.421	12619
725.536	11575
725.651	11942
725.767	11069
725.882	11588
725.997	10950
726.113	11434
726.228	11517
726.343	11064
726.459	10082
726.574	12104
726.689	10541
726.804	11533
726.920	10886
727.035	11686
727.150	11744
727.265	11248
727.380	11580
727.495	11516
727.610	10366
727.725	10829
727.841	13883
727.956	21388
728.071	16242
728.186	10932
728.301	9719
728.416	11481
728.531	9623
728.645	10069
728.760	10636
728.875	10538
728.990	10597
729.105	10565
729.220	10150
729.335	11179
729.449	10245
729.564	9449
729.679	9856
729.794	9862
729.908	10681
730.023	9516
730.138	9125
730.253	10449
730.367	10054
730.482	9488
730.596	9454
730.711	11177
730.826	10882
730.940	11133
731.055	10172
731.169	10160
731.284	9946
731.398	9401
731.513	10233
731.627	10547
731.742	12847
731.856	12750
731.970	10983
732.085	12661
732.199	15622
732.313	24851
732.428	56355
732.542	125184
732.656	58420
732.771	17988
732.885	13409
732.999	12611
733.113	11794
733.227	11799
733.342	10575
733.456	9793
733.570	10544
733.684	10066
733.798	10324
733.912	10153
734.026	8690
734.140	10013
734.254	11343
734.368	16965
734.482	17769
734.596	8896
734.710	9487
734.824	9052
734.938	9705
735.052	9270
735.166	10976
735.280	9683
735.393	9334
735.507	9411
735.621	12383
735.735	17746
735.849	11185
735.962	9441
736.076	10230
736.190	9841
736.303	13476
736.417	14633
736.531	9693
736.644	9371
736.758	8459
736.872	8943
736.985	8967
737.099	8161
737.212	7951
737.326	8705
737.439	8764
737.553	9057
737.666	8997
737.780	8290
737.893	8569
738.007	9027
738.120	8125
738.233	8644
738.347	8485
738.460	8848
738.573	8941
738.687	8578
738.800	8686
738.913	8379
739.026	9221
739.140	9459
739.253	7879
739.366	7510
739.479	7577
739.592	8354
739.705	8779
739.818	9244
739.932	7262
740.045	8046
740.158	8535
740.271	8016
740.384	8309
740.497	7908
740.610	8426
740.723	9107
740.836	7939
740.949	7419
741.062	9522
741.174	9201
741.287	7823
741.400	7928
741.513	8266
741.626	9071
741.739	7579
741.851	8199
741.964	7749
742.077	7833
742.189	7874
742.302	8039
742.415	8295
742.527	7049
742.640	6894
742.753	8452
742.865	7860
742.978	7381
743.090	6977
743.203	7474
743.316	7788
743.428	7295
743.541	7688
743.653	7020
743.766	7543
743.878	8114
743.990	8984
744.103	8980
744.215	6852
744.327	7901
744.440	9323
744.552	9820
744.664	8216
744.777	7710
744.889	6701
745.001	6863
745.113	6818
745.226	7061
745.338	7034
745.450	7205
745.562	6690
745.674	7430
745.786	7668
745.898	7420
746.010	7237
746.122	7034
746.234	6951
746.347	6818
746.459	7063
746.570	6453
746.682	6899
746.794	7553
746.906	7486
747.018	7152
747.130	7468
747.242	6415
747.354	7072
747.466	6633
747.577	6227
747.689	7640
747.801	6864
747.913	6335
748.024	6230
748.136	7150
748.248	6970
748.359	6166
748.471	6580
748.583	6300
748.694	7154
748.806	8051
748.918	8842
749.029	7320
749.141	7384
749.252	7540
749.364	7848
749.475	10277
749.587	8850
749.698	6717
749.809	7029
749.921	7215
750.032	6003
750.144	6660
750.255	5594
750.366	6222
750.478	6639
750.589	6238
750.700	6738
750.811	7240
750.923	7073
751.034	11590
751.145	10887
751.256	7313
751.367	6515
751.479	7000
751.590	6628
751.701	7648
751.812	6367
751.923	6269
752.034	6529
752.145	6227
752.256	6737
752.367	6091
752.478	6343
752.589	6049
752.700	7020
752.811	6133
752.922	5662
753.032	6860
753.143	5659
753.254	6303
753.365	7670
753.476	6574
753.586	6408
753.697	6120
753.808	7036
753.919	5827
754.029	6144
754.140	6577
754.251	5768
754.361	6329
754.472	6168
754.582	6108
754.693	6815
754.804	6778
754.914	6377
755.025	6164
755.135	6994
755.246	6488
755.356	6234
755.466	6330
755.577	6581
755.687	6403
755.798	6263
755.908	6551
756.018	5984
756.129	6474
756.239	6383
756.349	6437
756.460	5971
756.570	6925
756.680	7128
756.790	6871
756.900	7636
757.011	6350
757.121	6849
757.231	6232
757.341	7348
757.451	6685
757.561	7323
757.671	6633
757.781	5993
757.891	6558
758.001	6860
758.111	6851
758.221	7592
758.331	7372
758.441	7132
758.551	8253
758.661	7507
758.771	7257
758.880	8628
758.990	7804
759.100	8310
759.210	7152
759.320	8482
759.429	7722
759.539	9149
759.649	8662
759.758	9009
759.868	9422
759.978	8082
760.087	9779
760.197	9809
760.307	9143
760.416	9400
760.526	8584
760.635	9593
760.745	9550
760.854	10130
760.964	9841
761.073	11232
761.182	10189
761.292	11232
761.401	11085
761.511	10142
761.620	10636
761.729	11007
761.839	10872
761.948	10804
762.057	11034
762.166	10960
762.276	10879
762.385	12043
762.494	10960
762.603	11662
762.712	12641
762.822	12664
762.931	12869
763.040	13757
763.149	13318
763.258	13557
763.367	14616
763.476	14495
763.585	14843
763.694	16030
763.803	16793
763.912	17896
764.021	18474
764.130	19255
764.238	19816
764.347	21277
764.456	22429
764.565	24981
764.674	25957
764.783	29260
764.891	31050
765.000	36050
765.109	39580
765.217	44349
765.326	54183
765.435	63947
765.543	77758
765.652	97615
765.761	131179
765.869	183994
765.978	278162
766.086	447811
766.195	762196
766.303	1233076
766.412	1185536
766.520	1324343
766.629	1045570
766.737	554374
766.846	328938
766.954	217902
767.062	159728
767.171	122702
767.279	93345
767.387	74688
767.496	63580
767.604	55742
767.712	48389
767.820	43822
767.928	41135
768.037	36467
768.145	36342
768.253	34915
768.361	33693
768.469	33527
768.577	33444
768.685	36173
768.793	38511
768.901	42448
769.009	49418
769.117	59889
769.225	78651
769.333	113199
769.441	178026
769.549	309105
769.657	616591
769.765	1094189
769.873	1131072
769.981	949306
770.088	421369
770.196	218255
770.304	140279
770.412	100517
770.519	76454
770.627	60607
770.735	48600
770.842	42084
770.950	36561
771.058	32087
771.165	29322
771.273	26419
771.380	24269
771.488	23315
771.595	21519
771.703	19344
771.810	18323
771.918	18581
772.025	17684
772.133	15876
772.240	16667
772.348	16918
772.455	15282
772.562	14992
772.670	14145
772.777	14133
772.884	12101
772.991	12795
773.099	12495
773.206	11527
773.313	11874
773.420	10928
773.528	10928
773.635	11317
773.742	10110
773.849	10400
773.956	10008
774.063	9936
774.170	9538
774.277	10803
774.384	9724
774.491	9682
774.598	9852
774.705	10171
774.812	10374
774.919	10004
775.026	9591
775.133	9302
775.239	10033
775.346	8767
775.453	9516
775.560	8973
775.667	8771
775.773	8270
775.880	9293
775.987	7838
776.093	8420
776.200	8329
776.307	8187
776.413	9053
776.520	8588
776.627	8294
776.733	7952
776.840	7155
776.946	9367
777.053	7816
777.159	7858
777.266	6441
777.372	9380
777.478	7975
777.585	7339
777.691	6945
777.798	7748
777.904	7447
778.010	9598
778.117	8183
778.223	8040
778.329	6640
778.435	6642
778.542	7453
778.648	6393
778.754	7088
778.860	6803
778.966	7428
779.072	6981
779.178	6562
779.284	7645
779.391	6785
779.497	7133
779.603	10933
779.708	13700
779.815	33288
779.920	119018
780.026	154678
780.132	20255
780.238	8665
780.344	7287
780.450	8246
780.556	7137
780.661	6611
780.767	6183
780.873	5376
780.979	6443
781.085	6111
781.190	5434
781.296	5244
781.402	5861
781.507	5434
781.613	5507
781.719	5997
781.824	5603
781.930	5613
782.035	5431
782.141	5038
782.246	4677
782.352	5283
782.457	5081
782.563	4758
782.668	4665
782.773	5478
782.879	5090
782.984	5315
783.090	5671
783.195	6476
783.300	6204
783.405	5827
783.511	5134
783.616	5428
783.721	5508
783.826	4795
783.932	6091
784.037	5319
784.142	6135
784.247	5039
784.352	5178
784.457	4626
784.562	5230
784.667	4877
784.772	4317
784.877	4176
784.982	4786
785.087	5144
785.192	5398
785.297	4457
785.402	4971
785.507	4401
785.611	5211
785.716	4447
785.821	4806
785.926	4441
786.031	4643
786.135	4006
786.240	4985
786.345	4444
786.450	4506
786.554	4179
786.659	3991
786.763	3896
786.868	5029
786.973	5094
787.077	4245
787.182	3803
787.286	3871
787.391	4596
787.495	3814
787.600	4582
787.704	4297
787.809	4612
787.913	3852
788.017	5101
788.122	4475
788.226	3887
788.330	3988
788.435	4109
788.539	3290
788.643	4338
788.747	3366
788.852	3543
788.956	2985
789.060	3551
789.164	4004
789.268	3720
789.372	3009
789.476	4115
789.580	2957
789.684	3426
789.788	4477
789.892	3542
789.996	3741
790.100	4231
790.204	4162
790.308	3667
790.412	3241
790.516	4738
790.620	3117
790.724	4005
790.828	3803
790.931	3685
791.035	4003
791.139	3690
791.242	2785
791.346	4328
791.450	3549
791.554	3186
791.657	2576
791.761	4866
791.864	4207
791.968	3976
792.072	4364
792.175	3364
792.279	3491
792.382	3893
792.486	3388
792.589	3877
792.693	4026
792.796	2405
792.899	3786
793.003	3483
793.106	2147
793.209	3691
793.313	3538
793.416	2744
793.519	4790
793.623	5214
793.726	4657
793.829	3478
793.932	3638
794.035	3544
794.138	3733
794.242	4015
794.345	6196
794.448	8458
794.551	18023
794.654	58738
794.757	79638
794.860	13065
794.963	4983
795.066	3706
795.169	3889
795.272	3202
795.375	3764
795.477	2720
795.580	3703
795.683	2656
795.786	3003
795.889	1727
795.991	4109
796.094	4347
796.197	2560
796.300	3206
796.402	2951
796.505	2706
796.608	2884
796.710	3020
796.813	3466
796.915	3577
797.018	2868
797.120	2687
797.223	1489
797.326	3055
797.428	2382
797.530	2564
797.633	3212
797.735	4632
797.838	4833
797.940	4781
798.042	2743
798.145	2961
798.247	2391
798.349	1931
798.452	2775
798.554	2934
798.656	1502
798.758	3457
798.860	2714
798.962	2276
799.065	1926
799.167	2312
799.269	4084
799.371	4092
799.473	3686
799.575	3408
799.677	3793
799.779	4484
799.881	3133
799.983	4411
800.085	2029
800.187	2408
800.289	2215
800.390	2713
800.492	2650
800.594	3345
800.696	1880
800.798	2098
800.899	2641
801.001	2085
801.103	2272
801.205	2313
801.306	3057
801.408	1873
801.509	1990
801.611	1943
801.713	2740
801.814	2359
801.916	2367
802.017	1523
802.119	1657
802.220	1865
802.322	897
802.423	4150
802.525	1750
802.626	2315
802.727	3076
802.829	2805
802.930	-125
803.031	3255
803.133	1998
803.234	2630
803.335	2200
803.436	1541
803.538	2350
803.639	724
803.740	1851
803.841	1893
803.942	2219
804.043	2390
804.144	660
804.245	1736
804.346	1746
804.447	2301
804.548	2256
804.649	2914
804.750	1321
804.851	1545
804.952	1142
805.053	2356
805.154	1614
805.255	1532
805.355	2155
805.456	1860
805.557	1031
805.658	964
805.758	2364
805.859	2671
805.960	1884
806.061	1576
806.161	1473
806.262	2018
806.362	1271
806.463	1970
806.564	1262
806.664	1772
806.765	2206
806.865	1625
806.966	1486
807.066	1198
807.166	2434
807.267	2338
807.367	1485
807.468	2351
807.568	283
807.668	2491
807.769	2207
807.869	1750
807.969	1216
808.069	1707
808.170	1134
808.270	1251
808.370	2458
808.470	2423
808.570	1775
808.670	1740
808.770	2046
808.870	1874
808.970	1808
809.070	1744
809.170	1356
809.271	1929
809.370	977
809.470	1951
809.570	1693
809.670	2002
809.770	2615
809.870	1989
809.970	1446
810.070	1824
810.169	1663
810.269	1039
810.369	2786
810.469	920
810.568	1403
810.668	1088
810.768	896
810.867	1747
810.967	1499
811.066	1596
811.166	748
811.265	2275
811.365	1652
811.464	1554
811.564	1111
811.663	1730
811.763	1300
811.862	1786
811.962	2726
812.061	1899
812.160	1588
812.260	1732
812.359	2540
812.458	2514
812.557	3966
812.657	4384
812.756	3568
812.855	2281
812.954	1912
813.053	2443
813.153	1917
813.252	1339
813.351	1957
813.450	1673
813.549	1728
813.648	2907
813.747	2126
813.846	3445
813.945	1592
814.044	2128
814.143	1912
814.242	2506
814.341	2222
814.439	2689
814.538	2241
814.637	2647
814.736	2498
814.835	3083
814.933	2710
815.032	3304
815.131	2962
815.229	3154
815.328	4030
815.427	3666
815.525	4422
815.624	3753
815.722	3775
815.821	5325
815.919	4647
816.018	5050
816.116	5773
816.215	5143
816.313	5973
816.412	5455
816.510	6284
816.609	7486
816.707	7907
816.805	7496
816.904	8315
817.002	9779
817.100	11071
817.198	12357
817.296	13237
817.395	15205
817.493	20312
817.591	23893
817.689	31530
817.787	43420
817.885	68295
817.983	116116
818.081	219674
818.179	438994
818.277	758596
818.375	651577
818.473	295135
818.571	142495
818.669	95073
818.767	80938
818.865	82184
818.963	96311
819.061	134413
819.158	209877
819.256	369659
819.354	650735
819.452	916046
819.549	724037
819.647	378641
819.745	195961
819.842	119855
819.940	82231
820.038	58698
820.135	46157
820.233	36978
820.330	29212
820.428	24378
820.525	21858
820.623	18903
820.720	15984
820.818	14828
820.915	12562
821.012	12359
821.110	9805
821.207	10727
821.304	9484
821.402	8006
821.499	8317
821.596	8473
821.693	7419
821.791	7320
821.888	6220
821.985	8000
822.082	5351
822.179	6357
822.276	4873
822.373	4637
822.470	3971
822.567	4585
822.664	3531
822.761	3751
822.858	3689
822.955	4316
823.052	3970
823.149	2987
823.246	3152
823.343	2931
823.440	3324
823.536	3143
823.633	3067
823.730	2871
823.827	3130
823.923	2959
824.020	2990
824.117	2653
824.213	1512
824.310	2763
824.407	2664
824.503	2458
824.600	1843
824.696	1886
824.793	2849
824.889	2196
824.986	1995
825.082	1889
825.179	2374
825.275	2162
825.371	2165
825.468	2849
825.564	822
825.660	1865
825.757	2489
825.853	2011
825.949	1502
826.045	1368
826.142	1214
826.238	1131
826.334	1758
826.430	509
826.526	1852
826.622	1540
826.718	1983
826.814	1128
826.910	2550
827.006	1555
827.102	1198
827.198	2318
827.294	-117
827.390	1233
827.486	1681
827.582	457
827.678	1199
827.774	1752
827.869	-89
827.965	1595
828.061	380
828.157	1551
828.252	732
828.348	551
828.444	2033
828.539	241
828.635	920
828.731	1752
828.826	1153
828.922	1108
829.017	1195
829.113	1504
829.208	987
829.304	176
829.399	1215
829.495	569
829.590	1514
829.685	826
829.781	1639
829.876	919
829.971	1195
830.066	1040
830.162	211
830.257	672
830.352	1074
830.447	1859
830.543	1349
830.638	981
830.733	1428
830.828	1237
830.923	1993
831.018	1568
831.113	1432
831.208	565
831.303	984
831.398	1065
831.493	724
831.588	1312
831.683	865
831.778	639
831.873	1113
831.967	1163
832.062	194
832.157	511
832.252	1773
832.346	541
832.441	2355
832.536	1570
832.631	3602
832.725	2617
832.820	1442
832.914	760
833.009	1197
833.104	1126
833.198	1616
833.293	750
833.387	1023
833.482	1079
833.576	126
833.670	950
833.765	575
833.859	1219
833.954	1172
834.048	1318
834.142	1032
834.237	592
834.331	307
834.425	-19
834.519	-281
834.613	1305
834.708	854
834.802	920
834.896	193
834.990	-174
835.084	1021
835.178	248
835.272	665
835.366	-191
835.460	1198
835.554	-401
835.648	279
835.742	139
835.836	801
835.930	-591
836.024	419
836.117	1567
836.211	1730
836.305	1124
836.399	2628
836.493	581
836.586	566
836.680	130
836.774	-478
836.867	1053
836.961	-209
837.055	366
837.148	470
837.242	233
837.335	292
837.429	20
837.522	1181
837.616	1472
837.709	2949
837.803	1483
837.896	1517
837.989	1358
838.083	1971
838.176	3422
838.269	2538
838.363	765
838.456	918
838.549	851
838.642	1933
838.735	3930
838.829	1932
838.922	-183
839.015	208
839.108	-186
839.201	466
839.294	668
839.387	699
839.480	-112
839.573	2001
839.666	1894
839.759	1214
839.852	-464
839.945	424
840.038	-81
840.131	779
840.223	691
840.316	529
840.409	450
840.502	-165
840.594	1375
840.687	113
840.780	270
840.873	-282
840.965	656
841.058	1627
841.150	3070
841.243	1596
841.336	180
841.428	426
841.521	382
841.613	252
841.706	277
841.798	-27
841.890	871
841.983	-625
842.075	805
842.167	620
842.260	-169
842.352	2197
842.444	1883
842.537	3987
842.629	5948
842.721	1004
842.813	763
842.905	-652
842.997	275
843.090	670
843.182	1748
843.274	4089
843.366	9323
843.458	16187
843.550	9272
843.642	787
843.734	961
843.826	1218
843.918	523
844.009	1001
844.101	376
844.193	440
844.285	98
844.377	143
844.469	601
844.560	309
844.652	-749
844.744	990
844.835	386
844.927	335
845.019	157
845.110	928
845.202	898
845.293	153
845.385	-113
845.476	576
845.568	1205
845.659	-183
845.751	288
845.842	345
845.934	-750
846.025	-449
846.116	1354
846.208	654
846.299	-99
846.390	62
846.482	487
846.573	882
846.664	1124
846.755	1418
846.846	1041
846.937	-377
847.029	313
847.120	-557
847.211	-215
847.302	239
847.393	-301
847.484	673
847.575	-1072
847.666	-685
847.757	704
847.847	277
847.938	851
848.029	-32
848.120	-875
848.211	399
848.302	-96
848.392	-15
848.483	703
848.574	-340
848.664	-82
848.755	-294
848.846	-49
848.936	-488
849.027	-335
849.118	599
849.208	464
849.299	913
849.389	1030
849.480	2391
849.570	4481
849.661	8017
849.751	11843
849.841	4550
849.932	354
850.022	-121
850.112	790
850.203	121
850.293	-1020
850.383	131
850.474	-314
850.564	-489
850.654	223
850.744	-168
850.834	-473
850.924	-913
851.014	-311
851.104	-63
851.194	738
851.284	929
851.374	93
851.464	464
851.554	402
851.644	470
851.734	1394
851.824	1056
851.914	575
852.004	1827
852.094	654
852.183	-384
852.273	-21
852.363	308
852.452	181
852.542	-56
852.632	-268
852.721	17
852.811	-1002
852.901	-269
852.990	-37
853.080	925
853.169	-59
853.259	211
853.348	-364
853.438	573
853.527	1657
853.617	722
853.706	3394
853.795	6117
853.885	16059
853.974	28280
854.063	50422
854.152	76062
854.242	30128
854.331	5447
854.420	1817
854.509	1568
854.598	1282
854.687	915
854.777	912
854.866	-606
854.955	30
855.044	-540
855.133	-626
855.222	385
855.311	-125
855.400	-911
855.488	614
855.577	157
855.666	-301
855.755	893
855.844	733
855.933	175
856.021	795
856.110	344
856.199	-314
856.288	-498
856.376	-541
856.465	-107
856.554	283
856.642	-159
856.731	438
856.819	-449
856.908	-701
856.996	-37
857.085	72
857.173	-242
857.262	-219
857.350	536
857.438	-815
857.527	-71
857.615	-120
857.703	418
857.792	-194
857.880	-297
857.968	-608
858.056	-1014
858.145	529
858.233	-540
858.321	-819
858.409	-110
858.497	-949
858.585	-1049
858.673	-243
858.761	-903
858.849	-246
858.937	-626
859.025	-527
859.113	-210
859.201	-768
859.289	-89
859.377	-379
859.465	-587
859.552	382
859.640	-254
859.728	-173
859.816	-938
859.903	-110
859.991	-249
860.079	-74
860.166	-623
860.254	83
860.342	138
860.429	-887
860.517	-195
860.604	-181
860.692	-207
860.779	-513
860.867	-506
860.954	-538
861.042	203
861.129	-790
861.216	-237
861.304	-97
861.391	-572
861.478	-693
861.565	-426
861.653	146
861.740	-507
861.827	-472
861.914	-733
862.001	-778
862.089	-776
862.176	-400
862.263	-917
862.350	-880
862.437	-191
862.524	-719
862.611	211
862.698	-368
862.785	-236
862.871	-291
862.958	-1119
863.045	-308
863.132	190
863.219	70
863.306	-1033
863.392	-10
863.479	326
863.566	-434
863.652	73
863.739	-332
863.826	-118
863.912	251
863.999	-211
864.086	-137
864.172	-642
864.259	-834
864.345	-16
864.432	164
864.518	-138
864.604	191
864.691	-180
864.777	-198
864.863	346
864.950	-158
865.036	-614
865.122	745
865.209	326
865.295	764
865.381	535
865.467	79
865.553	1420
865.639	1008
865.726	2723
865.812	7076
865.898	13454
865.984	19433
866.070	36004
866.156	38343
866.242	10750
866.328	1078
866.414	597
866.499	75
866.585	459
866.671	304
866.757	936
866.843	-96
866.928	251
867.014	-787
867.100	-141
867.186	272
867.271	879
867.357	441
867.442	817
867.528	813
867.614	-207
867.699	336
867.785	439
867.870	260
867.956	1157
868.041	347
868.127	438
868.212	-560
868.297	803
868.383	27
868.468	828
868.553	1309
868.639	1562
868.724	3581
868.809	2156
868.894	1013
868.979	-646
869.065	591
869.150	-107
869.235	-360
869.320	-86
869.405	-42
869.490	-501
869.575	-621
869.660	143
869.745	-219
869.830	-156
869.915	-324
870.000	97
870.085	-313
870.169	179
870.254	-39
870.339	-1047
870.424	-358
870.509	-216
870.593	-937
870.678	-800
870.763	-169
870.847	-414
870.932	-15
871.016	-409
871.101	-188
871.186	-110
871.270	-165
871.355	-342
871.439	-205
871.523	-370
871.608	-160
871.692	-534
871.777	295
871.861	63
871.945	-361
872.030	-676
872.114	132
872.198	-721
872.282	-1225
872.367	-390
872.451	-478
872.535	-353
872.619	-1029
872.703	-792
872.787	-401
872.871	-123
872.955	-492
873.039	-686
873.123	-560
873.207	59
873.291	-645
873.375	-174
873.459	152
873.543	-392
873.627	-657
873.711	110
873.794	-623
873.878	-1242
873.962	-1239
874.045	-961
874.129	203
874.137	134
874.213	-562
874.245	-624
874.296	-723
874.352	-599
874.380	-540
874.460	14
874.464	37
874.547	-274
874.568	-293
874.631	-380
874.676	-515
874.714	-605
874.784	-587
874.798	-590
874.881	-259
874.892	-350
874.965	-940
874.999	-500
875.048	73
875.107	-286
875.131	-418
875.215	-334
875.215	-333
875.298	-458
875.323	-474
875.381	-581
875.430	-97
875.465	284
875.538	-220
875.548	-298
875.631	-127
875.646	-121
875.714	-78
875.753	-266
875.798	-458
875.861	-209
875.881	-147
875.964	-392
875.968	-408
876.047	-590
876.076	-499
876.130	-358
876.183	-302
876.213	-273
876.291	68
876.296	83
876.379	-227
876.398	-383
876.462	-794
876.506	-478
876.545	-168
876.613	-479
876.628	-556
876.711	-464
876.721	-400
876.794	88
876.828	-200
876.877	-633
876.935	-318
876.960	-198
877.043	-369
877.043	-370
877.125	-538
877.150	-313
877.208	195
877.258	17
877.291	-60
877.365	499
877.374	556
877.456	-354
877.472	-353
877.539	-298
877.579	-79
877.622	54
877.687	-162
877.704	-180
877.787	74
877.794	104
877.869	279
877.901	338
877.952	545
878.008	314
878.034	189
878.115	-473
878.117	-484
878.199	516
878.222	273
878.282	-411
878.329	-118
878.364	91
878.437	177
878.447	191
878.529	-480
878.544	-368
878.611	306
878.651	167
878.694	-104
878.758	-77
878.776	-22
878.858	-45
878.865	-32
878.941	-68
878.972	-120
879.023	-133
879.078	-422
879.105	-515
879.185	383
879.187	399
879.269	-65
879.292	-123
879.351	-322
879.399	-152
879.433	173
879.506	635
879.516	604
879.598	-473
879.613	-469
879.680	4
879.720	-32
879.762	-36
879.827	-203
879.844	-295
879.926	71
879.933	68
880.007	104
880.040	-207
880.089	-820
880.147	-228
880.171	205
880.253	82
880.254	86
880.335	1048
880.360	1223
880.417	1754
880.467	2167
880.499	2440
880.574	2946
880.580	2912
880.662	926
880.680	677
880.744	-185
880.787	-745
880.825	-788
880.893	-199
880.907	-150
880.989	-207
881.000	-183
881.070	132
881.106	145
881.152	137
881.213	66
881.233	30
881.315	168
881.319	169
881.396	271
881.426	212
881.478	193
881.532	229
881.559	97
881.639	-514
881.641	-518
881.722	173
881.745	132
881.803	-21
881.852	-188
881.885	-196
881.958	306
881.966	301
882.047	-90
882.064	-148
882.129	181
882.171	318
882.210	434
882.277	831
882.291	836
882.372	363
882.383	342
882.454	532
882.489	462
882.535	255
882.596	237
882.616	223
882.697	-575
882.702	-565
882.778	-63
882.808	90
882.859	279
882.914	386
882.940	308
883.020	-364
883.021	-361
883.102	541
883.127	627
883.183	598
883.233	464
883.264	338
883.339	158
883.345	151
883.426	-112
883.445	-184
883.507	-386
883.551	-281
883.587	-83
883.657	-15
883.668	-13
883.749	118
883.763	107
883.830	180
883.869	310
883.910	379
883.975	394
883.991	341
884.072	202
884.081	187
884.152	560
884.187	631
884.233	582
884.292	672
884.314	624
884.394	55
884.398	41
884.475	-16
884.504	-87
884.555	-109
884.610	-258
884.636	-263
884.716	43
884.716	47
884.797	173
884.821	265
884.877	626
884.927	626
884.958	473
885.033	455
885.038	443
885.118	68
885.139	-26
885.199	61
885.244	98
885.279	86
885.350	207
885.359	234
885.439	352
885.456	314
885.520	378
885.561	622
885.600	524
885.667	209
885.680	241
885.760	434
885.773	468
885.840	412
885.878	363
885.920	322
885.984	125
886.000	116
886.080	301
886.089	291
886.160	252
886.195	332
886.240	399
886.300	271
886.320	239
886.400	404
886.406	401
886.480	394
886.511	361
886.560	265
886.616	215
886.640	265
886.720	409
886.722	409
886.800	583
886.827	616
886.879	152
886.932	-343
886.959	-31
887.038	1017
887.039	1019
887.119	517
887.143	384
887.198	323
887.248	253
887.278	369
887.354	545
887.358	551
887.437	704
887.459	719
887.517	821
887.564	867
887.596	560
887.669	-127
887.676	-106
887.755	66
887.774	146
887.835	381
887.880	496
887.914	445
887.985	245
887.994	228
888.073	155
888.090	126
888.153	696
888.195	1046
888.232	897
888.300	730
888.311	739
888.391	605
888.405	607
888.470	1068
888.510	1247
888.549	1116
888.615	1010
888.628	964
888.708	615
888.720	552
888.787	675
888.825	742
888.866	608
888.930	382
888.945	377
889.024	383
889.035	378
889.103	844
889.140	1081
889.182	861
889.245	549
889.261	551
889.340	562
889.349	553
889.419	484
889.454	486
889.498	645
889.559	827
889.577	830
889.656	855
889.664	858
889.735	1558
889.768	1887
889.814	1153
889.873	175
889.978	850
890.083	497
890.187	615
890.292	215
890.397	1308
890.501	315
890.606	170
890.710	629
890.815	260
890.919	918
891.024	415
891.128	299
891.233	-83
891.337	890
891.442	536
891.546	1096
891.650	349
891.755	338
891.859	376
891.963	1222
892.068	968
892.172	466
892.276	-236
892.380	706
892.484	586
892.589	49
892.693	637
892.797	902
892.901	667
893.005	837
893.109	637
893.213	756
893.317	276
893.421	575
893.525	537
893.629	67
893.733	397
893.837	725
893.941	-89
894.045	1362
894.148	88
894.252	1337
894.356	110
894.460	1612
894.564	1144
894.667	880
894.771	546
894.875	851
894.978	447
895.082	606
895.186	728
895.289	710
895.393	21
895.496	1125
895.600	-293
895.703	482
895.807	103
895.910	1761
896.014	358
896.117	746
896.221	736
896.324	955
896.427	289
896.531	92
896.634	598
896.737	386
896.840	295
896.944	230
897.047	36
897.150	275
897.253	29
897.356	-152
897.460	-171
897.563	453
897.666	1139
897.769	-263
897.872	265
897.975	169
898.078	776
898.181	58
898.284	-262
898.387	1237
898.490	3
898.593	57
898.695	-245
898.798	-124
898.901	401
899.004	817
899.107	655
899.209	262
899.312	80
899.415	868
899.518	655
899.620	1170
899.723	1186
899.826	648
899.928	885
900.031	52
900.133	514
900.236	424
900.338	317
900.441	201
900.543	-813
900.646	967
900.748	-247
900.851	345
900.953	-54
901.055	965
901.158	332
901.260	734
901.362	873
901.465	-157
901.567	1193
901.669	871
901.771	571
901.873	1250
901.976	212
902.078	731
902.180	573
902.282	482
902.384	-534
902.486	763
902.588	1087
902.690	79
902.792	-311
902.894	58
902.996	294
903.098	-102
903.200	337
903.302	844
903.404	691
903.505	-444
903.607	422
903.709	503
903.811	961
903.913	992
904.014	832
904.116	555
904.218	515
904.319	638
904.421	401
904.523	164
904.624	59
904.726	318
904.827	-209
904.929	289
905.030	242
905.132	855
905.233	557
905.335	727
905.436	605
905.537	92
905.639	-5
905.740	155
905.841	882
905.943	916
906.044	395
906.145	734
906.247	325
906.348	1194
906.449	603
906.550	266
906.651	498
906.752	1085
906.854	613
906.955	115
907.056	551
907.157	512
907.258	4
907.359	662
907.460	892
907.561	677
907.662	764
907.762	41
907.863	10
907.964	494
908.065	1010
908.166	381
908.267	278
908.367	1008
908.468	781
908.569	111
908.670	697
908.770	437
908.871	688
908.971	980
909.072	41
909.173	-357
909.273	318
909.374	375
909.474	519
909.575	-303
909.675	252
909.776	941
909.876	388
909.977	605
910.077	1603
910.177	328
910.278	481
910.378	405
910.478	798
910.579	650
910.679	432
910.779	943
910.879	393
910.980	-110
911.080	571
911.180	567
911.280	446
911.380	125
911.480	30
911.580	472
911.680	924
911.780	797
911.880	909
911.980	-356
912.080	331
912.180	927
912.280	128
912.380	-390
912.480	76
912.580	1076
912.679	166
912.779	891
912.879	221
912.979	731
913.078	135
913.178	-374
913.278	-50
913.377	454
913.477	844
913.577	524
913.676	1193
913.776	212
913.875	671
913.975	993
914.074	-153
914.174	288
914.273	-860
914.373	1298
914.472	918
914.572	459
914.671	505
914.770	402
914.870	28
914.969	529
915.068	277
915.167	311
915.267	332
915.366	-465
915.465	151
915.564	797
915.663	204
915.763	1278
915.862	155
915.961	1272
916.060	93
916.159	832
916.258	77
916.357	11
916.456	243
916.555	343
916.654	1046
916.752	621
916.851	-431
916.950	104
917.049	253
917.148	-108
917.247	-607
917.345	1083
917.444	755
917.543	934
917.642	-322
917.740	239
917.839	1059
917.937	713
918.036	1056
918.135	812
918.233	465
918.332	695
918.430	-477
918.529	-166
918.627	209
918.726	422
918.824	345
918.923	354
919.021	-706
919.119	148
919.218	504
919.316	123
919.414	577
919.512	56
919.611	679
919.709	-179
919.807	-213
919.905	-600
920.003	-207
920.102	189
920.200	-141
920.298	251
920.396	-254
920.494	-441
920.592	23
920.690	721
920.788	-134
920.886	647
920.984	377
921.082	-39
921.180	754
921.277	773
921.375	386
921.473	339
921.571	555
921.669	486
921.766	888
921.864	702
921.962	87
922.060	887
922.157	502
922.255	820
922.352	237
922.450	762
922.548	1367
922.645	14
922.743	880
922.840	911
922.938	607
923.035	1182
923.133	1270
923.230	667
923.327	1021
923.425	934
923.522	1025
923.619	1029
923.717	332
923.814	1014
923.911	1257
924.008	1437
924.106	-201
924.203	937
924.300	482
924.397	187
924.494	1016
924.591	862
924.688	497
924.786	905
924.883	720
924.979	328
925.077	441
925.173	1010
925.270	369
925.367	364
925.464	25
925.561	788
925.658	964
925.755	684
925.852	1058
925.948	397
926.045	440
926.142	1331
926.239	667
926.335	926
926.432	1479
926.529	674
926.625	1273
926.722	402
926.818	752
926.915	1245
927.011	914
927.108	1097
927.204	522
927.301	-18
927.397	189
927.494	743
927.590	685
927.687	785
927.783	700
927.879	717
927.976	30
928.072	515
928.168	912
928.264	473
928.361	284
928.457	988
928.553	146
928.649	1341
928.745	261
928.841	-43
928.937	544
929.033	560
929.129	374
929.225	453
929.321	477
929.417	762
929.513	546
929.609	417
929.705	-141
929.801	286
929.897	-213
929.993	-92
930.089	-19
930.184	1001
930.280	1
930.376	683
930.471	351
930.567	110
930.663	545
930.758	181
930.854	543
930.950	1129
931.045	369
931.141	-551
931.236	683
931.332	275
931.427	-233
931.523	804
931.618	519
931.714	542
931.809	593
931.905	-902
932.000	738
932.095	-297
932.191	609
932.286	-158
932.381	389
932.476	260
932.572	366
932.667	77
932.762	290
932.857	444
932.952	965
933.047	98
933.142	-16
933.237	-10
933.332	-178
933.427	504
933.522	398
933.617	-407
933.712	-168
933.807	313
933.902	-907
933.997	331
934.092	116
934.187	-34
934.282	565
934.376	-12
934.471	472
934.566	-119
934.661	966
934.755	340
934.850	10
934.945	398
935.039	-80
935.134	-404
935.228	48
935.323	537
935.417	90
935.512	98
935.606	-172
935.701	-257
935.795	-148
935.890	621
935.984	-122
936.079	179
936.173	511
936.267	-411
936.362	-198
936.456	468
936.550	-1148
936.644	-38
936.738	138
936.833	-258
936.927	-249
937.021	60
937.115	90
937.209	-580
937.303	12
937.397	49
937.491	-286
937.585	172
937.679	-161
937.773	-259
937.867	-320
937.961	-1093
938.055	-279
938.149	407
938.243	100
938.337	-723
938.430	-1281
938.524	341
938.618	231
938.712	498
938.805	-156
938.899	258
938.993	1143
939.086	-186
939.180	264
939.274	617
939.367	-762
939.461	-89
939.554	-350
939.648	-90
939.741	-378
939.835	-157
939.928	-238
940.022	1094
940.115	-418
940.208	-195
940.302	87
940.395	56
940.488	-996
940.582	903
940.675	-872
940.768	303
940.861	167
940.954	301
941.048	7
941.141	-380
941.234	-586
941.327	342
941.420	754
941.513	53
941.606	5
941.699	-398
941.792	-541
941.885	615
941.978	136
942.071	218
942.164	-359
942.257	-269
942.349	-287
942.442	204
942.535	-711
942.628	256
942.721	-24
942.813	-969
942.906	122
942.999	-617
943.091	-900
943.184	-553
943.277	-645
943.369	749
943.462	-888
943.554	853
943.647	-181
943.739	422
943.832	-170
943.924	-604
944.017	70
944.109	-315
944.201	116
944.294	-429
944.386	-359
944.478	-261
944.571	-816
944.663	-287
944.755	-1068
944.847	-220
944.940	-902
945.032	-1625
945.124	-631
945.216	-183
945.308	-172
945.400	-199
945.492	-323
945.584	-1032
945.676	-742
945.768	-156
945.860	-209
945.952	-519
946.044	76
946.136	-309
946.228	-1006
946.320	-901
946.412	-176
946.503	357
946.595	-9
946.687	-374
946.779	-705
946.870	-464
946.962	-49
947.054	-1235
947.145	-457
947.237	-271
947.329	-781
947.420	-134
947.512	-994
947.603	-352
947.695	279
947.786	-427
947.878	-1081
947.969	-45
948.061	-744
948.152	-272
948.243	-507
948.335	-621
948.426	-357
948.517	-939
948.609	4
948.700	-974
948.791	-952
948.882	-1015
948.973	-335
949.065	-278
949.156	-265
949.247	-444
949.338	-320
949.429	-105
949.520	123
949.611	-1213
949.702	-807
949.793	-279
949.884	-67
949.975	-900
950.066	-571
950.157	-669
950.247	-812
950.338	-753
950.429	-855
950.520	-210
950.611	-1025
950.701	-843
950.792	-103
950.883	143
950.973	-57
951.064	-542
951.155	-754
951.245	-333
951.336	-1216
951.427	-460
951.517	-87
951.608	-389
951.698	-100
951.788	192
951.879	-1540
951.969	-895
952.060	60
952.150	-764
952.240	-730
952.331	-1526
952.421	192
952.511	-1962
952.602	-442
952.692	-682
952.782	-389
952.872	-486
952.962	-832
953.052	-645
953.143	-317
953.233	-304
953.323	-180
953.413	-1154
953.503	36
953.593	1
953.683	-164
953.773	-949
953.863	-475
953.953	-903
954.042	-950
954.132	-128
954.222	-813
954.312	-60
954.402	-646
954.492	-20
954.581	70
954.671	-984
954.761	-721
954.850	318
954.940	-758
955.030	-470
955.119	-969
955.209	-726
955.298	-1339
955.388	347
955.477	-362
955.567	-1273
955.656	-292
955.746	-119
955.835	-1236
955.925	-475
956.014	-1523
956.103	17
956.193	-1034
956.282	-540
956.371	-98
956.461	-241
956.550	-654
956.639	-288
956.728	-555
956.817	-376
956.906	-592
956.995	171
957.085	-1565
957.174	-812
957.263	-185
957.352	142
957.441	-78
957.530	-282
957.619	-985
957.708	-337
957.796	-373
957.885	-875
957.974	-1404
958.063	-275
958.152	-1535
958.241	-299
958.329	51
958.418	-583
958.507	-1558
958.596	-304
958.684	-692
958.773	-530
958.861	-838
958.950	-60
959.039	-537
959.127	-18
959.216	92
959.304	-633
959.393	68
959.481	-911
959.570	-225
959.658	-413
959.746	91
959.835	306
959.923	51
960.011	-546
960.100	-200
960.188	-921
960.276	-1038
960.365	-794
960.453	-463
960.541	-1137
960.629	-275
960.717	-1114
960.805	-1310
960.893	-642
960.981	-815
961.069	-520
961.158	-936
961.245	-606
961.333	-464
961.421	-671
961.509	-1018
961.597	-391
961.685	-226
961.773	-1075
961.861	-266
961.949	-691
962.036	-1248
962.124	-910
962.212	-906
962.299	-1056
962.387	-654
962.475	-491
962.562	-1519
962.650	-3
962.738	-811
962.825	-1385
962.913	-675
963.000	-1528
963.088	-790
963.175	-683
963.263	-620
963.350	-305
963.438	-374
963.525	-953
963.612	139
963.700	613
963.787	3487
963.874	1141
963.962	-265
964.049	-418
964.136	-987
964.223	-1104
964.310	-32
964.398	-1101
964.485	-1149
964.572	-807
964.659	-670
964.746	-840
964.833	-746
964.920	-343
965.007	-879
965.094	-1074
965.181	-1190
965.268	-779
965.355	-433
965.441	-383
965.528	-1442
965.615	187
965.702	-842
965.789	-322
965.875	-486
965.962	-713
966.049	-1216
966.136	-651
966.222	-980
966.309	448
966.395	-747
966.482	-473
966.569	-1211
966.655	-405
966.742	-797
966.828	-497
966.915	-669
967.001	-110
967.087	-1207
967.174	-152
967.260	-193
967.347	-605
967.433	1121
967.519	2492
967.605	-527
967.692	-826
967.778	-997
967.864	-979
967.950	-866
968.036	-981
968.123	-851
968.209	-1882
968.295	-1104
968.381	-31
968.467	-897
968.553	-1774
968.639	254
968.725	-946
968.811	-778
968.897	27
968.983	-860
969.069	-1403
969.154	-893
969.240	-518
969.326	-1345
969.412	-1191
969.497	-952
969.583	-325
969.669	257
969.755	-544
969.840	-1368
969.926	-704
970.012	-1320
970.097	-408
970.183	-931
970.268	-1690
970.354	-643
970.439	-248
970.525	755
970.610	-915
970.696	-1118
970.781	-921
970.866	-1186
970.952	-155
971.037	-1192
971.122	-792
971.208	-628
971.293	-852
971.378	-1924
971.463	-1256
971.549	-634
971.634	-1370
971.719	-373
971.804	-981
971.889	-514
971.974	-1182
972.059	-1337
972.144	-1000
972.229	-719
972.314	-1103
972.399	-577
972.484	-1036
972.569	278
972.654	-888
972.739	-383
972.824	-127
972.908	-533
972.993	-880
973.078	-1099
973.163	-966
973.247	-306
973.332	-1880
973.417	-440
973.501	-1246
973.586	-591
973.671	-1027
973.755	-698
973.840	-635
973.924	-884
974.009	38
974.093	-685
974.178	172
974.262	-737
974.346	-845
974.431	-1423
974.515	-993
974.600	-633
974.684	-721
974.768	-1217
974.852	-255
974.937	-1420
975.021	-233
975.105	-1090
975.189	-943
975.273	-278
975.358	-982
975.442	-763
975.526	-343
975.610	-1634
975.694	-1644
975.778	17
975.862	-818
975.946	-2112
976.030	316
976.114	-967
976.198	-314
976.281	-747
976.365	-152
976.449	-1564
976.533	-232
976.617	-866
976.700	-482
976.784	-885
976.868	-1530
976.951	-515
977.035	-1363
977.119	-287
977.202	-788
977.286	-1392
977.369	-943
977.453	-532
977.536	-761
977.620	-1048
977.703	-1328
977.787	-1622
977.870	-305
977.953	-1027
978.037	-1072
978.120	-85
978.203	-767
978.287	-142
978.370	-623
978.453	-732
978.536	-96
978.620	-429
978.703	-380
978.786	-945
978.869	-1158
978.952	-2635
979.035	227
979.118	-1073
979.201	-1456
979.284	-968
979.367	-1801
979.450	-747
979.533	-1216
979.616	-743
979.699	-1217
979.782	-717
979.865	-612
979.948	-900
980.030	-1032
980.113	-778
980.196	-1158
980.279	-427
980.361	-862
980.444	-1166
980.526	-512
980.609	-911
980.692	-1107
980.774	-773
980.857	-2198
980.939	-1165
981.022	-321
981.104	-1483
981.187	-466
981.269	-863
981.352	-532
981.434	-668
981.516	-2266
981.599	-847
981.681	-653
981.763	-1333
981.846	-1037
981.928	-1690
982.010	-820
982.092	-705
982.174	-824
982.256	-1096
982.339	-721
982.421	-1007
982.503	-1213
982.585	-1435
982.667	-731
982.749	-164
982.831	-1246
982.913	-2129
982.995	-1113
983.077	-1534
983.158	-249
983.240	-1960
983.322	-277
983.404	-1157
983.486	-563
983.568	-1115
983.649	-1584
983.731	-1025
983.813	-1255
983.894	-1398
983.976	-1318
984.058	-1022
984.139	-944
984.221	-1401
984.302	-465
984.384	-922
984.465	-1630
984.547	-933
984.628	-1611
984.710	-754
984.791	-491
984.872	-1198
984.954	-1114
985.035	-421
985.116	-1613
985.198	-1710
985.279	-715
985.360	-1396
985.441	-1781
985.522	-1100
985.604	-968
985.685	-1870
985.766	-1209
985.847	263
985.928	-1326
986.009	-1209
986.090	-945
986.171	-1850
986.252	-1025
986.333	-1322
986.414	-1199
986.495	-942
986.576	-1214
986.656	-921
986.737	-802
986.818	-1514
986.899	-701
986.980	-1188
987.060	-724
987.141	-1321
987.222	-345
987.302	-1305
987.383	-156
987.464	-1265
987.544	-269
987.625	-1711
987.705	-666
987.786	-1276
987.866	-1088
987.947	-748
988.027	-946
988.108	-1375
988.188	-577
988.268	-1441
988.349	-746
988.429	-1176
988.509	-702
988.589	-1234
988.670	-2432
988.750	-614
988.830	-1006
988.910	-718
988.990	-859
989.070	-1239
989.151	-869
989.231	-1018
989.311	-452
989.391	-1801
989.471	-1535
989.551	-1211
989.631	-1311
989.711	-1176
989.791	-1402
989.870	-1407
989.950	-235
990.030	-1011
990.110	-1523
990.190	-1333
990.269	-1151
990.349	-1554
990.429	-1218
990.509	116
990.588	-1410
990.668	-760
990.747	-919
990.827	-1183
990.907	-345
990.986	-1267
991.066	-741
991.145	-610
991.225	367
991.304	-1645
991.383	-1182
991.463	-1357
991.542	-1029
991.622	-1498
991.701	-787
991.780	-1605
991.859	-1854
991.939	-1092
992.018	-1124
992.097	-453
992.176	-1111
992.256	-941
992.335	-1638
992.414	-1096
992.493	-909
992.572	-1157
992.651	-695
992.730	-1134
992.809	-724
992.888	-1247
992.967	-922
993.046	-1502
993.125	-1536
993.203	-782
993.282	-1470
993.361	-890
993.440	-832
993.519	-1952
993.597	-1216
993.676	-1571
993.755	-1243
993.834	-1323
993.912	-1777
993.991	-573
994.069	-1615
994.148	-597
994.226	-1272
994.305	-1547
994.384	-1535
994.462	-617
994.540	-1141
994.619	-1068
994.697	-266
994.776	-1238
994.854	-845
994.932	-2000
995.011	-1126
995.089	-1956
995.167	-1094
995.245	-1070
995.324	-1998
995.402	-321
995.480	-1505
995.558	-1109
995.636	-1792
995.714	-1688
995.792	-426
995.870	-1302
995.948	-1265
996.026	-1242
996.104	-1484
996.182	-1395
996.260	-928
996.338	-1631
996.416	-2183
996.494	-1615
996.572	-1079
996.649	-1990
996.727	-1812
996.805	-2203
996.883	-1446
996.960	-1544
997.038	-892
997.116	-933
997.193	-1483
997.271	-765
997.348	-859
997.426	-1437
997.504	-1507
997.581	-1658
997.658	-923
997.736	-1640
997.813	-1692
997.891	-382
997.968	-1658
998.046	-1681
998.123	-1198
998.200	-1655
998.277	-2456
998.355	-1707
998.432	-2333
998.509	-2260
998.586	-1834
998.663	-1238
998.741	-1719
998.818	-1315
998.895	-1911
998.972	-1167
999.049	-1192
999.126	-1686
999.203	-784
999.280	-917
999.357	-1352
999.434	-1351
999.511	-722
999.587	-961
999.664	-1642
999.741	-1555
999.818	-1472
999.895	-1805
999.971	-1623
1000.048	-1811
1000.125	-884
1000.202	-1398
1000.278	-1431
1000.355	-1201
1000.431	-1779
1000.508	-2063
1000.584	-1569
1000.661	-904
1000.738	-1281
1000.814	-1557
1000.890	-1581
1000.967	-1787
1001.043	-2208
1001.120	-1519
1001.196	-2253
1001.272	-1727
1001.349	-1455
1001.425	-2115
1001.501	-1597
1001.577	-2045
1001.654	-1216
1001.730	-1867
1001.806	-1387
1001.882	-1997
1001.958	-520
1002.034	-2245
1002.110	-839
1002.186	-2234
1002.262	-1376
1002.338	-2133
1002.414	-1608
1002.490	-1044
1002.566	-2255
1002.642	-1730
1002.718	-1927
1002.794	-1432
1002.870	-1652
1002.945	-1571
1003.021	-1844
1003.097	-1980
1003.173	-406
1003.248	-1450
1003.324	-1683
1003.400	-1376
1003.475	-1520
1003.551	-1481
1003.626	-1577
1003.702	-1946
1003.777	-2170
1003.853	-1946
1003.928	-2577
1004.004	-1036
1004.079	-1510
1004.155	-2134
1004.230	-2804
1004.305	-1276
1004.381	-2307
1004.456	-943
1004.531	-1344
1004.607	-1438
1004.682	-1988
1004.757	-1656
1004.832	-1859
1004.907	-1780
1004.982	-1321
1005.057	-1370
1005.133	-1500
1005.208	-1364
1005.283	-1173
1005.358	238
1005.433	-1907
1005.508	-1451
1005.583	-2049
1005.657	-1688
1005.732	-1340
1005.807	-2089
1005.882	-1366
1005.957	-1568
1006.032	-1921
1006.106	-1143
1006.181	-1044
1006.256	-2017
1006.331	-2111
1006.405	-1852
1006.480	-1711
1006.554	-2210
1006.629	-1191
1006.704	-2835
1006.778	-1842
1006.853	-1849
1006.927	-1973
1007.002	-2614
1007.076	-2349
1007.150	-1742
1007.225	-1161
1007.299	-1761
1007.373	-1571
1007.448	-1468
1007.522	-1542
1007.596	-2368
1007.671	-2084
1007.745	-1261
1007.819	-2482
1007.893	-1854
1007.967	-1026
1008.041	-2466
1008.115	-1854
1008.190	-2303
1008.264	-2085
1008.338	-3946
1008.412	-2690
1008.486	-1782
1008.560	-1224
1008.633	-2750
1008.707	-2170
1008.781	-2103
1008.855	-2521
1008.929	-1812
1009.003	-1903
1009.076	-2713
1009.150	-1073
1009.224	-2669
1009.298	-1488
1009.371	-1969
1009.445	-1188
1009.519	-1972
1009.592	-2957
1009.666	-1814
1009.739	-2324
1009.813	-2235
1009.886	-589
1009.960	-3070
1010.033	-1999
1010.107	-1973
1010.180	-2632
1010.253	-1640
1010.327	-2382
1010.400	-1913
1010.473	-1293
1010.547	-848
1010.620	-2358
1010.693	-1324
1010.766	-2515
1010.840	-1412
1010.913	-1965
1010.986	-2434
1011.059	-2091
1011.132	-2730
1011.205	-920
1011.278	-1544
1011.351	-1878
1011.424	-1204
1011.497	-2235
1011.570	-2120
1011.643	-1408
1011.716	-1540
1011.789	-1932
1011.862	-1845
1011.934	-1129
1012.007	-2681
1012.080	-1531
1012.153	-1968
1012.225	-1375
1012.298	-1867
1012.371	-2669
1012.443	-1740
1012.516	-2271
1012.588	-2553
1012.661	-1849
1012.733	-2341
1012.806	-1566
1012.879	-2137
1012.951	-2016
1013.023	-2302
1013.096	-1641
1013.168	-2618
1013.241	-1760
1013.313	-2579
1013.385	-1986
1013.458	-1837
1013.530	-1987
1013.602	-2897
1013.674	-1220
1013.746	-2607
1013.819	-2006
1013.891	-2032
1013.963	-1991
1014.035	-1695
1014.107	-1892
1014.179	-1794
1014.251	-2265
1014.323	-1714
1014.395	-1787
1014.467	-2234
1014.539	-2649
1014.611	-2394
1014.683	-1402
1014.754	-2002
1014.826	-2842
1014.898	-2236
1014.970	-2694
1015.042	-1471
1015.113	-1692
1015.185	-2187
1015.257	-2717
1015.328	-2204
1015.400	-1507
1015.471	-2738
1015.543	-2740
1015.615	-2079
1015.686	-2466
1015.757	-2681
1015.829	-1610
1015.901	-1852
1015.972	-1449
1016.043	-2329
1016.115	-2009
1016.186	-1577
1016.257	-1876
1016.328	-1419
1016.400	-1452
1016.471	-3014
1016.542	-2850
1016.613	-2093
1016.685	-2610
1016.756	-2189
1016.827	-2230
1016.898	-2494
1016.969	-1408
1017.040	-2291
1017.111	-2934
1017.182	-2548
1017.253	-2492
1017.324	-1951
1017.395	-1711
1017.466	-2434
1017.537	-2746
1017.608	-1489
1017.678	-1853
1017.749	-2808
1017.820	-2321
1017.891	-2272
1017.961	-2983
1018.032	-2572
1018.103	-2057
1018.173	-2323
1018.244	-2376
1018.315	-2285
1018.385	-1481
1018.456	-2112
1018.526	-2369
1018.597	-2441
1018.667	-1952
1018.738	-2414
1018.808	-2153
1018.878	-2367
1018.949	-2449
1019.019	-1966
1019.089	-2263
1019.160	-1968
1019.230	-2245
1019.300	-1270
1019.371	-2788
1019.441	-1947
1019.511	-1335
1019.581	-2205
1019.651	-961
1019.721	-1904
1019.791	-1598
1019.861	-1774
1019.931	-1802
1020.001	-1922
1020.071	-2252
1020.141	-2846
1020.211	-1594
1020.281	-2129
1020.351	-2338
1020.421	-1987
1020.491	-1087
1020.560	-1975
1020.630	-1724
1020.700	-2127
1020.770	-1485
1020.839	-2989
1020.909	-2208
1020.979	-1968
1021.048	-1333
1021.118	-1493
1021.187	-1544
1021.257	-2481
1021.326	-2167
1021.396	-1427
1021.465	-2432
1021.535	-1596
1021.604	-2886
1021.674	-1794
1021.743	-1302
1021.812	-1783
1021.882	-1428
1021.951	-2215
1022.020	-2000
1022.089	-1455
1022.159	-2223
1022.228	-2342
1022.297	-2134
1022.366	-2045
1022.435	-1427
1022.504	-2093
1022.573	-2794
1022.642	-2219
1022.711	-2580
1022.781	-1852
1022.849	-2074
1022.918	-2473
1022.987	-1693
1023.056	-2535
1023.125	-2123
1023.194	-2406
1023.263	-2050
1023.331	-1907
1023.400	-1788
1023.469	-1427
1023.538	-977
1023.606	-2975
1023.675	-1982
1023.744	-1598
1023.812	-2355
1023.881	-2304
1023.949	-1591
1024.018	-2241
1024.086	-1899
1024.155	-1870
1024.223	-1919
1024.292	-1858
1024.360	-1803
1024.429	-1865
1024.497	-1867
1024.565	-1979
1024.634	-1492
1024.702	-2073
1024.770	-2413
1024.838	-2030
1024.907	-1888
1024.975	-1331
1025.043	-2450
1025.111	-2261
1025.179	-2305
1025.247	-2455
1025.315	-2006
1025.383	-2198
1025.451	-2667
1025.519	-1952
1025.587	-2399
1025.655	-1647
1025.723	-1974
1025.791	-2285
1025.859	-1595
1025.927	-1530
1025.995	-1823
1026.062	-2330
1026.130	-1775
1026.198	-2140
1026.266	-2284
1026.333	-2060
1026.401	-1587
1026.469	-2934
1026.536	-1828
1026.604	-2167
1026.671	-2480
1026.739	-1549
1026.806	-2033
1026.874	-2435
1026.941	-2028
1027.009	-2036
1027.076	-2803
1027.144	-2256
1027.211	-3122
1027.278	-2266
1027.345	-1850
1027.413	-1736
1027.480	-1548
1027.547	-1507
1027.614	-2033
1027.682	-2567
1027.749	-1096
1027.816	-2015
1027.883	-1633
1027.950	-1572
1028.017	-2264
1028.084	-1224
1028.151	-2240
1028.218	-1669
1028.285	-1676
1028.352	-1829
1028.419	-2251
1028.486	-2017
1028.553	-2072
1028.619	-2088
1028.686	-1636
1028.753	-2645
1028.820	-2324
1028.886	-2714
1028.953	-1672
1029.020	-2121
1029.086	-2197
1029.153	-2219
1029.220	-2023
1029.286	-1330
1029.353	-1526
1029.419	-2578
1029.486	-2281
1029.552	-2507
1029.619	-1908
1029.685	-2311
1029.751	-2526
1029.818	-1599
1029.884	-1630
1029.951	-1273
1030.017	-2215
1030.083	-1599
1030.149	-1941
1030.216	-1731
1030.282	-1268
1030.348	-1856
1030.414	-2873
1030.480	-1821
1030.546	-1595
1030.612	-1877
1030.678	-2200
1030.744	-2637
1030.810	-2187
1030.876	-2265
1030.942	-2829
1031.008	-2927
1031.074	-1766
1031.140	-2472
1031.206	-1485
1031.272	-2787
1031.337	-2505
1031.403	-1393
1031.469	-2456
1031.534	-2765
1031.600	-572
1031.666	-2520
1031.731	-2411
1031.797	-1855
1031.863	-2236
1031.928	-1761
1031.994	-2549
1032.059	-1910
1032.125	-1091
1032.190	-2032
1032.256	-2332
1032.321	-2371
1032.386	-2104
1032.452	-2626
1032.517	-1705
1032.582	-2603
1032.647	-2168
1032.713	-1751
1032.778	-1641
1032.843	-1510
1032.908	-1793
1032.974	-1744
1033.039	-3187
1033.104	-1274
1033.169	-2322
1033.234	-2851
1033.299	-1066
1033.364	-1858
1033.429	-1040
1033.494	-2306
1033.559	-1796
1033.624	-2497
1033.688	-1264
1033.753	-1914
1033.818	-1844
1033.883	-1304
1033.948	-1248
1034.013	-1659
1034.077	-1892
1034.142	-2568
1034.207	-1820
1034.271	-2492
1034.336	-1848
1034.400	-1883
1034.465	-2165
1034.530	-1931
1034.594	-2260
1034.658	-2534
1034.723	-2336
1034.787	-1782
1034.852	-1983
1034.916	-1798
1034.981	-2426
1035.045	-1319
1035.109	-2280
1035.173	-2036
1035.238	-2211
1035.302	-1756
1035.366	-1992
1035.430	-1887
1035.495	-1612
1035.559	-1344
1035.623	-1431
1035.687	-2418
1035.751	-1792
1035.815	-2081
1035.879	-2261
1035.943	-1955
1036.007	-2107
1036.071	-2435
1036.135	-2485
1036.198	-2114
1036.262	-2265
1036.326	-894
1036.390	-2162
1036.454	-2262
1036.517	-1966
1036.581	-1852
1036.645	-2382
1036.709	-1920
1036.772	-2036
1036.836	-2012
1036.900	-1906
1036.963	-2698
1037.026	-1750
1037.090	-2074
1037.154	-1914
1037.217	-2062
1037.280	-957
1037.344	-1805
1037.407	-2602
1037.471	-2712
1037.534	-1718
1037.597	-2007
1037.661	-2336
1037.724	-1701
1037.787	-2170
1037.850	-1841
1037.913	-1800
1037.977	-1318
1038.040	-2268
1038.103	-2656
1038.166	-1904
1038.229	-1692
1038.292	-1996
1038.355	-2346
1038.418	-1752
1038.481	-1742
1038.544	-2770
1038.607	-2424
1038.670	-2149
1038.732	-1915
1038.795	-1790
1038.858	-1687
1038.921	-1931
1038.984	-1045
1039.046	-2100
1039.109	-1935
1039.172	-1593
1039.234	-2321
1039.297	-2699
1039.360	-2294
1039.422	-2471
1039.485	-1616
1039.547	-1688
1039.610	-2482
1039.672	-1860
1039.734	-2334
1039.797	-1772
1039.859	-2122
1039.922	-2020
1039.984	-2390
1040.046	-1647
1040.109	-2037
1040.171	-2000
1040.233	-2074
1040.295	-1712
1040.358	-2377
1040.420	-1929
1040.482	-1436
1040.544	-1868
1040.606	-2427
1040.668	-1840
1040.730	-1683
1040.792	-2424
1040.854	-1201
1040.916	-2536
1040.978	-1571
1041.040	-1574
1041.102	-2096
1041.164	-2116
1041.225	-2048
1041.287	-2626
1041.349	-2178
1041.411	-2141
1041.472	-1433
1041.534	-2486
1041.596	-2843
1041.657	-1071
1041.719	-1823
1041.781	-1541
1041.842	-2598
1041.904	-1383
1041.965	-2240
1042.027	-2518
1042.088	-2569
1042.150	-1813
1042.211	-2273
1042.272	-2077
1042.334	-2553
1042.395	-1967
1042.456	-1774
1042.518	-2029
1042.579	-2026
1042.640	-2352
1042.701	-1478
1042.763	-1743
1042.824	-2067
1042.885	-2088
1042.946	-1488
1043.007	-2422
1043.068	-1739
1043.129	-2078
1043.190	-1837
1043.251	-1800
1043.312	-1745
1043.373	-910
1043.434	-2418
1043.495	-2331
1043.556	-1753
1043.616	-2222
1043.677	-1944
1043.738	-2470
1043.799	-2451
1043.859	-2560
1043.920	-1899
1043.981	-1282
1044.041	-1927
1044.102	-1383
1044.162	-1645
1044.223	-1690
1044.284	-1759
1044.344	-1785
1044.405	-2355
1044.465	-1918
1044.525	-2007
1044.586	-1159
1044.646	-1831
1044.707	-1387
1044.767	-2078
1044.827	-1970
1044.887	-2047
1044.948	-1704
1045.008	-1521
1045.068	-1299
1045.128	-1983
1045.188	-1940
1045.249	-1735
1045.309	-2253
1045.369	-1601
1045.429	-2072
1045.489	-1137
1045.549	-1975
1045.609	-1880
1045.669	-1714
1045.729	-2459
1045.789	-1503
1045.848	-1462
1045.908	-1884
1045.968	-1391
1046.028	-1812
1046.088	-1557
1046.147	-1439
1046.207	-1780
1046.267	-1674
1046.326	-1765
1046.386	-1720
1046.446	-673
1046.505	-691
1046.565	-1142
1046.624	-524
1046.684	-1199
1046.743	-307
1046.803	-474
1046.862	-800
1046.922	0
