'Start Wavelength	183.907
'End Wavelength	1046.922
'Gate Delay	5.000
'Gate Width (ms)	1.050
'Laser Output Level	0.000
'X Position	0.000
'Y Position	0.000
'Z Position	0.000
'Grid Point Number	1.000
'Shot Number	100.000
183.907	654.000
183.977	-369.000
184.047	-489
184.116	389
184.186	315
184.256	33
184.325	135
184.395	-792
184.465	648
184.534	294
184.604	-15
184.674	-107
184.743	299
184.813	327
184.883	379
184.952	558
185.022	-272
185.092	-181
185.161	310
185.231	34
185.301	-177
185.370	-614
185.440	729
185.509	227
185.579	188
185.649	740
185.718	208
185.788	267
185.857	-42
185.927	-428
185.996	367
186.066	436
186.136	433
186.205	46
186.275	503
186.344	473
186.414	128
186.483	-302
186.553	827
186.622	471
186.692	252
186.761	731
186.831	554
186.900	59
186.970	265
187.039	695
187.109	808
187.178	564
187.248	235
187.317	678
187.387	-504
187.456	61
187.526	-44
187.595	-265
187.664	-87
187.734	482
187.803	249
187.873	35
187.942	352
188.012	244
188.081	-72
188.150	18
188.220	710
188.289	801
188.358	-97
188.428	200
188.497	302
188.567	1168
188.636	25
188.705	332
188.775	60
188.844	-731
188.913	818
188.983	403
189.052	244
189.121	102
189.191	70
189.260	79
189.329	340
189.399	333
189.468	-566
189.537	268
189.606	-37
189.676	813
189.745	-202
189.814	544
189.883	-181
189.953	-111
190.022	479
190.091	366
190.161	459
190.230	271
190.299	192
190.368	139
190.437	332
190.507	134
190.576	289
190.645	-3
190.714	-267
190.783	-290
190.853	948
190.922	864
190.991	117
191.060	183
191.129	210
191.198	1070
191.268	338
191.337	-188
191.406	1184
191.475	-248
191.544	5
191.613	2
191.682	-372
191.752	597
191.821	436
191.890	-271
191.959	121
192.028	313
192.097	430
192.166	-380
192.235	61
192.304	-216
192.373	-567
192.442	250
192.511	-35
192.580	160
192.650	-124
192.719	-270
192.788	141
192.857	-13
192.926	332
192.995	239
193.064	323
193.133	937
193.202	304
193.271	879
193.340	384
193.409	288
193.478	236
193.547	728
193.615	975
193.684	1286
193.753	1788
193.822	1333
193.891	169
193.960	372
194.029	-475
194.098	232
194.167	326
194.236	658
194.305	21
194.374	490
194.443	588
194.512	-103
194.580	142
194.649	182
194.718	-227
194.787	-21
194.856	-55
194.925	619
194.994	637
195.062	283
195.131	345
195.200	1029
195.269	986
195.338	351
195.407	203
195.475	-203
195.544	1090
195.613	-320
195.682	534
195.751	904
195.819	-289
195.888	475
195.957	1436
196.026	241
196.094	1180
196.163	259
196.232	402
196.301	426
196.369	915
196.438	259
196.507	614
196.576	147
196.644	-356
196.713	-231
196.782	175
196.850	577
196.919	72
196.988	1166
197.056	95
197.125	126
197.194	755
197.262	-335
197.331	391
197.400	-110
197.468	414
197.537	-55
197.606	297
197.674	834
197.743	969
197.812	235
197.880	124
197.949	588
198.017	570
198.086	1003
198.155	-325
198.223	1284
198.292	1026
198.360	676
198.429	673
198.497	646
198.566	1408
198.635	421
198.703	835
198.772	629
198.840	1373
198.909	408
198.977	685
199.046	671
199.114	741
199.183	807
199.251	1008
199.320	385
199.388	824
199.457	438
199.525	559
199.594	106
199.662	249
199.731	137
199.799	31
199.867	1062
199.936	587
200.004	1359
200.073	816
200.141	515
200.210	87
200.278	-446
200.346	322
200.415	1098
200.483	444
200.552	315
200.620	-345
200.688	279
200.757	-9
200.825	915
200.893	-361
200.962	217
201.030	-510
201.098	-967
201.167	499
201.235	401
201.303	-9
201.372	918
201.440	384
201.508	1077
201.577	224
201.645	183
201.713	352
201.781	601
201.850	1497
201.918	390
201.986	70
202.055	1240
202.123	653
202.191	84
202.259	816
202.327	381
202.396	-136
202.464	161
202.532	-209
202.600	1827
202.669	926
202.737	252
202.805	324
202.873	596
202.941	991
203.009	457
203.078	-74
203.146	710
203.214	301
203.282	-294
203.350	1216
203.418	205
203.487	267
203.555	786
203.623	-347
203.691	281
203.759	-672
203.827	201
203.895	714
203.963	686
204.031	-134
204.099	130
204.168	65
204.236	388
204.304	1425
204.372	225
204.440	379
204.508	240
204.576	150
204.644	282
204.712	592
204.780	337
204.848	1190
204.916	421
204.984	471
205.052	681
205.120	450
205.188	247
205.256	414
205.324	133
205.392	233
205.460	937
205.528	-83
205.596	1103
205.664	577
205.732	431
205.799	861
205.867	2465
205.935	327
206.003	1594
206.071	605
206.139	650
206.207	36
206.275	422
206.343	910
206.411	88
206.478	1364
206.546	1252
206.614	299
206.682	313
206.750	459
206.818	1384
206.885	582
206.953	222
207.021	1296
207.089	1033
207.157	-164
207.225	943
207.292	656
207.360	799
207.428	188
207.496	1120
207.563	836
207.631	1002
207.699	526
207.767	656
207.834	478
207.902	205
207.970	548
208.038	1123
208.105	749
208.173	190
208.241	535
208.309	682
208.376	843
208.444	1036
208.512	618
208.579	88
208.647	-308
208.715	1356
208.782	289
208.850	420
208.918	1227
208.985	907
209.053	873
209.120	965
209.188	-42
209.256	707
209.323	386
209.391	-34
209.459	1812
209.526	1480
209.594	-226
209.661	593
209.729	402
209.796	1174
209.864	2041
209.932	-226
209.999	1972
210.067	1680
210.134	1220
210.202	1185
210.269	981
210.337	2619
210.404	31
210.472	1503
210.539	649
210.607	243
210.674	817
210.742	803
210.809	1111
210.877	1063
210.944	1411
211.012	-209
211.079	1144
211.146	444
211.214	480
211.281	521
211.349	1630
211.416	1169
211.484	766
211.551	806
211.618	1244
211.686	744
211.753	575
211.821	1428
211.888	776
211.955	1065
212.023	928
212.090	835
212.157	364
212.225	1131
212.292	1076
212.359	3061
212.427	5058
212.494	2721
212.561	1449
212.629	1118
212.696	895
212.763	552
212.831	1176
212.898	1364
212.965	453
213.032	1393
213.100	1361
213.167	701
213.234	2125
213.301	1277
213.369	782
213.436	589
213.503	290
213.570	1170
213.638	287
213.705	-430
213.772	201
213.839	570
213.906	1511
213.973	1378
214.041	1008
214.108	1059
214.175	496
214.242	1084
214.309	1682
214.376	998
214.444	81
214.511	830
214.578	885
214.645	1089
214.712	1878
214.779	923
214.846	263
214.913	1637
214.980	1841
215.048	1653
215.115	1840
215.182	1041
215.249	391
215.316	854
215.383	1711
215.450	840
215.517	450
215.584	1909
215.651	710
215.718	585
215.785	1061
215.852	351
215.919	2019
215.986	999
216.053	527
216.120	717
216.187	1100
216.254	663
216.321	1810
216.388	840
216.455	888
216.522	1191
216.589	851
216.656	1167
216.722	1544
216.789	1267
216.856	1722
216.923	2296
216.990	1474
217.057	937
217.124	1322
217.191	960
217.258	1908
217.324	1546
217.391	2518
217.458	1649
217.525	1938
217.592	1557
217.659	263
217.725	1317
217.792	1181
217.859	995
217.926	863
217.993	992
218.059	1559
218.126	1136
218.193	591
218.260	1021
218.327	97
218.393	1079
218.460	1087
218.527	836
218.594	716
218.660	281
218.727	1243
218.794	229
218.860	1348
218.927	1004
218.994	1498
219.061	1232
219.127	1440
219.194	1438
219.261	1970
219.327	1001
219.394	1400
219.461	360
219.527	906
219.594	610
219.661	1179
219.727	679
219.794	1259
219.860	947
219.927	1296
219.994	1604
220.060	1875
220.127	2411
220.193	2023
220.260	1936
220.326	2855
220.393	2790
220.460	4007
220.526	3183
220.593	2214
220.659	3385
220.726	2232
220.792	4256
220.859	3706
220.925	4949
220.992	5723
221.058	5871
221.125	5219
221.191	3846
221.258	1683
221.324	1975
221.391	729
221.457	1652
221.524	1754
221.590	1862
221.657	3935
221.723	2300
221.789	2448
221.856	2752
221.922	1989
221.989	2147
222.055	842
222.121	263
222.188	2759
222.254	1857
222.321	1257
222.387	-98
222.453	1443
222.520	1080
222.586	878
222.652	1356
222.719	1242
222.785	1871
222.851	945
222.918	1064
222.984	541
223.050	432
223.116	-739
223.183	1889
223.249	380
223.315	928
223.382	1239
223.448	568
223.514	382
223.580	789
223.647	14
223.713	778
223.779	756
223.845	596
223.911	768
223.978	642
224.044	1258
224.110	-14
224.176	1928
224.242	1556
224.309	347
224.375	697
224.441	1256
224.507	880
224.573	539
224.639	715
224.705	154
224.772	1698
224.838	732
224.904	1515
224.970	1146
225.036	683
225.102	352
225.168	703
225.234	903
225.300	1169
225.366	1110
225.432	947
225.499	1048
225.565	325
225.631	764
225.697	1359
225.763	1503
225.829	1852
225.895	1728
225.961	1470
226.027	2340
226.093	1702
226.159	3718
226.225	4722
226.291	7227
226.357	10224
226.423	5828
226.489	3876
226.554	3193
226.620	3110
226.686	3416
226.752	4298
226.818	7129
226.884	12663
226.950	10343
227.016	5272
227.082	4139
227.148	1884
227.214	2506
227.279	2571
227.345	2073
227.411	1350
227.477	2496
227.543	4561
227.609	4182
227.674	3409
227.740	2145
227.806	1811
227.872	1978
227.938	1478
228.003	2613
228.069	1341
228.135	1652
228.201	824
228.267	949
228.332	746
228.398	-181
228.464	1462
228.530	464
228.595	1458
228.661	-124
228.727	449
228.792	2345
228.858	217
228.924	-675
228.990	2315
229.055	618
229.121	1422
229.187	794
229.252	1104
229.318	895
229.384	1958
229.449	1368
229.515	222
229.581	552
229.646	2692
229.712	1312
229.777	445
229.843	1493
229.909	1668
229.974	1828
230.040	1930
230.105	1838
230.171	724
230.236	2995
230.302	1964
230.368	2410
230.433	1197
230.499	1867
230.564	2948
230.630	921
230.695	2019
230.761	2821
230.826	461
230.892	2792
230.957	656
231.023	1096
231.088	1587
231.154	1514
231.219	474
231.284	1323
231.350	1565
231.415	861
231.481	1120
231.546	1412
231.612	2135
231.677	489
231.742	-649
231.808	1644
231.873	275
231.939	61
232.004	2257
232.069	2570
232.135	1013
232.200	1945
232.265	1297
232.331	1169
232.396	1438
232.461	799
232.527	1478
232.592	230
232.657	893
232.723	700
232.788	1070
232.853	1101
232.918	1186
232.984	131
233.049	49
233.114	921
233.179	912
233.245	1841
233.310	913
233.375	-36
233.440	1684
233.506	47
233.571	489
233.636	914
233.701	78
233.766	982
233.832	1108
233.897	178
233.962	-968
234.027	1618
234.092	1459
234.157	850
234.222	1529
234.288	1906
234.353	2715
234.418	2011
234.483	2927
234.548	1125
234.613	1848
234.678	1506
234.743	1313
234.808	3054
234.873	1348
234.938	2090
235.004	980
235.069	1168
235.134	852
235.199	1675
235.264	1781
235.329	160
235.394	1701
235.459	2706
235.524	1016
235.589	1912
235.654	1350
235.719	-311
235.784	1370
235.849	1232
235.913	1918
235.978	2056
236.043	1846
236.108	1405
236.173	879
236.238	2310
236.303	991
236.368	1923
236.433	2493
236.498	2334
236.563	3517
236.627	6083
236.692	17994
236.757	15372
236.822	6837
236.887	4229
236.952	3539
237.017	2591
237.081	4373
237.146	4567
237.211	10713
237.276	16746
237.341	22768
237.405	13286
237.470	6139
237.535	4135
237.600	3616
237.664	3422
237.729	2423
237.794	2632
237.859	6838
237.923	2581
237.988	1955
238.053	2202
238.118	1275
238.182	3653
238.247	3901
238.312	971
238.376	2276
238.441	492
238.506	2883
238.570	48
238.635	2597
238.700	937
238.764	784
238.829	1307
238.893	892
238.958	2417
239.023	1463
239.087	2015
239.152	1889
239.216	888
239.281	845
239.346	1340
239.410	788
239.475	702
239.539	3437
239.604	1778
239.668	1874
239.733	1844
239.797	4078
239.862	8431
239.926	6707
239.991	3122
240.055	1768
240.120	1814
240.184	1673
240.249	1132
240.313	1354
240.378	1479
240.442	2033
240.507	2849
240.571	349
240.635	697
240.700	1509
240.764	935
240.829	683
240.893	299
240.957	1072
241.022	2066
241.086	2675
241.151	-13
241.215	575
241.279	2047
241.344	1016
241.408	1558
241.472	1468
241.537	1887
241.601	2082
241.665	1112
241.730	1261
241.794	3280
241.858	1686
241.922	1949
241.987	1649
242.051	1040
242.115	1307
242.179	2402
242.244	1809
242.308	2444
242.372	2152
242.436	1095
242.501	2095
242.565	1077
242.629	1338
242.693	1560
242.757	874
242.822	1379
242.886	2192
242.950	2149
243.014	1361
243.078	1492
243.142	1617
243.206	1166
243.271	2125
243.335	896
243.399	3806
243.463	9550
243.527	22081
243.591	5971
243.655	2596
243.719	1441
243.783	2495
243.847	3400
243.911	4366
243.975	2769
244.040	750
244.104	3137
244.168	2434
244.232	653
244.296	2459
244.360	3637
244.424	1223
244.488	862
244.552	1741
244.615	21
244.679	1750
244.743	823
244.807	425
244.871	1123
244.935	1698
244.999	573
245.063	1035
245.127	2252
245.191	2471
245.255	2198
245.319	1402
245.383	-126
245.446	2017
245.510	87
245.574	1082
245.638	1627
245.702	-325
245.766	2089
245.829	2367
245.893	-59
245.957	819
246.021	2154
246.085	1547
246.149	666
246.212	3473
246.276	3651
246.340	1670
246.404	1506
246.467	2849
246.531	526
246.595	2259
246.659	2641
246.722	259
246.786	2013
246.850	1674
246.913	1559
246.977	1003
247.041	2138
247.104	1989
247.168	1755
247.232	2595
247.295	5292
247.359	3169
247.423	1267
247.486	1773
247.550	2553
247.614	462
247.677	1698
247.741	1081
247.804	1557
247.868	1497
247.932	872
247.995	5768
248.059	2286
248.122	830
248.186	2540
248.249	2840
248.313	8042
248.376	8477
248.440	4366
248.503	197
248.567	2762
248.630	2450
248.694	2771
248.757	6029
248.821	9288
248.884	6890
248.948	4908
249.011	7050
249.075	11479
249.138	8951
249.202	3975
249.265	2178
249.328	3425
249.392	2218
249.455	2293
249.519	2279
249.582	2360
249.645	4571
249.709	4214
249.772	4744
249.835	3302
249.899	2672
249.962	3359
250.025	1719
250.089	4030
250.152	5574
250.215	2960
250.279	2942
250.342	3033
250.405	3169
250.468	1869
250.532	4260
250.595	6635
250.658	20036
250.721	31810
250.785	9984
250.848	7619
250.911	3305
250.974	4540
251.038	4803
251.101	7439
251.164	4547
251.227	5025
251.290	4583
251.354	8637
251.417	29794
251.480	27236
251.543	21778
251.606	49271
251.669	36915
251.732	14193
251.795	12246
251.859	14543
251.922	32720
251.985	18332
252.048	8616
252.111	6330
252.174	4780
252.237	7623
252.300	12698
252.363	17302
252.426	39355
252.489	15044
252.552	7832
252.615	4628
252.678	5285
252.741	10670
252.804	18424
252.867	40291
252.930	19500
252.993	10179
253.056	6898
253.119	4161
253.182	3190
253.245	7164
253.308	5272
253.371	2416
253.434	2940
253.497	2810
253.559	5511
253.622	3509
253.685	3073
253.748	2516
253.811	2659
253.874	2708
253.937	795
254.000	1983
254.062	3400
254.125	5666
254.188	5781
254.251	3206
254.314	1247
254.376	2509
254.439	2916
254.502	1981
254.565	2954
254.628	6456
254.690	2228
254.753	962
254.816	937
254.878	2208
254.941	3958
255.004	3487
255.067	2036
255.129	393
255.192	1483
255.255	-339
255.317	1056
255.380	750
255.443	897
255.505	507
255.568	-213
255.631	294
255.693	1410
255.756	524
255.819	1487
255.881	810
255.944	982
256.006	546
256.069	132
256.132	-116
256.194	768
256.257	2256
256.319	867
256.382	2268
256.444	2723
256.507	2365
256.569	1717
256.632	2685
256.694	3262
256.757	12799
256.819	32879
256.882	12791
256.944	5148
257.007	3275
257.069	3080
257.132	2545
257.194	3386
257.257	2060
257.319	2739
257.381	3647
257.444	10437
257.506	35294
257.569	36585
257.631	12122
257.693	5988
257.756	3918
257.818	3058
257.880	1822
257.943	3030
258.005	1376
258.067	2102
258.130	2462
258.192	2811
258.254	1891
258.317	1400
258.379	2302
258.441	2980
258.503	2773
258.566	2742
258.628	3228
258.690	1315
258.753	2111
258.815	3442
258.877	1525
258.939	2423
259.001	2045
259.064	1939
259.126	1171
259.188	1677
259.250	1664
259.312	1393
259.375	1490
259.437	2085
259.499	1720
259.561	626
259.623	2005
259.685	1629
259.747	1619
259.809	3196
259.872	4511
259.934	8573
259.996	8992
260.058	4009
260.120	959
260.182	2179
260.244	1256
260.306	725
260.368	1767
260.430	1209
260.492	3488
260.554	5555
260.616	1201
260.678	3909
260.740	3915
260.802	1536
260.864	1927
260.926	313
260.988	2442
261.050	1316
261.112	5705
261.174	9414
261.236	4618
261.298	1999
261.359	1994
261.421	3003
261.483	768
261.545	1964
261.607	507
261.669	1489
261.731	1692
261.793	2600
261.854	549
261.916	2073
261.978	1590
262.040	2124
262.102	1634
262.164	712
262.225	1048
262.287	1853
262.349	1550
262.411	2162
262.472	1520
262.534	821
262.596	1796
262.658	1157
262.719	894
262.781	2268
262.843	1227
262.904	2283
262.966	1836
263.028	2216
263.090	9748
263.151	24518
263.213	7676
263.275	4502
263.336	1656
263.398	2080
263.459	321
263.521	939
263.583	2536
263.644	1548
263.706	64
263.767	953
263.829	835
263.891	524
263.952	490
264.014	490
264.075	3177
264.137	7035
264.198	2164
264.260	374
264.321	1928
264.383	2908
264.444	9741
264.506	2119
264.567	1690
264.629	5883
264.690	7836
264.752	2679
264.813	2637
264.875	1278
264.936	2358
264.998	1270
265.059	1583
265.120	2308
265.182	4241
265.243	18747
265.305	17751
265.366	5204
265.427	2423
265.489	2536
265.550	64
265.611	1060
265.673	831
265.734	1321
265.795	1799
265.857	1574
265.918	1488
265.979	5515
266.040	28257
266.102	22678
266.163	6178
266.224	3387
266.286	1695
266.347	1432
266.408	1783
266.469	1919
266.530	1589
266.592	1341
266.653	1501
266.714	2208
266.775	1326
266.836	1028
266.898	384
266.959	1438
267.020	1025
267.081	2212
267.142	1659
267.203	694
267.264	601
267.326	2063
267.387	1117
267.448	223
267.509	1127
267.570	551
267.631	473
267.692	623
267.753	1680
267.814	-179
267.875	1349
267.936	2865
267.997	1984
268.058	786
268.119	327
268.180	674
268.241	-54
268.302	1033
268.363	589
268.424	53
268.485	521
268.546	874
268.607	423
268.668	-31
268.729	253
268.790	997
268.851	782
268.912	1905
268.972	1268
269.033	603
269.094	669
269.155	1059
269.216	806
269.277	1148
269.338	579
269.398	192
269.459	620
269.520	1667
269.581	546
269.642	1525
269.702	375
269.763	1112
269.824	954
269.885	676
269.945	956
270.006	1055
270.067	529
270.128	615
270.188	293
270.249	297
270.310	-5
270.370	1086
270.431	688
270.492	838
270.553	1151
270.613	1270
270.674	2764
270.734	449
270.795	826
270.856	1051
270.916	268
270.977	270
271.038	1716
271.098	1057
271.159	1151
271.219	1842
271.280	1170
271.340	1124
271.401	-187
271.462	1208
271.522	1158
271.583	991
271.643	714
271.704	692
271.764	1227
271.825	2174
271.885	7469
271.946	10121
272.006	3510
272.066	5335
272.127	7978
272.187	3738
272.248	2031
272.308	2283
272.369	5457
272.429	2702
272.489	1713
272.550	1619
272.610	1817
272.671	1718
272.731	1025
272.791	1243
272.852	390
272.912	651
272.972	382
273.033	1037
273.093	836
273.153	1271
273.214	565
273.274	1597
273.334	5384
273.394	7175
273.455	2325
273.515	3733
273.575	5856
273.635	2392
273.696	4673
273.756	5712
273.816	3042
273.876	1855
273.936	2001
273.997	4208
274.057	1228
274.117	771
274.177	2784
274.237	10039
274.297	7217
274.358	3776
274.418	5369
274.478	3800
274.538	1148
274.598	740
274.658	3023
274.718	2833
274.778	1500
274.838	864
274.898	2407
274.958	3854
275.018	6010
275.078	4131
275.138	1220
275.198	1053
275.258	623
275.318	359
275.378	1635
275.438	1621
275.498	1186
275.558	2908
275.618	5348
275.678	4619
275.738	2608
275.798	2762
275.858	1952
275.918	1116
275.978	1421
276.038	682
276.098	996
276.157	1056
276.217	3840
276.277	1535
276.337	910
276.397	171
276.457	162
276.517	1008
276.576	368
276.636	554
276.696	574
276.756	2363
276.815	1293
276.875	874
276.935	615
276.995	1340
277.055	1514
277.114	229
277.174	1713
277.234	2763
277.293	1109
277.353	853
277.413	248
277.472	720
277.532	1574
277.592	1454
277.651	6590
277.711	8918
277.771	3645
277.830	11707
277.890	8075
277.950	7435
278.009	20932
278.069	7550
278.128	9169
278.188	9431
278.248	4576
278.307	11378
278.367	6114
278.426	2483
278.486	1915
278.545	1006
278.605	468
278.664	1353
278.724	1085
278.783	3552
278.843	8465
278.902	2639
278.962	1252
279.021	1773
279.081	3189
279.140	2586
279.199	2247
279.259	2289
279.318	3785
279.378	4532
279.437	5226
279.496	12930
279.556	47732
279.615	32368
279.675	9871
279.734	6514
279.793	7249
279.853	6223
279.912	4845
279.971	4255
280.031	3091
280.090	4253
280.149	5790
280.208	7737
280.268	36670
280.327	29961
280.386	7588
280.445	5311
280.505	3974
280.564	2787
280.623	2635
280.682	3456
280.742	3715
280.801	2298
280.860	1142
280.919	1787
280.978	1425
281.037	1061
281.097	-47
281.156	2479
281.215	451
281.274	997
281.333	4952
281.392	2777
281.451	1147
281.510	1165
281.569	585
281.628	628
281.688	621
281.747	1358
281.806	985
281.865	1426
281.924	886
281.983	317
282.042	370
282.101	840
282.160	1198
282.219	587
282.278	477
282.337	2296
282.396	1092
282.454	777
282.513	860
282.572	3427
282.631	1289
282.690	1047
282.749	-90
282.808	740
282.867	1148
282.926	594
282.985	798
283.043	584
283.102	357
283.161	938
283.220	2918
283.279	5349
283.338	1028
283.396	1407
283.455	645
283.514	746
283.573	1547
283.631	997
283.690	1249
283.749	473
283.808	2454
283.866	1784
283.925	886
283.984	1568
284.043	1181
284.101	840
284.160	525
284.219	3127
284.277	1266
284.336	1321
284.395	5711
284.453	3795
284.512	2562
284.570	2557
284.629	1962
284.688	2798
284.746	2992
284.805	3459
284.863	5242
284.922	6921
284.981	9061
285.039	12633
285.098	22283
285.156	45592
285.215	62313
285.273	63425
285.332	43675
285.390	25323
285.449	15795
285.507	10917
285.566	7366
285.624	6643
285.683	5478
285.741	4068
285.799	3455
285.858	3249
285.916	2849
285.975	2143
286.033	1761
286.091	2300
286.150	1148
286.208	1356
286.267	1780
286.325	1834
286.383	1894
286.442	1686
286.500	1134
286.558	1491
286.616	903
286.675	2215
286.733	938
286.791	497
286.850	2111
286.908	1361
286.966	1649
287.024	1001
287.083	1228
287.141	414
287.199	1625
287.257	1967
287.315	1948
287.374	1208
287.432	2865
287.490	2092
287.548	1238
287.606	1239
287.664	1704
287.723	1283
287.781	2556
287.839	2638
287.897	2155
287.955	4000
288.013	4973
288.071	11889
288.129	40130
288.187	84990
288.245	39670
288.303	14373
288.361	7985
288.419	5504
288.477	3752
288.535	3408
288.593	2678
288.651	2538
288.709	1808
288.767	1717
288.825	638
288.883	1665
288.941	892
288.999	216
289.057	563
289.115	337
289.173	332
289.231	975
289.289	967
289.346	729
289.404	334
289.462	1290
289.520	1167
289.578	184
289.636	1073
289.694	693
289.751	923
289.809	270
289.867	386
289.925	909
289.983	1122
290.040	980
290.098	304
290.156	384
290.214	335
290.271	-437
290.329	1390
290.387	946
290.444	476
290.502	245
290.560	1438
290.617	914
290.675	255
290.733	250
290.790	-60
290.848	1305
290.906	299
290.963	485
291.021	605
291.078	674
291.136	901
291.194	3531
291.251	5990
291.309	1427
291.366	637
291.424	537
291.481	733
291.539	716
291.596	1202
291.654	496
291.711	1445
291.769	764
291.826	1404
291.884	575
291.941	466
291.999	-587
292.056	866
292.114	-371
292.171	821
292.228	702
292.286	624
292.343	930
292.401	1636
292.458	949
292.515	726
292.573	1011
292.630	1632
292.687	330
292.745	732
292.802	1176
292.859	4389
292.917	4968
292.974	1739
293.031	1431
293.089	750
293.146	387
293.203	1496
293.260	622
293.318	593
293.375	1698
293.432	934
293.489	1435
293.546	567
293.604	1446
293.661	2194
293.718	8188
293.775	4860
293.832	2126
293.889	2217
293.947	2335
294.004	1041
294.061	985
294.118	3025
294.175	6639
294.232	11885
294.289	4185
294.346	2500
294.403	3259
294.460	1007
294.517	1373
294.574	1412
294.631	1323
294.688	1068
294.745	2569
294.802	12805
294.859	15769
294.916	4955
294.973	2018
295.030	1622
295.087	1063
295.144	745
295.201	1346
295.258	1641
295.315	1573
295.372	4002
295.429	7203
295.486	2684
295.542	2639
295.599	8569
295.656	14183
295.713	7580
295.770	7712
295.827	2665
295.883	897
295.940	1641
295.997	1652
296.054	844
296.111	1142
296.167	1186
296.224	1336
296.281	723
296.338	1039
296.394	1085
296.451	1305
296.508	3492
296.564	6261
296.621	3704
296.678	8259
296.734	10419
296.791	4326
296.848	2812
296.904	2276
296.961	3935
297.018	6616
297.074	5124
297.131	2836
297.187	1521
297.244	2834
297.301	7269
297.357	12716
297.414	3338
297.470	2085
297.527	1569
297.583	1774
297.640	1031
297.696	899
297.753	1443
297.809	583
297.866	11
297.922	432
297.979	386
298.035	19
298.092	1007
298.148	3912
298.204	3545
298.261	997
298.317	4180
298.374	9000
298.430	4843
298.486	1739
298.543	519
298.599	2912
298.656	3052
298.712	3361
298.768	9977
298.824	5949
298.881	2088
298.937	1931
298.993	1565
299.050	433
299.106	476
299.162	1332
299.218	933
299.275	237
299.331	655
299.387	2755
299.443	7758
299.500	11265
299.556	5192
299.612	3006
299.668	2046
299.724	6280
299.780	5725
299.837	2672
299.893	2145
299.949	8323
300.005	8911
300.061	8540
300.117	14931
300.173	6885
300.229	2938
300.285	2518
300.341	2879
300.397	1278
300.453	534
300.510	1434
300.566	1889
300.622	3397
300.678	11263
300.734	13937
300.790	7291
300.845	8159
300.901	7093
300.957	10021
301.013	5559
301.069	1823
301.125	1771
301.181	1303
301.237	2045
301.293	422
301.349	538
301.405	1473
301.461	1274
301.516	2660
301.572	1958
301.628	1445
301.684	1114
301.740	3560
301.796	6219
301.851	3156
301.907	3785
301.963	3559
302.019	7082
302.074	20659
302.130	20568
302.186	10953
302.242	4752
302.297	3011
302.353	2664
302.409	4409
302.464	4708
302.520	3176
302.576	7027
302.631	7695
302.687	4154
302.743	2177
302.798	743
302.854	922
302.910	1858
302.965	1725
303.021	2100
303.076	2865
303.132	2041
303.187	3103
303.243	1374
303.299	1649
303.354	661
303.410	1674
303.465	807
303.521	486
303.576	759
303.632	1862
303.687	2307
303.743	7791
303.798	5806
303.853	2970
303.909	2044
303.964	1289
304.020	2120
304.075	2073
304.130	2359
304.186	3271
304.241	4162
304.297	3084
304.352	1894
304.358	1858
304.407	1564
304.449	1246
304.463	1138
304.518	1514
304.539	1384
304.573	1185
304.629	1594
304.630	1595
304.684	1670
304.720	4276
304.739	5561
304.794	7851
304.811	6601
304.850	3642
304.902	2599
304.905	2538
304.960	1715
304.992	1776
305.015	1773
305.071	2119
305.083	1920
305.126	1234
305.173	1246
305.181	1252
305.236	838
305.264	897
305.292	1001
305.347	1847
305.354	1962
305.402	2603
305.445	2132
305.457	1992
305.512	3148
305.535	2828
305.567	2462
305.622	2405
305.626	2483
305.678	4304
305.716	7960
305.733	9145
305.788	8315
305.807	7185
305.843	5644
305.897	7976
305.898	7999
305.953	7354
305.988	5510
306.008	4572
306.063	3695
306.078	3250
306.118	2155
306.168	1205
306.173	1125
306.228	1616
306.259	1622
306.283	1625
306.338	1240
306.349	1418
306.393	2295
306.440	2361
306.448	2345
306.503	2646
306.530	2829
306.558	3528
306.613	5801
306.620	6066
306.668	6983
306.711	7591
306.723	7529
306.778	5347
306.801	4403
306.833	3633
306.888	2318
306.892	2305
306.943	2265
306.982	1968
306.997	1893
307.052	2499
307.072	2419
307.107	2739
307.162	3459
307.163	3464
307.217	4130
307.253	4658
307.272	4750
307.327	4850
307.343	4630
307.381	4437
307.434	3747
307.436	3787
307.491	6478
307.524	8657
307.546	8995
307.600	7357
307.614	6603
307.655	5036
307.704	4028
307.710	4076
307.765	5317
307.795	6486
307.819	7257
307.874	10173
307.885	10076
307.929	9199
307.975	9781
307.984	10632
308.038	15926
308.065	20165
308.093	32438
308.148	62615
308.156	68449
308.202	84588
308.246	89412
308.257	86523
308.312	50772
308.336	36220
308.366	27399
308.421	16536
308.426	15725
308.475	11386
308.517	8922
308.530	8490
308.585	7743
308.607	7457
308.639	7568
308.694	8043
308.697	8119
308.748	11235
308.787	13934
308.803	13713
308.857	10750
308.877	9920
308.912	10595
308.967	12001
308.967	12012
309.021	16299
309.058	20153
309.076	25740
309.130	44411
309.148	51631
309.185	78352
309.238	122810
309.239	122965
309.293	116873
309.328	102877
309.348	91081
309.402	51283
309.418	40995
309.457	30171
309.508	19594
309.511	19313
309.566	16363
309.598	15408
309.620	15794
309.674	17279
309.688	17795
309.729	16185
309.778	12840
309.783	12663
309.837	10758
309.868	9671
309.892	9876
309.946	11223
309.959	11617
310.001	12554
310.049	13130
310.055	12806
310.109	9347
310.139	7153
310.163	6370
310.218	5629
310.229	5387
310.272	5099
310.319	5058
310.326	4969
310.381	4281
310.409	3787
310.435	3795
310.489	4053
310.499	4103
310.543	4719
310.589	5193
310.598	5093
310.652	4522
310.679	4174
310.706	4029
310.760	3551
310.769	3483
310.814	3544
310.859	3561
310.868	3622
310.923	3969
310.948	4127
310.977	3984
311.031	3675
311.038	3619
311.085	3643
311.128	3501
311.139	3588
311.193	4197
311.218	4409
311.247	4589
311.301	4848
311.308	4861
311.356	4698
311.398	4700
311.410	4670
311.464	4199
311.488	4011
311.518	4080
311.572	4132
311.578	4128
311.626	4784
311.668	5318
311.680	5370
311.734	5529
311.758	5556
311.788	5588
311.842	5642
311.847	5624
311.896	6639
311.937	7543
311.950	7319
312.004	6189
312.027	5676
312.058	5188
312.112	4291
312.117	4190
312.165	5120
312.207	5891
312.297	6844
312.386	5592
312.476	5177
312.566	6485
312.656	5443
312.745	4967
312.835	5857
312.925	5804
313.015	5101
313.104	6027
313.194	5156
313.284	5665
313.374	5864
313.463	6164
313.553	5807
313.643	6108
313.732	5238
313.822	6570
313.912	6438
314.001	6828
314.091	7343
314.180	8586
314.270	7201
314.360	7260
314.449	6830
314.539	6607
314.628	6573
314.718	7302
314.808	6358
314.897	6689
314.987	7156
315.076	7562
315.166	8142
315.255	8316
315.345	7665
315.434	7220
315.524	7254
315.613	8420
315.703	9158
315.792	19443
315.881	38084
315.971	13732
316.060	11597
316.150	11884
316.239	11105
316.328	8043
316.418	7700
316.507	7632
316.597	8539
316.686	9274
316.775	10095
316.865	11750
316.954	6776
317.043	6452
317.133	5833
317.222	6608
317.311	5463
317.400	5262
317.490	6738
317.579	6847
317.668	7116
317.757	10791
317.847	29700
317.936	58650
318.025	19546
318.114	17660
318.203	10527
318.293	13642
318.382	21096
318.471	17129
318.560	26262
318.649	33724
318.738	9551
318.828	7737
318.917	6898
319.006	10521
319.095	16541
319.184	41670
319.273	14141
319.362	6871
319.451	5998
319.540	5596
319.629	6736
319.718	8721
319.807	8795
319.896	19560
319.985	45143
320.074	12950
320.163	8013
320.252	9718
320.341	10348
320.430	9024
320.519	7822
320.608	7712
320.697	8734
320.786	8713
320.875	8812
320.964	9908
321.053	10430
321.142	12928
321.230	12608
321.319	15270
321.408	18966
321.497	13389
321.586	13019
321.675	16303
321.764	15079
321.852	13828
321.941	13956
322.030	12301
322.119	14087
322.207	19879
322.296	20406
322.385	17487
322.474	17174
322.562	20688
322.651	14764
322.740	14597
322.829	14604
322.917	14544
323.006	10165
323.095	10140
323.183	10500
323.272	12336
323.361	19600
323.449	29983
323.538	14761
323.626	25063
323.715	12060
323.804	13153
323.892	21333
323.981	10236
324.069	9247
324.158	16791
324.246	10289
324.335	8156
324.424	6851
324.512	7412
324.601	6617
324.689	7837
324.778	9564
324.866	9390
324.954	5756
325.043	6936
325.131	8316
325.220	13689
325.308	11172
325.397	9789
325.485	6499
325.574	5781
325.662	5001
325.750	5110
325.839	5378
325.927	5612
326.015	6572
326.104	7996
326.192	7953
326.280	6571
326.369	5342
326.457	6903
326.545	6139
326.634	5218
326.722	5344
326.810	6325
326.898	7087
326.987	6786
327.075	7470
327.163	8267
327.251	6542
327.340	7231
327.428	7848
327.516	8405
327.604	8190
327.692	6315
327.781	5955
327.869	7709
327.957	5444
328.045	5240
328.133	4411
328.221	5181
328.309	5934
328.397	5698
328.485	5982
328.574	8634
328.662	12621
328.750	10768
328.838	6085
328.926	5018
329.014	6389
329.102	6994
329.190	12410
329.278	7251
329.366	4905
329.454	5481
329.542	5325
329.630	4821
329.718	5216
329.806	5113
329.893	6061
329.981	5863
330.069	6380
330.157	8693
330.245	12214
330.333	7749
330.421	5661
330.509	6436
330.597	8823
330.684	7618
330.772	6911
330.860	9677
330.948	11361
331.036	6839
331.123	5232
331.211	7084
331.299	6451
331.387	13037
331.475	13688
331.562	6150
331.650	5141
331.738	7084
331.825	6410
331.913	5619
332.001	5249
332.089	7394
332.176	9641
332.264	14981
332.352	9282
332.439	7294
332.527	6838
332.614	5523
332.702	6925
332.790	7244
332.877	10129
332.965	12156
333.052	6477
333.140	8239
333.228	9456
333.315	7205
333.403	7804
333.490	11561
333.578	9278
333.665	12622
333.753	8578
333.840	7466
333.928	10021
334.015	14612
334.103	27516
334.190	49498
334.278	20480
334.365	19081
334.452	17371
334.540	15257
334.627	16943
334.715	20720
334.802	34448
334.889	69243
334.977	50491
335.064	23980
335.151	17386
335.239	15626
335.326	16897
335.413	40897
335.501	34459
335.588	14418
335.675	15185
335.762	20714
335.850	25907
335.937	32146
336.024	52650
336.111	81797
336.199	46352
336.286	25673
336.373	16777
336.460	12287
336.547	11052
336.635	11099
336.722	8939
336.809	9050
336.896	9881
336.983	23770
337.070	43557
337.157	49971
337.245	31913
337.332	16187
337.419	8075
337.506	8609
337.593	9336
337.680	23553
337.767	36557
337.854	14089
337.941	14140
338.028	12442
338.115	7262
338.202	10921
338.289	16464
338.376	23717
338.463	12675
338.550	30766
338.637	21494
338.724	11472
338.811	9228
338.898	6735
338.984	6483
339.071	6950
339.158	6677
339.245	8876
339.332	7624
339.419	9650
339.506	7075
339.593	5132
339.679	5672
339.766	6117
339.853	6195
339.940	6823
340.027	5299
340.113	6093
340.200	5410
340.287	5635
340.374	6300
340.460	6694
340.547	4225
340.634	7215
340.720	9602
340.807	6495
340.894	4781
340.980	6022
341.067	4970
341.154	5893
341.240	5872
341.327	6879
341.414	5911
341.500	6346
341.587	6376
341.674	5572
341.760	6553
341.847	5953
341.933	5412
342.020	4682
342.106	4547
342.193	4840
342.279	5411
342.366	5030
342.452	5492
342.539	5181
342.625	6098
342.712	9276
342.798	5672
342.885	4916
342.971	3691
343.058	3992
343.144	3938
343.230	5271
343.317	5476
343.403	5114
343.490	4569
343.576	4987
343.662	4467
343.749	5435
343.835	5650
343.921	8287
344.008	28210
344.094	37180
344.180	10339
344.267	7989
344.353	15434
344.439	12050
344.525	8822
344.612	19382
344.698	20827
344.784	13144
344.870	6233
344.957	5282
345.043	5844
345.129	4784
345.215	5468
345.301	4786
345.387	4668
345.474	4703
345.560	4363
345.646	4596
345.732	5457
345.818	5508
345.904	4285
345.990	5382
346.076	5606
346.162	6051
346.249	5574
346.335	4463
346.421	5241
346.507	10976
346.593	16377
346.679	6848
346.765	6393
346.851	7947
346.937	6256
347.023	6617
347.108	5562
347.194	5138
347.280	4688
347.366	6703
347.452	16237
347.538	28992
347.624	18902
347.710	13441
347.796	5757
347.882	6647
347.967	5802
348.053	6636
348.139	5610
348.225	5459
348.311	4458
348.397	4962
348.482	5942
348.568	5441
348.654	7473
348.740	16740
348.825	17674
348.911	12678
348.997	17361
349.083	19820
349.168	6789
349.254	5903
349.340	5031
349.425	5504
349.511	5335
349.597	5578
349.682	7137
349.768	13619
349.854	7753
349.939	5959
350.025	4837
350.110	5737
350.196	5374
350.282	4420
350.367	5743
350.453	6795
350.538	5609
350.624	4758
350.709	5245
350.795	4639
350.880	4657
350.966	5956
351.051	6659
351.137	5328
351.222	4637
351.308	6925
351.393	9544
351.479	5071
351.564	3943
351.649	5168
351.735	5011
351.820	5170
351.906	5494
351.991	5994
352.076	8895
352.162	9611
352.247	4892
352.332	4535
352.418	5919
352.503	7911
352.588	13378
352.673	8304
352.759	5379
352.844	4233
352.929	5316
353.014	4247
353.100	4691
353.185	4990
353.270	4936
353.355	6038
353.441	4700
353.526	5180
353.611	5184
353.696	4499
353.781	5662
353.866	3909
353.952	5205
354.037	5297
354.122	7346
354.207	6536
354.292	5164
354.377	4027
354.462	5307
354.547	5159
354.632	5638
354.717	6703
354.802	4818
354.887	4700
354.972	4764
355.057	4936
355.142	3995
355.227	6027
355.312	5338
355.397	6716
355.482	8416
355.567	6131
355.652	6836
355.737	7631
355.822	14838
355.907	9181
355.991	6351
356.076	4415
356.161	5379
356.246	5349
356.331	5529
356.416	8801
356.501	27171
356.585	19352
356.670	6071
356.755	7598
356.840	7617
356.924	23152
357.009	43899
357.094	15769
357.179	6546
357.263	6225
357.348	7763
357.433	7305
357.517	5998
357.602	5985
357.687	6261
357.771	13547
357.856	31168
357.941	16807
358.025	22888
358.110	51694
358.195	18184
358.279	7206
358.364	6762
358.448	12467
358.533	19858
358.617	14653
358.702	15223
358.787	7893
358.871	7029
358.956	6258
359.040	5478
359.125	5558
359.209	8378
359.294	21739
359.378	25969
359.462	9148
359.547	6030
359.631	5113
359.716	4785
359.800	6062
359.885	7687
359.969	5134
360.053	5741
360.138	4928
360.222	5930
360.306	6899
360.391	8076
360.475	18843
360.559	23820
360.644	12079
360.728	7048
360.812	20007
360.896	31739
360.981	16263
361.065	9984
361.149	7749
361.233	7013
361.318	6728
361.402	6249
361.486	7950
361.570	6471
361.654	7044
361.739	11190
361.823	29693
361.907	31711
361.991	12783
362.075	11942
362.159	17404
362.243	28398
362.327	49733
362.411	57675
362.495	28087
362.580	18165
362.664	18395
362.748	21236
362.832	32283
362.916	59265
363.000	122716
363.084	141628
363.168	76800
363.252	28196
363.336	18661
363.420	20913
363.503	49883
363.587	42404
363.671	14446
363.755	12683
363.839	15577
363.923	14761
364.007	21211
364.091	28811
364.175	56005
364.258	122417
364.342	161933
364.426	193414
364.510	103642
364.594	45677
364.677	32356
364.761	40562
364.845	24364
364.929	12843
365.013	10775
365.096	10958
365.180	11117
365.264	27757
365.347	60813
365.431	23679
365.515	9307
365.598	6738
365.682	9417
365.766	11583
365.849	11304
365.933	8000
366.017	11406
366.100	7942
366.184	6732
366.267	7513
366.351	6999
366.435	5194
366.518	5936
366.602	6856
366.685	6837
366.769	7141
366.852	10327
366.936	9244
367.019	6748
367.103	9276
367.186	13839
367.270	6858
367.353	5958
367.436	7707
367.520	6716
367.603	7362
367.687	6094
367.770	7667
367.853	8181
367.937	13832
368.020	14704
368.104	6497
368.187	8045
368.270	8092
368.353	7571
368.437	12303
368.520	18043
368.603	11247
368.687	13181
368.770	15963
368.853	7713
368.936	9349
369.020	11155
369.103	5776
369.186	6148
369.269	5042
369.352	7156
369.436	7124
369.519	7105
369.602	4909
369.685	7717
369.768	4430
369.851	6835
369.934	4338
370.018	5931
370.101	5660
370.184	7754
370.267	8346
370.350	10059
370.433	11726
370.516	25134
370.599	30418
370.682	12450
370.765	13406
370.848	16658
370.931	21473
371.014	12957
371.097	4989
371.180	5938
371.263	6322
371.346	5225
371.429	6223
371.511	6407
371.594	6287
371.677	10784
371.760	12231
371.843	10297
371.926	29235
372.009	41148
372.091	16801
372.174	15557
372.257	24786
372.340	12238
372.423	14727
372.505	17534
372.588	8310
372.671	12706
372.754	20577
372.836	13839
372.919	26267
373.002	34165
373.085	9981
373.167	9582
373.250	13741
373.332	24811
373.415	40402
373.498	54295
373.580	27864
373.663	53696
373.746	47515
373.828	13775
373.911	10730
373.993	15538
374.076	39412
374.159	27779
374.241	12996
374.324	19802
374.406	15270
374.489	27227
374.571	45727
374.654	18651
374.736	17509
374.819	36278
374.901	48782
374.983	37761
375.066	11300
375.148	13036
375.231	38368
375.313	51090
375.395	18463
375.478	8656
375.560	8270
375.643	9529
375.725	18896
375.807	43157
375.890	33543
375.972	14909
376.054	14290
376.136	16176
376.219	9413
376.301	19465
376.383	29843
376.465	12823
376.548	8850
376.630	14557
376.712	25791
376.794	12080
376.877	5802
376.959	5278
377.041	6775
377.123	12058
377.205	11291
377.287	4810
377.369	5122
377.452	6314
377.534	5566
377.616	5453
377.698	5666
377.780	4605
377.862	6009
377.944	6427
378.026	4770
378.108	4979
378.190	4733
378.272	6730
378.354	4971
378.436	5950
378.518	7536
378.600	15548
378.682	11561
378.764	13841
378.846	10447
378.928	6874
379.010	6107
379.091	6531
379.173	5264
379.255	5115
379.337	5918
379.419	9775
379.501	17636
379.583	9235
379.664	5708
379.746	7211
379.828	14591
379.910	16024
379.991	13724
380.073	6472
380.155	5294
380.237	5763
380.318	4876
380.400	5739
380.482	6333
380.564	6609
380.645	6413
380.727	6681
380.809	6228
380.890	5516
380.972	4238
381.053	5766
381.135	5483
381.217	8461
381.298	13127
381.380	8427
381.461	11561
381.543	29131
381.624	25818
381.706	8602
381.787	8239
381.869	9391
381.951	22070
382.032	45971
382.113	25346
382.195	8445
382.276	10252
382.358	13737
382.439	26474
382.521	33594
382.602	41087
382.684	23983
382.765	37893
382.846	50072
382.928	62929
383.009	35259
383.090	47497
383.172	120178
383.253	118760
383.334	46116
383.416	40547
383.497	24167
383.578	19792
383.659	42755
383.741	130096
383.822	202866
383.903	82667
383.984	36411
384.066	43079
384.147	23561
384.228	11955
384.309	10988
384.390	9656
384.471	10371
384.553	9479
384.634	10053
384.715	9784
384.796	8192
384.877	9769
384.958	15961
385.039	13617
385.120	8259
385.201	8555
385.282	10601
385.363	11658
385.444	9892
385.525	15945
385.606	27020
385.687	20372
385.768	12459
385.849	14187
385.930	33586
386.011	38762
386.092	13959
386.173	10305
386.254	10172
386.335	10553
386.416	10859
386.496	15035
386.577	17617
386.658	11600
386.739	10101
386.820	12811
386.901	10592
386.981	11222
387.062	10638
387.143	12111
387.224	19151
387.304	18938
387.385	15756
387.466	13348
387.547	15474
387.627	12847
387.708	18146
387.789	31101
387.869	30104
387.950	15459
388.031	12268
388.111	11394
388.192	19390
388.273	20689
388.353	13280
388.434	9431
388.514	14804
388.595	29928
388.676	27682
388.756	15477
388.837	14987
388.917	9157
388.998	6411
389.078	8286
389.159	8025
389.239	5893
389.320	9668
389.400	7129
389.480	13190
389.561	16409
389.641	11687
389.722	8873
389.802	8395
389.883	13274
389.963	22375
390.043	15859
390.124	9382
390.204	11889
390.284	15943
390.365	14098
390.445	36901
390.525	59715
390.605	35227
390.686	11271
390.766	9034
390.846	8637
390.927	7396
391.007	7380
391.087	9660
391.167	8302
391.247	7595
391.328	11311
391.408	13790
391.488	10723
391.568	7808
391.648	8611
391.728	11138
391.808	10790
391.888	11532
391.969	16380
392.049	18222
392.129	16086
392.209	17706
392.289	24166
392.369	21435
392.449	25492
392.529	18635
392.609	18974
392.689	22953
392.769	32290
392.849	33613
392.929	43682
393.009	63711
393.089	72123
393.169	126608
393.248	296736
393.328	523465
393.408	441823
393.488	216975
393.568	99802
393.648	56691
393.728	37436
393.807	27766
393.887	23904
393.967	21920
394.047	19666
394.127	20809
394.206	32898
394.286	101697
394.366	254631
394.446	213739
394.525	64237
394.605	25887
394.685	22009
394.764	35923
394.844	52888
394.924	42214
395.003	17325
395.083	13014
395.163	11487
395.242	10619
395.322	10955
395.402	10348
395.481	15201
395.561	30268
395.640	61583
395.720	79908
395.799	76046
395.879	47743
395.958	47196
396.038	142075
396.117	320530
396.197	282611
396.276	109540
396.356	52056
396.435	41312
396.515	38130
396.594	49451
396.673	106221
396.753	280768
396.832	457874
396.912	300985
396.991	113764
397.070	53009
397.150	31655
397.229	30256
397.308	51245
397.388	85287
397.467	47545
397.546	19452
397.625	12078
397.705	12960
397.784	10331
397.863	9107
397.942	9811
398.022	11813
398.101	25296
398.180	43955
398.259	22236
398.338	10067
398.417	8407
398.497	7272
398.576	8293
398.655	6346
398.734	7678
398.813	7921
398.892	22940
398.971	46650
399.050	19812
399.129	6672
399.208	7809
399.287	6509
399.366	5641
399.445	5739
399.524	6183
399.603	3997
399.682	7713
399.761	19260
399.840	50209
399.919	30744
399.998	7093
400.077	4463
400.156	4332
400.235	7724
400.313	5282
400.392	5117
400.471	10158
400.550	10132
400.629	5090
400.708	6162
400.786	7881
400.865	13262
400.944	11877
401.023	7797
401.102	4167
401.180	4414
401.259	5772
401.338	4634
401.416	5502
401.495	4545
401.574	6136
401.652	4485
401.731	5631
401.810	3542
401.888	3844
401.967	4097
402.046	4975
402.124	5751
402.203	5698
402.281	5544
402.360	8319
402.438	14670
402.517	9087
402.596	5268
402.674	5879
402.753	3808
402.831	5391
402.910	5985
402.988	6685
403.066	7769
403.145	7470
403.223	7715
403.302	9140
403.380	8647
403.459	6774
403.537	5202
403.615	6245
403.694	3948
403.772	6513
403.850	5097
403.929	4921
404.007	4853
404.085	8086
404.164	6906
404.242	12347
404.320	38057
404.398	80203
404.477	73121
404.555	57495
404.633	49008
404.711	59753
404.789	42840
404.868	13991
404.946	6824
405.024	6277
405.102	5321
405.180	4623
405.258	3260
405.336	5702
405.415	4568
405.493	6783
405.571	5396
405.649	4463
405.727	3564
405.805	6703
405.883	5591
405.961	6586
406.039	6137
406.117	3505
406.195	5666
406.273	11242
406.351	26325
406.429	16488
406.507	6503
406.585	4191
406.663	4497
406.740	4675
406.818	3178
406.896	3217
406.974	4847
407.052	6565
407.130	17409
407.208	18495
407.285	6226
407.363	3723
407.441	4007
407.519	4073
407.596	5206
407.674	11202
407.752	26260
407.830	23268
407.907	8880
407.985	4127
408.063	3862
408.141	4532
408.218	6479
408.296	4224
408.373	4745
408.451	5294
408.529	4233
408.606	5096
408.684	5142
408.762	6195
408.839	5284
408.917	5444
408.994	4961
409.072	6890
409.149	7748
409.227	12373
409.304	14219
409.382	17465
409.459	17695
409.537	22412
409.614	21968
409.692	20257
409.769	19058
409.846	22522
409.924	27118
410.001	22816
410.079	19133
410.156	16097
410.233	12761
410.311	10383
410.388	9890
410.465	9874
410.543	7944
410.620	9122
410.697	8100
410.775	6742
410.852	4898
410.929	7888
411.006	7829
411.083	8159
411.161	10432
411.238	10569
411.315	7045
411.392	6110
411.469	7232
411.547	7294
411.624	5055
411.701	5816
411.778	5511
411.855	5637
411.932	4861
412.009	5004
412.086	5227
412.163	6029
412.240	5237
412.317	5962
412.394	5368
412.471	4988
412.548	3896
412.625	4298
412.702	5605
412.779	5877
412.856	5224
412.933	4684
413.010	3632
413.087	6306
413.164	7847
413.241	9021
413.318	4095
413.395	5488
413.471	4253
413.548	4486
413.625	4869
413.702	4083
413.779	4258
413.855	4018
413.932	2701
414.009	3233
414.086	3211
414.162	3487
414.239	5090
414.316	8856
414.393	11117
414.469	4565
414.546	3506
414.623	3373
414.699	3227
414.776	3882
414.853	2617
414.929	3505
415.006	3475
415.082	4745
415.159	3250
415.236	3985
415.312	4281
415.389	4800
415.465	3002
415.542	3405
415.618	2698
415.695	4371
415.771	3371
415.848	3388
415.924	3577
416.000	3743
416.077	4304
416.153	3205
416.230	2556
416.306	2944
416.383	3150
416.459	3698
416.535	3048
416.612	2776
416.688	2639
416.764	3536
416.841	2791
416.917	3120
416.993	3990
417.069	4172
417.146	5909
417.222	6644
417.298	3854
417.374	3775
417.451	3600
417.527	3502
417.603	3372
417.679	3880
417.755	3124
417.831	2974
417.908	3345
417.984	3392
418.060	2795
418.136	4018
418.212	3554
418.288	3160
418.364	3563
418.440	3348
418.516	4775
418.592	6565
418.668	5956
418.744	5949
418.820	5129
418.896	4334
418.972	2726
419.048	3776
419.124	4830
419.200	3364
419.276	3997
419.352	3394
419.428	4310
419.504	4450
419.579	3671
419.655	4414
419.731	4741
419.807	6319
419.883	6038
419.959	6191
420.034	6087
420.110	7248
420.186	11031
420.262	9656
420.337	6268
420.413	6802
420.489	7054
420.565	7954
420.640	6635
420.716	8391
420.792	7240
420.867	9422
420.943	8665
421.019	10668
421.094	9580
421.170	11451
421.245	11081
421.321	12532
421.397	12847
421.472	19392
421.548	26088
421.623	23802
421.699	21206
421.774	21526
421.850	25360
421.925	30943
422.001	35890
422.076	43143
422.152	54554
422.227	69856
422.302	93731
422.378	130503
422.453	187630
422.529	257455
422.604	283382
422.679	238406
422.755	242158
422.830	238650
422.905	183509
422.981	131534
423.056	98398
423.131	74601
423.207	58740
423.282	45945
423.357	39364
423.432	32116
423.508	28300
423.583	25149
423.658	22144
423.733	20409
423.808	18587
423.883	18524
423.959	17362
424.034	17107
424.109	17000
424.184	13384
424.259	11973
424.334	11064
424.409	9395
424.484	9514
424.559	8369
424.634	7906
424.709	8326
424.784	8522
424.859	6576
424.934	7139
425.009	10017
425.084	11818
425.159	6487
425.234	6479
425.309	7134
425.384	17923
425.459	20258
425.534	9180
425.609	5053
425.683	5252
425.758	5030
425.833	5686
425.908	6318
425.983	6930
426.058	10245
426.132	7461
426.207	6203
426.282	8255
426.357	6150
426.431	5207
426.506	4466
426.581	4591
426.655	4981
426.730	4724
426.805	3190
426.879	5172
426.954	4694
427.029	5858
427.103	12749
427.178	20660
427.253	10380
427.327	6770
427.402	12090
427.476	21743
427.551	9764
427.625	5516
427.700	5347
427.774	4503
427.849	5017
427.923	4518
427.998	5203
428.072	6254
428.147	14861
428.221	55153
428.296	116978
428.370	62218
428.444	14757
428.519	11573
428.593	14166
428.667	12884
428.742	16515
428.816	29218
428.890	91942
428.965	115759
429.039	38384
429.113	16153
429.188	6904
429.262	5306
429.336	6122
429.410	7751
429.485	8253
429.559	11765
429.633	8994
429.707	9289
429.781	24921
429.855	90704
429.930	103170
430.004	49683
430.078	58284
430.152	83431
430.226	164472
430.300	136169
430.374	37236
430.448	17318
430.522	28202
430.596	48818
430.670	45586
430.744	106405
430.818	95631
430.892	21436
430.966	6073
431.040	5559
431.114	3975
431.188	3547
431.262	3503
431.336	3964
431.410	8666
431.484	12670
431.557	7347
431.631	5126
431.705	10312
431.779	44587
431.853	114317
431.927	69733
432.000	13033
432.074	5916
432.148	5093
432.222	4000
432.295	2968
432.369	2937
432.443	3655
432.516	14408
432.590	20312
432.664	7946
432.737	1421
432.811	1536
432.885	948
432.958	2715
433.032	1177
433.106	1777
433.179	2773
433.253	2246
433.326	1752
433.400	1980
433.473	2421
433.547	1289
433.620	2634
433.694	2713
433.767	2768
433.841	2883
433.914	1912
433.988	2398
434.061	2283
434.134	2506
434.208	2285
434.281	3115
434.355	1781
434.428	2954
434.501	2272
434.575	2574
434.648	2617
434.721	1907
434.795	1524
434.868	2171
434.941	2135
435.014	2443
435.088	2861
435.161	3949
435.234	3804
435.307	4564
435.381	4807
435.454	6533
435.527	8727
435.600	10006
435.673	9468
435.746	8516
435.819	6597
435.892	6606
435.966	4917
436.039	4625
436.112	3973
436.185	3623
436.258	2279
436.331	2503
436.404	2724
436.477	2978
436.550	1994
436.623	2917
436.696	2762
436.769	2498
436.842	2045
436.915	2775
436.987	2520
437.060	2753
437.133	2479
437.206	2435
437.279	2045
437.352	2129
437.425	1727
437.498	2678
437.570	2717
437.643	2476
437.716	1563
437.789	2498
437.861	4116
437.934	7176
438.007	2855
438.080	2359
438.152	1803
438.225	4247
438.298	18024
438.370	30368
438.443	11226
438.516	5945
438.588	2544
438.661	2406
438.734	2158
438.806	2739
438.879	2456
438.951	3120
439.024	3848
439.096	1783
439.169	1872
439.241	1919
439.314	1489
439.386	3247
439.459	4300
439.531	4275
439.604	1543
439.676	2029
439.749	2099
439.821	2064
439.893	1865
439.966	3155
440.038	1863
440.110	2623
440.183	1794
440.255	1494
440.327	4029
440.400	8787
440.472	18760
440.544	9662
440.617	3103
440.689	4303
440.761	4314
440.833	5865
440.905	3804
440.978	2143
441.050	1635
441.122	3046
441.194	1848
441.266	2029
441.338	2054
441.411	3489
441.483	6256
441.555	6900
441.627	3773
441.699	4752
441.771	4049
441.843	2625
441.915	2998
441.987	3749
442.059	3614
442.131	4531
442.203	6326
442.275	8325
442.347	11268
442.419	28276
442.491	101555
442.563	158555
442.635	66806
442.706	24684
442.778	13171
442.850	6918
442.922	6312
442.994	7707
443.066	7585
443.137	10012
443.209	11104
443.281	19818
443.353	41777
443.425	123926
443.496	246066
443.568	226218
443.640	98011
443.711	29347
443.783	13479
443.855	9481
443.926	6269
443.998	6960
444.070	6150
444.141	5251
444.213	4086
444.285	5417
444.356	4840
444.428	5884
444.499	4316
444.571	3818
444.642	4373
444.714	4740
444.785	5149
444.857	7943
444.928	12249
445.000	10952
445.071	13462
445.143	14081
445.214	18847
445.285	35937
445.357	84735
445.428	200474
445.500	269916
445.571	221523
445.642	140055
445.714	58710
445.785	28032
445.856	13109
445.928	7961
445.999	7584
446.070	5641
446.141	5320
446.213	4281
446.284	3988
446.355	4047
446.426	3644
446.497	2777
446.569	4297
446.640	3817
446.711	2506
446.782	2647
446.853	2773
446.924	2750
446.995	1783
447.066	2709
447.138	3890
447.209	2607
447.280	1478
447.351	1093
447.422	1468
447.493	2287
447.564	2046
447.635	548
447.706	1611
447.777	739
447.847	1269
447.918	503
447.989	2087
448.060	2683
448.131	6386
448.202	3647
448.273	2537
448.344	1570
448.414	2430
448.485	1166
448.556	1320
448.627	1164
448.698	2114
448.768	1462
448.839	1283
448.910	3345
448.981	2895
449.051	977
449.122	979
449.193	720
449.263	2110
449.334	1123
449.405	2041
449.475	1630
449.546	2780
449.616	4696
449.687	2199
449.758	1244
449.828	1062
449.899	852
449.969	1193
450.040	1707
450.110	1618
450.181	1676
450.251	1050
450.322	1480
450.392	1971
450.463	1187
450.533	1159
450.604	1600
450.674	2010
450.744	2239
450.815	1231
450.885	2686
450.955	2367
451.026	1846
451.096	1955
451.166	2219
451.237	6047
451.307	8812
451.377	4324
451.447	1479
451.518	1909
451.588	1595
451.658	2018
451.728	3279
451.799	10519
451.869	8198
451.939	2521
452.009	1865
452.079	2085
452.149	2537
452.219	4635
452.289	11414
452.360	6787
452.430	2918
452.500	3222
452.570	4535
452.640	10833
452.710	22934
452.780	26079
452.850	14349
452.920	7515
452.990	4580
453.060	3947
453.129	3159
453.199	5199
453.269	18374
453.339	23901
453.409	29474
453.479	39906
453.549	51640
453.619	47379
453.688	14344
453.758	3946
453.828	2389
453.898	1846
453.968	1469
454.037	1588
454.087	1817
454.107	1903
454.168	1751
454.177	1720
454.247	1326
454.249	1340
454.316	1187
454.330	1442
454.386	2326
454.411	3884
454.456	6392
454.492	6010
454.525	5698
454.574	3477
454.595	2512
454.655	949
454.665	707
454.734	1864
454.736	1949
454.804	3792
454.817	5096
454.873	10309
454.898	9463
454.943	7848
454.979	5596
455.013	3712
455.060	2679
455.082	2247
455.141	3604
455.152	3803
455.221	9087
455.222	9173
455.291	12306
455.303	12176
455.360	11516
455.384	13591
455.430	16672
455.465	12262
455.499	8317
455.546	9064
455.569	9196
455.627	5440
455.638	4843
455.707	1832
455.708	1845
455.777	984
455.789	1080
455.846	1861
455.869	1903
455.916	1658
455.950	1738
455.985	1907
456.031	1844
456.054	1766
456.112	2205
456.124	2332
456.193	2323
456.193	2307
456.262	2438
456.274	2472
456.332	2680
456.355	2868
456.401	3023
456.436	2140
456.470	1288
456.516	2194
456.540	2604
456.597	1452
456.609	1243
456.678	1940
456.678	1929
456.747	1689
456.759	1658
456.817	1870
456.840	2029
456.886	1955
456.920	2113
456.955	2518
457.001	2545
457.024	2335
457.082	2691
457.093	2844
457.162	3252
457.163	3266
457.232	2941
457.243	2807
457.301	2395
457.324	2303
457.370	1953
457.405	2345
457.439	2879
457.485	3180
457.508	3271
457.566	3441
457.577	3592
457.646	4685
457.647	4725
457.715	8590
457.727	9417
457.784	13441
457.808	18127
457.853	25670
457.889	30730
457.922	34130
457.969	24593
457.991	21722
458.050	21828
458.060	21910
458.129	38317
458.130	38700
458.198	48575
458.211	44379
458.267	26390
458.292	20380
458.336	12844
458.372	11557
458.405	13015
458.453	17958
458.474	20222
458.533	33637
458.543	35232
458.611	63894
458.614	63934
458.680	49361
458.694	41771
458.749	19474
458.775	14964
458.818	8967
458.855	7187
458.887	6021
458.936	4955
458.955	4557
459.016	4604
459.024	4710
459.093	4357
459.097	4403
459.162	3849
459.177	3725
459.230	4217
459.257	4447
459.299	4412
459.338	4104
459.368	4016
459.418	4534
459.437	4508
459.499	3600
459.505	3557
459.574	4041
459.579	4028
459.643	3385
459.659	3293
459.711	3439
459.740	3367
459.780	2923
459.820	3220
459.849	3693
459.900	4265
459.917	4288
459.981	4063
459.986	4066
460.054	4333
460.061	4400
460.123	4717
460.141	4631
460.191	4718
460.222	4735
460.260	4461
460.302	4285
460.328	4359
460.382	5214
460.397	5332
460.462	4891
460.465	4978
460.534	7334
460.543	7678
460.602	13357
460.623	16065
460.671	22380
460.703	30618
460.739	31326
460.783	23469
460.808	20296
460.864	7342
460.876	5566
460.944	4339
460.945	4322
461.013	4058
461.024	4057
461.081	3941
461.104	3732
461.150	3428
461.184	3595
461.218	3931
461.264	3634
461.286	3507
461.345	4368
461.355	4376
461.423	3838
461.425	3816
461.491	4345
461.505	4609
461.559	6719
461.585	7574
461.628	9752
461.665	12363
461.696	12873
461.745	14222
461.764	13271
461.825	6032
461.832	5702
461.901	4456
461.905	4415
461.969	4190
461.985	4215
462.037	4405
462.065	4517
462.105	5166
462.145	5801
462.173	6720
462.225	8293
462.241	8634
462.305	11113
462.310	10907
462.378	6365
462.385	5785
462.446	5026
462.465	4944
462.514	4411
462.545	4197
462.582	4346
462.625	4572
462.650	4598
462.705	4578
462.718	4731
462.785	5589
462.786	5592
462.854	5725
462.865	5773
462.922	7284
462.945	7769
462.990	6222
463.025	4716
463.058	4593
463.104	4883
463.126	4686
463.184	3864
463.194	3912
463.262	4703
463.264	4718
463.330	4517
463.344	4504
463.398	5804
463.424	6277
463.466	5157
463.504	4462
463.533	5118
463.583	5653
463.601	5394
463.663	5018
463.669	5164
463.737	6708
463.743	6820
463.805	8719
463.823	9324
463.873	12497
463.903	14772
463.940	14862
463.982	14810
464.008	12772
464.062	7103
464.076	6651
464.142	4986
464.144	4997
464.211	5600
464.221	5690
464.279	5277
464.301	5165
464.347	5647
464.381	5826
464.414	5773
464.461	5984
464.482	6204
464.540	6551
464.550	6478
464.617	6122
464.620	6096
464.685	6755
464.699	6867
464.753	7394
464.779	7711
464.820	8851
464.859	9991
464.888	9405
464.938	8161
464.956	8492
465.018	9821
465.023	9742
465.091	8164
465.098	8020
465.158	8581
465.177	8744
465.226	8266
465.257	7971
465.293	8381
465.336	8743
465.361	8618
465.416	8344
465.428	8957
465.495	12349
465.496	12389
465.563	15518
465.575	16116
465.631	18502
465.654	19480
465.698	13418
465.734	7915
465.765	7956
465.813	8179
465.833	7913
465.893	7238
465.900	7331
465.968	8116
465.972	8150
466.035	7330
466.052	7144
466.102	8065
466.131	8509
466.170	7876
466.210	7197
466.237	7639
466.290	8349
466.304	8186
466.369	7603
466.372	7637
466.439	8127
466.449	8197
466.506	8238
466.528	8211
466.573	11549
466.607	14071
466.641	16240
466.687	19171
466.708	20748
466.766	25246
466.775	23479
466.842	9515
466.845	8843
466.909	8341
466.925	8238
466.977	8615
467.004	8824
467.044	9474
467.083	10075
467.111	10464
467.163	11166
467.178	11582
467.242	13203
467.245	13127
467.312	11104
467.321	10817
467.379	11280
467.400	11417
467.446	11486
467.480	11499
467.559	11719
467.638	9992
467.717	10244
467.796	10860
467.875	10869
467.955	11733
468.034	18515
468.113	25961
468.192	35179
468.271	12865
468.350	13089
468.429	13913
468.508	14268
468.588	11966
468.667	11410
468.746	11153
468.825	11180
468.904	9843
468.983	12380
469.062	13006
469.141	15811
469.220	9779
469.299	10706
469.378	11360
469.456	14753
469.535	11454
469.614	12259
469.693	11054
469.772	14507
469.851	15825
469.930	11514
470.009	10605
470.088	10848
470.166	11539
470.245	13005
470.324	11866
470.403	11347
470.482	10206
470.560	10748
470.639	9410
470.718	11229
470.797	10305
470.875	11110
470.954	11758
471.033	13712
471.111	9564
471.190	9864
471.269	8667
471.347	9643
471.426	9484
471.505	11881
471.583	11627
471.662	12016
471.740	9203
471.819	10883
471.898	10262
471.976	10164
472.055	9239
472.133	12096
472.212	13144
472.290	12506
472.369	9756
472.447	11377
472.526	9330
472.604	11456
472.683	9822
472.761	9769
472.839	8797
472.918	10498
472.996	10030
473.075	11773
473.153	10047
473.231	9844
473.310	9819
473.388	10754
473.466	10799
473.545	10730
473.623	11169
473.701	11111
473.780	9143
473.858	9668
473.936	11623
474.014	10645
474.093	10445
474.171	12919
474.249	15589
474.327	11636
474.405	9272
474.484	10025
474.562	10208
474.640	10368
474.718	9650
474.796	9748
474.874	8282
474.952	8744
475.030	8205
475.108	9327
475.187	8422
475.265	9837
475.343	9640
475.421	10610
475.499	9906
475.577	10783
475.655	13143
475.733	18092
475.811	25938
475.889	22562
475.966	15357
476.044	10213
476.122	9428
476.200	10064
476.278	9113
476.356	9594
476.434	10130
476.512	10212
476.590	10203
476.667	11066
476.745	9082
476.823	10615
476.901	9185
476.979	10170
477.056	9708
477.134	10168
477.212	10838
477.290	10465
477.367	8806
477.445	9488
477.523	8924
477.601	8331
477.678	9168
477.756	11365
477.834	10649
477.911	9717
477.989	10213
478.066	9914
478.144	9029
478.222	9691
478.299	8806
478.377	10016
478.454	10161
478.532	9496
478.609	9498
478.687	10686
478.764	9050
478.842	10237
478.919	9399
478.997	10259
479.074	8811
479.152	10624
479.229	11416
479.307	8811
479.384	8441
479.461	10161
479.539	8619
479.616	10633
479.694	8935
479.771	9505
479.848	10139
479.926	11006
480.003	12353
480.080	10427
480.157	8909
480.235	9434
480.312	9221
480.389	10131
480.467	12365
480.544	14489
480.621	9790
480.698	11585
480.775	10705
480.853	11671
480.930	10154
481.007	10244
481.084	11382
481.161	12525
481.238	9911
481.315	9152
481.392	8865
481.470	10338
481.547	9491
481.624	10147
481.701	9029
481.778	9642
481.855	10410
481.932	14625
482.009	17083
482.086	12196
482.163	10006
482.240	10542
482.317	9696
482.393	10744
482.470	10517
482.547	11007
482.624	8886
482.701	11005
482.778	9164
482.855	8717
482.932	9598
483.009	9646
483.085	10651
483.162	11887
483.239	11010
483.316	10134
483.393	9318
483.469	10813
483.546	9838
483.623	11922
483.699	8984
483.776	10024
483.853	10050
483.930	14637
484.006	24727
484.083	38952
484.160	26998
484.236	39903
484.313	28901
484.389	24240
484.466	23504
484.543	22863
484.619	22070
484.696	25048
484.772	22239
484.849	23053
484.925	20863
485.002	20883
485.078	20720
485.155	20833
485.231	19919
485.308	19948
485.384	19904
485.461	23362
485.537	27945
485.614	31467
485.690	18106
485.766	19630
485.843	19694
485.919	19654
485.995	18952
486.072	18554
486.148	17584
486.224	18280
486.301	18099
486.377	19676
486.453	19295
486.530	20887
486.606	25986
486.682	27974
486.758	29662
486.835	29836
486.911	26763
486.987	34204
487.063	26966
487.139	25793
487.215	23256
487.292	22651
487.368	21813
487.444	24267
487.520	27408
487.596	32090
487.672	54463
487.748	113684
487.824	158839
487.900	83534
487.976	36622
488.052	28228
488.128	26082
488.204	21976
488.280	20567
488.356	23723
488.432	33322
488.508	40842
488.584	18890
488.660	16972
488.736	17663
488.812	17980
488.888	17637
488.964	20055
489.039	20583
489.115	24043
489.191	19890
489.267	18537
489.343	16583
489.418	16900
489.494	15652
489.570	13839
489.646	16265
489.722	15989
489.797	16387
489.873	22102
489.949	32684
490.024	27341
490.100	15035
490.176	15679
490.251	15260
490.327	16686
490.403	13930
490.478	16014
490.554	14102
490.629	15230
490.705	13018
490.781	15018
490.856	13018
490.932	15826
491.007	14113
491.083	13942
491.158	14380
491.234	18354
491.309	26012
491.385	24135
491.460	13489
491.536	15087
491.611	13028
491.686	13080
491.762	14528
491.837	16131
491.913	20518
491.988	24019
492.063	22718
492.139	19018
492.214	15697
492.289	14036
492.365	11047
492.440	14238
492.515	13535
492.590	14280
492.666	11406
492.741	14708
492.816	17485
492.891	12679
492.967	11739
493.042	11221
493.117	12308
493.192	12939
493.267	18292
493.342	36427
493.418	40088
493.493	14195
493.568	11519
493.643	12261
493.718	12890
493.793	14020
493.868	13687
493.943	12226
494.018	11296
494.093	11375
494.168	11644
494.243	10943
494.318	11437
494.393	12077
494.468	10704
494.543	10709
494.618	11224
494.693	10810
494.768	10820
494.842	12076
494.917	10506
494.992	11101
495.067	9180
495.142	10813
495.217	10827
495.292	11143
495.366	10924
495.441	12861
495.516	14485
495.591	15330
495.665	21151
495.740	31606
495.815	18965
495.890	14071
495.964	11307
496.039	15631
496.114	13026
496.188	14034
496.263	13548
496.338	13414
496.412	12840
496.487	16002
496.561	13697
496.636	13371
496.710	13911
496.785	14285
496.860	14585
496.934	12379
497.009	12206
497.083	12762
497.158	13257
497.232	15212
497.307	15645
497.381	15209
497.455	15126
497.530	17888
497.604	12952
497.679	14926
497.753	18506
497.827	19063
497.902	14466
497.976	22786
498.050	59457
498.125	169774
498.199	145236
498.273	19311
498.348	13856
498.422	14014
498.496	14133
498.570	13594
498.645	12524
498.719	13295
498.793	15601
498.867	21850
498.941	29314
499.016	87854
499.090	175831
499.164	56045
499.238	14732
499.312	13376
499.386	13395
499.460	14385
499.534	12557
499.609	16250
499.683	18303
499.757	20698
499.831	46345
499.905	127524
499.979	104603
500.053	21658
500.127	20021
500.201	13186
500.275	12345
500.349	13462
500.422	13176
500.496	16104
500.570	26106
500.644	78159
500.718	122188
500.792	28765
500.866	15045
500.940	16909
501.013	14425
501.087	14111
501.161	14996
501.235	21673
501.309	54903
501.382	118163
501.456	89656
501.530	27867
501.603	39680
501.677	18825
501.751	10852
501.825	15875
501.898	24952
501.972	50083
502.046	28529
502.119	13959
502.193	27793
502.266	52883
502.340	26845
502.413	30419
502.487	46031
502.561	26289
502.634	12417
502.708	11316
502.781	10762
502.855	11058
502.928	9651
503.002	11887
503.075	9462
503.149	12236
503.222	11410
503.295	11695
503.369	12982
503.442	18875
503.516	45186
503.589	88875
503.662	54465
503.736	26623
503.809	47133
503.882	42188
503.956	59197
504.029	61090
504.102	68263
504.175	90562
504.249	49253
504.322	28543
504.395	19124
504.468	15207
504.542	13308
504.615	11951
504.688	11693
504.761	9603
504.834	12432
504.907	10567
504.980	10745
505.053	9875
505.127	7796
505.200	13745
505.273	12543
505.346	9849
505.419	9037
505.492	10305
505.565	8019
505.638	10241
505.711	9390
505.784	9241
505.857	8510
505.930	10998
506.003	7553
506.076	11762
506.149	10324
506.221	11147
506.294	12953
506.367	28093
506.440	63834
506.513	32794
506.586	12111
506.659	9321
506.731	8472
506.804	9506
506.877	8081
506.950	10043
507.022	9289
507.095	9800
507.168	10683
507.241	10704
507.313	7966
507.386	9012
507.459	8840
507.531	8018
507.604	7625
507.677	9372
507.749	7305
507.822	11810
507.894	14714
507.967	20749
508.040	12948
508.112	14187
508.185	11605
508.257	11257
508.330	13961
508.402	12743
508.475	13069
508.547	14401
508.620	12218
508.692	15877
508.765	12331
508.837	11505
508.909	11149
508.982	11741
509.054	12617
509.127	11148
509.199	10502
509.271	9840
509.344	11064
509.416	12333
509.488	11177
509.560	11796
509.633	11187
509.705	12715
509.777	13521
509.849	14265
509.922	13423
509.994	14584
510.066	14877
510.138	14764
510.210	23566
510.283	20966
510.355	17209
510.427	17333
510.499	14319
510.571	15208
510.643	13317
510.715	16311
510.787	12780
510.859	15861
510.931	14229
511.003	13745
511.076	14858
511.148	15464
511.219	14881
511.291	19792
511.363	19728
511.435	16370
511.507	13235
511.579	14603
511.651	14291
511.723	14863
511.795	13297
511.867	14207
511.939	14844
512.010	19933
512.082	16700
512.154	12103
512.226	12023
512.298	16606
512.369	19407
512.441	18528
512.513	15211
512.585	13647
512.656	14356
512.728	14223
512.800	13053
512.871	13560
512.943	12341
513.015	12155
513.086	12246
513.158	13287
513.230	11282
513.301	12720
513.373	13207
513.444	12684
513.516	11724
513.588	12018
513.659	12056
513.731	12651
513.802	10855
513.874	15604
513.945	14355
514.016	12681
514.088	11730
514.159	11204
514.231	13383
514.302	17612
514.374	15319
514.445	14722
514.516	22793
514.588	17182
514.659	15309
514.730	20098
514.802	15324
514.873	10934
514.944	14209
515.016	14000
515.087	12053
515.158	17703
515.229	19913
515.301	11373
515.372	12474
515.443	11208
515.514	12643
515.585	10828
515.656	12207
515.728	12669
515.799	11505
515.870	13468
515.941	12584
516.012	13585
516.083	15872
516.154	15497
516.225	14994
516.296	15991
516.367	14011
516.438	15101
516.509	15052
516.580	21262
516.651	47266
516.722	103362
516.793	47992
516.864	20774
516.935	20702
517.006	22819
517.077	24611
517.148	48754
517.219	155814
517.289	201834
517.360	85118
517.431	34531
517.502	16716
517.573	18072
517.643	17129
517.714	18563
517.785	17824
517.856	19327
517.926	21647
517.997	21559
518.068	21928
518.138	26957
518.209	38194
518.280	125402
518.350	318233
518.421	121010
518.492	31171
518.562	28133
518.633	30948
518.703	39178
518.774	72776
518.845	131291
518.915	118567
518.986	52539
519.056	32833
519.127	28508
519.197	36831
519.268	76885
519.338	48131
519.408	21816
519.479	17167
519.549	16587
519.620	15646
519.690	14056
519.760	13542
519.831	13988
519.901	13301
519.971	15542
520.042	14562
520.112	15438
520.182	14919
520.253	16537
520.323	15558
520.393	22443
520.463	30030
520.534	23333
520.604	41023
520.674	21419
520.744	21077
520.814	44718
520.885	36034
520.955	39277
521.025	88089
521.095	34102
521.165	15379
521.235	14223
521.305	12872
521.375	14158
521.445	13368
521.515	13632
521.585	14515
521.655	12521
521.725	14092
521.795	14111
521.865	11547
521.935	18834
522.005	13940
522.075	12725
522.145	14117
522.215	13989
522.285	16225
522.355	21267
522.424	29060
522.494	23168
522.564	13998
522.634	16248
522.704	22285
522.774	13962
522.843	12851
522.913	12467
522.983	12358
523.053	13220
523.122	12186
523.192	13231
523.262	15507
523.331	14916
523.401	12025
523.471	11690
523.540	12166
523.610	11154
523.680	10618
523.749	12453
523.819	14637
523.888	13736
523.958	12558
524.027	12525
524.097	11646
524.166	12546
524.236	10854
524.305	14676
524.375	11356
524.444	12370
524.514	14647
524.583	13439
524.653	13674
524.722	15831
524.791	11286
524.861	14590
524.930	11559
524.999	11377
525.069	14239
525.138	13789
525.207	13473
525.277	14171
525.346	12950
525.415	15174
525.484	13944
525.554	16350
525.623	16501
525.692	18684
525.761	18598
525.830	21644
525.900	23525
525.969	35298
526.038	58036
526.107	120641
526.176	293959
526.245	230384
526.314	83744
526.383	157220
526.452	214463
526.522	306521
526.591	275474
526.660	59766
526.729	34613
526.797	38542
526.867	61356
526.935	184123
527.004	471462
527.073	296714
527.142	51636
527.211	26792
527.280	20427
527.349	17115
527.418	13406
527.487	15530
527.555	13003
527.624	12558
527.693	11224
527.762	14222
527.831	10110
527.899	13163
527.968	11644
528.037	10671
528.106	12085
528.174	13415
528.243	13933
528.312	15736
528.380	14887
528.449	11772
528.518	12489
528.586	10308
528.655	12138
528.723	12260
528.792	11342
528.861	11689
528.929	11299
528.998	14667
529.066	19707
529.135	32342
529.203	29197
529.272	40145
529.340	48323
529.409	43907
529.477	39371
529.545	40719
529.614	44039
529.682	53553
529.751	55427
529.819	59595
529.887	67085
529.956	61009
530.024	58206
530.092	53609
530.161	52483
530.229	53475
530.297	60207
530.365	60423
530.434	63104
530.502	63969
530.570	55899
530.638	49625
530.707	48075
530.775	47124
530.843	46228
530.911	53712
530.979	53835
531.047	61852
531.115	57843
531.183	53072
531.252	50073
531.320	48870
531.388	47445
531.456	56398
531.524	58042
531.592	61334
531.660	69985
531.728	60197
531.796	58177
531.864	58138
531.932	57544
532.000	58674
532.067	63509
532.135	67555
532.203	70641
532.271	74343
532.339	73668
532.407	74293
532.475	69484
532.542	67688
532.610	65072
532.678	69333
532.746	82406
532.814	96523
532.881	78110
532.949	70543
533.017	65043
533.084	64061
533.152	61744
533.220	60119
533.287	62872
533.355	66199
533.423	67250
533.490	68041
533.558	64730
533.625	61961
533.693	60020
533.761	59842
533.828	58762
533.896	59384
533.963	70670
534.031	71018
534.098	75278
534.166	67715
534.233	64335
534.300	64519
534.368	60766
534.435	58915
534.503	58891
534.570	61463
534.637	61030
534.705	64258
534.772	62716
534.840	79483
534.907	183940
534.974	195271
535.041	61604
535.109	49951
535.176	47224
535.243	49414
535.310	48102
535.378	48528
535.445	45141
535.512	42860
535.579	41897
535.646	40333
535.714	41250
535.781	44029
535.848	45466
535.915	49236
535.982	51373
536.049	50227
536.116	46744
536.183	43979
536.250	41848
536.317	40525
536.384	40233
536.451	39641
536.518	39884
536.585	38531
536.652	41214
536.719	40354
536.786	33946
536.853	34676
536.920	36256
536.987	35068
537.053	32530
537.120	45658
537.187	41909
537.254	33966
537.321	33328
537.388	33656
537.454	29237
537.521	29917
537.588	28719
537.654	30710
537.721	30412
537.788	31953
537.855	28957
537.921	30985
537.988	30210
538.055	29964
538.121	27026
538.188	26670
538.254	26580
538.321	27456
538.388	26183
538.454	27348
538.521	26333
538.587	28168
538.654	27824
538.720	27074
538.787	25795
538.853	25979
538.920	26146
538.986	25565
539.053	22504
539.119	25285
539.185	23192
539.252	26262
539.318	24176
539.385	29193
539.451	26162
539.517	27329
539.583	24720
539.650	28480
539.716	31727
539.782	24604
539.849	21660
539.915	24164
539.981	22476
540.047	24505
540.114	22489
540.180	24107
540.246	22814
540.312	23305
540.378	24737
540.444	25614
540.510	26092
540.576	31693
540.643	24198
540.709	21478
540.775	22340
540.841	23291
540.907	23921
540.973	31211
541.039	24662
541.105	22550
541.171	22023
541.237	22414
541.303	22841
541.369	24635
541.435	22731
541.500	24193
541.566	20312
541.632	20613
541.698	20458
541.764	22084
541.830	21005
541.896	20752
541.961	21482
542.027	21130
542.093	21617
542.159	23074
542.224	22034
542.290	24721
542.356	22346
542.421	22179
542.487	21454
542.553	20777
542.618	20765
542.684	19764
542.750	20546
542.815	21494
542.881	23126
542.947	31556
543.012	26294
543.078	19902
543.143	18790
543.209	20996
543.274	19453
543.340	21266
543.405	22323
543.471	24873
543.536	19808
543.602	21300
543.667	18353
543.732	21948
543.798	19995
543.863	22075
543.928	20096
543.994	19571
544.059	19891
544.124	21170
544.190	20718
544.255	22079
544.320	21279
544.386	20906
544.451	22939
544.516	21362
544.581	21739
544.646	27496
544.712	30248
544.777	25234
544.842	24646
544.907	25878
544.972	23343
545.037	24263
545.102	23899
545.168	24538
545.233	23894
545.298	26660
545.363	25863
545.428	27068
545.493	28899
545.558	30904
545.623	26342
545.688	25444
545.753	26154
545.818	27366
545.883	28035
545.947	27851
546.012	29508
546.077	29289
546.142	29915
546.207	30487
546.272	32079
546.337	31618
546.401	34374
546.466	35485
546.531	33966
546.596	37035
546.661	36598
546.725	39527
546.790	39362
546.855	43168
546.919	44884
546.984	49187
547.049	52775
547.113	61037
547.178	63649
547.243	71752
547.307	79702
547.372	90215
547.436	88153
547.501	93562
547.565	95283
547.630	90259
547.695	88225
547.759	90251
547.823	90328
547.888	89480
547.952	92117
548.017	95435
548.081	98376
548.146	99381
548.210	100936
548.274	107280
548.339	103378
548.403	96059
548.468	88802
548.532	90941
548.596	91631
548.660	93009
548.725	100388
548.789	110594
548.853	107108
548.917	103504
548.982	102309
549.046	93430
549.110	82606
549.174	87586
549.238	98328
549.303	106775
549.367	108309
549.431	105699
549.495	98299
549.559	100548
549.623	113956
549.687	124492
549.751	121510
549.815	142499
549.879	143965
549.943	139625
550.007	145911
550.071	143551
550.135	132044
550.199	126579
550.263	124314
550.327	121466
550.391	124840
550.455	136318
550.519	141591
550.582	148635
550.646	166909
550.710	167061
550.774	164538
550.838	167237
550.901	172453
550.965	181683
551.029	187656
551.093	199155
551.156	211677
551.220	227163
551.284	217484
551.347	194473
551.411	199863
551.475	194856
551.538	183976
551.602	172098
551.666	165186
551.729	156966
551.793	154614
551.856	154096
551.920	150490
551.983	152369
552.047	149634
552.110	150814
552.174	153270
552.237	156252
552.301	147253
552.364	143679
552.428	139404
552.491	145094
552.554	145017
552.618	144417
552.681	148594
552.745	142340
552.808	149907
552.871	156600
552.934	152000
552.998	148729
553.061	145759
553.124	140850
553.187	141073
553.251	144856
553.314	147149
553.377	151141
553.440	164969
553.503	202646
553.567	220050
553.630	165594
553.693	159734
553.756	162957
553.819	160479
553.882	158129
553.945	158209
554.008	157809
554.071	159215
554.134	160729
554.197	152155
554.260	153440
554.323	154291
554.386	155094
554.449	160426
554.512	160206
554.575	152867
554.638	153685
554.701	152556
554.764	152378
554.827	146222
554.889	143827
554.952	136854
555.015	135597
555.078	135971
555.141	136991
555.203	134750
555.266	135207
555.329	132155
555.391	130078
555.454	128973
555.517	123218
555.580	118063
555.642	116683
555.705	114627
555.768	115645
555.830	112143
555.893	106155
555.955	103546
556.018	101573
556.080	101011
556.143	103329
556.206	101400
556.268	100991
556.330	99529
556.393	98409
556.455	94429
556.518	96525
556.580	92168
556.643	87024
556.705	84309
556.767	83028
556.830	83393
556.892	81467
556.955	80092
557.017	78010
557.079	77604
557.142	75442
557.204	74827
557.266	75348
557.328	71300
557.391	66236
557.453	66161
557.515	65663
557.577	65536
557.639	67172
557.701	64321
557.764	63975
557.826	63815
557.888	65116
557.950	64966
558.012	68355
558.074	80799
558.136	150676
558.198	270456
558.260	113944
558.322	66847
558.384	66173
558.446	67520
558.508	68588
558.570	72816
558.632	80640
558.694	98509
558.756	158811
558.818	417472
558.880	714463
558.942	310323
559.003	292621
559.065	144261
559.127	77061
559.189	69978
559.251	75733
559.312	102762
559.374	234924
559.436	550806
559.498	267648
559.559	82346
559.621	70267
559.683	76564
559.744	124057
559.806	328709
559.868	396189
559.929	106374
559.991	75136
560.052	114262
560.114	259727
560.176	163811
560.237	172630
560.299	226391
560.360	66841
560.422	41547
560.483	39102
560.545	37242
560.606	37196
560.667	34462
560.729	34794
560.790	32996
560.852	34114
560.913	31983
560.974	32079
561.036	31493
561.097	32505
561.158	30969
561.220	31617
561.281	30954
561.342	30181
561.403	30542
561.465	28969
561.526	32668
561.587	32090
561.648	26951
561.709	28726
561.771	28254
561.832	29549
561.893	26336
561.954	28497
562.015	26375
562.076	27214
562.137	25747
562.198	26948
562.259	26620
562.320	27065
562.381	26452
562.442	27156
562.503	25885
562.564	25958
562.625	25420
562.686	25686
562.747	25196
562.808	25785
562.869	26274
562.930	28078
562.991	25151
563.051	25492
563.112	25615
563.173	23772
563.234	22499
563.294	24331
563.355	23101
563.416	24440
563.477	23385
563.537	24921
563.598	23889
563.659	24724
563.720	23105
563.780	23898
563.841	21953
563.901	24616
563.962	23493
564.023	23255
564.083	22259
564.144	22579
564.204	23325
564.265	23636
564.325	23703
564.386	31376
564.446	26254
564.507	23121
564.567	21558
564.628	22792
564.688	20746
564.749	22833
564.809	23395
564.869	24798
564.930	20934
564.990	22917
565.050	20711
565.111	22827
565.171	21538
565.231	22257
565.292	21612
565.352	21112
565.412	22112
565.472	21336
565.532	21219
565.593	20511
565.653	19853
565.713	20725
565.773	21097
565.833	22754
565.893	22793
565.953	20824
566.013	19576
566.074	21905
566.134	23042
566.194	27872
566.254	25334
566.314	22706
566.374	21500
566.434	21599
566.494	20640
566.554	21664
566.614	20026
566.673	20872
566.733	20726
566.793	22452
566.853	21172
566.913	21919
566.973	22330
567.033	22366
567.092	19807
567.152	22185
567.212	20935
567.272	22759
567.331	22611
567.391	22720
567.451	22733
567.511	25036
567.570	23780
567.630	22678
567.690	21333
567.749	21335
567.809	19675
567.868	22046
567.928	21820
567.988	21928
568.047	20497
568.107	21984
568.166	21221
568.226	21711
568.285	22169
568.345	23106
568.404	22271
568.464	22505
568.523	19656
568.582	22124
568.642	21525
568.701	22451
568.761	22567
568.820	23253
568.879	23495
568.939	25707
568.998	22624
569.057	22989
569.116	21302
569.176	21037
569.235	20784
569.294	21741
569.353	19930
569.413	20948
569.472	20672
569.531	19994
569.590	19168
569.649	19657
569.708	18553
569.767	21100
569.827	20625
569.886	19979
569.945	18975
570.004	20183
570.063	20126
570.122	20840
570.181	19957
570.240	22210
570.299	21114
570.358	21012
570.417	19178
570.475	19595
570.534	19144
570.593	20815
570.652	19776
570.711	20612
570.770	20260
570.829	20684
570.887	19433
570.946	20789
571.005	19602
571.064	19762
571.122	20151
571.181	21364
571.240	19004
571.299	19542
571.357	20046
571.416	20881
571.475	20079
571.533	22014
571.592	19535
571.650	21007
571.709	20159
571.768	21161
571.826	20623
571.885	20305
571.943	20262
572.002	20456
572.060	19742
572.119	19578
572.177	18968
572.236	19503
572.294	19095
572.352	20099
572.411	20067
572.469	19304
572.528	19389
572.586	20145
572.644	19485
572.703	20867
572.761	19062
572.819	18738
572.877	17715
572.936	17892
572.994	17370
573.052	18298
573.110	17807
573.169	18870
573.227	17656
573.285	18515
573.343	17412
573.401	18642
573.459	17927
573.517	17947
573.576	18598
573.634	18109
573.692	17417
573.750	18803
573.808	17519
573.866	18732
573.924	19476
573.982	18706
574.040	17062
574.098	17845
574.155	15891
574.213	17172
574.271	17349
574.329	17135
574.387	16004
574.445	15718
574.503	16151
574.560	15442
574.618	15451
574.676	16758
574.734	15579
574.792	16603
574.849	15243
574.907	15264
574.965	13675
575.022	14045
575.080	14019
575.138	16263
575.195	14798
575.253	14799
575.311	14205
575.368	15145
575.426	13342
575.483	16062
575.541	14945
575.598	15916
575.656	14749
575.713	15595
575.771	14019
575.828	14730
575.886	14522
575.943	15607
576.001	13796
576.058	14434
576.115	14708
576.173	16265
576.230	15665
576.287	15928
576.345	14738
576.402	15594
576.459	15850
576.517	15202
576.574	16107
576.631	15515
576.688	14378
576.746	15285
576.803	14515
576.860	15186
576.917	13910
576.974	14980
577.031	14444
577.089	14529
577.146	14038
577.203	14458
577.260	14197
577.317	15680
577.374	14584
577.431	15585
577.488	14334
577.545	15148
577.602	14392
577.659	15207
577.716	14949
577.773	17036
577.830	15388
577.886	15727
577.943	15647
578.000	17438
578.057	18535
578.114	20548
578.171	24518
578.227	34673
578.284	33767
578.341	29815
578.398	25269
578.454	22194
578.511	20465
578.568	19526
578.625	17315
578.681	16742
578.738	16595
578.794	16488
578.851	15496
578.908	15783
578.964	15138
579.021	15716
579.077	15018
579.134	15288
579.190	15122
579.247	15828
579.303	13943
579.360	15491
579.416	14535
579.473	15586
579.529	15834
579.586	17555
579.642	16901
579.698	18381
579.755	17383
579.811	18905
579.867	19780
579.924	21163
579.980	22024
580.036	27281
580.093	35197
580.149	50768
580.205	55565
580.261	48932
580.317	38972
580.374	34116
580.430	30283
580.486	27092
580.542	23820
580.598	23481
580.619	22445
580.654	20670
580.692	21395
580.710	21787
580.765	20823
580.767	20812
580.823	20787
580.838	20833
580.879	21012
580.911	21295
580.935	21535
580.984	21137
580.991	21113
581.047	22922
581.057	22938
581.103	23031
581.130	24173
581.159	25421
581.203	26958
581.215	27384
581.270	28086
581.276	27772
581.326	24883
581.349	24730
581.382	24600
581.422	23972
581.438	23712
581.494	23685
581.494	23657
581.550	22038
581.567	22269
581.606	22878
581.640	22661
581.661	22524
581.713	23389
581.717	23475
581.773	22535
581.786	22757
581.829	23477
581.859	23321
581.885	23203
581.932	23315
581.940	23351
581.996	22335
582.004	22515
582.052	23463
582.077	22852
582.107	22265
582.150	23497
582.163	23857
582.219	23585
582.223	23656
582.274	24543
582.296	24240
582.330	23802
582.368	25210
582.386	25888
582.441	25409
582.441	25413
582.497	26556
582.514	26578
582.552	26756
582.587	27430
582.608	27772
582.659	26984
582.663	26947
582.719	28840
582.732	28710
582.774	28113
582.805	28948
582.830	29785
582.877	31145
582.885	31403
582.941	34966
582.950	35750
582.996	39971
583.023	43004
583.052	46372
583.095	47790
583.107	48117
583.162	51028
583.168	51033
583.218	50412
583.240	48757
583.273	46017
583.313	41982
583.328	40390
583.384	38248
583.385	38077
583.439	33427
583.458	32994
583.494	32362
583.531	31214
583.549	30652
583.603	30815
583.605	30815
583.660	28035
583.676	28121
583.715	28622
583.748	28904
583.770	29082
583.820	29555
583.825	29604
583.881	29064
583.893	28800
583.936	27806
583.965	27957
583.991	28210
584.038	28674
584.046	28721
584.101	27806
584.110	28021
584.156	29246
584.183	28909
584.211	28382
584.255	28571
584.266	28736
584.321	30057
584.328	30109
584.376	30318
584.400	29952
584.431	29375
584.472	30506
584.486	31006
584.541	31581
584.545	31661
584.596	32629
584.617	32251
584.651	31867
584.689	32696
584.706	33049
584.761	33457
584.762	33463
584.816	34622
584.834	34431
584.871	33913
584.906	34672
584.926	35080
584.978	34552
584.980	34558
585.035	36431
585.051	36399
585.090	36094
585.123	36682
585.145	37338
585.195	37181
585.200	37238
585.254	38968
585.267	39816
585.309	43231
585.340	45033
585.364	46634
585.412	49857
585.419	50576
585.473	58111
585.484	60023
585.528	72309
585.556	84339
585.583	110249
585.628	166124
585.637	188777
585.692	359331
585.700	383721
585.747	460637
585.772	438213
585.801	311621
585.845	147354
585.856	128695
585.910	75112
585.917	69295
585.965	57610
585.989	52452
586.019	49577
586.061	46748
586.074	46214
586.128	43774
586.133	43494
586.183	41385
586.205	40948
586.237	40273
586.277	38237
586.292	37654
586.346	36901
586.349	36827
586.401	35854
586.421	35433
586.455	35273
586.493	35354
586.509	36224
586.564	39465
586.565	39565
586.618	46638
586.637	47135
586.672	43572
586.709	39636
586.727	38762
586.781	39347
586.781	39385
586.835	36658
586.853	35732
586.889	33456
586.925	31460
586.944	31172
586.996	31288
586.998	31317
587.052	30064
587.068	30104
587.106	30703
587.140	30542
587.161	30543
587.212	30384
587.215	30394
587.269	30272
587.284	30507
587.323	31718
587.356	31798
587.377	31800
587.427	32157
587.431	32198
587.485	31731
587.499	31914
587.539	33350
587.571	33810
587.593	34129
587.643	35653
587.648	35752
587.702	34846
587.715	34955
587.755	36044
587.786	36041
587.810	36153
587.858	37106
587.864	37238
587.917	37258
587.930	37422
587.971	39074
588.001	39943
588.025	40006
588.073	39958
588.079	40116
588.133	40729
588.145	40991
588.187	42533
588.217	43452
588.241	44633
588.288	46793
588.295	47224
588.348	50478
588.360	51119
588.402	54070
588.431	55957
588.456	57944
588.503	61993
588.510	62943
588.564	70449
588.575	71957
588.617	79737
588.646	85590
588.671	92628
588.718	108074
588.725	112440
588.778	150794
588.789	160360
588.832	245176
588.861	311172
588.886	417834
588.932	631917
588.939	648341
588.993	715417
589.004	716474
589.047	471636
589.075	310468
589.100	240753
589.147	133592
589.154	129541
589.207	104129
589.218	99435
589.261	98161
589.290	98307
589.314	102744
589.361	113383
589.368	118339
589.421	163443
589.433	174874
589.475	288800
589.504	377578
589.528	475042
589.576	647223
589.582	628513
589.635	388081
589.647	337610
589.689	194796
589.718	104870
589.742	91484
589.790	68399
589.795	67643
589.849	61005
589.861	59616
589.902	58590
589.932	56941
589.955	53522
590.004	46724
590.009	46540
590.062	43864
590.075	43208
590.115	43035
590.146	42389
590.168	42209
590.218	42305
590.222	42396
590.275	42321
590.289	42197
590.328	42460
590.360	42508
590.381	42432
590.431	42035
590.435	42156
590.488	42708
590.503	42864
590.541	42930
590.574	42609
590.594	42905
590.645	43511
590.647	43619
590.700	43812
590.716	43937
590.753	45234
590.787	45894
590.806	45777
590.859	45630
590.859	45743
590.912	46184
590.930	46440
590.965	46403
591.001	45833
591.018	45861
591.071	46050
591.072	45949
591.124	46307
591.143	46370
591.177	47000
591.214	47343
591.230	47572
591.283	48237
591.285	48140
591.336	47352
591.356	47039
591.389	47329
591.427	47268
591.442	47157
591.495	46470
591.498	46305
591.547	47244
591.569	47530
591.600	47535
591.640	47388
591.653	47937
591.706	49764
591.711	49835
591.759	51005
591.782	51433
591.811	52240
591.853	53080
591.864	53095
591.917	52493
591.924	52270
591.969	52476
591.995	52445
592.022	53100
592.066	53798
592.075	54360
592.127	57076
592.137	57424
592.180	59364
592.208	60388
592.233	59155
592.279	56340
592.285	56635
592.338	58018
592.350	58176
592.390	57812
592.421	57314
592.443	58012
592.491	59034
592.495	59224
592.548	59719
592.562	59692
592.600	60183
592.633	60342
592.653	60087
592.704	58692
592.705	59064
592.775	60811
592.846	63288
592.916	63009
592.987	63225
593.058	63462
593.128	63600
593.199	64016
593.270	63702
593.341	64376
593.411	66328
593.482	68953
593.553	69640
593.623	70393
593.694	73107
593.764	74648
593.835	73386
593.906	74032
593.976	75922
594.047	76713
594.117	81410
594.188	83722
594.258	80396
594.329	81249
594.399	82894
594.470	85641
594.540	87225
594.611	88310
594.681	87202
594.751	89839
594.822	92747
594.892	95538
594.963	97035
595.033	99773
595.103	102469
595.174	104385
595.244	109679
595.314	117328
595.384	111634
595.455	113267
595.525	116445
595.595	119857
595.665	119039
595.736	118006
595.806	119324
595.876	122339
595.946	122993
596.016	126219
596.087	131537
596.157	132400
596.227	132598
596.297	138986
596.367	145774
596.437	155120
596.507	157481
596.577	162626
596.647	158888
596.717	165354
596.787	167345
596.857	165617
596.927	168646
596.997	169204
597.067	172026
597.137	175587
597.207	174441
597.277	177743
597.347	171068
597.417	167918
597.487	168264
597.557	172867
597.626	176233
597.696	179755
597.766	181924
597.836	178383
597.906	167059
597.975	163524
598.045	166250
598.115	172928
598.185	181771
598.254	200465
598.324	212790
598.394	216835
598.464	213381
598.533	210783
598.603	201954
598.672	196491
598.742	200664
598.812	204331
598.881	209076
598.951	208307
599.020	214052
599.090	220489
599.159	224146
599.229	217121
599.299	215330
599.368	219446
599.437	220603
599.507	208702
599.576	208232
599.646	206921
599.715	206504
599.785	206153
599.854	203383
599.924	207454
599.993	208207
600.062	212079
600.132	217606
600.201	226600
600.270	250172
600.340	261857
600.409	259354
600.478	260287
600.547	263486
600.617	252129
600.686	223724
600.755	215837
600.824	213410
600.894	214300
600.963	216463
601.032	218774
601.101	218489
601.170	216514
601.239	216867
601.308	220501
601.378	222411
601.447	228664
601.516	231171
601.585	236762
601.654	241957
601.723	246793
601.792	251874
601.861	261349
601.930	273865
601.999	280239
602.068	278628
602.137	279413
602.206	281992
602.275	285121
602.343	287804
602.412	291028
602.481	291989
602.550	294244
602.619	299738
602.688	299293
602.756	304976
602.825	302782
602.894	311192
602.963	307971
603.032	311357
603.100	311609
603.169	306448
603.238	317210
603.307	307909
603.375	308160
603.444	321117
603.513	302575
603.581	309862
603.650	323878
603.719	282082
603.787	275525
603.856	279432
603.924	282992
603.993	289949
604.061	299290
604.130	308425
604.198	315056
604.267	318423
604.335	326346
604.404	326460
604.472	336131
604.541	338558
604.609	347977
604.678	354364
604.746	355315
604.815	369957
604.883	357542
604.951	350150
605.020	359624
605.088	340493
605.156	328815
605.225	330950
605.293	328933
605.361	334909
605.429	330350
605.498	340315
605.566	336726
605.634	352266
605.702	353423
605.771	357424
605.839	366407
605.907	345315
605.975	349790
606.043	337451
606.111	328753
606.180	350284
606.248	324039
606.316	318623
606.384	335918
606.452	287334
606.520	261171
606.588	263558
606.656	265377
606.724	260525
606.792	245382
606.860	226973
606.928	207720
606.996	201749
607.064	200799
607.132	205485
607.200	214096
607.267	222873
607.335	225481
607.403	229023
607.471	223700
607.539	215905
607.607	216346
607.674	194555
607.742	192144
607.810	192589
607.878	192914
607.946	197476
608.013	202604
608.081	208293
608.149	208141
608.216	215021
608.284	220546
608.352	218159
608.419	215365
608.487	215874
608.555	207896
608.622	214412
608.690	222599
608.757	241863
608.825	243978
608.893	240366
608.960	229223
609.028	218527
609.095	221465
609.163	217626
609.230	197493
609.298	183982
609.365	193371
609.432	209273
609.500	223787
609.567	251136
609.635	283835
609.702	296516
609.769	281695
609.837	227843
609.904	206032
609.971	213447
610.039	236967
610.106	298288
610.173	491719
610.241	952266
610.308	694874
610.375	327424
610.442	234904
610.509	212178
610.577	208009
610.644	210398
610.711	214450
610.778	219742
610.845	228453
610.912	238643
610.980	248517
611.047	252816
611.114	243580
611.181	236918
611.248	236655
611.315	248415
611.382	252834
611.449	260831
611.516	265030
611.583	262257
611.650	265564
611.717	269574
611.784	276720
611.851	290488
611.918	311254
611.984	356637
612.051	465149
612.118	752607
612.185	1399822
612.252	1081938
612.319	462973
612.386	362174
612.452	326763
612.519	306064
612.586	301263
612.653	301196
612.719	308521
612.786	296490
612.853	275604
612.919	269679
612.986	273163
613.053	259788
613.120	242847
613.186	235781
613.253	238207
613.319	238309
613.386	238944
613.453	244070
613.519	244641
613.586	239554
613.652	242869
613.719	239938
613.785	243356
613.852	248537
613.918	244937
613.985	250072
614.051	260877
614.118	267320
614.184	258073
614.250	246234
614.317	249100
614.383	247157
614.449	252195
614.516	247637
614.582	247794
614.648	246185
614.715	245087
614.781	238251
614.847	240225
614.914	239158
614.980	231060
615.046	233209
615.112	239083
615.179	240472
615.245	243382
615.311	241237
615.377	245651
615.443	247811
615.509	249574
615.575	258132
615.642	257763
615.708	266682
615.774	281552
615.840	299775
615.906	324415
615.972	383422
616.038	515933
616.104	872781
616.170	1535414
616.236	1410862
616.302	642284
616.368	465932
616.434	360577
616.500	324413
616.565	341453
616.631	406475
616.697	369571
616.763	363051
616.829	482179
616.895	759756
616.961	771251
617.026	428914
617.092	300162
617.158	271315
617.224	260064
617.289	241381
617.355	228221
617.421	225811
617.487	225632
617.552	216299
617.618	212916
617.684	212850
617.749	217145
617.815	205715
617.880	204519
617.946	201246
618.012	205697
618.077	211687
618.143	201234
618.208	203503
618.274	215814
618.339	217450
618.405	186516
618.470	183960
618.536	184202
618.601	183985
618.667	171966
618.732	166072
618.798	164362
618.863	162360
618.928	162379
618.994	166651
619.059	163345
619.124	165707
619.190	164880
619.255	161358
619.320	164249
619.386	165054
619.451	162980
619.516	158415
619.581	159586
619.647	163405
619.712	163823
619.777	156733
619.842	160313
619.907	161165
619.972	163392
620.038	160684
620.103	158334
620.168	157163
620.233	161689
620.298	162025
620.363	162585
620.428	169640
620.493	171219
620.558	171917
620.623	176675
620.688	174872
620.753	172518
620.818	176695
620.883	175564
620.948	176909
621.013	174022
621.078	174212
621.143	173994
621.207	175138
621.272	173318
621.337	169925
621.402	170165
621.467	170752
621.532	171859
621.596	171246
621.661	167447
621.726	164482
621.791	166452
621.855	165928
621.920	166118
621.985	169487
622.049	172283
622.114	172582
622.179	174325
622.243	179435
622.308	182192
622.373	187660
622.437	183543
622.502	175743
622.566	174761
622.631	172373
622.695	175994
622.760	176328
622.824	174657
622.889	175839
622.953	175454
623.018	184910
623.082	187035
623.147	182126
623.211	179842
623.276	178354
623.340	171522
623.404	167534
623.469	168855
623.533	170469
623.597	166734
623.662	165711
623.726	156224
623.790	149474
623.854	145888
623.919	149750
623.983	150193
624.047	151559
624.111	152269
624.176	154484
624.240	154922
624.304	160444
624.368	152790
624.432	152626
624.496	156136
624.560	161633
624.625	162074
624.689	160792
624.753	168364
624.817	160465
624.881	155203
624.945	145406
625.009	140848
625.073	142777
625.137	145777
625.201	150315
625.265	151827
625.329	146281
625.393	148257
625.456	148318
625.520	151951
625.584	151646
625.648	160055
625.712	169742
625.776	190082
625.839	189199
625.903	140370
625.967	125928
626.031	140210
626.095	163419
626.158	139575
626.222	114938
626.286	106957
626.349	105511
626.413	98781
626.477	96537
626.540	98801
626.604	96150
626.668	96294
626.731	93939
626.795	95794
626.858	95112
626.922	93576
626.986	90510
627.049	89963
627.113	94722
627.176	93562
627.240	90869
627.303	89292
627.366	86833
627.430	88133
627.493	88360
627.557	86119
627.620	89679
627.684	89454
627.747	88623
627.810	82345
627.874	77951
627.937	74282
628.000	78062
628.064	75307
628.127	66799
628.190	65650
628.253	66179
628.317	62793
628.380	59381
628.443	60887
628.506	59417
628.569	56438
628.632	54405
628.696	54890
628.759	53816
628.822	51746
628.885	51647
628.948	50570
629.011	49473
629.074	48208
629.137	46083
629.200	46702
629.263	48336
629.326	45015
629.389	46158
629.452	45036
629.515	45328
629.578	43760
629.641	45163
629.704	45476
629.767	44560
629.830	43606
629.892	42003
629.955	41725
630.018	44219
630.081	42875
630.144	43135
630.207	40165
630.269	42794
630.332	41554
630.395	40834
630.458	39489
630.520	37040
630.583	39181
630.646	39241
630.708	38636
630.771	39573
630.834	41464
630.896	40150
630.959	40290
631.021	39696
631.084	39250
631.146	40525
631.209	41617
631.272	40418
631.334	40987
631.397	41322
631.459	40410
631.522	42095
631.584	43300
631.646	45648
631.709	46805
631.771	45884
631.834	44981
631.896	43013
631.958	40851
632.021	41403
632.083	38024
632.145	38949
632.208	37985
632.270	38239
632.332	36751
632.395	36779
632.457	39160
632.519	36834
632.581	37643
632.643	36147
632.706	36988
632.768	35240
632.830	36592
632.892	37795
632.954	37764
633.016	38749
633.078	37054
633.141	37111
633.203	36493
633.265	37391
633.327	37237
633.389	36133
633.451	37645
633.513	37959
633.575	38154
633.637	37738
633.698	37632
633.760	39721
633.822	42717
633.884	41488
633.946	42334
634.008	43966
634.070	46040
634.132	47438
634.193	49199
634.255	51926
634.317	52754
634.379	51802
634.441	47899
634.502	44164
634.564	41786
634.626	38662
634.687	38540
634.749	37501
634.811	37916
634.873	36841
634.934	36917
634.996	37886
635.057	35673
635.119	36540
635.181	38531
635.242	39339
635.304	35369
635.365	39422
635.427	37028
635.488	37959
635.550	36025
635.611	37699
635.673	36538
635.734	42416
635.796	41589
635.857	45159
635.918	46638
635.980	50868
636.041	51524
636.102	55240
636.164	54862
636.225	54006
636.286	46180
636.348	44125
636.409	40406
636.470	38872
636.531	38467
636.593	37695
636.654	37235
636.715	34514
636.776	33195
636.838	32207
636.899	34389
636.960	32762
637.021	31599
637.082	32570
637.143	31182
637.204	30826
637.265	30892
637.326	31794
637.387	31401
637.448	30799
637.509	32068
637.570	30831
637.631	32000
637.692	29726
637.753	29498
637.814	30901
637.875	29648
637.936	31208
637.997	29029
638.058	30068
638.119	29868
638.179	29413
638.240	29041
638.301	28796
638.362	28384
638.423	27518
638.483	29182
638.544	26666
638.605	27914
638.666	26931
638.726	28099
638.787	28892
638.848	28006
638.908	28019
638.969	26789
639.030	27165
639.090	25989
639.151	26494
639.211	27918
639.272	28305
639.332	28782
639.393	28421
639.453	28970
639.514	28873
639.574	27755
639.635	25811
639.695	26881
639.756	25120
639.816	25672
639.877	24827
639.937	26964
639.997	28158
640.058	24499
640.118	25599
640.178	26481
640.239	25009
640.299	25377
640.359	26446
640.420	26900
640.480	29942
640.540	31443
640.600	32145
640.661	31054
640.721	29050
640.781	31389
640.841	27688
640.901	26988
640.961	25712
641.021	26506
641.082	27778
641.142	26471
641.202	26709
641.262	24064
641.322	25953
641.382	23490
641.442	25702
641.502	25193
641.562	25343
641.622	24898
641.682	25636
641.742	28919
641.802	28176
641.861	26121
641.921	24344
641.981	25204
642.041	24760
642.101	23820
642.161	22893
642.221	23520
642.280	23344
642.340	23234
642.400	22535
642.460	25073
642.519	24296
642.579	24122
642.639	24845
642.698	22151
642.758	26423
642.818	25160
642.877	23850
642.937	24896
642.997	24998
643.056	24974
643.116	22919
643.175	26697
643.235	25880
643.294	26300
643.354	29962
643.414	32164
643.473	36652
643.532	44246
643.592	57815
643.651	81009
643.711	125510
643.770	217387
643.830	458209
643.889	820261
643.948	302351
644.008	79551
644.067	48878
644.126	38205
644.186	31514
644.245	30229
644.304	24965
644.363	28634
644.423	24960
644.482	26505
644.541	28811
644.600	27919
644.659	35872
644.719	42658
644.778	58615
644.837	89312
644.896	167042
644.955	358815
645.014	145081
645.073	42610
645.132	31835
645.191	29327
645.250	28515
645.309	30230
645.368	31620
645.427	39140
645.486	60368
645.545	101371
645.604	39169
645.663	26922
645.722	27252
645.781	29390
645.840	33434
645.898	40279
645.957	53846
646.016	74587
646.075	118821
646.134	204748
646.192	476483
646.251	664912
646.310	168600
646.369	56764
646.427	44177
646.486	34184
646.545	27328
646.603	24709
646.662	24322
646.721	23673
646.779	23509
646.838	26001
646.896	31116
646.955	39128
647.014	56672
647.072	100079
647.131	248465
647.189	139931
647.248	30639
647.306	23625
647.365	20741
647.423	18384
647.481	20699
647.540	17967
647.598	18213
647.657	17793
647.715	18592
647.773	16596
647.832	17047
647.890	16046
647.948	16329
648.007	17067
648.065	15507
648.123	15183
648.181	17228
648.240	17433
648.298	16480
648.356	15255
648.414	15772
648.472	15425
648.531	15381
648.589	14710
648.647	14863
648.705	15605
648.763	16233
648.821	16366
648.879	16866
648.937	20488
648.995	23264
649.053	28987
649.111	40851
649.169	61822
649.227	97466
649.285	187350
649.343	467882
649.401	268262
649.459	51238
649.516	28922
649.574	25668
649.632	29341
649.690	33478
649.748	34321
649.806	45545
649.863	78378
649.921	181329
649.979	134450
650.037	25806
650.094	15797
650.152	15846
650.210	13035
650.268	14567
650.325	12443
650.383	13692
650.440	11924
650.498	12636
650.556	12523
650.613	11219
650.671	12274
650.728	12929
650.786	13230
650.843	16983
650.901	12593
650.958	12039
651.016	11301
651.073	10893
651.131	9786
651.188	10299
651.246	10341
651.303	9771
651.360	10468
651.418	10361
651.475	10629
651.532	9573
651.590	9971
651.647	9462
651.704	9951
651.762	10048
651.819	9827
651.876	9386
651.933	9984
651.990	9797
652.048	8425
652.105	8974
652.162	9986
652.219	8290
652.276	9536
652.333	9593
652.390	8003
652.448	8601
652.505	9066
652.562	8938
652.619	9569
652.676	11203
652.733	12206
652.790	9136
652.847	8386
652.904	8088
652.961	7924
653.017	8142
653.074	8325
653.131	8870
653.188	7398
653.245	8775
653.302	8363
653.359	8017
653.415	8917
653.472	7432
653.529	8708
653.586	7718
653.642	7801
653.699	8654
653.756	6811
653.813	8284
653.869	8346
653.926	7750
653.983	8292
654.039	8650
654.096	7919
654.152	8551
654.209	7828
654.266	8199
654.322	7059
654.379	8869
654.435	8472
654.492	7639
654.548	9365
654.605	9938
654.661	8934
654.717	7490
654.774	8117
654.830	8513
654.887	8961
654.943	8399
655.000	7907
655.056	8266
655.112	8370
655.168	7266
655.225	7622
655.281	8741
655.337	9663
655.394	11196
655.450	9658
655.506	9847
655.562	10094
655.618	11908
655.675	7853
655.731	7889
655.787	6378
655.843	8365
655.899	6809
655.955	8364
656.011	8219
656.067	7389
656.123	8383
656.179	8021
656.235	8771
656.291	6248
656.347	8445
656.403	7552
656.459	7992
656.515	7094
656.571	7819
656.627	8305
656.683	7445
656.739	8981
656.795	8042
656.850	7567
656.906	8946
656.962	8654
657.018	7706
657.074	9633
657.129	11972
657.185	16839
657.241	33106
657.297	22999
657.352	8763
657.408	6861
657.464	7946
657.519	7116
657.575	5634
657.630	6608
657.686	7454
657.742	6644
657.797	7911
657.853	6562
657.908	8325
657.964	6605
658.019	6585
658.075	7669
658.130	8001
658.186	6021
658.241	6801
658.297	6066
658.352	6532
658.407	7292
658.463	6047
658.518	6904
658.573	7950
658.629	5672
658.684	6351
658.739	6894
658.795	6663
658.850	6583
658.905	7066
658.960	7055
659.016	5827
659.071	5905
659.126	7043
659.181	6383
659.236	8393
659.291	7775
659.346	7422
659.401	7725
659.457	8550
659.512	8536
659.567	8047
659.622	7506
659.677	6673
659.732	5391
659.787	6816
659.842	7154
659.897	8013
659.952	7383
660.007	6699
660.061	6683
660.116	5936
660.171	6407
660.226	6220
660.281	7964
660.336	5714
660.391	6549
660.445	5652
660.500	6013
660.555	6391
660.610	6423
660.664	6715
660.719	6555
660.774	6398
660.828	6325
660.883	6407
660.938	6955
660.992	5466
661.047	6628
661.101	5988
661.156	5058
661.211	5265
661.265	6487
661.320	5723
661.374	6397
661.429	5563
661.483	6737
661.538	5601
661.592	6726
661.647	6098
661.701	6954
661.755	6312
661.810	6918
661.864	5916
661.919	6305
661.973	7013
662.027	6543
662.081	5298
662.136	6366
662.190	6203
662.244	6760
662.299	6507
662.353	6893
662.407	5839
662.461	6412
662.515	6505
662.569	5275
662.624	6012
662.678	6309
662.732	6044
662.786	5826
662.840	5619
662.894	6662
662.948	5804
663.002	6291
663.056	5462
663.110	6162
663.164	5875
663.218	5954
663.272	6175
663.326	6358
663.380	6550
663.434	6567
663.488	4975
663.542	6421
663.595	6547
663.649	6332
663.703	6014
663.757	5585
663.811	5188
663.864	6125
663.918	5659
663.972	5967
664.026	5936
664.079	6013
664.133	5562
664.187	5857
664.240	5652
664.294	6279
664.348	6430
664.401	6151
664.455	6035
664.508	5252
664.562	5456
664.615	6123
664.669	5815
664.722	6732
664.776	6040
664.829	5754
664.883	6115
664.936	6375
664.990	6478
665.043	6752
665.097	5840
665.150	7388
665.203	6281
665.257	5889
665.310	7353
665.363	6410
665.417	6579
665.470	6892
665.523	6495
665.576	7222
665.630	6484
665.683	6813
665.736	7033
665.789	6461
665.842	7089
665.895	6441
665.949	6175
666.002	5790
666.055	6751
666.108	7624
666.161	7218
666.214	7082
666.267	6411
666.320	7459
666.373	7449
666.426	7130
666.479	6417
666.532	7536
666.585	6882
666.638	7424
666.691	7311
666.744	7620
666.796	7620
666.849	7295
666.902	7413
666.955	6262
667.008	6166
667.060	6147
667.113	5768
667.166	6870
667.219	6630
667.271	7018
667.324	7224
667.377	7948
667.430	6725
667.482	7200
667.535	6903
667.587	6272
667.640	5896
667.693	7210
667.745	7064
667.798	7348
667.850	7781
667.903	6777
667.955	7102
668.008	7499
668.060	6985
668.113	6965
668.165	7789
668.218	6625
668.270	7060
668.322	6873
668.375	6875
668.427	6839
668.479	6826
668.532	7727
668.584	6385
668.636	7077
668.689	7275
668.741	6734
668.793	7628
668.845	7086
668.898	6732
668.950	6433
669.002	7415
669.054	7080
669.106	6658
669.158	7351
669.211	7960
669.263	7582
669.315	7710
669.367	8031
669.419	7353
669.471	8473
669.523	8520
669.575	8548
669.627	8007
669.679	8043
669.731	7654
669.783	8096
669.835	7962
669.886	8552
669.938	8385
669.990	9292
670.042	8898
670.094	9890
670.146	10903
670.197	10945
670.249	15017
670.301	17305
670.353	23094
670.404	31503
670.456	41041
670.508	58318
670.560	82375
670.611	117842
670.663	188475
670.715	362402
670.766	523330
670.818	284114
670.869	83400
670.921	38376
670.972	26319
671.024	19409
671.075	15503
671.127	14003
671.178	12218
671.230	11984
671.281	12019
671.333	11788
671.384	12857
671.436	15391
671.487	19029
671.538	23337
671.590	31814
671.641	45195
671.692	72604
671.744	122760
671.795	108611
671.846	54682
671.897	27932
671.949	19326
672.000	14216
672.051	11671
672.102	10651
672.153	8856
672.204	8415
672.256	8185
672.307	8817
672.358	7852
672.409	6566
672.460	6949
672.511	6417
672.562	6297
672.613	6223
672.664	6635
672.715	6361
672.766	6757
672.817	5955
672.868	6697
672.919	6356
672.970	6341
673.021	6714
673.071	5808
673.122	5172
673.173	5122
673.224	6467
673.275	5853
673.326	6096
673.376	4761
673.427	5485
673.478	5550
673.528	5675
673.579	5437
673.630	5825
673.680	6090
673.731	4952
673.782	5031
673.832	6028
673.883	4911
673.934	5000
673.984	4875
674.035	5419
674.085	5293
674.136	6201
674.186	6815
674.237	6053
674.287	6895
674.338	6179
674.388	5782
674.438	5852
674.489	6005
674.539	5818
674.589	6103
674.640	6066
674.690	5741
674.740	5491
674.791	6248
674.841	5663
674.891	5737
674.942	5224
674.992	5432
675.042	4881
675.092	5564
675.142	4928
675.193	5542
675.243	4674
675.293	5663
675.343	4922
675.393	5401
675.443	5674
675.493	5034
675.543	5005
675.593	5251
675.643	4856
675.693	4684
675.743	5185
675.793	5282
675.843	4476
675.893	4525
675.943	5448
675.993	4531
676.043	4492
676.093	4968
676.142	4184
676.192	4689
676.242	4666
676.292	4692
676.341	4144
676.391	4492
676.441	4934
676.491	3792
676.540	3619
676.590	4543
676.640	3712
676.689	4086
676.739	4036
676.789	4818
676.838	4052
676.888	4501
676.937	4224
676.987	3263
677.037	4678
677.086	3788
677.136	4689
677.185	3669
677.235	3867
677.284	3916
677.333	3946
677.383	3735
677.432	3723
677.482	3363
677.531	4204
677.580	3303
677.630	3751
677.679	3678
677.728	4002
677.778	3702
677.827	3459
677.876	3167
677.925	3952
677.975	3520
678.024	4570
678.073	4426
678.122	4467
678.171	5033
678.220	4202
678.269	4668
678.319	5543
678.368	5118
678.417	4433
678.466	5305
678.515	4217
678.564	4170
678.613	4103
678.662	4061
678.711	4506
678.760	4279
678.809	4429
678.857	3634
678.906	4081
678.955	4244
679.004	4118
679.053	4288
679.102	3953
679.151	4405
679.199	3803
679.248	3474
679.297	3428
679.346	3828
679.394	3842
679.443	4187
679.492	4037
679.540	4275
679.589	4031
679.638	4460
679.686	4232
679.735	3699
679.784	5008
679.832	5215
679.881	4078
679.929	4535
679.978	3358
680.026	3866
680.075	3584
680.123	3180
680.172	3157
680.220	3794
680.268	3513
680.317	2974
680.365	2991
680.414	2992
680.462	3334
680.510	4008
680.559	3257
680.607	3158
680.655	3420
680.703	3200
680.752	3981
680.800	3543
680.848	3724
680.896	3214
680.945	2531
680.993	3440
681.041	3147
681.089	3423
681.137	3457
681.185	2551
681.233	3127
681.258	3295
681.281	3448
681.329	2966
681.377	3124
681.380	3129
681.425	3065
681.473	3865
681.502	3889
681.521	3886
681.569	5026
681.617	3192
681.624	3258
681.665	3640
681.713	3576
681.745	3741
681.761	3803
681.809	2939
681.857	3904
681.867	3730
681.904	3101
681.952	3963
681.989	3487
682.000	3336
682.048	2783
682.096	3603
682.111	3799
682.143	4198
682.191	3097
682.233	4052
682.239	4181
682.286	3965
682.334	3869
682.354	3700
682.382	3489
682.430	4143
682.476	3650
682.477	3631
682.525	3826
682.572	3248
682.598	3369
682.620	3452
682.667	3089
682.715	3837
682.720	3862
682.763	4003
682.810	3444
682.841	3673
682.857	3789
682.905	3324
682.952	3593
682.963	3654
683.000	3860
683.047	3973
683.085	4488
683.095	4613
683.142	3998
683.190	3662
683.206	3561
683.237	3332
683.284	4033
683.328	3590
683.332	3551
683.379	3958
683.426	3408
683.449	3523
683.473	3606
683.521	3431
683.568	4118
683.571	4057
683.615	3122
683.662	3855
683.693	3692
683.709	3609
683.757	3896
683.804	3321
683.814	3248
683.851	2996
683.898	4109
683.936	4006
683.945	3954
683.992	3046
684.039	3776
684.057	3678
684.086	3589
684.133	3646
684.179	3282
684.180	3260
684.227	3973
684.274	3844
684.300	3509
684.321	3256
684.368	3099
684.415	4739
684.422	4649
684.462	4064
684.509	3813
684.543	4142
684.556	4259
684.603	4496
684.649	3659
684.665	3769
684.696	3959
684.743	4169
684.786	4332
684.790	4347
684.837	4591
684.883	4420
684.908	4407
684.930	4298
684.977	4591
685.023	4014
685.029	4014
685.070	4179
685.117	4195
685.150	4430
685.164	4484
685.210	4874
685.257	4469
685.272	4580
685.303	4804
685.350	4545
685.393	4664
685.396	4660
685.443	4719
685.490	4805
685.514	4736
685.536	4794
685.583	5345
685.629	4429
685.636	4410
685.675	4039
685.722	4823
685.757	4525
685.768	4460
685.815	4580
685.861	4843
685.878	4834
685.908	4767
685.954	4662
686.000	4573
686.000	4572
686.047	5022
686.093	4842
686.121	5298
686.139	5472
686.185	5084
686.232	5088
686.242	5055
686.278	4965
686.324	4933
686.363	4921
686.370	4944
686.416	4865
686.463	4813
686.484	5100
686.509	5380
686.555	5385
686.601	4668
686.606	4675
686.647	4647
686.693	5172
686.727	4922
686.739	4849
686.785	5231
686.831	4871
686.848	4783
686.877	4525
686.923	4686
686.969	4800
686.969	4802
687.015	4520
687.061	5346
687.090	5620
687.107	5667
687.153	5650
687.199	5536
687.211	5418
687.245	5213
687.291	4942
687.332	5560
687.336	5613
687.382	5455
687.428	5385
687.453	5630
687.474	5839
687.520	5204
687.565	5587
687.574	5502
687.611	5174
687.657	5006
687.695	5426
687.702	5526
687.748	5836
687.794	6300
687.816	6381
687.839	6328
687.885	5960
687.931	5494
687.937	5445
687.976	5223
688.022	5606
688.058	5636
688.067	5674
688.113	5485
688.158	5348
688.179	5460
688.204	5566
688.249	5571
688.295	5813
688.300	5819
688.340	5809
688.386	6136
688.421	5840
688.431	5783
688.477	5751
688.522	5536
688.542	5739
688.567	6011
688.613	6028
688.658	5838
688.663	5901
688.703	6434
688.749	5905
688.784	6433
688.794	6556
688.839	6547
688.884	6823
688.905	6610
688.930	6338
688.975	6409
689.020	5803
689.026	5834
689.065	6267
689.110	6062
689.146	6205
689.155	6211
689.201	5998
689.246	6498
689.267	6275
689.291	6049
689.336	6295
689.381	6069
689.388	6062
689.426	6181
689.471	6203
689.509	6647
689.516	6721
689.561	6383
689.606	6260
689.630	6284
689.651	6343
689.696	6362
689.741	6630
689.750	6779
689.785	7377
689.830	6740
689.871	6930
689.875	6937
689.920	6771
689.965	6954
689.992	6767
690.010	6723
690.054	7081
690.099	6806
690.112	6884
690.144	7083
690.189	7011
690.233	7683
690.233	7693
690.278	7540
690.323	7367
690.354	7448
690.367	7618
690.412	7950
690.457	8569
690.474	8735
690.501	8766
690.546	8952
690.590	8901
690.595	8906
690.635	9687
690.680	10998
690.716	11670
690.724	11955
690.769	14363
690.813	16287
690.836	17348
690.857	19984
690.902	25357
690.946	31754
690.957	33409
690.991	44204
691.035	60679
691.077	77518
691.080	77588
691.124	71539
691.168	60316
691.198	52740
691.213	47933
691.257	36772
691.301	25443
691.318	21504
691.346	19472
691.390	16321
691.434	13475
691.439	13126
691.478	12121
691.522	11316
691.559	10687
691.567	10644
691.611	10055
691.655	9884
691.680	9318
691.699	9030
691.743	9292
691.787	9080
691.800	9034
691.831	8993
691.875	8861
691.919	8808
691.921	8801
691.964	8887
692.008	8916
692.041	8602
692.052	8597
692.096	8690
692.139	8927
692.162	8952
692.183	8788
692.227	8603
692.271	7982
692.282	7962
692.315	8200
692.359	8710
692.402	8616
692.403	8627
692.447	8178
692.490	8306
692.523	8306
692.534	8366
692.578	8414
692.622	8302
692.643	8346
692.666	8381
692.709	8564
692.753	8430
692.763	8407
692.797	8455
692.840	8656
692.884	8616
692.884	8634
692.928	8989
692.971	9662
693.004	9826
693.015	9837
693.059	9963
693.102	10189
693.124	10172
693.146	10260
693.189	10524
693.233	10833
693.245	10972
693.276	11965
693.320	13099
693.363	14226
693.365	14250
693.407	16089
693.450	18100
693.485	19751
693.493	20757
693.537	26022
693.580	30964
693.605	34356
693.624	40186
693.667	53565
693.710	67128
693.725	72363
693.753	94036
693.797	128857
693.840	166678
693.845	170424
693.883	156452
693.926	133272
693.966	112358
693.970	109794
694.013	83785
694.056	59007
694.086	42052
694.099	39639
694.142	32707
694.185	25973
694.206	22556
694.229	21337
694.272	19528
694.315	17716
694.326	17177
694.358	16310
694.401	15361
694.444	14189
694.446	14124
694.487	13468
694.530	12289
694.566	11417
694.573	11379
694.616	11079
694.659	10802
694.686	10586
694.702	10588
694.745	10493
694.787	10341
694.806	10379
694.830	10423
694.873	10320
694.916	10278
694.926	10181
694.959	9985
695.002	9800
695.044	9929
695.046	9899
695.087	9900
695.130	10233
695.166	10278
695.172	10306
695.215	10315
695.258	10636
695.286	10615
695.301	10549
695.343	10331
695.386	10346
695.406	10203
695.428	10188
695.471	10141
695.514	10351
695.526	10284
695.556	10534
695.599	11308
695.641	11786
695.646	11812
695.684	11659
695.726	11465
695.766	11292
695.769	11284
695.811	10929
695.854	10412
695.886	10109
695.896	10166
695.938	10059
695.981	10187
696.005	10153
696.023	10355
696.065	10940
696.108	11478
696.125	11717
696.150	11985
696.192	12129
696.235	12309
696.245	12396
696.277	12662
696.319	12700
696.361	13044
696.365	13010
696.404	13007
696.446	13265
696.485	13541
696.488	13582
696.530	13402
696.572	13472
696.604	13394
696.614	13291
696.656	12897
696.698	12278
696.724	11937
696.740	12049
696.783	12330
696.825	12614
696.844	12670
696.867	12589
696.909	12423
696.951	12217
696.964	12171
696.992	12312
697.034	12343
697.076	12340
697.083	12313
697.118	12571
697.160	13005
697.202	13279
697.203	13257
697.244	13184
697.286	13135
697.323	13001
697.327	13033
697.369	13047
697.411	13075
697.442	13079
697.453	13123
697.494	13160
697.536	13247
697.562	13246
697.578	13360
697.620	13577
697.661	13751
697.682	13845
697.703	13839
697.744	13710
697.786	13609
697.801	13559
697.828	13825
697.869	14077
697.911	14370
697.921	14405
697.952	14176
697.994	13876
698.035	13499
698.040	13427
698.077	13510
698.118	13561
698.160	13670
698.160	13639
698.201	14164
698.243	14712
698.279	15173
698.284	15240
698.325	15519
698.367	15817
698.399	15961
698.408	15978
698.449	15926
698.491	15906
698.518	15818
698.532	15893
698.573	16037
698.614	16170
698.638	16215
698.656	16312
698.697	16418
698.738	16561
698.757	16580
698.779	16533
698.820	16384
698.862	16217
698.877	16122
698.903	16084
698.944	15955
698.985	15827
698.996	15756
699.026	15730
699.067	15642
699.116	15501
699.235	15857
699.354	16309
699.474	15683
699.593	15298
699.713	15212
699.832	16727
699.951	16773
700.070	16117
700.190	15229
700.309	15385
700.428	15327
700.547	14910
700.667	14488
700.786	15897
700.905	13357
701.024	14284
701.143	14134
701.262	15478
701.381	14407
701.500	15098
701.619	14692
701.738	14344
701.857	14386
701.976	14418
702.095	14108
702.214	15311
702.333	14513
702.452	15234
702.571	15405
702.690	15195
702.809	14808
702.928	14136
703.047	14232
703.165	15147
703.284	14269
703.403	14872
703.522	15065
703.640	15190
703.759	14857
703.878	16237
703.997	14381
704.115	14516
704.234	14000
704.353	13891
704.471	12732
704.590	13338
704.708	13030
704.827	13227
704.946	12933
705.064	13570
705.183	13726
705.301	15220
705.420	17506
705.538	17439
705.656	14785
705.775	15923
705.893	21373
706.012	21868
706.130	14452
706.249	15955
706.367	14491
706.485	15664
706.604	14997
706.722	14487
706.840	16467
706.958	17666
707.077	15952
707.195	14642
707.313	14471
707.431	14621
707.549	13999
707.668	13436
707.786	15041
707.904	14969
708.022	14604
708.140	13385
708.258	13663
708.376	15105
708.494	13226
708.612	15165
708.730	18213
708.848	16990
708.966	15917
709.084	15560
709.202	15948
709.320	15994
709.438	15677
709.556	15663
709.674	14917
709.791	16259
709.909	15151
710.027	14751
710.145	15255
710.263	15255
710.380	14950
710.498	15490
710.616	14438
710.733	14900
710.851	14852
710.969	15695
711.086	14941
711.204	15510
711.322	14832
711.439	14674
711.557	14550
711.674	14739
711.792	13834
711.909	15597
712.027	14635
712.144	13747
712.262	14479
712.379	15710
712.497	19752
712.614	18622
712.732	17084
712.849	16678
712.966	16723
713.084	17289
713.201	16397
713.318	17474
713.436	16874
713.553	17857
713.670	18001
713.787	18126
713.905	17509
714.022	17845
714.139	17528
714.256	21297
714.373	25492
714.490	45881
714.608	113996
714.725	418129
714.842	269392
714.959	33853
715.076	21487
715.193	18835
715.310	18684
715.427	16298
715.544	15895
715.661	15995
715.778	16363
715.895	17009
716.011	16263
716.128	15310
716.245	15455
716.362	15834
716.479	14798
716.596	15726
716.713	15594
716.829	15900
716.946	14709
717.063	14641
717.180	13487
717.296	14159
717.413	13989
717.530	14457
717.646	13732
717.763	13971
717.880	13743
717.996	14703
718.113	13438
718.229	13847
718.346	12605
718.462	13936
718.579	14512
718.695	14085
718.812	14424
718.928	14879
719.045	13240
719.161	13907
719.277	13592
719.394	14724
719.510	15015
719.626	15471
719.743	18345
719.859	24818
719.975	47348
720.092	171562
720.208	235189
720.324	32052
720.440	17838
720.557	15945
720.673	16285
720.789	20086
720.905	27578
721.021	15264
721.137	13763
721.253	13888
721.369	13212
721.486	15389
721.602	15897
721.718	13071
721.834	12971
721.950	12966
722.066	12604
722.181	12759
722.297	12621
722.413	12501
722.529	12385
722.645	11909
722.761	12357
722.877	13628
722.993	12774
723.108	14496
723.224	13083
723.340	12898
723.456	12523
723.571	12653
723.687	11751
723.803	12836
723.918	12148
724.034	13070
724.150	11517
724.265	12225
724.381	16914
724.497	16303
724.612	11591
724.728	11522
724.843	11631
724.959	12181
725.074	16814
725.190	16094
725.305	11884
725.421	11961
725.536	13447
725.651	11847
725.767	11303
725.882	11544
725.997	10907
726.113	12330
726.228	10073
726.343	11707
726.459	10937
726.574	11439
726.689	11079
726.804	11531
726.920	11526
727.035	11882
727.150	11762
727.265	11388
727.380	10700
727.495	10990
727.610	10418
727.725	11765
727.841	12421
727.956	18057
728.071	13351
728.186	10851
728.301	10714
728.416	11379
728.531	10154
728.645	11027
728.760	10927
728.875	10866
728.990	9989
729.105	10978
729.220	11348
729.335	10828
729.449	10389
729.564	10423
729.679	10589
729.794	10880
729.908	11240
730.023	11010
730.138	11270
730.253	10797
730.367	10309
730.482	11063
730.596	11018
730.711	12648
730.826	13507
730.940	13656
731.055	12043
731.169	12159
731.284	11694
731.398	12300
731.513	12486
731.627	14477
731.742	16428
731.856	17783
731.970	18081
732.085	21145
732.199	27343
732.313	47325
732.428	113201
732.542	232369
732.656	94552
732.771	30065
732.885	22637
732.999	21995
733.113	21591
733.227	21111
733.342	19936
733.456	19726
733.570	18493
733.684	19242
733.798	18042
733.912	18849
734.026	18391
734.140	18619
734.254	18256
734.368	20671
734.482	20284
734.596	17373
734.710	16276
734.824	17576
734.938	17148
735.052	17712
735.166	17781
735.280	17096
735.393	16598
735.507	17227
735.621	17614
735.735	20456
735.849	16841
735.962	16099
736.076	16628
736.190	16406
736.303	18214
736.417	18526
736.531	16297
736.644	15785
736.758	16059
736.872	15590
736.985	16015
737.099	15869
737.212	15647
737.326	14822
737.439	15027
737.553	15148
737.666	15397
737.780	16042
737.893	15696
738.007	16460
738.120	16126
738.233	15556
738.347	15330
738.460	15437
738.573	15188
738.687	15531
738.800	14935
738.913	15972
739.026	14863
739.140	15635
739.253	16129
739.366	14965
739.479	14672
739.592	15358
739.705	14137
739.818	16417
739.932	14020
740.045	15585
740.158	14461
740.271	15285
740.384	14286
740.497	13937
740.610	15336
740.723	14900
740.836	14544
740.949	15417
741.062	15910
741.174	13845
741.287	14866
741.400	14344
741.513	14428
741.626	15628
741.739	14499
741.851	14472
741.964	15653
742.077	14777
742.189	14086
742.302	14807
742.415	14092
742.527	14026
742.640	14866
742.753	14281
742.865	14933
742.978	14020
743.090	13773
743.203	15016
743.316	13805
743.428	14355
743.541	13770
743.653	13887
743.766	14233
743.878	13948
743.990	15431
744.103	15788
744.215	13807
744.327	13590
744.440	15845
744.552	14446
744.664	14066
744.777	14850
744.889	13963
745.001	14184
745.113	14143
745.226	14731
745.338	13435
745.450	15932
745.562	13546
745.674	14065
745.786	14113
745.898	14160
746.010	14478
746.122	15574
746.234	14412
746.347	14982
746.459	14300
746.570	13913
746.682	14787
746.794	15735
746.906	13749
747.018	15249
747.130	15994
747.242	14621
747.354	14185
747.466	14480
747.577	13635
747.689	15310
747.801	13991
747.913	14279
748.024	14557
748.136	14180
748.248	14313
748.359	14192
748.471	15053
748.583	14099
748.694	14950
748.806	16424
748.918	15780
749.029	14339
749.141	14845
749.252	16075
749.364	14540
749.475	15458
749.587	14969
749.698	15736
749.809	15326
749.921	14360
750.032	15108
750.144	14911
750.255	15003
750.366	15040
750.478	15253
750.589	15775
750.700	14716
750.811	15981
750.923	15063
751.034	15808
751.145	15718
751.256	16153
751.367	15347
751.479	15345
751.590	15303
751.701	15193
751.812	14651
751.923	16101
752.034	16516
752.145	16734
752.256	16184
752.367	16465
752.478	16460
752.589	17097
752.700	15977
752.811	15762
752.922	15788
753.032	17088
753.143	17766
753.254	15888
753.365	17776
753.476	17386
753.586	17465
753.697	17628
753.808	17385
753.919	17227
754.029	17142
754.140	17698
754.251	18176
754.361	19104
754.472	18577
754.582	18409
754.693	18863
754.804	18819
754.914	18438
755.025	18895
755.135	19394
755.246	19690
755.356	18579
755.466	20081
755.577	20342
755.687	20148
755.798	20084
755.908	20370
756.018	20215
756.129	19974
756.239	20685
756.349	21606
756.460	21108
756.570	22661
756.680	20765
756.790	23210
756.900	22181
757.011	22377
757.121	22853
757.231	22828
757.341	23239
757.451	23818
757.561	23709
757.671	24284
757.781	23044
757.891	25269
758.001	24518
758.111	26791
758.221	26909
758.331	27374
758.441	27123
758.551	27126
758.661	29181
758.771	29709
758.880	29482
758.990	30088
759.100	30091
759.210	31078
759.320	31520
759.429	31632
759.539	33121
759.649	33983
759.758	34376
759.868	35823
759.978	36801
760.087	36837
760.197	37882
760.307	38412
760.416	38470
760.526	39159
760.635	41040
760.745	43206
760.854	41988
760.964	44941
761.073	46223
761.182	46726
761.292	47894
761.401	48275
761.511	48584
761.620	52094
761.729	53064
761.839	54173
761.948	54355
762.057	56397
762.166	58340
762.276	60334
762.385	62596
762.494	65755
762.603	67855
762.712	70851
762.822	73179
762.931	76741
763.040	79340
763.149	83898
763.258	88111
763.367	91669
763.476	96945
763.585	102334
763.694	108653
763.803	115574
763.912	121820
764.021	130690
764.130	140047
764.238	149823
764.347	161057
764.456	172505
764.565	185647
764.674	204687
764.783	221043
764.891	249369
765.000	276851
765.109	309389
765.217	348294
765.326	398040
765.435	460515
765.543	532869
765.652	620856
765.761	725313
765.869	839639
765.978	959311
766.086	1048224
766.195	1044771
766.303	873966
766.412	556403
766.520	768639
766.629	1122291
766.737	1136183
766.846	1025624
766.954	880716
767.062	739908
767.171	614518
767.279	516794
767.387	437654
767.496	373556
767.604	330011
767.712	289411
767.820	263570
767.928	243787
768.037	226074
768.145	216178
768.253	207152
768.361	204015
768.469	205099
768.577	209322
768.685	222543
768.793	239613
768.901	263708
769.009	306559
769.117	360912
769.225	447903
769.333	563515
769.441	722935
769.549	895920
769.657	982190
769.765	799990
769.873	666630
769.981	1034547
770.088	1027067
770.196	850030
770.304	685830
770.412	555161
770.519	454998
770.627	381973
770.735	323561
770.842	276525
770.950	244266
771.058	216064
771.165	197470
771.273	175244
771.380	161682
771.488	150093
771.595	137717
771.703	128476
771.810	119653
771.918	112843
772.025	107051
772.133	101261
772.240	94926
772.348	92923
772.455	88265
772.562	81904
772.670	79359
772.777	75840
772.884	72602
772.991	70871
773.099	69694
773.206	66231
773.313	63729
773.420	60423
773.528	59115
773.635	56638
773.742	55274
773.849	53165
773.956	52283
774.063	50746
774.170	48274
774.277	48400
774.384	46633
774.491	45178
774.598	44977
774.705	43882
774.812	43270
774.919	42818
775.026	40150
775.133	39805
775.239	39718
775.346	37872
775.453	38328
775.560	35539
775.667	37202
775.773	34277
775.880	36306
775.987	34829
776.093	34911
776.200	32872
776.307	31365
776.413	31720
776.520	31863
776.627	29985
776.733	28749
776.840	27638
776.946	31429
777.053	28325
777.159	27964
777.266	27077
777.372	27204
777.478	27921
777.585	27900
777.691	25036
777.798	25921
777.904	24365
778.010	25946
778.117	24085
778.223	24539
778.329	22671
778.435	22552
778.542	23780
778.648	22258
778.754	20657
778.860	22755
778.966	22530
779.072	21239
779.178	21065
779.284	20586
779.391	22840
779.497	23652
779.603	31796
779.708	42193
779.815	87825
779.920	264609
780.026	268810
780.132	51878
780.238	26889
780.344	24116
780.450	23724
780.556	19486
780.661	19317
780.767	18725
780.873	16865
780.979	18553
781.085	17731
781.190	16989
781.296	16764
781.402	16776
781.507	16104
781.613	15192
781.719	15663
781.824	17165
781.930	14858
782.035	15855
782.141	16101
782.246	14193
782.352	14517
782.457	15515
782.563	14650
782.668	15100
782.773	13776
782.879	13679
782.984	13733
783.090	13963
783.195	14829
783.300	14302
783.405	12734
783.511	13234
783.616	13105
783.721	13751
783.826	12295
783.932	13346
784.037	12137
784.142	12689
784.247	12232
784.352	11526
784.457	12352
784.562	12329
784.667	12514
784.772	10652
784.877	10859
784.982	12639
785.087	11485
785.192	11909
785.297	11703
785.402	12347
785.507	11708
785.611	10815
785.716	10977
785.821	11197
785.926	11911
786.031	11007
786.135	10891
786.240	11257
786.345	9170
786.450	11032
786.554	9942
786.659	10049
786.763	9851
786.868	10989
786.973	11022
787.077	9434
787.182	9270
787.286	10501
787.391	10495
787.495	9060
787.600	9310
787.704	9830
787.809	10261
787.913	8950
788.017	9314
788.122	10173
788.226	9012
788.330	7822
788.435	9618
788.539	8590
788.643	7879
788.747	7551
788.852	8283
788.956	8375
789.060	8829
789.164	8161
789.268	7797
789.372	8683
789.476	8141
789.580	7677
789.684	7483
789.788	9010
789.892	8061
789.996	7889
790.100	7311
790.204	7880
790.308	8044
790.412	7162
790.516	7518
790.620	8024
790.724	8837
790.828	7240
790.931	6111
791.035	8113
791.139	7521
791.242	7336
791.346	7632
791.450	7442
791.554	6412
791.657	6044
791.761	7128
791.864	7186
791.968	7442
792.072	7273
792.175	6254
792.279	6920
792.382	6207
792.486	6957
792.589	7123
792.693	6747
792.796	5582
792.899	7578
793.003	6381
793.106	5068
793.209	5083
793.313	7024
793.416	4463
793.519	7655
793.623	7687
793.726	6979
793.829	6156
793.932	5432
794.035	5704
794.138	8662
794.242	8896
794.345	11709
794.448	18606
794.551	43954
794.654	148892
794.757	161623
794.860	24155
794.963	10186
795.066	6809
795.169	7997
795.272	6146
795.375	7596
795.477	4873
795.580	6253
795.683	4449
795.786	5938
795.889	4951
795.991	6398
796.094	6455
796.197	4771
796.300	7027
796.402	4562
796.505	4192
796.608	4887
796.710	5566
796.813	6502
796.915	5337
797.018	5739
797.120	5619
797.223	4068
797.326	6332
797.428	4056
797.530	4410
797.633	4777
797.735	5986
797.838	6065
797.940	6417
798.042	4985
798.145	3796
798.247	5717
798.349	3139
798.452	5802
798.554	3665
798.656	4389
798.758	5399
798.860	4956
798.962	3640
799.065	4532
799.167	3440
799.269	5349
799.371	5505
799.473	5595
799.575	4943
799.677	4169
799.779	5502
799.881	3083
799.983	5130
800.085	4195
800.187	4122
800.289	3735
800.390	3711
800.492	5638
800.594	5552
800.696	3466
800.798	2986
800.899	3582
801.001	4433
801.103	4093
801.205	4327
801.306	4555
801.408	2536
801.509	4083
801.611	3795
801.713	3617
801.814	2618
801.916	2546
802.017	3677
802.119	3088
802.220	4567
802.322	2223
802.423	4941
802.525	2105
802.626	2862
802.727	3768
802.829	3351
802.930	1619
803.031	3986
803.133	3346
803.234	2949
803.335	3011
803.436	3359
803.538	3112
803.639	2169
803.740	3998
803.841	2870
803.942	3813
804.043	2587
804.144	1917
804.245	2468
804.346	2942
804.447	2405
804.548	3908
804.649	3715
804.750	2214
804.851	2433
804.952	2327
805.053	2730
805.154	1975
805.255	3778
805.355	3159
805.456	2884
805.557	1929
805.658	2291
805.758	4475
805.859	2100
805.960	2161
806.061	2506
806.161	2610
806.262	2795
806.362	1899
806.463	3369
806.564	3331
806.664	2660
806.765	2500
806.865	3409
806.966	1943
807.066	2449
807.166	3446
807.267	2924
807.367	1568
807.468	2721
807.568	1389
807.668	2571
807.769	2335
807.869	1870
807.969	2267
808.069	2361
808.170	2744
808.270	1769
808.370	3470
808.470	3004
808.570	1357
808.670	1647
808.770	2148
808.870	2173
808.970	3099
809.070	1834
809.170	2125
809.271	3429
809.370	2647
809.470	2061
809.570	1855
809.670	1779
809.770	1779
809.870	2617
809.970	2452
810.070	2079
810.169	2482
810.269	1128
810.369	3152
810.469	2032
810.568	3207
810.668	1514
810.768	1616
810.867	1287
810.967	2004
811.066	1960
811.166	2474
811.265	2400
811.365	1836
811.464	2792
811.564	2187
811.663	2536
811.763	1338
811.862	2494
811.962	3208
812.061	1528
812.160	1625
812.260	2494
812.359	3227
812.458	2866
812.557	7391
812.657	6660
812.756	3079
812.855	2696
812.954	1318
813.053	2390
813.153	2912
813.252	1480
813.351	1933
813.450	1562
813.549	2092
813.648	1374
813.747	1621
813.846	2240
813.945	1926
814.044	2215
814.143	2612
814.242	2444
814.341	1775
814.439	2970
814.538	2479
814.637	2461
814.736	2339
814.835	2743
814.933	1881
815.032	2809
815.131	4960
815.229	6941
815.328	8234
815.427	5658
815.525	5851
815.624	4946
815.722	5534
815.821	6513
815.919	5097
816.018	4328
816.116	5340
816.215	5172
816.313	5990
816.412	6914
816.510	6824
816.609	8176
816.707	7915
816.805	6248
816.904	7267
817.002	6684
817.100	7770
817.198	7200
817.296	6653
817.395	7016
817.493	6889
817.591	5578
817.689	6778
817.787	6868
817.885	6978
817.983	7140
818.081	8685
818.179	12276
818.277	21417
818.375	14253
818.473	7676
818.571	6394
818.669	6498
818.767	6490
818.865	5613
818.963	6196
819.061	6781
819.158	7537
819.256	12372
819.354	19531
819.452	33371
819.549	17256
819.647	8895
819.745	5583
819.842	5734
819.940	5409
820.038	5038
820.135	4732
820.233	6721
820.330	4368
820.428	5183
820.525	5462
820.623	5020
820.720	3625
820.818	5547
820.915	5180
821.012	5005
821.110	4202
821.207	5381
821.304	4386
821.402	5388
821.499	4588
821.596	4894
821.693	4986
821.791	5392
821.888	4910
821.985	4950
822.082	3276
822.179	5137
822.276	3894
822.373	4162
822.470	4592
822.567	3711
822.664	3231
822.761	5946
822.858	3900
822.955	4611
823.052	3228
823.149	4454
823.246	3431
823.343	3089
823.440	3241
823.536	4392
823.633	3213
823.730	2946
823.827	4590
823.923	2700
824.020	4452
824.117	3964
824.213	3292
824.310	3767
824.407	3274
824.503	4688
824.600	3459
824.696	3305
824.793	4041
824.889	4448
824.986	2903
825.082	2036
825.179	3446
825.275	4278
825.371	3172
825.468	3067
825.564	1597
825.660	4423
825.757	4516
825.853	4251
825.949	1456
826.045	2661
826.142	2966
826.238	3528
826.334	3250
826.430	2665
826.526	2772
826.622	1704
826.718	3264
826.814	4145
826.910	2689
827.006	2183
827.102	1916
827.198	4297
827.294	2696
827.390	2841
827.486	2794
827.582	1657
827.678	1855
827.774	2921
827.869	1251
827.965	4300
828.061	1641
828.157	3851
828.252	3785
828.348	1954
828.444	2771
828.539	3005
828.635	2184
828.731	2922
828.826	2171
828.922	3137
829.017	2613
829.113	3007
829.208	1729
829.304	1898
829.399	3429
829.495	3105
829.590	2335
829.685	2553
829.781	3480
829.876	2161
829.971	1426
830.066	1233
830.162	2142
830.257	3262
830.352	2141
830.447	2349
830.543	2154
830.638	2410
830.733	3346
830.828	1795
830.923	2994
831.018	2461
831.113	3211
831.208	1336
831.303	592
831.398	1417
831.493	3030
831.588	4108
831.683	1113
831.778	1542
831.873	981
831.967	2836
832.062	1945
832.157	1759
832.252	2185
832.346	2008
832.441	2424
832.536	1799
832.631	3102
832.725	2363
832.820	1283
832.914	1943
833.009	1330
833.104	1399
833.198	1156
833.293	1806
833.387	2123
833.482	2732
833.576	966
833.670	2790
833.765	1454
833.859	1938
833.954	2063
834.048	2561
834.142	1993
834.237	1480
834.331	1263
834.425	2379
834.519	875
834.613	2216
834.708	1808
834.802	2113
834.896	948
834.990	991
835.084	1463
835.178	1512
835.272	919
835.366	2036
835.460	2248
835.554	1934
835.648	990
835.742	731
835.836	1128
835.930	1510
836.024	1781
836.117	2523
836.211	1169
836.305	2475
836.399	2004
836.493	922
836.586	2039
836.680	913
836.774	343
836.867	1174
836.961	6
837.055	577
837.148	920
837.242	1244
837.335	890
837.429	1805
837.522	4
837.616	2095
837.709	3274
837.803	1427
837.896	1542
837.989	1550
838.083	1076
838.176	2363
838.269	1575
838.363	1200
838.456	833
838.549	1687
838.642	804
838.735	919
838.829	1209
838.922	1115
839.015	903
839.108	-54
839.201	1280
839.294	1040
839.387	1295
839.480	687
839.573	1268
839.666	1005
839.759	1299
839.852	915
839.945	1665
840.038	848
840.131	513
840.223	1415
840.316	1001
840.409	1326
840.502	516
840.594	2270
840.687	-500
840.780	856
840.873	836
840.965	1015
841.058	1436
841.150	2477
841.243	477
841.336	905
841.428	963
841.521	809
841.613	442
841.706	1464
841.798	348
841.890	811
841.983	-802
842.075	1207
842.167	904
842.260	1596
842.352	1985
842.444	1817
842.537	2081
842.629	1807
842.721	1182
842.813	1464
842.905	598
842.997	1699
843.090	1302
843.182	1693
843.274	1518
843.366	5011
843.458	6984
843.550	4456
843.642	1385
843.734	1203
843.826	-135
843.918	1319
844.009	1150
844.101	291
844.193	171
844.285	778
844.377	1180
844.469	1547
844.560	269
844.652	526
844.744	709
844.835	1349
844.927	1435
845.019	899
845.110	750
845.202	975
845.293	509
845.385	353
845.476	389
845.568	1322
845.659	660
845.751	1013
845.842	59
845.934	672
846.025	-177
846.116	1128
846.208	1102
846.299	692
846.390	279
846.482	1082
846.573	1563
846.664	-60
846.755	476
846.846	1166
846.937	-725
847.029	652
847.120	-17
847.211	96
847.302	2006
847.393	119
847.484	518
847.575	293
847.666	143
847.757	500
847.847	465
847.938	816
848.029	-176
848.120	773
848.211	562
848.302	-185
848.392	71
848.483	918
848.574	-483
848.664	485
848.755	166
848.846	1021
848.936	-249
849.027	1634
849.118	273
849.208	457
849.299	1216
849.389	2612
849.480	4368
849.570	7483
849.661	15216
849.751	19728
849.841	5086
849.932	929
850.022	168
850.112	780
850.203	576
850.293	237
850.383	-52
850.474	590
850.564	-448
850.654	700
850.744	248
850.834	-76
850.924	378
851.014	1496
851.104	214
851.194	244
851.284	860
851.374	1089
851.464	-81
851.554	1219
851.644	838
851.734	3302
851.824	3389
851.914	4877
852.004	10190
852.094	5156
852.183	1579
852.273	425
852.363	-366
852.452	526
852.542	335
852.632	-228
852.721	-156
852.811	462
852.901	56
852.990	94
853.080	88
853.169	410
853.259	-120
853.348	251
853.438	981
853.527	2037
853.617	2981
853.706	5429
853.795	9602
853.885	22665
853.974	37928
854.063	69237
854.152	86012
854.242	28543
854.331	6132
854.420	2229
854.509	1416
854.598	1952
854.687	1434
854.777	1971
854.866	74
854.955	782
855.044	-640
855.133	154
855.222	250
855.311	-281
855.400	119
855.488	131
855.577	-326
855.666	974
855.755	235
855.844	1024
855.933	39
856.021	-21
856.110	-383
856.199	167
856.288	-13
856.376	-151
856.465	-393
856.554	386
856.642	-47
856.731	739
856.819	184
856.908	516
856.996	107
857.085	112
857.173	-590
857.262	-191
857.350	-295
857.438	-267
857.527	329
857.615	549
857.703	1024
857.792	194
857.880	13
857.968	48
858.056	281
858.145	268
858.233	152
858.321	-110
858.409	258
858.497	-21
858.585	-812
858.673	706
858.761	-436
858.849	-169
858.937	-486
859.025	210
859.113	576
859.201	-42
859.289	-289
859.377	-261
859.465	236
859.552	152
859.640	45
859.728	143
859.816	160
859.903	528
859.991	-453
860.079	-115
860.166	496
860.254	-75
860.342	1038
860.429	-887
860.517	-1258
860.604	118
860.692	-107
860.779	-1133
860.867	-148
860.954	-204
861.042	101
861.129	442
861.216	3
861.304	-95
861.391	-186
861.478	469
861.565	-246
861.653	261
861.740	-82
861.827	557
861.914	-160
862.001	-1099
862.089	-230
862.176	76
862.263	217
862.350	399
862.437	-213
862.524	-200
862.611	-1366
862.698	103
862.785	20
862.871	895
862.958	62
863.045	546
863.132	-11
863.219	118
863.306	-1344
863.392	594
863.479	-281
863.566	361
863.652	-283
863.739	19
863.826	359
863.912	525
863.999	-241
864.086	324
864.172	22
864.259	439
864.345	367
864.432	29
864.518	-165
864.604	580
864.691	138
864.777	1085
864.863	1111
864.950	2326
865.036	2730
865.122	4570
865.209	4086
865.295	3789
865.381	3455
865.467	3855
865.553	3911
865.639	5762
865.726	7216
865.812	13880
865.898	21526
865.984	29389
866.070	52863
866.156	46272
866.242	12967
866.328	5763
866.414	4342
866.499	4501
866.585	2879
866.671	2634
866.757	3765
866.843	3344
866.928	2757
867.014	2455
867.100	3054
867.186	3689
867.271	1833
867.357	3067
867.442	3084
867.528	3143
867.614	2287
867.699	2229
867.785	3518
867.870	2893
867.956	2681
868.041	2748
868.127	3280
868.212	2380
868.297	2728
868.383	3144
868.468	2060
868.553	3544
868.639	2060
868.724	2791
868.809	2127
868.894	1862
868.979	2308
869.065	2566
869.150	1354
869.235	3261
869.320	1189
869.405	1920
869.490	1674
869.575	1881
869.660	1995
869.745	2558
869.830	1948
869.915	2280
870.000	2243
870.085	2333
870.169	2034
870.254	2940
870.339	1290
870.424	1830
870.509	2872
870.593	2697
870.678	2265
870.763	1926
870.847	2137
870.932	2043
871.016	2668
871.101	1155
871.186	1979
871.270	2172
871.355	1365
871.439	2198
871.523	1707
871.608	1332
871.692	1353
871.777	2247
871.861	2275
871.945	1497
872.030	1886
872.114	2013
872.198	1267
872.282	1974
872.367	1064
872.451	2113
872.535	1887
872.619	1170
872.703	860
872.787	2212
872.871	1484
872.955	1288
873.039	588
873.123	1680
873.207	1882
873.291	1317
873.375	1323
873.459	1705
873.543	945
873.627	1536
873.711	807
873.794	1732
873.878	789
873.962	1268
874.045	714
874.129	1086
874.137	1082
874.213	1042
874.245	1029
874.296	1010
874.352	578
874.380	364
874.460	1404
874.464	1446
874.547	725
874.568	1081
874.631	2096
874.676	1689
874.714	1365
874.784	1654
874.798	1707
874.881	2208
874.892	2009
874.965	684
874.999	762
875.048	813
875.107	690
875.131	661
875.215	808
875.215	808
875.298	582
875.323	497
875.381	308
875.430	987
875.465	1468
875.538	777
875.548	674
875.631	826
875.646	660
875.714	-91
875.753	156
875.798	483
875.861	1629
875.881	1949
875.964	1519
875.968	1486
876.047	1020
876.076	1225
876.130	1563
876.183	644
876.213	151
876.291	1649
876.296	1742
876.379	638
876.398	648
876.462	775
876.506	752
876.545	755
876.613	576
876.628	540
876.711	897
876.721	1020
876.794	1927
876.828	1331
876.877	474
876.935	1021
876.960	1223
877.043	683
877.043	687
877.125	1810
877.150	1951
877.208	2122
877.258	1150
877.291	578
877.365	870
877.374	897
877.456	999
877.472	898
877.539	565
877.579	1493
877.622	2351
877.687	1764
877.704	1652
877.787	1151
877.794	1169
877.869	1384
877.901	1499
877.952	1539
878.008	881
878.034	612
878.115	524
878.117	525
878.199	1569
878.222	1540
878.282	1517
878.329	1540
878.364	1473
878.437	1359
878.447	1331
878.529	428
878.544	495
878.611	1026
878.651	975
878.694	866
878.758	783
878.776	751
878.858	1264
878.865	1275
878.941	1337
878.972	983
879.023	528
879.078	875
879.105	1027
879.185	718
879.187	719
879.269	1559
879.292	1448
879.351	743
879.399	746
879.433	871
879.506	892
879.516	874
879.598	504
879.613	473
879.680	663
879.720	1144
879.762	1519
879.827	994
879.844	863
879.926	1392
879.933	1383
880.007	1154
880.040	895
880.089	640
880.147	1114
880.171	1398
880.253	1705
880.254	1703
880.335	1360
880.360	1688
880.417	3365
880.467	4025
880.499	4176
880.574	4717
880.580	4592
880.662	1472
880.680	1175
880.744	1327
880.787	1000
880.825	805
880.893	1153
880.907	1221
880.989	1151
881.000	1136
881.070	970
881.106	915
881.152	1008
881.213	981
881.233	902
881.315	1556
881.319	1516
881.396	1096
881.426	1151
881.478	1247
881.532	1558
881.559	1647
881.639	1245
881.641	1238
881.722	1168
881.745	1037
881.803	912
881.852	1212
881.885	1269
881.958	1101
881.966	1143
882.047	1500
882.064	1454
882.129	780
882.171	875
882.210	1125
882.277	879
882.291	857
882.372	1646
882.383	1647
882.454	1284
882.489	1023
882.535	871
882.596	1057
882.616	1175
882.697	1147
882.702	1162
882.778	1116
882.808	1103
882.859	1094
882.914	1090
882.940	1072
883.020	833
883.021	835
883.102	790
883.127	1041
883.183	1802
883.233	1428
883.264	1158
883.339	1350
883.345	1368
883.426	1124
883.445	1248
883.507	1809
883.551	1822
883.587	1526
883.657	1390
883.668	1422
883.749	1213
883.763	1198
883.830	992
883.869	1023
883.910	1413
883.975	1709
883.991	1676
884.072	1629
884.081	1592
884.152	1832
884.187	2009
884.233	1817
884.292	1765
884.314	1746
884.394	714
884.398	715
884.475	924
884.504	660
884.555	552
884.610	916
884.636	1012
884.716	1223
884.716	1229
884.797	1714
884.821	1770
884.877	1569
884.927	1382
884.958	1474
885.033	1884
885.038	1836
885.118	984
885.139	704
885.199	1013
885.244	1415
885.279	1442
885.350	1282
885.359	1366
885.439	2145
885.456	2243
885.520	1519
885.561	1126
885.600	1149
885.667	1440
885.680	1461
885.760	1284
885.773	1219
885.840	1240
885.878	1501
885.920	1812
885.984	2077
886.000	1989
886.080	1527
886.089	1449
886.160	1831
886.195	2048
886.240	1463
886.300	770
886.320	954
886.400	1582
886.406	1624
886.480	1563
886.511	1440
886.560	1330
886.616	1470
886.640	1700
886.720	2176
886.722	2180
886.800	1998
886.827	2003
886.879	2023
886.932	1883
886.959	2111
887.038	2857
887.039	2860
887.119	2398
887.143	2237
887.198	2044
887.248	1835
887.278	1790
887.354	1632
887.358	1620
887.437	1350
887.459	1267
887.517	1832
887.564	2224
887.596	1928
887.669	1378
887.676	1387
887.755	1332
887.774	1298
887.835	1212
887.880	1211
887.914	1193
887.985	1186
887.994	1276
888.073	1889
888.090	2049
888.153	2358
888.195	2448
888.232	2198
888.300	1871
888.311	1928
888.391	2172
888.405	2218
888.470	1603
888.510	1184
888.549	1460
888.615	2041
888.628	2058
888.708	2022
888.720	2002
888.787	2192
888.825	2304
888.866	1915
888.930	1366
888.945	1508
889.024	2162
889.035	2248
889.103	2229
889.140	2202
889.182	2073
889.245	1868
889.261	1951
889.340	2311
889.349	2347
889.419	2113
889.454	1994
889.498	2143
889.559	2335
889.577	2273
889.656	1973
889.664	1942
889.735	2021
889.768	2050
889.814	2202
889.873	2394
889.978	1824
890.083	2618
890.187	2508
890.292	2823
890.397	2651
890.501	2634
890.606	2093
890.710	3367
890.815	1994
890.919	3717
891.024	2250
891.128	2520
891.233	2523
891.337	2288
891.442	2036
891.546	1656
891.650	1051
891.755	1567
891.859	3324
891.963	2684
892.068	2321
892.172	1763
892.276	1621
892.380	2182
892.484	2194
892.589	2872
892.693	2081
892.797	1651
892.901	2370
893.005	1251
893.109	1816
893.213	2899
893.317	1683
893.421	2271
893.525	1086
893.629	2011
893.733	1886
893.837	2020
893.941	2215
894.045	2410
894.148	3776
894.252	8076
894.356	3804
894.460	2226
894.564	1947
894.667	2298
894.771	1299
894.875	1402
894.978	1487
895.082	1418
895.186	2434
895.289	1903
895.393	973
895.496	2868
895.600	548
895.703	1242
895.807	1175
895.910	1601
896.014	1367
896.117	323
896.221	1972
896.324	1955
896.427	1286
896.531	1318
896.634	1134
896.737	1867
896.840	1455
896.944	1295
897.047	395
897.150	1774
897.253	1011
897.356	772
897.460	144
897.563	1167
897.666	547
897.769	1115
897.872	1503
897.975	1122
898.078	1027
898.181	1290
898.284	445
898.387	1979
898.490	1007
898.593	1105
898.695	695
898.798	1229
898.901	499
899.004	1262
899.107	311
899.209	1220
899.312	1678
899.415	826
899.518	230
899.620	-4
899.723	390
899.826	1965
899.928	633
900.031	1098
900.133	730
900.236	764
900.338	418
900.441	406
900.543	791
900.646	1251
900.748	495
900.851	1463
900.953	388
901.055	959
901.158	616
901.260	1414
901.362	1212
901.465	1134
901.567	1802
901.669	1694
901.771	358
901.873	1295
901.976	984
902.078	680
902.180	985
902.282	899
902.384	269
902.486	1350
902.588	2058
902.690	991
902.792	799
902.894	1738
902.996	1583
903.098	1541
903.200	363
903.302	1619
903.404	87
903.505	351
903.607	1295
903.709	1319
903.811	862
903.913	1695
904.014	280
904.116	694
904.218	312
904.319	671
904.421	872
904.523	614
904.624	909
904.726	630
904.827	359
904.929	-313
905.030	939
905.132	555
905.233	1002
905.335	979
905.436	699
905.537	43
905.639	826
905.740	395
905.841	454
905.943	1075
906.044	209
906.145	509
906.247	957
906.348	1819
906.449	597
906.550	670
906.651	1500
906.752	1103
906.854	252
906.955	1011
907.056	-263
907.157	1313
907.258	701
907.359	557
907.460	1017
907.561	-225
907.662	62
907.762	628
907.863	581
907.964	1185
908.065	259
908.166	1240
908.267	472
908.367	1422
908.468	268
908.569	1349
908.670	1120
908.770	1294
908.871	333
908.971	1189
909.072	950
909.173	908
909.273	78
909.374	682
909.474	-830
909.575	67
909.675	186
909.776	1409
909.876	875
909.977	428
910.077	786
910.177	852
910.278	783
910.378	732
910.478	565
910.579	594
910.679	36
910.779	172
910.879	1172
910.980	9
911.080	396
911.180	340
911.280	222
911.380	844
911.480	1143
911.580	715
911.680	240
911.780	1350
911.880	454
911.980	444
912.080	338
912.180	933
912.280	285
912.380	1372
912.480	389
912.580	-261
912.679	-115
912.779	1324
912.879	-62
912.979	558
913.078	518
913.178	284
913.278	638
913.377	411
913.477	473
913.577	315
913.676	1281
913.776	610
913.875	732
913.975	722
914.074	973
914.174	883
914.273	-184
914.373	62
914.472	625
914.572	-181
914.671	24
914.770	925
914.870	641
914.969	198
915.068	-401
915.167	1374
915.267	-60
915.366	519
915.465	22
915.564	424
915.663	465
915.763	410
915.862	752
915.961	802
916.060	-961
916.159	556
916.258	185
916.357	820
916.456	468
916.555	330
916.654	-2
916.752	796
916.851	-42
916.950	5
917.049	-268
917.148	-39
917.247	-152
917.345	598
917.444	-84
917.543	407
917.642	-224
917.740	565
917.839	760
917.937	903
918.036	822
918.135	708
918.233	211
918.332	393
918.430	-743
918.529	224
918.627	320
918.726	538
918.824	1066
918.923	9
919.021	-56
919.119	242
919.218	-420
919.316	866
919.414	-325
919.512	433
919.611	463
919.709	872
919.807	926
919.905	686
920.003	301
920.102	942
920.200	939
920.298	773
920.396	206
920.494	298
920.592	363
920.690	1090
920.788	155
920.886	856
920.984	378
921.082	394
921.180	1396
921.277	881
921.375	361
921.473	583
921.571	613
921.669	836
921.766	937
921.864	1644
921.962	1287
922.060	1260
922.157	213
922.255	1171
922.352	1229
922.450	1573
922.548	836
922.645	1706
922.743	1018
922.840	3937
922.938	2909
923.035	3302
923.133	2304
923.230	4014
923.327	4518
923.425	3300
923.522	4063
923.619	3808
923.717	3090
923.814	3214
923.911	2848
924.008	3490
924.106	2589
924.203	2828
924.300	3133
924.397	2881
924.494	2655
924.591	2897
924.688	2851
924.786	2790
924.883	2819
924.979	2688
925.077	3103
925.173	3203
925.270	2049
925.367	3072
925.464	3050
925.561	3043
925.658	2345
925.755	2965
925.852	3216
925.948	2880
926.045	3274
926.142	2865
926.239	2147
926.335	3165
926.432	2929
926.529	2675
926.625	2759
926.722	1587
926.818	2846
926.915	3410
927.011	2546
927.108	2702
927.204	2571
927.301	1807
927.397	2577
927.494	3116
927.590	2667
927.687	2321
927.783	1887
927.879	2538
927.976	2103
928.072	1872
928.168	1759
928.264	2636
928.361	1629
928.457	1824
928.553	2188
928.649	2625
928.745	2192
928.841	2969
928.937	2349
929.033	2716
929.129	2501
929.225	2535
929.321	1873
929.417	1596
929.513	2675
929.609	1436
929.705	1966
929.801	1981
929.897	1433
929.993	2130
930.089	2084
930.184	988
930.280	1811
930.376	2278
930.471	1603
930.567	1664
930.663	1816
930.758	607
930.854	1280
930.950	1936
931.045	880
931.141	2527
931.236	2698
931.332	2253
931.427	1977
931.523	2426
931.618	1978
931.714	1356
931.809	2056
931.905	2153
932.000	1143
932.095	763
932.191	2853
932.286	1932
932.381	1175
932.476	1525
932.572	1739
932.667	1308
932.762	996
932.857	1809
932.952	1382
933.047	2047
933.142	793
933.237	1766
933.332	668
933.427	1718
933.522	818
933.617	1181
933.712	1595
933.807	2338
933.902	1618
933.997	1604
934.092	1005
934.187	1278
934.282	276
934.376	1916
934.471	1112
934.566	929
934.661	935
934.755	1354
934.850	1165
934.945	1081
935.039	1258
935.134	1032
935.228	870
935.323	2485
935.417	1265
935.512	654
935.606	-6
935.701	1250
935.795	1017
935.890	1461
935.984	149
936.079	986
936.173	1203
936.267	501
936.362	1104
936.456	1266
936.550	1352
936.644	1376
936.738	563
936.833	979
936.927	796
937.021	645
937.115	710
937.209	1106
937.303	1081
937.397	582
937.491	199
937.585	1207
937.679	1149
937.773	746
937.867	-41
937.961	556
938.055	1609
938.149	1024
938.243	472
938.337	727
938.430	698
938.524	1646
938.618	767
938.712	1019
938.805	49
938.899	928
938.993	506
939.086	721
939.180	-261
939.274	909
939.367	842
939.461	1417
939.554	1365
939.648	-173
939.741	245
939.835	754
939.928	1156
940.022	592
940.115	1081
940.208	1058
940.302	848
940.395	1335
940.488	430
940.582	443
940.675	-496
940.768	1178
940.861	467
940.954	1676
941.048	429
941.141	577
941.234	449
941.327	950
941.420	1583
941.513	1343
941.606	626
941.699	1640
941.792	480
941.885	428
941.978	617
942.071	312
942.164	651
942.257	543
942.349	846
942.442	1013
942.535	-104
942.628	974
942.721	115
942.813	381
942.906	236
942.999	329
943.091	-329
943.184	867
943.277	-617
943.369	-8
943.462	-70
943.554	313
943.647	302
943.739	282
943.832	115
943.924	-1183
944.017	119
944.109	-61
944.201	-277
944.294	341
944.386	-66
944.478	-285
944.571	285
944.663	179
944.755	-408
944.847	1142
944.940	346
945.032	-815
945.124	-232
945.216	1510
945.308	154
945.400	302
945.492	605
945.584	613
945.676	246
945.768	-153
945.860	946
945.952	-362
946.044	-17
946.136	269
946.228	180
946.320	-77
946.412	413
946.503	563
946.595	1258
946.687	92
946.779	-773
946.870	418
946.962	77
947.054	692
947.145	-406
947.237	-647
947.329	-37
947.420	327
947.512	-245
947.603	-792
947.695	-10
947.786	-523
947.878	-219
947.969	379
948.061	-1216
948.152	-70
948.243	-432
948.335	267
948.426	-20
948.517	396
948.609	-847
948.700	610
948.791	-120
948.882	-681
948.973	-593
949.065	-432
949.156	-258
949.247	-1235
949.338	-27
949.429	-102
949.520	-164
949.611	-142
949.702	537
949.793	-305
949.884	169
949.975	84
950.066	-741
950.157	128
950.247	-61
950.338	-678
950.429	-416
950.520	-287
950.611	-186
950.701	627
950.792	998
950.883	335
950.973	209
951.064	1097
951.155	-231
951.245	185
951.336	-797
951.427	191
951.517	865
951.608	226
951.698	-289
951.788	-758
951.879	255
951.969	-358
952.060	-1094
952.150	472
952.240	463
952.331	-1354
952.421	484
952.511	-171
952.602	-882
952.692	-314
952.782	-243
952.872	-28
952.962	-396
953.052	152
953.143	-688
953.233	-259
953.323	510
953.413	47
953.503	88
953.593	552
953.683	-638
953.773	-392
953.863	383
953.953	340
954.042	-1406
954.132	144
954.222	503
954.312	-625
954.402	-124
954.492	635
954.581	464
954.671	-349
954.761	-544
954.850	1037
954.940	-284
955.030	76
955.119	-564
955.209	288
955.298	-470
955.388	262
955.477	597
955.567	-347
955.656	331
955.746	687
955.835	443
955.925	331
956.014	90
956.103	1048
956.193	-161
956.282	154
956.371	760
956.461	505
956.550	359
956.639	640
956.728	-273
956.817	314
956.906	179
956.995	297
957.085	-61
957.174	1001
957.263	698
957.352	-83
957.441	69
957.530	446
957.619	517
957.708	-359
957.796	200
957.885	363
957.974	-167
958.063	1134
958.152	-642
958.241	1347
958.329	480
958.418	891
958.507	185
958.596	1667
958.684	168
958.773	1906
958.861	881
958.950	1619
959.039	689
959.127	1171
959.216	903
959.304	1347
959.393	570
959.481	1199
959.570	1680
959.658	1079
959.746	314
959.835	2181
959.923	1924
960.011	1331
960.100	1709
960.188	1193
960.276	342
960.365	-76
960.453	-314
960.541	-402
960.629	105
960.717	616
960.805	-294
960.893	498
960.981	577
961.069	1235
961.158	-100
961.245	1845
961.333	409
961.421	-443
961.509	289
961.597	608
961.685	-89
961.773	176
961.861	129
961.949	802
962.036	-214
962.124	936
962.212	-755
962.299	-454
962.387	-661
962.475	-623
962.562	-1005
962.650	461
962.738	-108
962.825	-240
962.913	-659
963.000	-218
963.088	-322
963.175	171
963.263	-192
963.350	-220
963.438	-284
963.525	-738
963.612	1288
963.700	4406
963.787	6719
963.874	1290
963.962	88
964.049	-348
964.136	-765
964.223	-665
964.310	149
964.398	151
964.485	-941
964.572	-73
964.659	767
964.746	352
964.833	-1104
964.920	-485
965.007	-230
965.094	241
965.181	-416
965.268	-167
965.355	-929
965.441	-143
965.528	-1102
965.615	73
965.702	-1153
965.789	-1175
965.875	16
965.962	-762
966.049	-1095
966.136	352
966.222	-1713
966.309	-327
966.395	-1280
966.482	-167
966.569	-864
966.655	-390
966.742	-343
966.828	-47
966.915	-1520
967.001	-738
967.087	-1197
967.174	-962
967.260	-272
967.347	174
967.433	1939
967.519	2843
967.605	-326
967.692	-488
967.778	-615
967.864	-1194
967.950	-814
968.036	-1209
968.123	-311
968.209	-1053
968.295	-1588
968.381	1155
968.467	-331
968.553	-2049
968.639	82
968.725	-512
968.811	450
968.897	386
968.983	-1082
969.069	-1955
969.154	-990
969.240	102
969.326	-1223
969.412	-1180
969.497	-746
969.583	-544
969.669	132
969.755	-731
969.840	-1414
969.926	-509
970.012	-691
970.097	1200
970.183	-585
970.268	-359
970.354	-1086
970.439	-46
970.525	1475
970.610	-1382
970.696	-547
970.781	-17
970.866	-1834
970.952	30
971.037	-1750
971.122	-1275
971.208	-846
971.293	-1703
971.378	-1976
971.463	-720
971.549	-1034
971.634	-198
971.719	-318
971.804	-552
971.889	-688
971.974	-1435
972.059	-1324
972.144	-911
972.229	-1080
972.314	-436
972.399	-322
972.484	-1085
972.569	-689
972.654	-945
972.739	792
972.824	474
972.908	-1291
972.993	-1014
973.078	-652
973.163	-1208
973.247	-621
973.332	-2449
973.417	523
973.501	-1667
973.586	-1068
973.671	-1453
973.755	-1034
973.840	-796
973.924	-418
974.009	-592
974.093	-1315
974.178	803
974.262	395
974.346	-200
974.431	-1387
974.515	-816
974.600	-1183
974.684	-492
974.768	-532
974.852	-265
974.937	-2072
975.021	284
975.105	-797
975.189	-1266
975.273	-723
975.358	-1173
975.442	-1215
975.526	339
975.610	-1937
975.694	-1611
975.778	-213
975.862	-789
975.946	-3329
976.030	-72
976.114	-1305
976.198	-1042
976.281	-1828
976.365	-740
976.449	-1835
976.533	-1478
976.617	-1666
976.700	-1209
976.784	-844
976.868	-1119
976.951	-458
977.035	-1013
977.119	-1399
977.202	-1439
977.286	-903
977.369	-727
977.453	-532
977.536	-1041
977.620	-1566
977.703	-589
977.787	-2102
977.870	-824
977.953	-316
978.037	-1972
978.120	-962
978.203	-846
978.287	-573
978.370	-1167
978.453	-1356
978.536	-1229
978.620	-828
978.703	-396
978.786	-1625
978.869	-1614
978.952	-2432
979.035	32
979.118	-832
979.201	-1189
979.284	-1807
979.367	-1177
979.450	-987
979.533	-994
979.616	-1223
979.699	-961
979.782	-1905
979.865	-655
979.948	-1500
980.030	-1605
980.113	-1187
980.196	-2620
980.279	-1866
980.361	-1595
980.444	-1351
980.526	-851
980.609	-1104
980.692	-529
980.774	-410
980.857	-1460
980.939	-568
981.022	-788
981.104	-1475
981.187	-1744
981.269	-840
981.352	-2058
981.434	-1344
981.516	-945
981.599	-497
981.681	-1083
981.763	-1463
981.846	-741
981.928	-1900
982.010	-1647
982.092	-2017
982.174	129
982.256	-1927
982.339	-764
982.421	-1255
982.503	-303
982.585	-2319
982.667	-879
982.749	-625
982.831	-1081
982.913	-1915
982.995	9
983.077	-1924
983.158	-384
983.240	-1966
983.322	-694
983.404	-1007
983.486	-900
983.568	-526
983.649	-737
983.731	-219
983.813	-277
983.894	-1336
983.976	-1122
984.058	-1206
984.139	-176
984.221	-1900
984.302	-667
984.384	-97
984.465	-275
984.547	-1218
984.628	-1311
984.710	-624
984.791	-1443
984.872	-1557
984.954	-1362
985.035	-587
985.116	-549
985.198	-2031
985.279	87
985.360	-1712
985.441	-1059
985.522	-745
985.604	-1452
985.685	-2799
985.766	-738
985.847	-63
985.928	-2067
986.009	-1434
986.090	-1254
986.171	-763
986.252	-1634
986.333	-645
986.414	-1373
986.495	-1437
986.576	-966
986.656	-2166
986.737	-845
986.818	-1164
986.899	-829
986.980	-981
987.060	-679
987.141	-1609
987.222	-699
987.302	-378
987.383	-471
987.464	-1914
987.544	-114
987.625	-1165
987.705	-369
987.786	-1024
987.866	-210
987.947	-840
988.027	-917
988.108	-1105
988.188	-777
988.268	-685
988.349	-768
988.429	-897
988.509	-1073
988.589	-1124
988.670	-2614
988.750	-126
988.830	-1108
988.910	-842
988.990	-1431
989.070	-1203
989.151	-929
989.231	-1625
989.311	-693
989.391	-1790
989.471	-1262
989.551	-1236
989.631	-556
989.711	-1509
989.791	-1362
989.870	-1073
989.950	186
990.030	-1378
990.110	-948
990.190	-1426
990.269	-773
990.349	-1408
990.429	-868
990.509	-735
990.588	-1973
990.668	-1626
990.747	-768
990.827	-2131
990.907	-1122
990.986	-1378
991.066	95
991.145	-1943
991.225	-542
991.304	-1463
991.383	-1469
991.463	-2239
991.542	-661
991.622	-1283
991.701	-1416
991.780	-2548
991.859	-974
991.939	-1684
992.018	-688
992.097	-1288
992.176	-1217
992.256	-1228
992.335	-1570
992.414	-654
992.493	-1340
992.572	-1980
992.651	-453
992.730	-1834
992.809	-853
992.888	-2177
992.967	-767
993.046	-1526
993.125	-1493
993.203	-1391
993.282	-593
993.361	-816
993.440	-1502
993.519	-2221
993.597	-1644
993.676	-1986
993.755	-369
993.834	-1054
993.912	-2044
993.991	-694
994.069	-1265
994.148	-1529
994.226	-2611
994.305	-1654
994.384	-1466
994.462	-254
994.540	-1858
994.619	-1164
994.697	-976
994.776	-1947
994.854	-957
994.932	-1754
995.011	-1098
995.089	-1655
995.167	-1576
995.245	-574
995.324	-2489
995.402	-668
995.480	-1783
995.558	-1604
995.636	-2365
995.714	-2339
995.792	-998
995.870	-1833
995.948	-1406
996.026	-1531
996.104	-2240
996.182	-1189
996.260	-2109
996.338	-1224
996.416	-3115
996.494	-2143
996.572	-408
996.649	-2164
996.727	-1934
996.805	-1094
996.883	-2141
996.960	-2054
997.038	-1187
997.116	-1854
997.193	-2078
997.271	-1753
997.348	-2264
997.426	-1980
997.504	-1467
997.581	-1142
997.658	-934
997.736	-1697
997.813	-2376
997.891	-965
997.968	-1853
998.046	-2258
998.123	-2261
998.200	-826
998.277	-2061
998.355	-1913
998.432	-3012
998.509	-2256
998.586	-780
998.663	-2172
998.741	-946
998.818	-1847
998.895	-1495
998.972	-2182
999.049	-1471
999.126	-2392
999.203	-1447
999.280	-1774
999.357	-2073
999.434	-2542
999.511	-1849
999.587	-645
999.664	-1663
999.741	-712
999.818	-293
999.895	-1849
999.971	-1674
1000.048	-2466
1000.125	-351
1000.202	-2515
1000.278	-1956
1000.355	-1720
1000.431	-2639
1000.508	-2585
1000.584	-1882
1000.661	-1604
1000.738	-2313
1000.814	-1083
1000.890	-1380
1000.967	-1799
1001.043	-1444
1001.120	-3007
1001.196	-2000
1001.272	-2692
1001.349	-1608
1001.425	-1807
1001.501	-1311
1001.577	-2674
1001.654	-1479
1001.730	-2021
1001.806	-2275
1001.882	-2373
1001.958	-1217
1002.034	-2349
1002.110	-1477
1002.186	-1627
1002.262	-1851
1002.338	-2485
1002.414	-1719
1002.490	-1623
1002.566	-1829
1002.642	-2052
1002.718	-722
1002.794	-2039
1002.870	-1940
1002.945	-2072
1003.021	-1976
1003.097	-2165
1003.173	-870
1003.248	-2070
1003.324	-1889
1003.400	-1004
1003.475	-1946
1003.551	-2136
1003.626	-1929
1003.702	-2346
1003.777	-2243
1003.853	-2214
1003.928	-2453
1004.004	-2560
1004.079	-1453
1004.155	-2420
1004.230	-2307
1004.305	-1849
1004.381	-1682
1004.456	-1494
1004.531	-1687
1004.607	-1960
1004.682	-1980
1004.757	-1761
1004.832	-2343
1004.907	-2540
1004.982	-1823
1005.057	-2196
1005.133	-1471
1005.208	-1645
1005.283	-1720
1005.358	-1740
1005.433	-2328
1005.508	-2253
1005.583	-2388
1005.657	-2227
1005.732	-978
1005.807	-2239
1005.882	-1558
1005.957	-2230
1006.032	-1713
1006.106	-1551
1006.181	-2227
1006.256	-1738
1006.331	-2611
1006.405	-2198
1006.480	-1756
1006.554	-1604
1006.629	-2047
1006.704	-1865
1006.778	-2054
1006.853	-2058
1006.927	-2803
1007.002	-2171
1007.076	-2276
1007.150	-1925
1007.225	-1751
1007.299	-1493
1007.373	-1878
1007.448	-2599
1007.522	-906
1007.596	-2216
1007.671	-2621
1007.745	-1295
1007.819	-2418
1007.893	-1999
1007.967	-1951
1008.041	-2867
1008.115	-1903
1008.190	-2899
1008.264	-2040
1008.338	-2921
1008.412	-3011
1008.486	-2117
1008.560	-1961
1008.633	-2567
1008.707	-2445
1008.781	-1146
1008.855	-2447
1008.929	-2325
1009.003	-2320
1009.076	-2104
1009.150	-1778
1009.224	-1494
1009.298	-1429
1009.371	-2823
1009.445	-1547
1009.519	-1956
1009.592	-2789
1009.666	-2169
1009.739	-1945
1009.813	-2910
1009.886	-1372
1009.960	-2862
1010.033	-1715
1010.107	-1809
1010.180	-2773
1010.253	-2164
1010.327	-2313
1010.400	-2347
1010.473	-2195
1010.547	-1430
1010.620	-2449
1010.693	-1187
1010.766	-2220
1010.840	-2082
1010.913	-1898
1010.986	-3287
1011.059	-2448
1011.132	-2611
1011.205	-2069
1011.278	-2250
1011.351	-2150
1011.424	-2127
1011.497	-2384
1011.570	-2137
1011.643	-2158
1011.716	-2553
1011.789	-2262
1011.862	-1851
1011.934	-1375
1012.007	-2650
1012.080	-1574
1012.153	-2087
1012.225	-1419
1012.298	-2920
1012.371	-2357
1012.443	-1863
1012.516	-2812
1012.588	-1475
1012.661	-2263
1012.733	-2809
1012.806	-1539
1012.879	-2422
1012.951	-2172
1013.023	-2504
1013.096	-1315
1013.168	-2573
1013.241	-1580
1013.313	-2715
1013.385	-2132
1013.458	-2769
1013.530	-1907
1013.602	-3342
1013.674	-1516
1013.746	-2290
1013.819	-2168
1013.891	-1752
1013.963	-1731
1014.035	-2796
1014.107	-1975
1014.179	-1960
1014.251	-1827
1014.323	-2037
1014.395	-2379
1014.467	-2327
1014.539	-1910
1014.611	-2317
1014.683	-2042
1014.754	-2475
1014.826	-1935
1014.898	-2084
1014.970	-3264
1015.042	-2181
1015.113	-1917
1015.185	-1920
1015.257	-3184
1015.328	-2303
1015.400	-2297
1015.471	-1602
1015.543	-3316
1015.615	-1468
1015.686	-2816
1015.757	-3207
1015.829	-1700
1015.901	-2758
1015.972	-1636
1016.043	-3000
1016.115	-2182
1016.186	-2220
1016.257	-2718
1016.328	-2335
1016.400	-1747
1016.471	-2912
1016.542	-1542
1016.613	-1302
1016.685	-2072
1016.756	-2174
1016.827	-2124
1016.898	-2704
1016.969	-1550
1017.040	-2532
1017.111	-2290
1017.182	-2543
1017.253	-1887
1017.324	-3145
1017.395	-1629
1017.466	-1840
1017.537	-2494
1017.608	-1776
1017.678	-2309
1017.749	-2920
1017.820	-1909
1017.891	-1807
1017.961	-2174
1018.032	-2324
1018.103	-2332
1018.173	-2455
1018.244	-2571
1018.315	-2688
1018.385	-2099
1018.456	-1720
1018.526	-1865
1018.597	-2748
1018.667	-1543
1018.738	-2445
1018.808	-2512
1018.878	-2661
1018.949	-2007
1019.019	-2001
1019.089	-1972
1019.160	-2047
1019.230	-2868
1019.300	-2158
1019.371	-2680
1019.441	-2298
1019.511	-1577
1019.581	-2893
1019.651	-1580
1019.721	-2141
1019.791	-2222
1019.861	-2026
1019.931	-1433
1020.001	-2367
1020.071	-2138
1020.141	-3139
1020.211	-2408
1020.281	-1870
1020.351	-2933
1020.421	-2636
1020.491	-1527
1020.560	-2503
1020.630	-2832
1020.700	-2314
1020.770	-2662
1020.839	-2402
1020.909	-1674
1020.979	-2544
1021.048	-1862
1021.118	-2309
1021.187	-2791
1021.257	-1870
1021.326	-2196
1021.396	-2504
1021.465	-2149
1021.535	-2235
1021.604	-2821
1021.674	-2550
1021.743	-2550
1021.812	-2736
1021.882	-2647
1021.951	-2496
1022.020	-2476
1022.089	-2246
1022.159	-2291
1022.228	-1813
1022.297	-3026
1022.366	-2738
1022.435	-2557
1022.504	-2128
1022.573	-3117
1022.642	-2711
1022.711	-1810
1022.781	-2468
1022.849	-1824
1022.918	-2941
1022.987	-2032
1023.056	-2131
1023.125	-2402
1023.194	-2681
1023.263	-2148
1023.331	-2183
1023.400	-3376
1023.469	-2228
1023.538	-1681
1023.606	-3509
1023.675	-1824
1023.744	-2595
1023.812	-2409
1023.881	-2725
1023.949	-2159
1024.018	-2370
1024.086	-2434
1024.155	-2952
1024.223	-2063
1024.292	-2533
1024.360	-1752
1024.429	-2047
1024.497	-2595
1024.565	-2385
1024.634	-2328
1024.702	-2069
1024.770	-1868
1024.838	-2087
1024.907	-1924
1024.975	-2244
1025.043	-2111
1025.111	-2497
1025.179	-2285
1025.247	-2248
1025.315	-1757
1025.383	-2231
1025.451	-3343
1025.519	-2449
1025.587	-2496
1025.655	-1665
1025.723	-2422
1025.791	-3333
1025.859	-1511
1025.927	-2180
1025.995	-2639
1026.062	-2505
1026.130	-1926
1026.198	-3174
1026.266	-2390
1026.333	-2089
1026.401	-1500
1026.469	-3042
1026.536	-1523
1026.604	-2475
1026.671	-2482
1026.739	-2427
1026.806	-2849
1026.874	-2468
1026.941	-2458
1027.009	-1906
1027.076	-2012
1027.144	-2458
1027.211	-2476
1027.278	-2443
1027.345	-2581
1027.413	-2338
1027.480	-2783
1027.547	-2564
1027.614	-2969
1027.682	-2867
1027.749	-2472
1027.816	-2671
1027.883	-2435
1027.950	-2500
1028.017	-2595
1028.084	-1961
1028.151	-2653
1028.218	-2358
1028.285	-2041
1028.352	-2910
1028.419	-2634
1028.486	-1853
1028.553	-1731
1028.619	-3042
1028.686	-1791
1028.753	-2451
1028.820	-2816
1028.886	-2724
1028.953	-2641
1029.020	-2327
1029.086	-2264
1029.153	-2564
1029.220	-1803
1029.286	-1924
1029.353	-2457
1029.419	-2994
1029.486	-2601
1029.552	-2708
1029.619	-2404
1029.685	-2589
1029.751	-2475
1029.818	-1901
1029.884	-3011
1029.951	-1318
1030.017	-2320
1030.083	-1642
1030.149	-2079
1030.216	-2706
1030.282	-1779
1030.348	-3057
1030.414	-2477
1030.480	-2283
1030.546	-2689
1030.612	-1837
1030.678	-2781
1030.744	-3088
1030.810	-2748
1030.876	-2269
1030.942	-2154
1031.008	-3467
1031.074	-2189
1031.140	-2282
1031.206	-1880
1031.272	-2881
1031.337	-2255
1031.403	-1523
1031.469	-2462
1031.534	-2653
1031.600	-2060
1031.666	-1972
1031.731	-2802
1031.797	-1904
1031.863	-2496
1031.928	-2436
1031.994	-2359
1032.059	-2452
1032.125	-2743
1032.190	-2215
1032.256	-2622
1032.321	-2490
1032.386	-2381
1032.452	-2499
1032.517	-2597
1032.582	-2638
1032.647	-2060
1032.713	-2482
1032.778	-2582
1032.843	-2393
1032.908	-2302
1032.974	-2726
1033.039	-2306
1033.104	-2126
1033.169	-2750
1033.234	-1894
1033.299	-2355
1033.364	-2722
1033.429	-2316
1033.494	-2430
1033.559	-2468
1033.624	-3478
1033.688	-1659
1033.753	-2953
1033.818	-1737
1033.883	-3037
1033.948	-2672
1034.013	-2035
1034.077	-1224
1034.142	-2827
1034.207	-1825
1034.271	-1385
1034.336	-309
1034.400	-1566
1034.465	-1774
1034.530	-2816
1034.594	-2327
1034.658	-2628
1034.723	-2556
1034.787	-2340
1034.852	-2031
1034.916	-2675
1034.981	-2941
1035.045	-2362
1035.109	-2288
1035.173	-2445
1035.238	-2226
1035.302	-2452
1035.366	-1886
1035.430	-2068
1035.495	-2362
1035.559	-3431
1035.623	-2779
1035.687	-1913
1035.751	-1907
1035.815	-2317
1035.879	-2238
1035.943	-2607
1036.007	-2626
1036.071	-2474
1036.135	-1659
1036.198	-2201
1036.262	-2218
1036.326	-3015
1036.390	-2024
1036.454	-2391
1036.517	-2256
1036.581	-2214
1036.645	-1983
1036.709	-2620
1036.772	-2962
1036.836	-3206
1036.900	-2701
1036.963	-1759
1037.026	-2404
1037.090	-3075
1037.154	-2623
1037.217	-1762
1037.280	-3298
1037.344	-2368
1037.407	-2294
1037.471	-2068
1037.534	-1999
1037.597	-2063
1037.661	-1991
1037.724	-2436
1037.787	-2430
1037.850	-2911
1037.913	-2786
1037.977	-1642
1038.040	-2015
1038.103	-1994
1038.166	-2647
1038.229	-2457
1038.292	-2772
1038.355	-2063
1038.418	-2891
1038.481	-2666
1038.544	-2123
1038.607	-2328
1038.670	-1634
1038.732	-2309
1038.795	-2749
1038.858	-2636
1038.921	-2114
1038.984	-2341
1039.046	-1818
1039.109	-2697
1039.172	-2496
1039.234	-3142
1039.297	-2335
1039.360	-2980
1039.422	-2399
1039.485	-2728
1039.547	-1982
1039.610	-2738
1039.672	-2531
1039.734	-2660
1039.797	-2217
1039.859	-2690
1039.922	-2391
1039.984	-1871
1040.046	-2465
1040.109	-2494
1040.171	-2582
1040.233	-2244
1040.295	-2514
1040.358	-2292
1040.420	-1993
1040.482	-1993
1040.544	-2014
1040.606	-2612
1040.668	-2471
1040.730	-2556
1040.792	-2878
1040.854	-2759
1040.916	-735
1040.978	-2191
1041.040	-1372
1041.102	-1298
1041.164	-1698
1041.225	-2039
1041.287	-2914
1041.349	-2300
1041.411	-2422
1041.472	-2489
1041.534	-2004
1041.596	-1967
1041.657	-2509
1041.719	-1774
1041.781	-2412
1041.842	-2149
1041.904	-2865
1041.965	-2031
1042.027	-2547
1042.088	-2152
1042.150	-2189
1042.211	-2456
1042.272	-1932
1042.334	-1841
1042.395	-2034
1042.456	-2565
1042.518	-1982
1042.579	-2127
1042.640	-1575
1042.701	-2704
1042.763	-1460
1042.824	-2515
1042.885	-2149
1042.946	-2245
1043.007	-2289
1043.068	-1876
1043.129	-2426
1043.190	-2404
1043.251	-1102
1043.312	-2701
1043.373	-1229
1043.434	-2465
1043.495	-2401
1043.556	-1687
1043.616	-1415
1043.677	-2006
1043.738	-1463
1043.799	-3077
1043.859	-2260
1043.920	-2427
1043.981	-1285
1044.041	-2526
1044.102	-2452
1044.162	-2738
1044.223	-2474
1044.284	-1799
1044.344	-2195
1044.405	-1611
1044.465	-1590
1044.525	-2313
1044.586	-2061
1044.646	-1645
1044.707	-764
1044.767	-1543
1044.827	-1977
1044.887	-2554
1044.948	-837
1045.008	-2017
1045.068	-2285
1045.128	-2018
1045.188	-1967
1045.249	-2028
1045.309	-1877
1045.369	-2156
1045.429	-1884
1045.489	-1477
1045.549	-1985
1045.609	-1553
1045.669	-2078
1045.729	-2619
1045.789	-1442
1045.848	-2510
1045.908	-1059
1045.968	-1601
1046.028	-1682
1046.088	-2190
1046.147	-319
1046.207	-1572
1046.267	-1769
1046.326	-1904
1046.386	-1444
1046.446	-1691
1046.505	-541
1046.565	-1179
1046.624	-744
1046.684	-1643
1046.743	-665
1046.803	-586
1046.862	-538
1046.922	0
