'Start Wavelength	183.907
'End Wavelength	1046.922
'Gate Delay	5.000
'Gate Width (ms)	1.050
'Laser Output Level	0.000
'X Position	0.000
'Y Position	0.000
'Z Position	0.000
'Grid Point Number	1.000
'Shot Number	100.000
183.907	583.000
183.977	511.000
184.047	662
184.116	-399
184.186	29
184.256	984
184.325	-60
184.395	-749
184.465	293
184.534	183
184.604	-100
184.674	339
184.743	-111
184.813	478
184.883	683
184.952	232
185.022	294
185.092	656
185.161	-304
185.231	300
185.301	407
185.370	803
185.440	219
185.509	162
185.579	421
185.649	653
185.718	65
185.788	1411
185.857	-374
185.927	61
185.996	96
186.066	884
186.136	-62
186.205	257
186.275	403
186.344	163
186.414	731
186.483	342
186.553	1163
186.622	1316
186.692	255
186.761	-13
186.831	636
186.900	-598
186.970	580
187.039	542
187.109	997
187.178	1119
187.248	736
187.317	767
187.387	166
187.456	791
187.526	688
187.595	329
187.664	-140
187.734	638
187.803	872
187.873	504
187.942	855
188.012	284
188.081	167
188.150	430
188.220	192
188.289	1173
188.358	371
188.428	1692
188.497	-356
188.567	899
188.636	900
188.705	588
188.775	193
188.844	-65
188.913	1272
188.983	1068
189.052	568
189.121	694
189.191	748
189.260	1283
189.329	948
189.399	-209
189.468	304
189.537	657
189.606	424
189.676	1028
189.745	425
189.814	1463
189.883	610
189.953	873
190.022	808
190.091	1909
190.161	3067
190.230	1869
190.299	381
190.368	560
190.437	149
190.507	622
190.576	588
190.645	355
190.714	331
190.783	570
190.853	1301
190.922	1042
190.991	466
191.060	1624
191.129	752
191.198	1289
191.268	1047
191.337	780
191.406	907
191.475	829
191.544	550
191.613	1002
191.682	375
191.752	872
191.821	601
191.890	938
191.959	709
192.028	1262
192.097	1135
192.166	1081
192.235	280
192.304	1323
192.373	513
192.442	932
192.511	-171
192.580	370
192.650	339
192.719	1126
192.788	1256
192.857	1099
192.926	317
192.995	871
193.064	1243
193.133	1554
193.202	1859
193.271	1937
193.340	1732
193.409	2212
193.478	2850
193.547	2498
193.615	2800
193.684	3237
193.753	2067
193.822	2455
193.891	1555
193.960	1637
194.029	767
194.098	1756
194.167	764
194.236	1812
194.305	753
194.374	1197
194.443	538
194.512	1338
194.580	683
194.649	1680
194.718	2309
194.787	909
194.856	83
194.925	1392
194.994	650
195.062	1447
195.131	1087
195.200	1366
195.269	2452
195.338	1060
195.407	1281
195.475	725
195.544	1643
195.613	2042
195.682	850
195.751	2658
195.819	1548
195.888	1722
195.957	2105
196.026	1508
196.094	2445
196.163	2415
196.232	2346
196.301	2147
196.369	1406
196.438	2136
196.507	636
196.576	1441
196.644	664
196.713	1597
196.782	932
196.850	952
196.919	598
196.988	1790
197.056	588
197.125	1398
197.194	1310
197.262	816
197.331	1155
197.400	1273
197.468	1466
197.537	881
197.606	1132
197.674	1837
197.743	3529
197.812	2003
197.880	2856
197.949	2349
198.017	3088
198.086	2642
198.155	1407
198.223	2064
198.292	3122
198.360	1255
198.429	1410
198.497	1637
198.566	1907
198.635	3791
198.703	2113
198.772	2713
198.840	2798
198.909	4210
198.977	1861
199.046	1535
199.114	1684
199.183	1906
199.251	1149
199.320	1436
199.388	1862
199.457	1277
199.525	1658
199.594	1893
199.662	1867
199.731	1979
199.799	1581
199.867	1613
199.936	1519
200.004	2004
200.073	1607
200.141	1722
200.210	1317
200.278	1737
200.346	802
200.415	2786
200.483	1961
200.552	1500
200.620	1409
200.688	1954
200.757	1469
200.825	1735
200.893	823
200.962	2031
201.030	1021
201.098	1518
201.167	2015
201.235	1494
201.303	1919
201.372	2717
201.440	2479
201.508	2900
201.577	2305
201.645	2328
201.713	1286
201.781	1567
201.850	3217
201.918	1618
201.986	1269
202.055	2137
202.123	1906
202.191	2782
202.259	1020
202.327	1947
202.396	1778
202.464	2069
202.532	2053
202.600	6896
202.669	4893
202.737	2030
202.805	1570
202.873	1923
202.941	1934
203.009	2108
203.078	865
203.146	1130
203.214	1491
203.282	1665
203.350	2538
203.418	1477
203.487	1869
203.555	1169
203.623	1731
203.691	2238
203.759	1984
203.827	1344
203.895	1809
203.963	2336
204.031	1395
204.099	2399
204.168	1473
204.236	1860
204.304	2505
204.372	1709
204.440	2271
204.508	1385
204.576	1283
204.644	2197
204.712	1196
204.780	2213
204.848	2471
204.916	2029
204.984	2159
205.052	1870
205.120	1713
205.188	1572
205.256	1132
205.324	2276
205.392	1552
205.460	3119
205.528	1310
205.596	2123
205.664	1474
205.732	2688
205.799	4015
205.867	6983
205.935	2858
206.003	2385
206.071	1879
206.139	1547
206.207	2148
206.275	2657
206.343	1785
206.411	2410
206.478	2533
206.546	1922
206.614	1855
206.682	1694
206.750	2231
206.818	3072
206.885	2501
206.953	1624
207.021	2231
207.089	2210
207.157	1514
207.225	2821
207.292	1585
207.360	2194
207.428	2043
207.496	2021
207.563	2175
207.631	2220
207.699	1566
207.767	2073
207.834	2011
207.902	2645
207.970	2259
208.038	2400
208.105	2236
208.173	2888
208.241	2836
208.309	3560
208.376	3282
208.444	5486
208.512	3062
208.579	1548
208.647	2185
208.715	3905
208.782	2994
208.850	2631
208.918	2757
208.985	2851
209.053	3122
209.120	3466
209.188	1474
209.256	2347
209.323	2082
209.391	3218
209.459	3633
209.526	2012
209.594	2262
209.661	2036
209.729	2347
209.796	3085
209.864	2763
209.932	847
209.999	3813
210.067	3149
210.134	2192
210.202	3260
210.269	4319
210.337	3457
210.404	2371
210.472	2976
210.539	2254
210.607	3336
210.674	3998
210.742	3062
210.809	3145
210.877	3653
210.944	4265
211.012	3785
211.079	4101
211.146	3370
211.214	2272
211.281	3476
211.349	3836
211.416	3727
211.484	3293
211.551	3757
211.618	3362
211.686	2460
211.753	1757
211.821	3168
211.888	2464
211.955	3282
212.023	2910
212.090	2876
212.157	3277
212.225	3951
212.292	5808
212.359	9850
212.427	17904
212.494	10997
212.561	4769
212.629	4442
212.696	3138
212.763	4276
212.831	3419
212.898	3644
212.965	2842
213.032	3266
213.100	3832
213.167	4102
213.234	4391
213.301	3927
213.369	2967
213.436	3080
213.503	3541
213.570	3773
213.638	3956
213.705	3184
213.772	2847
213.839	4142
213.906	4812
213.973	4936
214.041	3432
214.108	3673
214.175	4332
214.242	3914
214.309	2994
214.376	3795
214.444	3137
214.511	4554
214.578	3627
214.645	4221
214.712	4022
214.779	4160
214.846	3442
214.913	4884
214.980	5149
215.048	4595
215.115	5303
215.182	5322
215.249	5149
215.316	3657
215.383	3159
215.450	3612
215.517	3791
215.584	4430
215.651	3419
215.718	2889
215.785	4314
215.852	4496
215.919	5266
215.986	5231
216.053	4279
216.120	2861
216.187	3711
216.254	4680
216.321	3842
216.388	4143
216.455	4776
216.522	4630
216.589	6444
216.656	8522
216.722	8401
216.789	5779
216.856	6238
216.923	5748
216.990	4851
217.057	5288
217.124	6444
217.191	5561
217.258	6479
217.324	7392
217.391	7330
217.458	6328
217.525	5468
217.592	4488
217.659	4165
217.725	5638
217.792	6368
217.859	6345
217.926	3823
217.993	4193
218.059	3896
218.126	3399
218.193	3778
218.260	4070
218.327	3321
218.393	3120
218.460	3375
218.527	3167
218.594	3621
218.660	6591
218.727	6986
218.794	2777
218.860	3408
218.927	3250
218.994	3201
219.061	3149
219.127	4328
219.194	5981
219.261	3625
219.327	3069
219.394	2696
219.461	2268
219.527	2486
219.594	4081
219.661	3452
219.727	2777
219.794	4009
219.860	2679
219.927	3390
219.994	5557
220.060	8292
220.127	6913
220.193	4942
220.260	4869
220.326	7068
220.393	9177
220.460	11435
220.526	8474
220.593	6093
220.659	6887
220.726	6089
220.792	12544
220.859	12032
220.925	14338
220.992	17550
221.058	16846
221.125	15547
221.191	13330
221.258	6287
221.324	5602
221.391	4486
221.457	4375
221.524	4342
221.590	6384
221.657	13148
221.723	10340
221.789	9024
221.856	8332
221.922	4665
221.989	4871
222.055	3477
222.121	2509
222.188	5912
222.254	3746
222.321	3278
222.387	2588
222.453	3045
222.520	3335
222.586	3574
222.652	3843
222.719	2788
222.785	3980
222.851	2735
222.918	3371
222.984	3977
223.050	4673
223.116	1736
223.183	4065
223.249	1563
223.315	1813
223.382	2548
223.448	3518
223.514	1718
223.580	3013
223.647	2632
223.713	2446
223.779	3242
223.845	3417
223.911	3500
223.978	2468
224.044	2623
224.110	2079
224.176	2210
224.242	3313
224.309	2021
224.375	2474
224.441	2436
224.507	2247
224.573	2518
224.639	3307
224.705	1931
224.772	2372
224.838	1858
224.904	4096
224.970	2574
225.036	2464
225.102	3373
225.168	3019
225.234	2992
225.300	2318
225.366	2791
225.432	2795
225.499	2893
225.565	2640
225.631	3291
225.697	3487
225.763	4807
225.829	5097
225.895	4494
225.961	7713
226.027	6253
226.093	5624
226.159	7051
226.225	9863
226.291	18786
226.357	27642
226.423	18063
226.489	11457
226.554	8028
226.620	7566
226.686	9863
226.752	14438
226.818	19105
226.884	33920
226.950	31018
227.016	16046
227.082	9971
227.148	8651
227.214	8344
227.279	7425
227.345	5982
227.411	6111
227.477	5723
227.543	9317
227.609	10413
227.674	6121
227.740	5635
227.806	5240
227.872	4289
227.938	4740
228.003	7393
228.069	4616
228.135	2365
228.201	3961
228.267	3488
228.332	4366
228.398	5239
228.464	4422
228.530	2774
228.595	3306
228.661	3377
228.727	5671
228.792	6438
228.858	4428
228.924	4155
228.990	6442
229.055	4735
229.121	7103
229.187	3893
229.252	4018
229.318	3345
229.384	4438
229.449	5208
229.515	2532
229.581	2328
229.646	5079
229.712	4411
229.777	8770
229.843	9103
229.909	6811
229.974	7699
230.040	7254
230.105	5384
230.171	6104
230.236	6445
230.302	9312
230.368	8797
230.433	4879
230.499	5030
230.564	6073
230.630	4182
230.695	4634
230.761	5175
230.826	2610
230.892	7175
230.957	4718
231.023	3243
231.088	4610
231.154	4558
231.219	5293
231.284	5261
231.350	6585
231.415	4070
231.481	4548
231.546	2932
231.612	4524
231.677	2762
231.742	1991
231.808	5380
231.873	2975
231.939	2011
232.004	6789
232.069	8246
232.135	4791
232.200	3219
232.265	4625
232.331	2628
232.396	2558
232.461	3108
232.527	3386
232.592	3481
232.657	3211
232.723	5946
232.788	5636
232.853	4550
232.918	2992
232.984	3048
233.049	3061
233.114	4863
233.179	5744
233.245	6947
233.310	9932
233.375	3967
233.440	4740
233.506	2868
233.571	3201
233.636	3505
233.701	4264
233.766	5994
233.832	8712
233.897	4890
233.962	4987
234.027	6952
234.092	5432
234.157	4953
234.222	5316
234.288	6822
234.353	17221
234.418	16459
234.483	11590
234.548	8902
234.613	7429
234.678	7053
234.743	6152
234.808	18364
234.873	12854
234.938	8009
235.004	5639
235.069	6028
235.134	4927
235.199	5350
235.264	4990
235.329	3633
235.394	5726
235.459	6805
235.524	5551
235.589	5365
235.654	4931
235.719	4087
235.784	5695
235.849	4508
235.913	10725
235.978	10444
236.043	12941
236.108	7480
236.173	6127
236.238	6576
236.303	4600
236.368	5264
236.433	7646
236.498	13275
236.563	9969
236.627	15794
236.692	43727
236.757	40167
236.822	18975
236.887	15322
236.952	11901
237.017	9120
237.081	11511
237.146	12621
237.211	24069
237.276	44308
237.341	68387
237.405	40186
237.470	18996
237.535	14256
237.600	10992
237.664	8850
237.729	6325
237.794	8446
237.859	15389
237.923	12590
237.988	7994
238.053	10695
238.118	11139
238.182	21037
238.247	21652
238.312	11402
238.376	9991
238.441	7410
238.506	7738
238.570	4693
238.635	5852
238.700	4962
238.764	5471
238.829	10502
238.893	13835
238.958	7748
239.023	7883
239.087	5989
239.152	6324
239.216	4689
239.281	4796
239.346	5618
239.410	5133
239.475	6015
239.539	20482
239.604	17736
239.668	8334
239.733	5234
239.797	7621
239.862	14211
239.926	19823
239.991	8945
240.055	6031
240.120	5119
240.184	6047
240.249	4277
240.313	4904
240.378	5616
240.442	12838
240.507	21207
240.571	9153
240.635	8937
240.700	14906
240.764	7529
240.829	5687
240.893	3210
240.957	5211
241.022	12228
241.086	22040
241.151	11857
241.215	5652
241.279	7250
241.344	11728
241.408	8173
241.472	6475
241.537	7529
241.601	7057
241.665	5303
241.730	6168
241.794	6600
241.858	6610
241.922	6216
241.987	6432
242.051	4554
242.115	5122
242.179	6123
242.244	5033
242.308	6699
242.372	6885
242.436	7172
242.501	6731
242.565	5459
242.629	5067
242.693	6619
242.757	4632
242.822	4746
242.886	6708
242.950	6066
243.014	6279
243.078	7805
243.142	8256
243.206	5928
243.271	7546
243.335	6549
243.399	10079
243.463	24967
243.527	61741
243.591	24452
243.655	12304
243.719	8406
243.783	9255
243.847	12566
243.911	15925
243.975	20583
244.040	16634
244.104	9075
244.168	6688
244.232	11436
244.296	15596
244.360	14781
244.424	10102
244.488	7410
244.552	7105
244.615	4682
244.679	6072
244.743	7100
244.807	9126
244.871	5610
244.935	6307
244.999	4116
245.063	5810
245.127	7852
245.191	11082
245.255	10989
245.319	9758
245.383	8937
245.446	9179
245.510	5873
245.574	7922
245.638	7511
245.702	5860
245.766	16166
245.829	11291
245.893	7245
245.957	7031
246.021	8411
246.085	8667
246.149	10250
246.212	21795
246.276	30879
246.340	16538
246.404	12445
246.467	11489
246.531	15900
246.595	12223
246.659	10808
246.722	9679
246.786	13284
246.850	12153
246.913	15164
246.977	8104
247.041	8107
247.104	9862
247.168	8703
247.232	20679
247.295	39300
247.359	22034
247.423	11277
247.486	18299
247.550	14052
247.614	10357
247.677	15611
247.741	10509
247.804	7461
247.868	10239
247.932	19077
247.995	40003
248.059	17390
248.122	10818
248.186	13106
248.249	22010
248.313	55844
248.376	62805
248.440	44439
248.503	20243
248.567	16702
248.630	21809
248.694	29333
248.757	35448
248.821	62919
248.884	45716
248.948	39009
249.011	53495
249.075	72487
249.138	65686
249.202	32041
249.265	20181
249.328	23079
249.392	17971
249.455	15566
249.519	12126
249.582	15116
249.645	22029
249.709	16731
249.772	12758
249.835	12780
249.899	13970
249.962	12392
250.025	11395
250.089	25141
250.152	38425
250.215	21091
250.279	15270
250.342	14048
250.405	13683
250.468	12344
250.532	16334
250.595	24073
250.658	60541
250.721	97394
250.785	43189
250.848	25888
250.911	17006
250.974	14572
251.038	20866
251.101	40418
251.164	24149
251.227	23372
251.290	21972
251.354	27945
251.417	80248
251.480	88546
251.543	63142
251.606	136817
251.669	116638
251.732	53820
251.795	55817
251.859	54675
251.922	95119
251.985	64747
252.048	29504
252.111	22547
252.174	23463
252.237	37816
252.300	74869
252.363	76672
252.426	121663
252.489	63245
252.552	36568
252.615	25407
252.678	27859
252.741	56887
252.804	68021
252.867	125349
252.930	91096
252.993	52614
253.056	33243
253.119	25769
253.182	20157
253.245	30542
253.308	26832
253.371	26159
253.434	26120
253.497	22639
253.559	38391
253.622	31301
253.685	38741
253.748	44136
253.811	22142
253.874	24263
253.937	24615
254.000	18925
254.062	29023
254.125	43596
254.188	37899
254.251	34303
254.314	18342
254.376	30212
254.439	35941
254.502	33194
254.565	30988
254.628	51350
254.690	37072
254.753	22119
254.816	18157
254.878	19232
254.941	29407
255.004	30830
255.067	16035
255.129	18290
255.192	10758
255.255	9787
255.317	12950
255.380	9242
255.443	7155
255.505	8040
255.568	7235
255.631	7845
255.693	9927
255.756	6732
255.819	8119
255.881	6109
255.944	7287
256.006	6452
256.069	6925
256.132	6556
256.194	10196
256.257	22485
256.319	16711
256.382	15462
256.444	10630
256.507	8928
256.569	8071
256.632	9485
256.694	13445
256.757	26387
256.819	74709
256.882	36163
256.944	17688
257.007	14819
257.069	16878
257.132	10702
257.194	10215
257.257	9267
257.319	9508
257.381	10566
257.444	22419
257.506	79866
257.569	101267
257.631	56775
257.693	32414
257.756	16515
257.818	15744
257.880	10168
257.943	10016
258.005	8640
258.067	7926
258.130	8527
258.192	11763
258.254	23027
258.317	14194
258.379	10531
258.441	20724
258.503	21705
258.566	23377
258.628	31884
258.690	10623
258.753	11196
258.815	22825
258.877	14441
258.939	9506
259.001	9477
259.064	8429
259.126	9497
259.188	14286
259.250	10151
259.312	11934
259.375	25481
259.437	20963
259.499	10154
259.561	9172
259.623	8948
259.685	8834
259.747	9003
259.809	21956
259.872	41526
259.934	56839
259.996	58235
260.058	18697
260.120	9300
260.182	8602
260.244	7477
260.306	7401
260.368	8263
260.430	7853
260.492	15018
260.554	27290
260.616	21491
260.678	32392
260.740	44216
260.802	15819
260.864	12187
260.926	10666
260.988	10892
261.050	10267
261.112	19934
261.174	44233
261.236	35917
261.298	14143
261.359	20268
261.421	29344
261.483	10754
261.545	10742
261.607	6337
261.669	8846
261.731	14892
261.793	34335
261.854	18790
261.916	12260
261.978	9195
262.040	11091
262.102	9017
262.164	13615
262.225	11852
262.287	8183
262.349	20678
262.411	16975
262.472	9041
262.534	14104
262.596	28847
262.658	11442
262.719	8102
262.781	10870
262.843	26668
262.904	13761
262.966	10344
263.028	13399
263.090	42197
263.151	107667
263.213	41769
263.275	26313
263.336	13647
263.398	10318
263.459	8286
263.521	8505
263.583	19444
263.644	15307
263.706	8004
263.767	5242
263.829	5703
263.891	5005
263.952	4763
264.014	4602
264.075	8289
264.137	21454
264.198	13909
264.260	6640
264.321	5181
264.383	14222
264.444	34877
264.506	12294
264.567	7967
264.629	13187
264.690	26751
264.752	13108
264.813	9610
264.875	6961
264.936	6929
264.998	6022
265.059	4954
265.120	7211
265.182	10983
265.243	38322
265.305	44276
265.366	14132
265.427	8415
265.489	7506
265.550	5142
265.611	8452
265.673	7878
265.734	7502
265.795	5484
265.857	5306
265.918	6482
265.979	13749
266.040	59698
266.102	58720
266.163	18802
266.224	17311
266.286	10638
266.347	7473
266.408	8272
266.469	9267
266.530	8242
266.592	6629
266.653	14220
266.714	24102
266.775	9092
266.836	7161
266.898	6551
266.959	10462
267.020	8597
267.081	7763
267.142	6207
267.203	5961
267.264	6355
267.326	7908
267.387	6949
267.448	5651
267.509	6134
267.570	6556
267.631	5909
267.692	4926
267.753	6356
267.814	5394
267.875	11410
267.936	25030
267.997	14776
268.058	13475
268.119	8616
268.180	8960
268.241	6884
268.302	5853
268.363	5953
268.424	7981
268.485	7194
268.546	5579
268.607	4971
268.668	4254
268.729	4223
268.790	6189
268.851	6983
268.912	16950
268.972	21683
269.033	13785
269.094	6609
269.155	5826
269.216	5465
269.277	7065
269.338	5287
269.398	6760
269.459	8281
269.520	12097
269.581	15748
269.642	18388
269.702	13252
269.763	9280
269.824	7656
269.885	9823
269.945	15703
270.006	7677
270.067	4617
270.128	5173
270.188	5280
270.249	5670
270.310	4491
270.370	6485
270.431	5114
270.492	4622
270.553	5781
270.613	14779
270.674	26822
270.734	12538
270.795	7875
270.856	10985
270.916	11151
270.977	7164
271.038	7836
271.098	10943
271.159	13177
271.219	15172
271.280	7312
271.340	6062
271.401	8289
271.462	17713
271.522	12184
271.583	8416
271.643	8445
271.704	7326
271.764	10253
271.825	22020
271.885	60083
271.946	83114
272.006	32537
272.066	38484
272.127	63469
272.187	23206
272.248	14542
272.308	14884
272.369	40340
272.429	27139
272.489	22032
272.550	24319
272.610	23126
272.671	20236
272.731	15056
272.791	24448
272.852	16757
272.912	15162
272.972	9859
273.033	8713
273.093	14158
273.153	14880
273.214	9632
273.274	12448
273.334	30936
273.394	62020
273.455	32530
273.515	28210
273.575	54997
273.635	27862
273.696	32755
273.756	61300
273.816	30793
273.876	18478
273.936	27308
273.997	48847
274.057	17778
274.117	14581
274.177	20026
274.237	69139
274.297	64540
274.358	45591
274.418	47737
274.478	39942
274.538	18786
274.598	15007
274.658	38565
274.718	50465
274.778	23291
274.838	15093
274.898	23184
274.958	66485
275.018	60756
275.078	42448
275.138	20648
275.198	12304
275.258	9869
275.318	12383
275.378	23353
275.438	25956
275.498	17254
275.558	29662
275.618	62290
275.678	42652
275.738	29205
275.798	23789
275.858	13572
275.918	8769
275.978	11014
276.038	11000
276.098	8915
276.157	16573
276.217	46358
276.277	24007
276.337	18550
276.397	11703
276.457	13166
276.517	10187
276.576	7240
276.636	7808
276.696	14932
276.756	28576
276.815	23778
276.875	12146
276.935	13693
276.995	13151
277.055	8342
277.114	8498
277.174	11351
277.234	34489
277.293	19120
277.353	11991
277.413	8667
277.472	10542
277.532	10963
277.592	12671
277.651	32492
277.711	61370
277.771	23630
277.830	67252
277.890	62056
277.950	42577
278.009	104210
278.069	48397
278.128	44527
278.188	67379
278.248	33410
278.307	67878
278.367	46177
278.426	17634
278.486	11827
278.545	10070
278.605	8767
278.664	9313
278.724	10899
278.783	23337
278.843	56441
278.902	21627
278.962	14217
279.021	17010
279.081	20164
279.140	20635
279.199	18435
279.259	17130
279.318	17961
279.378	23688
279.437	40923
279.496	108784
279.556	258278
279.615	231484
279.675	82237
279.734	47679
279.793	59592
279.853	83812
279.912	37216
279.971	24933
280.031	22302
280.090	32543
280.149	55711
280.208	53503
280.268	174661
280.327	200028
280.386	63800
280.445	42885
280.505	39790
280.564	21579
280.623	18147
280.682	23376
280.742	33378
280.801	14746
280.860	11521
280.919	10536
280.978	9816
281.037	10572
281.097	8895
281.156	10186
281.215	8858
281.274	10890
281.333	34603
281.392	30208
281.451	9527
281.510	10046
281.569	7745
281.628	8014
281.688	6754
281.747	9167
281.806	9511
281.865	8396
281.924	7201
281.983	8143
282.042	5890
282.101	6362
282.160	7188
282.219	6855
282.278	8119
282.337	23648
282.396	17546
282.454	9299
282.513	11213
282.572	34956
282.631	25210
282.690	10011
282.749	7238
282.808	11290
282.867	10724
282.926	10718
282.985	6395
283.043	6161
283.102	7408
283.161	9643
283.220	16749
283.279	37527
283.338	14867
283.396	9896
283.455	10228
283.514	12228
283.573	17002
283.631	14191
283.690	10320
283.749	10379
283.808	18198
283.866	23455
283.925	10924
283.984	10365
284.043	13477
284.101	15817
284.160	11018
284.219	14471
284.277	12954
284.336	19660
284.395	50139
284.453	44915
284.512	22211
284.570	28618
284.629	27483
284.688	26982
284.746	29726
284.805	34544
284.863	45269
284.922	57992
284.981	69871
285.039	96830
285.098	148848
285.156	239462
285.215	262736
285.273	260150
285.332	249157
285.390	177296
285.449	119440
285.507	87041
285.566	63868
285.624	50053
285.683	39803
285.741	32590
285.799	27772
285.858	24880
285.916	22953
285.975	18712
286.033	15483
286.091	14744
286.150	13034
286.208	12745
286.267	14192
286.325	14174
286.383	20769
286.442	17692
286.500	10267
286.558	9561
286.616	9210
286.675	12903
286.733	12361
286.791	10611
286.850	12429
286.908	14194
286.966	23703
287.024	11975
287.083	7706
287.141	7552
287.199	7996
287.257	13903
287.315	10432
287.374	10282
287.432	23045
287.490	17011
287.548	11469
287.606	8433
287.664	8605
287.723	11491
287.781	16622
287.839	9827
287.897	10861
287.955	13347
288.013	18397
288.071	38496
288.129	118301
288.187	296310
288.245	163955
288.303	57295
288.361	32363
288.419	24948
288.477	19408
288.535	13762
288.593	10517
288.651	9985
288.709	7807
288.767	7740
288.825	7732
288.883	6355
288.941	6527
288.999	5479
289.057	6550
289.115	5483
289.173	5519
289.231	6576
289.289	6901
289.346	6298
289.404	8557
289.462	14712
289.520	15448
289.578	8423
289.636	5128
289.694	4938
289.751	4302
289.809	4602
289.867	5894
289.925	8534
289.983	10422
290.040	5274
290.098	4932
290.156	8227
290.214	9606
290.271	6270
290.329	3550
290.387	4741
290.444	4051
290.502	4403
290.560	4331
290.617	5468
290.675	4604
290.733	5118
290.790	6933
290.848	4783
290.906	5911
290.963	6651
291.021	6094
291.078	5825
291.136	6169
291.194	17005
291.251	37973
291.309	14033
291.366	6349
291.424	6916
291.481	5907
291.539	7931
291.596	7160
291.654	4742
291.711	4248
291.769	6640
291.826	15967
291.884	11712
291.941	5524
291.999	5974
292.056	7050
292.114	8530
292.171	5696
292.228	7329
292.286	8560
292.343	16379
292.401	20409
292.458	12670
292.515	8471
292.573	10297
292.630	8625
292.687	9922
292.745	7015
292.802	10099
292.859	24705
292.917	41638
292.974	27768
293.031	10829
293.089	7322
293.146	5851
293.203	5605
293.260	5364
293.318	7147
293.375	11327
293.432	7975
293.489	6422
293.546	5607
293.604	10698
293.661	26083
293.718	64121
293.775	38787
293.832	20155
293.889	17120
293.947	16734
294.004	12187
294.061	12485
294.118	20720
294.175	39274
294.232	48018
294.289	24199
294.346	12547
294.403	12206
294.460	10703
294.517	8507
294.574	7515
294.631	7403
294.688	9008
294.745	20992
294.802	65431
294.859	76552
294.916	33798
294.973	20723
295.030	17184
295.087	15033
295.144	9714
295.201	8480
295.258	8357
295.315	11448
295.372	27007
295.429	51796
295.486	26314
295.542	15098
295.599	27260
295.656	50115
295.713	36979
295.770	47793
295.827	22364
295.883	12575
295.940	11144
295.997	19406
296.054	20483
296.111	11245
296.167	7853
296.224	6485
296.281	5471
296.338	6676
296.394	6316
296.451	9405
296.508	20785
296.564	43525
296.621	33024
296.678	55516
296.734	85535
296.791	36602
296.848	19563
296.904	19742
296.961	41328
297.018	55950
297.074	43494
297.131	18901
297.187	14460
297.244	20379
297.301	48879
297.357	91108
297.414	39006
297.470	15985
297.527	11085
297.583	10480
297.640	11488
297.696	8973
297.753	6374
297.809	5460
297.866	5160
297.922	5812
297.979	5721
298.035	7903
298.092	13038
298.148	30382
298.204	34365
298.261	19178
298.317	25821
298.374	67868
298.430	46155
298.486	22930
298.543	15803
298.599	14855
298.656	16430
298.712	26153
298.768	54110
298.824	41563
298.881	15760
298.937	10871
298.993	9609
299.050	13681
299.106	12242
299.162	9533
299.218	10010
299.275	9136
299.331	10301
299.387	18404
299.443	56379
299.500	66761
299.556	28210
299.612	15160
299.668	12594
299.724	14954
299.780	15070
299.837	12287
299.893	17435
299.949	48891
300.005	63308
300.061	51250
300.117	82402
300.173	47700
300.229	22413
300.285	26836
300.341	31788
300.397	18429
300.453	11938
300.510	9973
300.566	10999
300.622	12467
300.678	27606
300.734	55053
300.790	51261
300.845	61636
300.901	41406
300.957	52967
301.013	45493
301.069	19710
301.125	15272
301.181	17114
301.237	13702
301.293	8704
301.349	8010
301.405	7977
301.461	7614
301.516	10121
301.572	11439
301.628	21403
301.684	18845
301.740	23340
301.796	38033
301.851	28328
301.907	44502
301.963	48309
302.019	62567
302.074	149513
302.130	165874
302.186	84909
302.242	36538
302.297	24331
302.353	22762
302.409	36414
302.464	36807
302.520	29405
302.576	61455
302.631	75728
302.687	47429
302.743	21586
302.798	12617
302.854	11110
302.910	11547
302.965	15040
303.021	24757
303.076	25622
303.132	30201
303.187	37993
303.243	20356
303.299	12066
303.354	9486
303.410	8651
303.465	8744
303.521	8158
303.576	8642
303.632	12315
303.687	18137
303.743	51094
303.798	50446
303.853	22264
303.909	12829
303.964	12476
304.020	17966
304.075	30242
304.130	26108
304.186	43970
304.241	47312
304.297	37712
304.352	20796
304.358	20079
304.407	14267
304.449	13346
304.463	13043
304.518	13676
304.539	12899
304.573	11670
304.629	12728
304.630	12823
304.684	17902
304.720	32547
304.739	39753
304.794	64579
304.811	56325
304.850	36259
304.902	17392
304.905	16206
304.960	12442
304.992	11742
305.015	11281
305.071	13023
305.083	12482
305.126	10353
305.173	7756
305.181	7367
305.236	6713
305.264	7380
305.292	8109
305.347	11136
305.354	11238
305.402	11774
305.445	12507
305.457	12748
305.512	15466
305.535	16080
305.567	16707
305.622	16698
305.626	17067
305.678	27917
305.716	49396
305.733	56407
305.788	69124
305.807	60803
305.843	47318
305.897	55344
305.898	55370
305.953	58590
305.988	39896
306.008	30122
306.063	19558
306.078	17803
306.118	13920
306.168	10524
306.173	10245
306.228	8200
306.259	7910
306.283	7834
306.338	7536
306.349	7775
306.393	8851
306.440	9294
306.448	9340
306.503	10610
306.530	10950
306.558	14011
306.613	29717
306.620	32129
306.668	48027
306.711	61396
306.723	61906
306.778	50863
306.801	39618
306.833	27337
306.888	14261
306.892	13764
306.943	10570
306.982	8871
306.997	8383
307.052	8887
307.072	8799
307.107	9608
307.162	12349
307.163	12399
307.217	18308
307.253	22423
307.272	23281
307.327	25046
307.343	23520
307.381	20622
307.434	19237
307.436	19759
307.491	36548
307.524	52749
307.546	56002
307.600	56542
307.614	50819
307.655	32348
307.704	17124
307.710	16640
307.765	19827
307.795	23859
307.819	27798
307.874	42647
307.885	43218
307.929	35911
307.975	25776
307.984	25917
308.038	33568
308.065	40819
308.093	68253
308.148	136043
308.156	150384
308.202	217822
308.246	268369
308.257	263046
308.312	155401
308.336	112729
308.366	87351
308.421	60463
308.426	57626
308.475	36949
308.517	25521
308.530	23882
308.585	21370
308.607	20758
308.639	21086
308.694	22990
308.697	23201
308.748	39031
308.787	55972
308.803	55452
308.857	44980
308.877	38501
308.912	34020
308.967	32755
308.967	32789
309.021	47038
309.058	59095
309.076	73126
309.130	124414
309.148	143016
309.185	225962
309.238	357527
309.239	358491
309.293	384708
309.328	367208
309.348	324810
309.402	175094
309.418	136018
309.457	100100
309.508	66245
309.511	65779
309.566	69086
309.598	73950
309.620	90184
309.674	137064
309.688	149831
309.729	141921
309.778	117328
309.783	114648
309.837	78545
309.868	60692
309.892	67610
309.946	88860
309.959	96098
310.001	115511
310.049	132841
310.055	128310
310.109	75662
310.139	45969
310.163	37075
310.218	23009
310.229	20735
310.272	17201
310.319	13986
310.326	13654
310.381	12265
310.409	11683
310.435	11195
310.489	10010
310.499	9912
310.543	10336
310.589	10594
310.598	10580
310.652	11068
310.679	10971
310.706	9848
310.760	7650
310.769	7326
310.814	6638
310.859	6101
310.868	6224
310.923	6894
310.948	7323
310.977	8369
311.031	10444
311.038	10747
311.085	10216
311.128	9336
311.139	9272
311.193	9052
311.218	8919
311.247	8190
311.301	6842
311.308	6663
311.356	7164
311.398	7841
311.410	7635
311.464	6503
311.488	5987
311.518	6631
311.572	7885
311.578	8036
311.626	11832
311.668	15214
311.680	14825
311.734	12721
311.758	11784
311.788	11313
311.842	10519
311.847	10434
311.896	14305
311.937	17745
311.950	17576
312.004	16709
312.027	16272
312.058	13682
312.112	9063
312.117	8604
312.165	8215
312.207	7894
312.297	11282
312.386	9183
312.476	11638
312.566	26112
312.656	11422
312.745	6118
312.835	7581
312.925	9716
313.015	8537
313.104	9459
313.194	7077
313.284	8129
313.374	12442
313.463	10768
313.553	6708
313.643	6324
313.732	5658
313.822	6461
313.912	7288
314.001	10504
314.091	9755
314.180	12634
314.270	14189
314.360	15932
314.449	13041
314.539	6837
314.628	5510
314.718	8785
314.808	11792
314.897	6623
314.987	7058
315.076	11705
315.166	15848
315.255	12757
315.345	13392
315.434	12618
315.524	11636
315.613	14655
315.703	19577
315.792	24680
315.881	54529
315.971	22865
316.060	29061
316.150	36981
316.239	35434
316.328	12494
316.418	7512
316.507	8813
316.597	14059
316.686	11511
316.775	18052
316.865	36686
316.954	8400
317.043	5880
317.133	8228
317.222	7114
317.311	6906
317.400	7477
317.490	14268
317.579	16820
317.668	10526
317.757	18499
317.847	35781
317.936	99611
318.025	53642
318.114	28187
318.203	18728
318.293	22992
318.382	39230
318.471	33016
318.560	40440
318.649	69450
318.738	16992
318.828	17294
318.917	18300
319.006	19253
319.095	46129
319.184	99107
319.273	66259
319.362	40916
319.451	15171
319.540	14197
319.629	37140
319.718	58938
319.807	21434
319.896	40832
319.985	122020
320.074	51037
320.163	14990
320.252	24317
320.341	18100
320.430	15703
320.519	30355
320.608	15283
320.697	10931
320.786	12199
320.875	19381
320.964	27080
321.053	43826
321.142	63268
321.230	62779
321.319	44850
321.408	102173
321.497	37587
321.586	40069
321.675	41440
321.764	39958
321.852	25745
321.941	61771
322.030	39048
322.119	40561
322.207	105404
322.296	58542
322.385	29546
322.474	40337
322.562	130632
322.651	57233
322.740	47901
322.829	64397
322.917	54288
323.006	36228
323.095	32418
323.183	20712
323.272	35233
323.361	58626
323.449	142941
323.538	49450
323.626	104634
323.715	58852
323.804	28725
323.892	98528
323.981	58249
324.069	18355
324.158	51522
324.246	45949
324.335	22934
324.424	39382
324.512	14437
324.601	24600
324.689	64043
324.778	108958
324.866	44866
324.954	13336
325.043	14348
325.131	27771
325.220	39784
325.308	46265
325.397	36700
325.485	21372
325.574	8751
325.662	8656
325.750	10898
325.839	8297
325.927	7300
326.015	12069
326.104	17999
326.192	23763
326.280	8620
326.369	9537
326.457	16687
326.545	31317
326.634	12128
326.722	6746
326.810	7321
326.898	7410
326.987	9661
327.075	29398
327.163	27321
327.251	16944
327.340	47984
327.428	65365
327.516	10205
327.604	9219
327.692	8711
327.781	10313
327.869	18029
327.957	13092
328.045	13533
328.133	6626
328.221	10186
328.309	9351
328.397	8507
328.485	12722
328.574	19298
328.662	68312
328.750	34233
328.838	11605
328.926	7392
329.014	7102
329.102	14530
329.190	31106
329.278	23065
329.366	5509
329.454	5584
329.542	5360
329.630	4737
329.718	6739
329.806	10007
329.893	8238
329.981	7981
330.069	11602
330.157	38363
330.245	95841
330.333	46422
330.421	13051
330.509	23096
330.597	86456
330.684	49482
330.772	14916
330.860	17245
330.948	20792
331.036	10542
331.123	4689
331.211	5718
331.299	8224
331.387	19893
331.475	33462
331.562	10923
331.650	6138
331.738	8124
331.825	11174
331.913	6203
332.001	6056
332.089	9490
332.176	20515
332.264	48911
332.352	35857
332.439	13130
332.527	8565
332.614	7236
332.702	10725
332.790	8818
332.877	27473
332.965	51825
333.052	18925
333.140	22511
333.228	54357
333.315	14165
333.403	10725
333.490	31728
333.578	33964
333.665	70417
333.753	28636
333.840	9582
333.928	11567
334.015	31897
334.103	45127
334.190	119204
334.278	28810
334.365	14406
334.452	10059
334.540	6316
334.627	10354
334.715	16714
334.802	35382
334.889	167021
334.977	142722
335.064	19857
335.151	10691
335.239	10585
335.326	14911
335.413	59906
335.501	71008
335.588	12413
335.675	8751
335.762	11449
335.850	18127
335.937	15700
336.024	42234
336.111	161366
336.199	60224
336.286	13070
336.373	7442
336.460	5449
336.547	6383
336.635	9874
336.722	9849
336.809	7974
336.896	15775
336.983	44972
337.070	95049
337.157	117628
337.245	106467
337.332	68952
337.419	11076
337.506	6537
337.593	9646
337.680	31114
337.767	77833
337.854	26776
337.941	30604
338.028	42064
338.115	14335
338.202	15089
338.289	33883
338.376	109760
338.463	34146
338.550	50229
338.637	45969
338.724	22876
338.811	33022
338.898	8206
338.984	6532
339.071	8906
339.158	13708
339.245	39574
339.332	21837
339.419	26335
339.506	22747
339.593	5165
339.679	7959
339.766	8245
339.853	11969
339.940	29850
340.027	8644
340.113	9612
340.200	14896
340.287	10958
340.374	14614
340.460	25553
340.547	11204
340.634	22129
340.720	78910
340.807	41618
340.894	7879
340.980	8889
341.067	8383
341.154	10163
341.240	18146
341.327	39908
341.414	13520
341.500	13451
341.587	9409
341.674	8817
341.760	27011
341.847	31678
341.933	9628
342.020	3550
342.106	4657
342.193	11341
342.279	20651
342.366	16224
342.452	26235
342.539	15252
342.625	37146
342.712	85029
342.798	34445
342.885	13590
342.971	4680
343.058	4291
343.144	6000
343.230	5850
343.317	7400
343.403	6278
343.490	4626
343.576	4874
343.662	6633
343.749	9676
343.835	13034
343.921	24146
344.008	128952
344.094	248954
344.180	55128
344.267	26706
344.353	77747
344.439	76702
344.525	39481
344.612	14657
344.698	13484
344.784	9263
344.870	6600
344.957	8609
345.043	15751
345.129	12517
345.215	26072
345.301	13791
345.387	8497
345.474	4325
345.560	5600
345.646	7439
345.732	6225
345.818	10038
345.904	9527
345.990	11567
346.076	10021
346.162	18177
346.249	8870
346.335	6027
346.421	8404
346.507	34129
346.593	100807
346.679	22757
346.765	7562
346.851	7964
346.937	7643
347.023	7318
347.108	8968
347.194	8499
347.280	7257
347.366	11280
347.452	35812
347.538	124255
347.624	93449
347.710	71961
347.796	12647
347.882	7731
347.967	6848
348.053	8521
348.139	7412
348.225	6205
348.311	7052
348.397	6048
348.482	9563
348.568	11764
348.654	4754
348.740	6954
348.825	7387
348.911	16893
348.997	62975
349.083	105805
349.168	18142
349.254	9795
349.340	8328
349.425	5277
349.511	12280
349.597	12746
349.682	30115
349.768	80721
349.854	31998
349.939	7123
350.025	5760
350.110	5406
350.196	5784
350.282	4675
350.367	4867
350.453	12993
350.538	12311
350.624	11436
350.709	9742
350.795	6134
350.880	7456
350.966	9533
351.051	13730
351.137	10299
351.222	9130
351.308	29494
351.393	73012
351.479	19499
351.564	7595
351.649	8308
351.735	5701
351.820	5337
351.906	7332
351.991	11647
352.076	51042
352.162	68698
352.247	15390
352.332	12080
352.418	23781
352.503	30160
352.588	114734
352.673	89040
352.759	22443
352.844	10748
352.929	13005
353.014	17756
353.100	11676
353.185	21093
353.270	35298
353.355	31202
353.441	8852
353.526	11317
353.611	30367
353.696	33919
353.781	18907
353.866	8429
353.952	10222
354.037	30913
354.122	67686
354.207	61395
354.292	20882
354.377	7687
354.462	7811
354.547	12794
354.632	10242
354.717	16123
354.802	22626
354.887	8406
354.972	5899
355.057	5107
355.142	5389
355.227	10513
355.312	19074
355.397	47386
355.482	107358
355.567	47256
355.652	35495
355.737	37673
355.822	97098
355.907	68271
355.991	12752
356.076	7558
356.161	7106
356.246	6188
356.331	8021
356.416	25231
356.501	142900
356.585	132755
356.670	23443
356.755	17261
356.840	27263
356.924	122246
357.009	357194
357.094	128281
357.179	35870
357.263	21820
357.348	22856
357.433	21557
357.517	20788
357.602	16754
357.687	12605
357.771	20231
357.856	50532
357.941	33065
358.025	88078
358.110	319263
358.195	142380
358.279	27904
358.364	22485
358.448	82525
358.533	191509
358.617	138044
358.702	129381
358.787	47570
358.871	32152
358.956	24135
359.040	7541
359.125	6489
359.209	8274
359.294	25370
359.378	37727
359.462	25213
359.547	13731
359.631	8666
359.716	5497
359.800	7599
359.885	12586
359.969	9078
360.053	8196
360.138	7943
360.222	16323
360.306	32752
360.391	21962
360.475	39658
360.559	82165
360.644	81182
360.728	54407
360.812	86377
360.896	200722
360.981	92200
361.065	51198
361.149	15104
361.233	15047
361.318	12078
361.402	13866
361.486	12188
361.570	9329
361.654	15217
361.739	42059
361.823	151544
361.907	194260
361.991	37792
362.075	28586
362.159	63851
362.243	38918
362.327	29934
362.411	30112
362.495	18917
362.580	11038
362.664	7803
362.748	6253
362.832	8904
362.916	14422
363.000	49167
363.084	162128
363.168	228349
363.252	57141
363.336	23694
363.420	33618
363.503	88366
363.587	87100
363.671	20894
363.755	18878
363.839	28078
363.923	12529
364.007	31484
364.091	32509
364.175	36287
364.258	124270
364.342	80106
364.426	78709
364.510	43048
364.594	30471
364.677	45047
364.761	181156
364.845	115793
364.929	53601
365.013	43992
365.096	36831
365.180	40951
365.264	41272
365.347	122770
365.431	49023
365.515	17601
365.598	11223
365.682	10203
365.766	16590
365.849	16911
365.933	13214
366.017	15461
366.100	9271
366.184	4762
366.267	7737
366.351	7199
366.435	6828
366.518	5973
366.602	6417
366.685	8349
366.769	10083
366.852	17039
366.936	32053
367.019	20539
367.103	12159
367.186	18694
367.270	6941
367.353	5322
367.436	7372
367.520	6933
367.603	11610
367.687	20757
367.770	35990
367.853	20266
367.937	57955
368.020	84035
368.104	24055
368.187	28055
368.270	38917
368.353	32737
368.437	41993
368.520	79216
368.603	53961
368.687	75807
368.770	121769
368.853	31185
368.936	33521
369.020	27216
369.103	12193
369.186	7610
369.269	9749
369.352	25809
369.436	34063
369.519	20968
369.602	8738
369.685	11623
369.768	12263
369.851	9502
369.934	7410
370.018	12651
370.101	33011
370.184	22661
370.267	14247
370.350	25560
370.433	41293
370.516	94945
370.599	106578
370.682	42725
370.765	80413
370.848	89268
370.931	144605
371.014	50108
371.097	13814
371.180	9925
371.263	6318
371.346	5570
371.429	7968
371.511	8991
371.594	20220
371.677	28647
371.760	25244
371.843	28851
371.926	126424
372.009	252690
372.091	81207
372.174	64582
372.257	126299
372.340	47807
372.423	41669
372.505	40659
372.588	20571
372.671	56115
372.754	153319
372.836	69618
372.919	46613
373.002	77301
373.085	29573
373.167	30631
373.250	74248
373.332	136432
373.415	187159
373.498	350080
373.580	129266
373.663	174802
373.746	210290
373.828	54531
373.911	26069
373.993	27529
374.076	79196
374.159	67559
374.241	46036
374.324	135775
374.406	83699
374.489	113049
374.571	276619
374.654	108468
374.736	62789
374.819	177527
374.901	257332
374.983	241611
375.066	43754
375.148	18974
375.231	66611
375.313	111153
375.395	45239
375.478	13110
375.560	10333
375.643	16980
375.725	62440
375.807	225056
375.890	163820
375.972	73755
376.054	44322
376.136	63042
376.219	28677
376.301	73228
376.383	187431
376.465	69750
376.548	59885
376.630	66891
376.712	164847
376.794	67303
376.877	11728
376.959	7255
377.041	10523
377.123	16474
377.205	17976
377.287	5782
377.369	6311
377.452	8104
377.534	8007
377.616	8536
377.698	8397
377.780	6690
377.862	9569
377.944	8763
378.026	4665
378.108	6243
378.190	5996
378.272	6026
378.354	4886
378.436	4387
378.518	13630
378.600	42991
378.682	42082
378.764	96397
378.846	66067
378.928	22265
379.010	33874
379.091	16514
379.173	8284
379.255	8455
379.337	14230
379.419	51116
379.501	125576
379.583	44344
379.664	15418
379.746	41727
379.828	98826
379.910	125931
379.991	99854
380.073	17264
380.155	14296
380.237	10618
380.318	7119
380.400	8694
380.482	26980
380.564	39430
380.645	37501
380.727	33538
380.809	18778
380.890	13374
380.972	9930
381.053	10114
381.135	13939
381.217	36337
381.298	99474
381.380	46673
381.461	44321
381.543	177560
381.624	192261
381.706	38962
381.787	21500
381.869	25383
381.951	84384
382.032	273139
382.113	165442
382.195	43343
382.276	30397
382.358	66386
382.439	154202
382.521	169851
382.602	248027
382.684	126968
382.765	248527
382.846	323475
382.928	517950
383.009	274064
383.090	224703
383.172	696881
383.253	878917
383.334	315603
383.416	260711
383.497	136648
383.578	97191
383.659	191631
383.741	614763
383.822	1198086
383.903	606898
383.984	239120
384.066	310905
384.147	183337
384.228	46072
384.309	39247
384.390	28810
384.471	20931
384.553	23589
384.634	32495
384.715	31565
384.796	16446
384.877	24403
384.958	91292
385.039	103612
385.120	38343
385.201	19199
385.282	22084
385.363	21893
385.444	21507
385.525	38722
385.606	114068
385.687	87140
385.768	24304
385.849	34856
385.930	135856
386.011	203561
386.092	53461
386.173	15792
386.254	11656
386.335	13159
386.416	15920
386.496	60587
386.577	89652
386.658	30861
386.739	20350
386.820	16415
386.901	12731
386.981	12918
387.062	9831
387.143	25351
387.224	92431
387.304	77163
387.385	27626
387.466	15744
387.547	18643
387.627	14495
387.708	37165
387.789	155756
387.869	170076
387.950	41623
388.031	9144
388.111	8007
388.192	22983
388.273	31800
388.353	20028
388.434	14158
388.514	33970
388.595	135028
388.676	168897
388.756	88333
388.837	92993
388.917	52075
388.998	10760
389.078	10661
389.159	10660
389.239	9794
389.320	18909
389.400	16792
389.480	35044
389.561	88214
389.641	39464
389.722	18187
389.802	31115
389.883	41208
389.963	100761
390.043	58255
390.124	19422
390.204	36542
390.284	110271
390.365	64933
390.445	64186
390.525	155390
390.605	135486
390.686	49207
390.766	17110
390.846	9997
390.927	6466
391.007	8321
391.087	9781
391.167	9263
391.247	7541
391.328	16418
391.408	20585
391.488	13078
391.568	5910
391.648	14497
391.728	20747
391.808	18829
391.888	22611
391.969	51780
392.049	75993
392.129	30492
392.209	40587
392.289	95682
392.369	46782
392.449	35034
392.529	23181
392.609	22346
392.689	31248
392.769	96302
392.849	74459
392.929	53686
393.009	125203
393.089	87846
393.169	71089
393.248	231110
393.328	789191
393.408	762295
393.488	200902
393.568	59720
393.648	31697
393.728	21076
393.807	15643
393.887	13684
393.967	13374
394.047	16700
394.127	20859
394.206	34214
394.286	122600
394.366	470143
394.446	449809
394.525	101734
394.605	28328
394.685	25351
394.764	53142
394.844	85538
394.924	54984
395.003	21002
395.083	17260
395.163	14017
395.242	13925
395.322	13786
395.402	8757
395.481	13663
395.561	41078
395.640	101666
395.720	75975
395.799	97982
395.879	70356
395.958	47723
396.038	176609
396.117	619911
396.197	605348
396.276	175649
396.356	61128
396.435	42641
396.515	31349
396.594	41951
396.673	73828
396.753	252923
396.832	714721
396.912	521926
396.991	136310
397.070	37725
397.150	22171
397.229	15249
397.308	18233
397.388	27084
397.467	14893
397.546	8535
397.625	7803
397.705	13965
397.784	16922
397.863	7738
397.942	5510
398.022	7551
398.101	31382
398.180	80494
398.259	36729
398.338	12968
398.417	10902
398.497	7405
398.576	8155
398.655	5719
398.734	4290
398.813	6287
398.892	29168
398.971	87760
399.050	37205
399.129	5510
399.208	4191
399.287	4977
399.366	3526
399.445	4083
399.524	4960
399.603	5442
399.682	15958
399.761	42300
399.840	99061
399.919	63077
399.998	9321
400.077	4003
400.156	3241
400.235	7165
400.313	4824
400.392	10680
400.471	55366
400.550	81377
400.629	21344
400.708	9869
400.786	7775
400.865	21031
400.944	22842
401.023	12497
401.102	3161
401.180	3521
401.259	3804
401.338	5459
401.416	11410
401.495	9411
401.574	5838
401.652	5410
401.731	10480
401.810	8457
401.888	4445
401.967	2177
402.046	4122
402.124	9390
402.203	12732
402.281	6054
402.360	9091
402.438	25928
402.517	16271
402.596	6326
402.674	6144
402.753	3973
402.831	3771
402.910	6966
402.988	33444
403.066	100941
403.145	50364
403.223	35092
403.302	82558
403.380	60009
403.459	59064
403.537	22002
403.615	8930
403.694	2326
403.772	3054
403.850	2550
403.929	2916
404.007	4207
404.085	13884
404.164	15173
404.242	4634
404.320	6134
404.398	13215
404.477	50225
404.555	212360
404.633	159813
404.711	22446
404.789	7227
404.868	6897
404.946	4025
405.024	2962
405.102	3226
405.180	2681
405.258	1967
405.336	4072
405.415	4563
405.493	12823
405.571	11461
405.649	3663
405.727	3614
405.805	6899
405.883	7332
405.961	8006
406.039	7851
406.117	4115
406.195	12236
406.273	60349
406.351	186625
406.429	96044
406.507	14478
406.585	5985
406.663	8484
406.740	12238
406.818	10456
406.896	4229
406.974	6298
407.052	20113
407.130	117397
407.208	145699
407.285	25728
407.363	5593
407.441	6498
407.519	4915
407.596	7804
407.674	18767
407.752	40339
407.830	36394
407.907	16493
407.985	7063
408.063	4843
408.141	2725
408.218	7596
408.296	7579
408.373	7435
408.451	9285
408.529	7862
408.606	2588
408.684	2279
408.762	1864
408.839	1641
408.917	2094
408.994	2456
409.072	2525
409.149	2384
409.227	5220
409.304	6326
409.382	4446
409.459	4203
409.537	8435
409.614	8081
409.692	4413
409.769	5264
409.846	8965
409.924	10384
410.001	7183
410.079	5535
410.156	4938
410.233	4412
410.311	2844
410.388	3015
410.465	4669
410.543	4918
410.620	2852
410.697	6175
410.775	8295
410.852	2033
410.929	6797
411.006	9594
411.083	3899
411.161	11340
411.238	11658
411.315	6406
411.392	3541
411.469	7636
411.547	6825
411.624	2532
411.701	3208
411.778	7841
411.855	19449
411.932	8386
412.009	3656
412.086	4092
412.163	5136
412.240	5939
412.317	7386
412.394	5233
412.471	2214
412.548	3164
412.625	4243
412.702	6548
412.779	11465
412.856	6234
412.933	2059
413.010	2680
413.087	10008
413.164	52259
413.241	64812
413.318	16624
413.395	10961
413.471	16333
413.548	6214
413.625	4611
413.702	6484
413.779	4004
413.855	1633
413.932	992
414.009	1797
414.086	1822
414.162	3298
414.239	9553
414.316	52033
414.393	105977
414.469	32526
414.546	4422
414.623	2492
414.699	3906
414.776	5325
414.853	3747
414.929	4225
415.006	3839
415.082	4139
415.159	3992
415.236	3495
415.312	4629
415.389	13552
415.465	18007
415.542	8547
415.618	5451
415.695	11710
415.771	8242
415.848	6455
415.924	5341
416.000	3228
416.077	2616
416.153	840
416.230	428
416.306	1474
416.383	1075
416.459	1708
416.535	1908
416.612	1270
416.688	2033
416.764	2823
416.841	3078
416.917	2861
416.993	4091
417.069	5879
417.146	8269
417.222	10989
417.298	5896
417.374	4104
417.451	4834
417.527	8101
417.603	8788
417.679	6469
417.755	4480
417.831	1408
417.908	2025
417.984	1341
418.060	2654
418.136	15605
418.212	19979
418.288	6446
418.364	3170
418.440	4354
418.516	8525
418.592	9723
418.668	24103
418.744	38112
418.820	24675
418.896	6045
418.972	2580
419.048	5328
419.124	16978
419.200	12096
419.276	2541
419.352	1046
419.428	2470
419.504	4943
419.579	6999
419.655	4812
419.731	6549
419.807	25803
419.883	45621
419.959	28551
420.034	7346
420.110	18270
420.186	68346
420.262	45950
420.337	8484
420.413	6882
420.489	3229
420.565	2239
420.640	2925
420.716	3502
420.792	1816
420.867	4047
420.943	3634
421.019	11057
421.094	7589
421.170	2531
421.245	1156
421.321	3135
421.397	3777
421.472	8549
421.548	20950
421.623	15137
421.699	6060
421.774	7222
421.850	6052
421.925	14091
422.001	10913
422.076	6485
422.152	8072
422.227	16300
422.302	15270
422.378	21168
422.453	38996
422.529	94999
422.604	277301
422.679	433360
422.755	267937
422.830	89162
422.905	33832
422.981	18143
423.056	11769
423.131	8976
423.207	7508
423.282	10287
423.357	23340
423.432	14249
423.508	15672
423.583	38242
423.658	24606
423.733	7050
423.808	8942
423.883	11842
423.959	10118
424.034	5075
424.109	4359
424.184	2372
424.259	2246
424.334	1757
424.409	1767
424.484	2932
424.559	4125
424.634	3647
424.709	7550
424.784	9011
424.859	5410
424.934	12365
425.009	52857
425.084	78604
425.159	23712
425.234	4475
425.309	3264
425.384	10995
425.459	17583
425.534	4933
425.609	2491
425.683	1742
425.758	1792
425.833	4113
425.908	6988
425.983	34641
426.058	87368
426.132	32469
426.207	4931
426.282	7393
426.357	6287
426.431	2109
426.506	2214
426.581	3382
426.655	2983
426.730	3357
426.805	3052
426.879	3317
426.954	4403
427.029	14750
427.103	79243
427.178	162054
427.253	60657
427.327	7448
427.402	9682
427.476	22899
427.551	9981
427.625	3778
427.700	3918
427.774	1748
427.849	3469
427.923	1262
427.998	1797
428.072	2577
428.147	10036
428.221	45346
428.296	93403
428.370	39942
428.444	7435
428.519	10153
428.593	19271
428.667	16031
428.742	19321
428.816	18966
428.890	64066
428.965	86836
429.039	31115
429.113	21693
429.188	7990
429.262	3259
429.336	11544
429.410	38908
429.485	21464
429.559	16429
429.633	10868
429.707	4017
429.781	15843
429.855	77356
429.930	108189
430.004	62869
430.078	86016
430.152	72715
430.226	123706
430.300	105581
430.374	16047
430.448	7876
430.522	31906
430.596	83828
430.670	51912
430.744	139374
430.818	184041
430.892	36979
430.966	7956
431.040	3843
431.114	1618
431.188	1734
431.262	2285
431.336	1870
431.410	9999
431.484	29257
431.557	18813
431.631	3171
431.705	3331
431.779	19307
431.853	75982
431.927	44982
432.000	6351
432.074	2695
432.148	4170
432.222	3410
432.295	1891
432.369	2579
432.443	10144
432.516	67132
432.590	150815
432.664	47201
432.737	6032
432.811	2075
432.885	819
432.958	1343
433.032	676
433.106	271
433.179	1106
433.253	995
433.326	393
433.400	33
433.473	958
433.547	106
433.620	1745
433.694	8590
433.767	7753
433.841	1582
433.914	809
433.988	998
434.061	781
434.134	1198
434.208	-71
434.281	714
434.355	1071
434.428	1933
434.501	1439
434.575	544
434.648	1408
434.721	875
434.795	680
434.868	324
434.941	-59
435.014	188
435.088	1652
435.161	4490
435.234	9475
435.307	11365
435.381	5218
435.454	2830
435.527	3948
435.600	2692
435.673	1942
435.746	1828
435.819	1564
435.892	814
435.966	1688
436.039	669
436.112	988
436.185	90
436.258	766
436.331	129
436.404	461
436.477	-229
436.550	129
436.623	599
436.696	651
436.769	2264
436.842	1264
436.915	2784
436.987	4681
437.060	1592
437.133	552
437.206	445
437.279	1577
437.352	1087
437.425	543
437.498	2091
437.570	8717
437.643	7340
437.716	2123
437.789	1075
437.861	5200
437.934	15342
438.007	7142
438.080	2310
438.152	3689
438.225	12441
438.298	87291
438.370	199662
438.443	72222
438.516	16960
438.588	3914
438.661	1299
438.734	1373
438.806	3761
438.879	4366
438.951	4474
439.024	7563
439.096	2765
439.169	1677
439.241	982
439.314	1189
439.386	2751
439.459	6877
439.531	10058
439.604	3064
439.676	1717
439.749	458
439.821	50
439.893	498
439.966	1216
440.038	2812
440.110	3478
440.183	2169
440.255	1346
440.327	5706
440.400	38824
440.472	140586
440.544	76802
440.617	9971
440.689	7536
440.761	9546
440.833	14356
440.905	8487
440.978	705
441.050	808
441.122	1272
441.194	324
441.266	1993
441.338	1747
441.411	7699
441.483	52678
441.555	65697
441.627	12981
441.699	5535
441.771	5702
441.843	2455
441.915	1411
441.987	1118
442.059	1191
442.131	2861
442.203	4942
442.275	6789
442.347	5197
442.419	7186
442.491	37278
442.563	79952
442.635	36443
442.706	28906
442.778	21692
442.850	3994
442.922	1400
442.994	3844
443.066	6990
443.137	4767
443.209	3779
443.281	5458
443.353	13596
443.425	50693
443.496	157699
443.568	138651
443.640	48843
443.711	10849
443.783	4915
443.855	2859
443.926	1873
443.998	1935
444.070	3440
444.141	4234
444.213	9196
444.285	11007
444.356	8625
444.428	5978
444.499	2187
444.571	1147
444.642	1847
444.714	3698
444.785	7914
444.857	9477
444.928	17440
445.000	9959
445.071	11976
445.143	14118
445.214	9149
445.285	14029
445.357	40687
445.428	121037
445.500	238383
445.571	144889
445.642	69992
445.714	32870
445.785	29448
445.856	11738
445.928	11698
445.999	8061
446.070	6715
446.141	7847
446.213	10684
446.284	4150
446.355	4576
446.426	2771
446.497	3167
446.569	6338
446.640	12538
446.711	9931
446.782	2219
446.853	5436
446.924	6230
446.995	3733
447.066	4079
447.138	6667
447.209	3486
447.280	546
447.351	952
447.422	1357
447.493	2833
447.564	5682
447.635	8414
447.706	2682
447.777	280
447.847	1122
447.918	204
447.989	3234
448.060	5758
448.131	12573
448.202	12974
448.273	10065
448.344	3376
448.414	1935
448.485	1748
448.556	1351
448.627	668
448.698	1492
448.768	26
448.839	1546
448.910	5794
448.981	6150
449.051	2688
449.122	1219
449.193	262
449.263	872
449.334	355
449.405	4321
449.475	12751
449.546	7039
449.616	7305
449.687	5402
449.758	2279
449.828	1752
449.899	1474
449.969	164
450.040	1234
450.110	3096
450.181	4028
450.251	1101
450.322	912
450.392	405
450.463	1623
450.533	177
450.604	679
450.674	212
450.744	1709
450.815	293
450.885	1201
450.955	958
451.026	1460
451.096	1031
451.166	2399
451.237	8610
451.307	19557
451.377	7268
451.447	1059
451.518	756
451.588	821
451.658	1953
451.728	4227
451.799	21162
451.869	19949
451.939	5106
452.009	1347
452.079	732
452.149	1769
452.219	5834
452.289	23567
452.360	16877
452.430	3394
452.500	3642
452.570	5072
452.640	6755
452.710	18168
452.780	24937
452.850	24893
452.920	22534
452.990	6122
453.060	3970
453.129	6660
453.199	7223
453.269	28696
453.339	55682
453.409	82713
453.479	86382
453.549	122750
453.619	126996
453.688	49174
453.758	8598
453.828	3224
453.898	2525
453.968	1655
454.037	1344
454.087	1445
454.107	1462
454.168	1233
454.177	1173
454.247	461
454.249	510
454.316	1101
454.330	1634
454.386	3477
454.411	6778
454.456	11587
454.492	14320
454.525	16715
454.574	9154
454.595	5929
454.655	2571
454.665	2091
454.734	3726
454.736	3935
454.804	8688
454.817	11940
454.873	23052
454.898	24301
454.943	25795
454.979	17959
455.013	11340
455.060	6572
455.082	5031
455.141	6688
455.152	6648
455.221	18276
455.222	18584
455.291	27990
455.303	25379
455.360	14332
455.384	13332
455.430	11994
455.465	12980
455.499	13209
455.546	19716
455.569	21720
455.627	14922
455.638	13935
455.707	3458
455.708	3480
455.777	2207
455.789	2336
455.846	2751
455.869	2667
455.916	2630
455.950	2459
455.985	2027
456.031	2430
456.054	2608
456.112	2398
456.124	2415
456.193	2434
456.193	2404
456.262	3004
456.274	3564
456.332	5637
456.355	5811
456.401	5398
456.436	4424
456.470	3474
456.516	2346
456.540	2014
456.597	2239
456.609	2240
456.678	2055
456.678	2032
456.747	1749
456.759	1673
456.817	1474
456.840	1592
456.886	1790
456.920	2251
456.955	2814
457.001	2909
457.024	3243
457.082	4865
457.093	5074
457.162	8208
457.163	8260
457.232	9030
457.243	8422
457.301	4607
457.324	3667
457.370	3122
457.405	3142
457.439	3114
457.485	2852
457.508	2798
457.566	3894
457.577	4070
457.646	4832
457.647	4860
457.715	7818
457.727	8726
457.784	13755
457.808	16738
457.853	19996
457.889	22212
457.922	21050
457.969	15714
457.991	16873
458.050	21315
458.060	22019
458.129	33333
458.130	33709
458.198	30274
458.211	27400
458.267	15885
458.292	11167
458.336	8293
458.372	8198
458.405	11089
458.453	16251
458.474	20457
458.533	35644
458.543	36875
458.611	54574
458.614	54954
458.680	32358
458.694	25479
458.749	13025
458.775	9378
458.818	6237
458.855	5540
458.887	5197
458.936	5212
458.955	5248
459.016	4982
459.024	4968
459.093	5850
459.097	5879
459.162	6018
459.177	6122
459.230	7123
459.257	8175
459.299	8883
459.338	8409
459.368	7994
459.418	8442
459.437	8206
459.499	6514
459.505	6450
459.574	5567
459.579	5562
459.643	5644
459.659	5617
459.711	5638
459.740	5981
459.780	6838
459.820	7413
459.849	7422
459.900	7509
459.917	7468
459.981	7653
459.986	7683
460.054	8151
460.061	8186
460.123	8480
460.141	8730
460.191	11016
460.222	12332
460.260	13550
460.302	15784
460.328	14749
460.382	10626
460.397	10263
460.462	8794
460.465	8870
460.534	11753
460.543	12169
460.602	28961
460.623	35348
460.671	52093
460.703	66817
460.739	60463
460.783	47123
460.808	38225
460.864	10751
460.876	9146
460.944	6596
460.945	6565
461.013	7060
461.024	7063
461.081	8022
461.104	8556
461.150	8230
461.184	7850
461.218	7601
461.264	6884
461.286	7014
461.345	7618
461.355	7481
461.423	6924
461.425	6906
461.491	7419
461.505	7592
461.559	15121
461.585	18773
461.628	30146
461.665	41332
461.696	45512
461.745	54775
461.764	47584
461.825	15494
461.832	14997
461.901	9432
461.905	9401
461.969	8540
461.985	8238
462.037	8500
462.065	8509
462.105	9037
462.145	9834
462.173	14313
462.225	22869
462.241	25199
462.305	36627
462.310	35647
462.378	19324
462.385	16934
462.446	10936
462.465	9843
462.514	9055
462.545	8883
462.582	8741
462.625	8571
462.650	8394
462.705	7751
462.718	7958
462.785	9083
462.786	9159
462.854	13623
462.865	14464
462.922	17979
462.945	19511
462.990	15294
463.025	10791
463.058	9009
463.104	6677
463.126	6670
463.184	7809
463.194	8051
463.262	9103
463.264	9154
463.330	9834
463.344	9862
463.398	10297
463.424	10509
463.466	10335
463.504	10370
463.533	10859
463.583	11379
463.601	11798
463.663	13106
463.669	13362
463.737	16716
463.743	17014
463.805	27289
463.823	30231
463.873	42426
463.903	50247
463.940	53368
463.982	57767
464.008	46716
464.062	19411
464.076	17920
464.142	10334
464.144	10278
464.211	9737
464.221	9711
464.279	9899
464.301	10023
464.347	11391
464.381	12404
464.414	13310
464.461	14509
464.482	15482
464.540	18395
464.550	17821
464.617	13027
464.620	12838
464.685	14260
464.699	14623
464.753	16167
464.779	17029
464.820	17374
464.859	17431
464.888	17498
464.938	17565
464.956	17839
465.018	18898
465.023	18643
465.091	14753
465.098	14325
465.158	14315
465.177	14332
465.226	14531
465.257	14650
465.293	15580
465.336	16597
465.361	17991
465.416	21101
465.428	22659
465.495	31136
465.496	31299
465.563	49084
465.575	52229
465.631	63099
465.654	67868
465.698	42779
465.734	20706
465.765	18211
465.813	14433
465.833	14154
465.893	14161
465.900	14178
465.968	14125
465.972	14097
466.035	13652
466.052	13478
466.102	14385
466.131	14940
466.170	14937
466.210	14803
466.237	15318
466.290	16329
466.304	16641
466.369	17820
466.372	17907
466.439	19522
466.449	19727
466.506	21828
466.528	22552
466.573	31092
466.607	37454
466.641	54343
466.687	77737
466.708	85294
466.766	106139
466.775	98330
466.842	37788
466.845	34841
466.909	26348
466.925	24384
466.977	22725
467.004	21873
467.044	22314
467.083	22690
467.111	23820
467.163	25821
467.178	26409
467.242	28606
467.245	28530
467.312	25815
467.321	25407
467.379	25839
467.400	25918
467.446	27590
467.480	28704
467.559	25482
467.638	21137
467.717	22979
467.796	26581
467.875	28974
467.955	26475
468.034	38683
468.113	87458
468.192	124373
468.271	34407
468.350	22462
468.429	25022
468.508	25849
468.588	21374
468.667	21552
468.746	24260
468.825	23041
468.904	19315
468.983	23187
469.062	36561
469.141	43364
469.220	19410
469.299	19051
469.378	20071
469.456	22099
469.535	21498
469.614	20893
469.693	21929
469.772	29474
469.851	39207
469.930	28530
470.009	21221
470.088	22088
470.166	28002
470.245	44742
470.324	57423
470.403	39830
470.482	26244
470.560	21563
470.639	23300
470.718	27137
470.797	22687
470.875	25121
470.954	34740
471.033	37562
471.111	16746
471.190	15665
471.269	15458
471.347	15350
471.426	17635
471.505	19508
471.583	20545
471.662	18775
471.740	16776
471.819	17451
471.898	16967
471.976	16495
472.055	16986
472.133	19070
472.212	26295
472.290	27102
472.369	17767
472.447	15367
472.526	14505
472.604	15775
472.683	18086
472.761	21267
472.839	18348
472.918	17433
472.996	17947
473.075	21414
473.153	19929
473.231	17244
473.310	20738
473.388	21198
473.466	18451
473.545	21820
473.623	29385
473.701	29835
473.780	18572
473.858	17037
473.936	21379
474.014	17588
474.093	20094
474.171	29984
474.249	40534
474.327	27426
474.405	15348
474.484	15392
474.562	17118
474.640	16931
474.718	17651
474.796	18370
474.874	16599
474.952	15127
475.030	15025
475.108	17177
475.187	18964
475.265	20690
475.343	30708
475.421	33734
475.499	18373
475.577	19364
475.655	24161
475.733	48840
475.811	85026
475.889	75941
475.966	50231
476.044	18672
476.122	23651
476.200	30906
476.278	24913
476.356	17293
476.434	18574
476.512	22666
476.590	29321
476.667	25404
476.745	16512
476.823	17726
476.901	17638
476.979	17641
477.056	16226
477.134	17534
477.212	18980
477.290	18612
477.367	14946
477.445	14603
477.523	15309
477.601	15248
477.678	17112
477.756	19944
477.834	22703
477.911	15537
477.989	16692
478.066	15308
478.144	18865
478.222	22337
478.299	35699
478.377	32910
478.454	15919
478.532	14801
478.609	16079
478.687	17971
478.764	15459
478.842	15986
478.919	19812
478.997	17784
479.074	13967
479.152	18381
479.229	23272
479.307	15756
479.384	12124
479.461	13783
479.539	15358
479.616	18565
479.694	16639
479.771	17805
479.848	18665
479.926	24981
480.003	27394
480.080	15783
480.157	12285
480.235	14140
480.312	14724
480.389	17664
480.467	28067
480.544	36851
480.621	18252
480.698	17889
480.775	20078
480.853	18517
480.930	15489
481.007	16245
481.084	19376
481.161	21281
481.238	19907
481.315	15035
481.392	14257
481.470	16351
481.547	16973
481.624	15026
481.701	13814
481.778	16208
481.855	18437
481.932	27670
482.009	46194
482.086	33195
482.163	17292
482.240	25609
482.317	44807
482.393	36730
482.470	17406
482.547	17123
482.624	15465
482.701	16337
482.778	16082
482.855	13726
482.932	13695
483.009	13047
483.085	16217
483.162	20212
483.239	19387
483.316	14567
483.393	15018
483.469	14729
483.546	17238
483.623	19642
483.699	14847
483.776	15702
483.853	18655
483.930	27003
484.006	69889
484.083	116150
484.160	51474
484.236	60398
484.313	49444
484.389	37841
484.466	34908
484.543	32347
484.619	34261
484.696	36653
484.772	38634
484.849	40965
484.925	32351
485.002	31432
485.078	34189
485.155	34816
485.231	30244
485.308	29968
485.384	31833
485.461	40342
485.537	69862
485.614	83468
485.690	34196
485.766	29867
485.843	33746
485.919	51267
485.995	56097
486.072	28745
486.148	27477
486.224	27565
486.301	29777
486.377	35503
486.453	35780
486.530	32480
486.606	40107
486.682	44924
486.758	60133
486.835	69389
486.911	55585
486.987	91893
487.063	108480
487.139	141984
487.215	96429
487.292	42967
487.368	33409
487.444	36801
487.520	45257
487.596	44677
487.672	60293
487.748	149147
487.824	220731
487.900	81700
487.976	39039
488.052	38272
488.128	46716
488.204	38765
488.280	32679
488.356	37232
488.432	83162
488.508	127896
488.584	45822
488.660	30732
488.736	30002
488.812	31995
488.888	41437
488.964	57525
489.039	132480
489.115	216336
489.191	132311
489.267	33630
489.343	29617
489.418	24468
489.494	23967
489.570	22389
489.646	25753
489.722	24923
489.797	27579
489.873	42136
489.949	94478
490.024	79334
490.100	26264
490.176	25521
490.251	33733
490.327	46064
490.403	26777
490.478	22759
490.554	19666
490.629	20489
490.705	20026
490.781	23033
490.856	23225
490.932	28250
491.007	28996
491.083	27091
491.158	24716
491.234	33502
491.309	72692
491.385	74718
491.460	25847
491.536	26861
491.611	25346
491.686	28553
491.762	40937
491.837	89357
491.913	149418
491.988	209156
492.063	272479
492.139	75514
492.214	38957
492.289	21546
492.365	22078
492.440	26501
492.515	26437
492.590	23940
492.666	20416
492.741	28376
492.816	44441
492.891	24316
492.967	19136
493.042	17522
493.117	17946
493.192	18403
493.267	23103
493.342	38598
493.418	43589
493.493	20927
493.568	16772
493.643	18215
493.718	24643
493.793	40670
493.868	46332
493.943	30149
494.018	21513
494.093	18990
494.168	19374
494.243	17510
494.318	15818
494.393	15731
494.468	16810
494.543	17970
494.618	21427
494.693	19329
494.768	17731
494.842	19393
494.917	17316
494.992	18152
495.067	17613
495.142	16298
495.217	18977
495.292	19574
495.366	24427
495.441	30466
495.516	37918
495.591	52402
495.665	187598
495.740	459632
495.815	210200
495.890	33465
495.964	23273
496.039	25803
496.114	23389
496.188	26332
496.263	25885
496.338	22693
496.412	25494
496.487	29858
496.561	33082
496.636	35803
496.710	26607
496.785	29434
496.860	33204
496.934	27383
497.009	27334
497.083	26959
497.158	28613
497.232	34691
497.307	41539
497.381	33978
497.455	40385
497.530	51101
497.604	37048
497.679	40239
497.753	61673
497.827	79875
497.902	74217
497.976	79530
498.050	162891
498.125	605131
498.199	628616
498.273	120523
498.348	88980
498.422	70700
498.496	65836
498.570	61624
498.645	43879
498.719	41735
498.793	49915
498.867	72275
498.941	89651
499.016	244395
499.090	654141
499.164	241936
499.238	34459
499.312	30654
499.386	38097
499.460	36271
499.534	33111
499.609	40779
499.683	55209
499.757	51490
499.831	107909
499.905	433506
499.979	413920
500.053	69960
500.127	68944
500.201	56436
500.275	35772
500.349	32645
500.422	36590
500.496	55096
500.570	113759
500.644	263012
500.718	457865
500.792	110387
500.866	31155
500.940	38255
501.013	33256
501.087	34566
501.161	60522
501.235	76564
501.309	141319
501.382	402989
501.456	356373
501.530	85145
501.603	133707
501.677	54625
501.751	24405
501.825	29886
501.898	54557
501.972	160185
502.046	104741
502.119	32540
502.193	73475
502.266	177738
502.340	86406
502.413	74206
502.487	150178
502.561	88032
502.634	31052
502.708	25681
502.781	23278
502.855	19348
502.928	16084
503.002	16863
503.075	17270
503.149	18962
503.222	19779
503.295	22058
503.369	26579
503.442	36243
503.516	115157
503.589	304166
503.662	198626
503.736	62413
503.809	140085
503.882	116187
503.956	161591
504.029	153149
504.102	102089
504.175	123330
504.249	47449
504.322	29831
504.395	26689
504.468	19908
504.542	18850
504.615	14709
504.688	15729
504.761	14104
504.834	21521
504.907	26974
504.980	45576
505.053	24526
505.127	27266
505.200	32841
505.273	28466
505.346	18426
505.419	14940
505.492	14971
505.565	11449
505.638	11898
505.711	12203
505.784	12733
505.857	12215
505.930	15512
506.003	13482
506.076	16733
506.149	21102
506.221	27004
506.294	23556
506.367	61858
506.440	214469
506.513	117665
506.586	29707
506.659	18573
506.731	15365
506.804	20623
506.877	30901
506.950	21002
507.022	14122
507.095	18997
507.168	24034
507.241	17474
507.313	12871
507.386	16698
507.459	25818
507.531	18179
507.604	13344
507.677	13692
507.749	11829
507.822	18610
507.894	34372
507.967	38382
508.040	20694
508.112	17895
508.185	16832
508.257	18022
508.330	29009
508.402	18342
508.475	17017
508.547	16729
508.620	17310
508.692	29476
508.765	18609
508.837	12662
508.909	14059
508.982	14692
509.054	18219
509.127	15190
509.199	13337
509.271	12128
509.344	12291
509.416	13100
509.488	13867
509.560	15233
509.633	15807
509.705	19347
509.777	17751
509.849	27832
509.922	19767
509.994	13408
510.066	14366
510.138	14206
510.210	26049
510.283	24067
510.355	21207
510.427	19630
510.499	22146
510.571	24431
510.643	18018
510.715	31897
510.787	29274
510.859	19627
510.931	22960
511.003	32337
511.076	30348
511.148	16312
511.219	16274
511.291	27324
511.363	33659
511.435	15657
511.507	13583
511.579	14761
511.651	15471
511.723	14897
511.795	14408
511.867	14203
511.939	18966
512.010	42115
512.082	33610
512.154	16728
512.226	16747
512.298	23931
512.369	35892
512.441	28405
512.513	29516
512.585	21949
512.656	22338
512.728	25586
512.800	18436
512.871	18418
512.943	18626
513.015	15653
513.086	17980
513.158	21458
513.230	21975
513.301	34584
513.373	41834
513.444	23354
513.516	18324
513.588	18481
513.659	21564
513.731	27624
513.802	24187
513.874	50645
513.945	98817
514.016	36150
514.088	17882
514.159	21107
514.231	28590
514.302	35022
514.374	24172
514.445	23632
514.516	46223
514.588	36153
514.659	23877
514.730	43958
514.802	35651
514.873	27040
514.944	28201
515.016	23853
515.087	28131
515.158	33933
515.229	45419
515.301	30118
515.372	36749
515.443	24371
515.514	20052
515.585	17379
515.656	18452
515.728	17962
515.799	17831
515.870	18658
515.941	20960
516.012	20594
516.083	26794
516.154	30559
516.225	44524
516.296	44153
516.367	39079
516.438	46409
516.509	58704
516.580	83318
516.651	262334
516.722	970896
516.793	491353
516.864	92719
516.935	82211
517.006	87902
517.077	119003
517.148	261028
517.219	983298
517.289	1610278
517.360	441063
517.431	123260
517.502	43005
517.573	37573
517.643	35797
517.714	37841
517.785	40061
517.856	44655
517.926	55373
517.997	67799
518.068	87804
518.138	113859
518.209	168674
518.280	612902
518.350	2104136
518.421	998933
518.492	137278
518.562	65751
518.633	53845
518.703	47275
518.774	67237
518.845	138033
518.915	134816
518.986	56812
519.056	48442
519.127	80828
519.197	122672
519.268	250970
519.338	152817
519.408	41658
519.479	54177
519.549	41902
519.620	26930
519.690	20654
519.760	19990
519.831	21852
519.901	24312
519.971	17695
520.042	19867
520.112	23623
520.182	28273
520.253	33809
520.323	21555
520.393	26144
520.463	39602
520.534	27817
520.604	55856
520.674	31496
520.744	30303
520.814	62710
520.885	62000
520.955	71264
521.025	267778
521.095	105555
521.165	23407
521.235	20597
521.305	17743
521.375	17798
521.445	20849
521.515	30319
521.585	34648
521.655	33203
521.725	27315
521.795	27406
521.865	18031
521.935	27355
522.005	23876
522.075	16416
522.145	18785
522.215	21424
522.285	30681
522.355	39904
522.424	75223
522.494	66043
522.564	35981
522.634	71509
522.704	221782
522.774	96191
522.843	23493
522.913	21417
522.983	29085
523.053	22670
523.122	21581
523.192	30736
523.262	117509
523.331	129100
523.401	25651
523.471	15604
523.540	16879
523.610	12847
523.680	13373
523.749	13988
523.819	19428
523.888	19061
523.958	13826
524.027	14766
524.097	16144
524.166	15344
524.236	18540
524.305	19168
524.375	14673
524.444	13435
524.514	17521
524.583	15759
524.653	20629
524.722	23687
524.791	15500
524.861	16137
524.930	14510
524.999	15821
525.069	25168
525.138	19302
525.207	23240
525.277	16813
525.346	16454
525.415	17430
525.484	17079
525.554	19986
525.623	18868
525.692	18448
525.761	18971
525.830	21332
525.900	23410
525.969	35869
526.038	50406
526.107	90182
526.176	256753
526.245	213672
526.314	83384
526.383	144702
526.452	181834
526.522	304589
526.591	326542
526.660	135774
526.729	73662
526.797	64203
526.867	126555
526.935	552974
527.004	834975
527.073	425872
527.142	52299
527.211	25267
527.280	26340
527.349	27980
527.418	14621
527.487	16426
527.555	13269
527.624	13634
527.693	11475
527.762	14500
527.831	12395
527.899	13957
527.968	12859
528.037	13937
528.106	18553
528.174	37226
528.243	29786
528.312	39621
528.380	58872
528.449	20806
528.518	13147
528.586	10469
528.655	11780
528.723	10062
528.792	11567
528.861	13451
528.929	11489
528.998	10880
529.066	10512
529.135	11323
529.203	10708
529.272	10147
529.340	11890
529.409	13302
529.477	11340
529.545	15670
529.614	18789
529.682	18451
529.751	21772
529.819	22542
529.887	16235
529.956	12306
530.024	14031
530.092	11241
530.161	15977
530.229	29541
530.297	16859
530.365	12565
530.434	11860
530.502	9843
530.570	11270
530.638	9654
530.707	13789
530.775	15435
530.843	10986
530.911	10996
530.979	11808
531.047	11068
531.115	12272
531.183	11147
531.252	11605
531.320	12055
531.388	11721
531.456	12180
531.524	10188
531.592	11718
531.660	15446
531.728	11068
531.796	11641
531.864	12150
531.932	13690
532.000	12126
532.067	14174
532.135	16258
532.203	18393
532.271	19281
532.339	33201
532.407	98233
532.475	64854
532.542	27794
532.610	26853
532.678	35401
532.746	145550
532.814	402993
532.881	115153
532.949	22547
533.017	15952
533.084	14939
533.152	13143
533.220	13468
533.287	16616
533.355	13244
533.423	13399
533.490	11343
533.558	12353
533.625	13866
533.693	14658
533.761	13911
533.828	15532
533.896	13954
533.963	30636
534.031	40893
534.098	56825
534.166	28041
534.233	13355
534.300	14042
534.368	14523
534.435	13213
534.503	13710
534.570	16302
534.637	16105
534.705	16940
534.772	19760
534.840	29767
534.907	116994
534.974	151515
535.041	26838
535.109	19479
535.176	14654
535.243	13814
535.310	14911
535.378	12842
535.445	12010
535.512	11449
535.579	12556
535.646	12341
535.714	12467
535.781	16007
535.848	13861
535.915	14886
535.982	12523
536.049	13381
536.116	16303
536.183	14740
536.250	15725
536.317	16544
536.384	19945
536.451	31483
536.518	33022
536.585	22085
536.652	27238
536.719	42390
536.786	35695
536.853	25972
536.920	36039
536.987	60612
537.053	56179
537.120	200115
537.187	190677
537.254	25069
537.321	17065
537.388	17207
537.454	14139
537.521	13668
537.588	13264
537.654	15733
537.721	17653
537.788	17887
537.855	15326
537.921	16494
537.988	16925
538.055	16248
538.121	16234
538.188	18484
538.254	29443
538.321	63452
538.388	41558
538.454	18927
538.521	16372
538.587	14998
538.654	13742
538.720	14764
538.787	14723
538.853	15894
538.920	20499
538.986	22233
539.053	18320
539.119	19030
539.185	18230
539.252	21717
539.318	36538
539.385	28353
539.451	22477
539.517	21684
539.583	23447
539.650	57109
539.716	161396
539.782	51454
539.849	18825
539.915	19684
539.981	19425
540.047	24680
540.114	21806
540.180	22236
540.246	21078
540.312	30066
540.378	60726
540.444	63024
540.510	60111
540.576	180097
540.643	64236
540.709	19279
540.775	17737
540.841	17381
540.907	23011
540.973	35134
541.039	32719
541.105	38774
541.171	21977
541.237	17909
541.303	19609
541.369	22598
541.435	29742
541.500	54925
541.566	36823
541.632	18613
541.698	15939
541.764	16088
541.830	14721
541.896	15658
541.961	16640
542.027	18011
542.093	17101
542.159	19194
542.224	20289
542.290	29743
542.356	53441
542.421	66301
542.487	29677
542.553	19541
542.618	21848
542.684	19560
542.750	20572
542.815	22893
542.881	39138
542.947	150460
543.012	121586
543.078	20871
543.143	18135
543.209	19969
543.274	20015
543.340	23573
543.405	54515
543.471	101060
543.536	25586
543.602	17498
543.667	16369
543.732	16778
543.798	14788
543.863	15986
543.928	14615
543.994	14016
544.059	15774
544.124	14031
544.190	16594
544.255	17313
544.320	18473
544.386	19722
544.451	27942
544.516	34095
544.581	31812
544.646	90593
544.712	157877
544.777	34644
544.842	23265
544.907	23171
544.972	19402
545.037	19791
545.102	21638
545.168	20818
545.233	22015
545.298	24213
545.363	27672
545.428	30692
545.493	56069
545.558	130202
545.623	57115
545.688	23013
545.753	21669
545.818	20558
545.883	20942
545.947	20682
546.012	22695
546.077	23401
546.142	22929
546.207	22868
546.272	31735
546.337	34944
546.401	24913
546.466	23980
546.531	22424
546.596	24664
546.661	26547
546.725	24263
546.790	21479
546.855	23317
546.919	23389
546.984	26576
547.049	28206
547.113	33686
547.178	31068
547.243	35239
547.307	39232
547.372	45015
547.436	47810
547.501	39875
547.565	44406
547.630	49143
547.695	48547
547.759	47891
547.823	43782
547.888	39023
547.952	38173
548.017	41913
548.081	47112
548.146	55849
548.210	49514
548.274	43926
548.339	42863
548.403	41191
548.468	37492
548.532	37861
548.596	38839
548.660	38853
548.725	42077
548.789	50125
548.853	50042
548.917	44417
548.982	49248
549.046	48933
549.110	36035
549.174	35573
549.238	39412
549.303	40920
549.367	44877
549.431	41821
549.495	39548
549.559	39624
549.623	44228
549.687	51054
549.751	64805
549.815	59623
549.879	54581
549.943	50950
550.007	55665
550.071	56847
550.135	61415
550.199	54310
550.263	49580
550.327	49484
550.391	59480
550.455	53935
550.519	53273
550.582	57731
550.646	74340
550.710	78179
550.774	62463
550.838	62579
550.901	64695
550.965	68185
551.029	69092
551.093	77652
551.156	89278
551.220	130555
551.284	146014
551.347	92781
551.411	124415
551.475	128762
551.538	70278
551.602	61961
551.666	58876
551.729	55237
551.793	54987
551.856	53985
551.920	52660
551.983	52941
552.047	52372
552.110	52206
552.174	52775
552.237	55129
552.301	51797
552.364	49742
552.428	50358
552.491	51403
552.554	54572
552.618	54581
552.681	57883
552.745	63177
552.808	92341
552.871	130994
552.934	83974
552.998	61852
553.061	56489
553.124	52587
553.187	49985
553.251	51503
553.314	51740
553.377	51660
553.440	54664
553.503	64560
553.567	71899
553.630	53755
553.693	52512
553.756	53251
553.819	51958
553.882	50694
553.945	50531
554.008	50473
554.071	50443
554.134	51085
554.197	49121
554.260	48719
554.323	51482
554.386	51697
554.449	51976
554.512	51597
554.575	48530
554.638	50650
554.701	49090
554.764	48453
554.827	47350
554.889	45250
554.952	43260
555.015	43259
555.078	43189
555.141	44180
555.203	42604
555.266	42938
555.329	44863
555.391	42189
555.454	43896
555.517	43494
555.580	39883
555.642	37460
555.705	38744
555.768	39060
555.830	37486
555.893	36197
555.955	35980
556.018	35136
556.080	36218
556.143	36071
556.206	36409
556.268	37886
556.330	37608
556.393	37101
556.455	35612
556.518	44432
556.580	45528
556.643	33739
556.705	32766
556.767	32199
556.830	33309
556.892	36075
556.955	53521
557.017	41766
557.079	31765
557.142	31375
557.204	36693
557.266	66137
557.328	58791
557.391	29540
557.453	28072
557.515	27933
557.577	36792
557.639	37868
557.701	28766
557.764	26544
557.826	28791
557.888	30736
557.950	31330
558.012	33043
558.074	39061
558.136	79323
558.198	184069
558.260	73099
558.322	37123
558.384	37801
558.446	44103
558.508	49810
558.570	60270
558.632	96040
558.694	139517
558.756	125297
558.818	347160
558.880	854332
558.942	272513
559.003	198198
559.065	101346
559.127	49438
559.189	48112
559.251	51704
559.312	69335
559.374	160464
559.436	543712
559.498	266157
559.559	55835
559.621	47092
559.683	51105
559.744	83102
559.806	253187
559.868	375477
559.929	79292
559.991	49411
560.052	68120
560.114	175155
560.176	114409
560.237	105881
560.299	173613
560.360	47816
560.422	26805
560.483	24247
560.545	22743
560.606	22666
560.667	21392
560.729	21638
560.790	20449
560.852	21572
560.913	20808
560.974	20628
561.036	21871
561.097	21211
561.158	22220
561.220	23228
561.281	22697
561.342	23996
561.403	26336
561.465	35129
561.526	82631
561.587	120061
561.648	34945
561.709	23287
561.771	22277
561.832	21034
561.893	21510
561.954	19723
562.015	19434
562.076	20163
562.137	21648
562.198	20022
562.259	20577
562.320	21297
562.381	23714
562.442	34433
562.503	28943
562.564	21243
562.625	19147
562.686	19724
562.747	22231
562.808	20334
562.869	20602
562.930	23709
562.991	22707
563.051	22004
563.112	20587
563.173	19907
563.234	19144
563.294	20178
563.355	20093
563.416	22117
563.477	19886
563.537	20248
563.598	21273
563.659	21459
563.720	21459
563.780	22152
563.841	23239
563.901	21215
563.962	18577
564.023	19787
564.083	21037
564.144	21145
564.204	20295
564.265	20242
564.325	24328
564.386	43236
564.446	38517
564.507	20232
564.567	20405
564.628	20237
564.688	19381
564.749	19661
564.809	23043
564.869	26039
564.930	21043
564.990	19965
565.050	20282
565.111	19571
565.171	19153
565.231	20054
565.292	19652
565.352	18150
565.412	21181
565.472	21392
565.532	23059
565.593	20713
565.653	20628
565.713	21403
565.773	22292
565.833	28470
565.893	35240
565.953	23546
566.013	21744
566.074	21880
566.134	26627
566.194	40192
566.254	43423
566.314	28750
566.374	22450
566.434	22776
566.494	21513
566.554	22964
566.614	22470
566.673	23089
566.733	24960
566.793	25284
566.853	25734
566.913	25782
566.973	26405
567.033	27930
567.092	27570
567.152	24982
567.212	26960
567.272	27500
567.331	28611
567.391	28294
567.451	29406
567.511	38684
567.570	38250
567.630	28019
567.690	25797
567.749	26413
567.809	28112
567.868	30842
567.928	35255
567.988	40300
568.047	42507
568.107	49740
568.166	65218
568.226	103330
568.285	142774
568.345	120084
568.404	94335
568.464	79037
568.523	73185
568.582	74308
568.642	80798
568.701	100096
568.761	147805
568.820	235259
568.879	225783
568.939	165757
568.998	118760
569.057	87915
569.116	70584
569.176	56157
569.235	48069
569.294	42076
569.353	38384
569.413	34907
569.472	32727
569.531	29985
569.590	28135
569.649	27364
569.708	24710
569.767	25371
569.827	29874
569.886	25955
569.945	21850
570.004	23191
570.063	22818
570.122	24581
570.181	25344
570.240	26220
570.299	24786
570.358	26514
570.417	20948
570.475	19715
570.534	22059
570.593	22540
570.652	21712
570.711	22106
570.770	20980
570.829	23151
570.887	23241
570.946	25671
571.005	20272
571.064	20198
571.122	23583
571.181	23815
571.240	19930
571.299	18737
571.357	19554
571.416	19281
571.475	23028
571.533	22942
571.592	18720
571.650	19376
571.709	17415
571.768	19065
571.826	18892
571.885	16820
571.943	16604
572.002	17949
572.060	18077
572.119	16481
572.177	15812
572.236	15925
572.294	15342
572.352	16771
572.411	15973
572.469	15557
572.528	15689
572.586	15714
572.644	17520
572.703	22361
572.761	18090
572.819	15874
572.877	14958
572.936	15116
572.994	15476
573.052	15141
573.110	16905
573.169	16157
573.227	15560
573.285	15489
573.343	15000
573.401	15007
573.459	15662
573.517	15186
573.576	14564
573.634	15365
573.692	16465
573.750	15933
573.808	15533
573.866	17173
573.924	20506
573.982	19286
574.040	15193
574.098	15278
574.155	14270
574.213	14376
574.271	14093
574.329	15287
574.387	14202
574.445	13817
574.503	14250
574.560	13312
574.618	12224
574.676	12877
574.734	13842
574.792	13874
574.849	13266
574.907	13323
574.965	12448
575.022	12269
575.080	12099
575.138	15192
575.195	14250
575.253	14323
575.311	16223
575.368	15164
575.426	13077
575.483	13555
575.541	12928
575.598	13287
575.656	13419
575.713	12714
575.771	13188
575.828	13622
575.886	12956
575.943	13755
576.001	14545
576.058	13652
576.115	15196
576.173	18265
576.230	19273
576.287	23335
576.345	19321
576.402	14046
576.459	14672
576.517	15340
576.574	16382
576.631	16648
576.688	15067
576.746	14264
576.803	14281
576.860	13430
576.917	13887
576.974	14260
577.031	13896
577.089	13673
577.146	14615
577.203	13903
577.260	14240
577.317	15124
577.374	17744
577.431	17190
577.488	14852
577.545	13887
577.602	13347
577.659	14021
577.716	12640
577.773	13889
577.830	12365
577.886	13354
577.943	12414
578.000	13322
578.057	14654
578.114	14503
578.171	15318
578.227	15321
578.284	13365
578.341	13958
578.398	14538
578.454	14759
578.511	17014
578.568	18493
578.625	15452
578.681	14726
578.738	13037
578.794	13087
578.851	13172
578.908	14079
578.964	15190
579.021	15574
579.077	14619
579.134	14176
579.190	13654
579.247	13729
579.303	13191
579.360	13223
579.416	14581
579.473	13729
579.529	12859
579.586	13212
579.642	12838
579.698	14262
579.755	13831
579.811	14667
579.867	13368
579.924	14062
579.980	14005
580.036	14133
580.093	13521
580.149	15120
580.205	14436
580.261	13548
580.317	15219
580.374	16052
580.430	18097
580.486	17124
580.542	15148
580.598	15111
580.619	15110
580.654	15126
580.692	14996
580.710	14954
580.765	14743
580.767	14751
580.823	15319
580.838	15036
580.879	14348
580.911	14182
580.935	14075
580.984	14529
580.991	14613
581.047	14604
581.057	14570
581.103	14471
581.130	14544
581.159	14615
581.203	14521
581.215	14525
581.270	14219
581.276	14202
581.326	14069
581.349	14225
581.382	14531
581.422	14875
581.438	15011
581.494	15836
581.494	15818
581.550	15040
581.567	15434
581.606	16228
581.640	15622
581.661	15323
581.713	15688
581.717	15721
581.773	14734
581.786	14517
581.829	13824
581.859	14617
581.885	15337
581.932	14930
581.940	14840
581.996	15439
582.004	15408
582.052	15303
582.077	14982
582.107	14613
582.150	15722
582.163	16104
582.219	16058
582.223	16039
582.274	15769
582.296	15813
582.330	15898
582.368	15761
582.386	15697
582.441	15010
582.441	15011
582.497	15283
582.514	15107
582.552	14862
582.587	15160
582.608	15373
582.659	15547
582.663	15550
582.719	15386
582.732	15418
582.774	15649
582.805	15580
582.830	15477
582.877	14654
582.885	14518
582.941	15195
582.950	15199
582.996	15244
583.023	15503
583.052	15887
583.095	16022
583.107	16052
583.162	15778
583.168	15822
583.218	15885
583.240	15720
583.273	15634
583.313	15662
583.328	15756
583.384	16342
583.385	16334
583.439	15574
583.458	15685
583.494	16039
583.531	16134
583.549	16226
583.603	15936
583.605	15921
583.660	15541
583.676	15698
583.715	16261
583.748	16812
583.770	17160
583.820	17058
583.825	17022
583.881	16606
583.893	16497
583.936	16276
583.965	16494
583.991	16613
584.038	16547
584.046	16554
584.101	16290
584.110	16370
584.156	16827
584.183	16869
584.211	16905
584.255	16912
584.266	16896
584.321	17049
584.328	17057
584.376	17188
584.400	17330
584.431	17396
584.472	17059
584.486	16982
584.541	17253
584.545	17269
584.596	17633
584.617	17785
584.651	18279
584.689	19066
584.706	19247
584.761	19163
584.762	19163
584.816	19109
584.834	19241
584.871	19570
584.906	19654
584.926	19802
584.978	19741
584.980	19735
585.035	21390
585.051	21711
585.090	22992
585.123	23680
585.145	23826
585.195	24506
585.200	24614
585.254	25485
585.267	25897
585.309	27416
585.340	29007
585.364	29997
585.412	31239
585.419	31532
585.473	34488
585.484	35539
585.528	41168
585.556	46348
585.583	56448
585.628	82695
585.637	91934
585.692	179657
585.700	194999
585.747	250207
585.772	209752
585.801	133447
585.845	56786
585.856	47090
585.910	34150
585.917	33047
585.965	30561
585.989	29150
586.019	27732
586.061	27836
586.074	28063
586.128	28844
586.133	28907
586.183	30029
586.205	30873
586.237	31357
586.277	30770
586.292	30519
586.346	28986
586.349	28991
586.401	29965
586.421	30280
586.455	31116
586.493	32622
586.509	34454
586.564	42061
586.565	42384
586.618	59265
586.637	60227
586.672	52087
586.709	41355
586.727	37993
586.781	35295
586.781	35298
586.835	34262
586.853	34176
586.889	33898
586.925	33583
586.944	33702
586.996	34509
586.998	34561
587.052	36121
587.068	36598
587.106	37249
587.140	37642
587.161	37856
587.212	38974
587.215	39073
587.269	40665
587.284	41248
587.323	42433
587.356	43006
587.377	43540
587.427	45260
587.431	45409
587.485	46786
587.499	47344
587.539	48924
587.571	50269
587.593	51527
587.643	53929
587.648	54202
587.702	57746
587.715	58558
587.755	61162
587.786	63281
587.810	64624
587.858	67512
587.864	68121
587.917	75088
587.930	76566
587.971	81512
588.001	86099
588.025	89549
588.073	95025
588.079	96029
588.133	106343
588.145	108926
588.187	119138
588.217	126735
588.241	134486
588.288	151891
588.295	154432
588.348	176529
588.360	181700
588.402	204666
588.431	221400
588.456	237291
588.503	271150
588.510	277210
588.564	331813
588.575	344622
588.617	406262
588.646	453214
588.671	511883
588.718	637349
588.725	666486
588.778	913091
588.789	967961
588.832	1286942
588.861	1501820
588.886	1662779
588.932	1882073
588.939	1876933
588.993	1767224
589.004	1766756
589.047	1692225
589.075	1577018
589.100	1387923
589.147	990517
589.154	957231
589.207	730226
589.218	689449
589.261	631456
589.290	604372
589.314	622085
589.361	673749
589.368	697339
589.421	919960
589.433	972525
589.475	1307369
589.504	1532803
589.528	1634402
589.576	1745512
589.582	1717497
589.635	1485223
589.647	1415354
589.689	1030930
589.718	750197
589.742	628592
589.790	415847
589.795	403519
589.849	306682
589.861	286634
589.902	247744
589.932	220161
589.955	201668
590.004	164644
590.009	162321
590.062	141186
590.075	136262
590.115	124084
590.146	114958
590.168	110802
590.218	102607
590.222	102021
590.275	94679
590.289	92740
590.328	88169
590.360	84575
590.381	82311
590.431	76941
590.435	76735
590.488	73042
590.503	72088
590.541	70851
590.574	69556
590.594	67912
590.645	63878
590.647	63826
590.700	61341
590.716	60654
590.753	59255
590.787	57855
590.806	57127
590.859	54938
590.859	54964
590.912	54316
590.930	54030
590.965	53195
591.001	52441
591.018	52214
591.071	51055
591.072	50994
591.124	50627
591.143	50354
591.177	50056
591.214	49669
591.230	49813
591.283	50302
591.285	50259
591.336	51972
591.356	52664
591.389	51435
591.427	49499
591.442	48678
591.495	45558
591.498	45283
591.547	44527
591.569	44120
591.600	44094
591.640	43948
591.653	43981
591.706	43925
591.711	43870
591.759	44387
591.782	44614
591.811	46004
591.853	47828
591.864	47139
591.917	43203
591.924	42591
591.969	43030
591.995	43244
592.022	42968
592.066	42320
592.075	42753
592.127	45162
592.137	45569
592.180	48399
592.208	50014
592.233	47751
592.279	43215
592.285	43149
592.338	42179
592.350	41896
592.390	41189
592.421	40545
592.443	40480
592.491	40183
592.495	40293
592.548	41022
592.562	41164
592.600	40360
592.633	39565
592.653	39649
592.704	39523
592.705	39774
592.775	41067
592.846	40802
592.916	42671
592.987	45008
593.058	41618
593.128	38616
593.199	39642
593.270	37735
593.341	37863
593.411	40347
593.482	40623
593.553	38174
593.623	37514
593.694	39661
593.764	40696
593.835	39575
593.906	38277
593.976	39536
594.047	40079
594.117	44715
594.188	44719
594.258	38467
594.329	38375
594.399	37400
594.470	39047
594.540	39149
594.611	38829
594.681	38621
594.751	39031
594.822	41449
594.892	42770
594.963	43427
595.033	42835
595.103	43267
595.174	45848
595.244	57570
595.314	64295
595.384	45157
595.455	42631
595.525	44932
595.595	44949
595.665	44140
595.736	43042
595.806	43824
595.876	44243
595.946	44965
596.016	44399
596.087	47512
596.157	45846
596.227	44950
596.297	48071
596.367	49428
596.437	54802
596.507	61400
596.577	68217
596.647	53813
596.717	52858
596.787	52327
596.857	53647
596.927	51949
596.997	52594
597.067	53133
597.137	53431
597.207	54299
597.277	54649
597.347	52783
597.417	52508
597.487	54549
597.557	55034
597.626	55413
597.696	57692
597.766	61719
597.836	69584
597.906	54326
597.975	49729
598.045	49465
598.115	51288
598.185	54131
598.254	58811
598.324	64662
598.394	63867
598.464	62487
598.533	60402
598.603	55978
598.672	56285
598.742	56263
598.812	54993
598.881	56038
598.951	56334
599.020	55534
599.090	57974
599.159	58099
599.229	57316
599.299	54951
599.368	56202
599.437	55420
599.507	53315
599.576	53283
599.646	51913
599.715	52322
599.785	50785
599.854	52234
599.924	53089
599.993	50596
600.062	50993
600.132	51241
600.201	55251
600.270	61865
600.340	61118
600.409	59115
600.478	58774
600.547	60019
600.617	57563
600.686	50055
600.755	47151
600.824	48249
600.894	45138
600.963	43528
601.032	43769
601.101	42397
601.170	41066
601.239	42345
601.308	43897
601.378	42963
601.447	40588
601.516	41427
601.585	43916
601.654	47646
601.723	43130
601.792	42980
601.861	44430
601.930	47522
601.999	50700
602.068	46405
602.137	50161
602.206	49935
602.275	48765
602.343	54656
602.412	53986
602.481	45455
602.550	45111
602.619	46901
602.688	49247
602.756	46912
602.825	46289
602.894	47005
602.963	48436
603.032	47846
603.100	47704
603.169	47906
603.238	48862
603.307	48572
603.375	48465
603.444	49144
603.513	50325
603.581	50745
603.650	50468
603.719	49419
603.787	50885
603.856	51065
603.924	52348
603.993	54208
604.061	54394
604.130	57351
604.198	58867
604.267	57787
604.335	59199
604.404	59922
604.472	59427
604.541	59813
604.609	59292
604.678	58628
604.746	60341
604.815	62120
604.883	62732
604.951	63458
605.020	63318
605.088	64678
605.156	65043
605.225	66096
605.293	66439
605.361	67273
605.429	66852
605.498	70007
605.566	72368
605.634	74531
605.702	73754
605.771	75637
605.839	75221
605.907	75237
605.975	73409
606.043	71080
606.111	71645
606.180	71775
606.248	69639
606.316	69574
606.384	70913
606.452	79013
606.520	86747
606.588	76956
606.656	71772
606.724	70032
606.792	67314
606.860	61896
606.928	57173
606.996	55908
607.064	54444
607.132	55761
607.200	58490
607.267	60447
607.335	61221
607.403	62915
607.471	59927
607.539	58347
607.607	58847
607.674	53550
607.742	55530
607.810	56775
607.878	55691
607.946	55338
608.013	56664
608.081	58207
608.149	58856
608.216	59813
608.284	61749
608.352	59562
608.419	60444
608.487	68236
608.555	60361
608.622	59934
608.690	63393
608.757	69131
608.825	70119
608.893	69433
608.960	70733
609.028	71252
609.095	72871
609.163	64215
609.230	57668
609.298	55196
609.365	56142
609.432	59414
609.500	64436
609.567	72358
609.635	82463
609.702	85283
609.769	81605
609.837	69594
609.904	61324
609.971	62703
610.039	76456
610.106	101958
610.173	194230
610.241	442940
610.308	376512
610.375	205366
610.442	83105
610.509	64669
610.577	63017
610.644	62988
610.711	62609
610.778	63909
610.845	65448
610.912	69720
610.980	71527
611.047	70928
611.114	70446
611.181	67561
611.248	66882
611.315	71513
611.382	70412
611.449	72170
611.516	75229
611.583	75044
611.650	74290
611.717	76302
611.784	77705
611.851	83370
611.918	93416
611.984	107335
612.051	157456
612.118	325351
612.185	800637
612.252	445292
612.319	117191
612.386	96551
612.452	88717
612.519	88386
612.586	93585
612.653	88114
612.719	87555
612.786	82273
612.853	77682
612.919	74586
612.986	76911
613.053	71630
613.120	68167
613.186	65905
613.253	68206
613.319	67522
613.386	68085
613.453	69988
613.519	75001
613.586	84585
613.652	102973
613.719	89252
613.785	83161
613.852	70416
613.918	67832
613.985	71383
614.051	74799
614.118	76961
614.184	74548
614.250	69308
614.317	69215
614.383	69675
614.449	70955
614.516	68996
614.582	72084
614.648	68854
614.715	68273
614.781	67885
614.847	70081
614.914	69396
614.980	67024
615.046	66446
615.112	68638
615.179	68479
615.245	71463
615.311	75787
615.377	90641
615.443	90470
615.509	77504
615.575	75343
615.642	75648
615.708	79491
615.774	83319
615.840	90927
615.906	103580
615.972	138073
616.038	231062
616.104	439571
616.170	1007662
616.236	761491
616.302	171336
616.368	125763
616.434	94380
616.500	91397
616.565	97521
616.631	116543
616.697	96422
616.763	100975
616.829	147259
616.895	254205
616.961	228764
617.026	104852
617.092	78549
617.158	75063
617.224	73045
617.289	69771
617.355	68220
617.421	66134
617.487	67146
617.552	62981
617.618	61880
617.684	61791
617.749	63872
617.815	62135
617.880	59916
617.946	59927
618.012	62163
618.077	61175
618.143	59302
618.208	60658
618.274	64089
618.339	65709
618.405	55318
618.470	56551
618.536	56749
618.601	59063
618.667	55124
618.732	52476
618.798	51826
618.863	52771
618.928	51940
618.994	55071
619.059	58765
619.124	73409
619.190	57906
619.255	51731
619.320	52178
619.386	51431
619.451	50167
619.516	49957
619.581	49058
619.647	51437
619.712	50963
619.777	51237
619.842	50471
619.907	51478
619.972	53443
620.038	51439
620.103	50226
620.168	49133
620.233	50746
620.298	50641
620.363	49189
620.428	52157
620.493	52577
620.558	52109
620.623	52770
620.688	52160
620.753	51326
620.818	52461
620.883	54195
620.948	52699
621.013	54026
621.078	52552
621.143	53077
621.207	55965
621.272	55455
621.337	57301
621.402	57123
621.467	63446
621.532	63553
621.596	58552
621.661	54122
621.726	53363
621.791	53079
621.855	56579
621.920	57535
621.985	58262
622.049	61876
622.114	59483
622.179	57484
622.243	58421
622.308	58810
622.373	60703
622.437	58858
622.502	55537
622.566	57101
622.631	55739
622.695	57734
622.760	56998
622.824	56209
622.889	59111
622.953	63167
623.018	85531
623.082	80285
623.147	60240
623.211	58384
623.276	60821
623.340	54349
623.404	53741
623.469	54776
623.533	53766
623.597	53309
623.662	53717
623.726	51366
623.790	48451
623.854	47776
623.919	49057
623.983	49355
624.047	49713
624.111	48928
624.176	51781
624.240	53199
624.304	56105
624.368	50188
624.432	50572
624.496	53417
624.560	57585
624.625	60774
624.689	53206
624.753	52812
624.817	52143
624.881	49256
624.945	46621
625.009	47103
625.073	48997
625.137	52291
625.201	62776
625.265	59816
625.329	49621
625.393	51977
625.456	49195
625.520	50750
625.584	54658
625.648	59329
625.712	75477
625.776	130012
625.839	137829
625.903	65233
625.967	49415
626.031	67441
626.095	89603
626.158	49860
626.222	38329
626.286	37411
626.349	35973
626.413	35717
626.477	40377
626.540	35865
626.604	34537
626.668	34640
626.731	34202
626.795	35344
626.858	34977
626.922	33472
626.986	33573
627.049	31777
627.113	33793
627.176	33109
627.240	31582
627.303	32383
627.366	31863
627.430	32379
627.493	32696
627.557	31002
627.620	32922
627.684	32081
627.747	33103
627.810	29833
627.874	29994
627.937	27945
628.000	30948
628.064	30390
628.127	25043
628.190	27902
628.253	26517
628.317	25883
628.380	25891
628.443	25173
628.506	25421
628.569	24875
628.632	23955
628.696	23197
628.759	23662
628.822	22694
628.885	22393
628.948	23164
629.011	23481
629.074	23130
629.137	21645
629.200	21810
629.263	24315
629.326	20089
629.389	20567
629.452	21305
629.515	22006
629.578	22199
629.641	23175
629.704	22091
629.767	22375
629.830	20213
629.892	19204
629.955	20513
630.018	23370
630.081	26155
630.144	31365
630.207	23040
630.269	24552
630.332	21867
630.395	20865
630.458	18950
630.520	19409
630.583	19116
630.646	18703
630.708	18269
630.771	17631
630.834	19505
630.896	17365
630.959	19109
631.021	18246
631.084	18474
631.146	20698
631.209	22543
631.272	18167
631.334	17741
631.397	18561
631.459	19174
631.522	20546
631.584	19683
631.646	20983
631.709	23797
631.771	28561
631.834	22739
631.896	19546
631.958	17578
632.021	19089
632.083	17457
632.145	18369
632.208	17543
632.270	19592
632.332	16215
632.395	16225
632.457	17784
632.519	16901
632.581	17386
632.643	15781
632.706	17372
632.768	15618
632.830	17244
632.892	16913
632.954	16389
633.016	18503
633.078	16474
633.141	16992
633.203	17245
633.265	16631
633.327	16700
633.389	16218
633.451	20494
633.513	24645
633.575	21345
633.637	23191
633.698	20993
633.760	18358
633.822	17357
633.884	18754
633.946	17394
634.008	16851
634.070	17936
634.132	18882
634.193	19146
634.255	21965
634.317	20618
634.379	21911
634.441	18386
634.502	17117
634.564	18273
634.626	16395
634.687	17083
634.749	15817
634.811	15610
634.873	15021
634.934	15646
634.996	16193
635.057	15043
635.119	15027
635.181	15571
635.242	16981
635.304	14573
635.365	17990
635.427	15019
635.488	16310
635.550	14964
635.611	16047
635.673	14295
635.734	18097
635.796	16932
635.857	19581
635.918	17453
635.980	20791
636.041	20071
636.102	21832
636.164	21828
636.225	21232
636.286	17482
636.348	18355
636.409	16387
636.470	15571
636.531	16159
636.593	17274
636.654	15615
636.715	14483
636.776	13453
636.838	13159
636.899	14463
636.960	12904
637.021	13094
637.082	13349
637.143	14684
637.204	11748
637.265	12477
637.326	13829
637.387	13745
637.448	12221
637.509	13982
637.570	13169
637.631	13967
637.692	11245
637.753	10650
637.814	13737
637.875	11981
637.936	13373
637.997	12383
638.058	13386
638.119	13348
638.179	12540
638.240	12427
638.301	11445
638.362	12660
638.423	11606
638.483	13373
638.544	11262
638.605	11421
638.666	11421
638.726	11680
638.787	13888
638.848	11300
638.908	11354
638.969	11347
639.030	12253
639.090	10750
639.151	11820
639.211	14571
639.272	19417
639.332	30035
639.393	16699
639.453	12268
639.514	13197
639.574	11686
639.635	12033
639.695	12635
639.756	10837
639.816	13967
639.877	16940
639.937	29978
639.997	35664
640.058	13835
640.118	10679
640.178	12790
640.239	10706
640.299	10762
640.359	11337
640.420	11045
640.480	12361
640.540	12877
640.600	12115
640.661	13244
640.721	12698
640.781	18022
640.841	12292
640.901	12484
640.961	11743
641.021	13155
641.082	15899
641.142	23673
641.202	14693
641.262	9222
641.322	10965
641.382	10106
641.442	11705
641.502	10423
641.562	11519
641.622	10394
641.682	11077
641.742	11844
641.802	12477
641.861	12433
641.921	13126
641.981	15158
642.041	14339
642.101	17208
642.161	11436
642.221	9093
642.280	9977
642.340	9142
642.400	9511
642.460	11069
642.519	9838
642.579	9404
642.639	10312
642.698	7514
642.758	12477
642.818	10665
642.877	9549
642.937	11478
642.997	14620
643.056	21064
643.116	11509
643.175	12003
643.235	9902
643.294	10308
643.354	11556
643.414	13289
643.473	15834
643.532	17953
643.592	23003
643.651	36899
643.711	64872
643.770	125025
643.830	306852
643.889	626152
643.948	130383
644.008	24907
644.067	16729
644.126	13528
644.186	12393
644.245	11562
644.304	9163
644.363	12560
644.423	8501
644.482	10124
644.541	11094
644.600	8528
644.659	12533
644.719	14360
644.778	20448
644.837	32508
644.896	65664
644.955	142568
645.014	44433
645.073	12855
645.132	11121
645.191	11635
645.250	9172
645.309	12770
645.368	10389
645.427	13860
645.486	18996
645.545	30226
645.604	11263
645.663	10404
645.722	9695
645.781	11118
645.840	11898
645.898	15098
645.957	23049
646.016	31179
646.075	57736
646.134	112078
646.192	307686
646.251	426491
646.310	55959
646.369	18174
646.427	16079
646.486	11531
646.545	10057
646.603	9834
646.662	9952
646.721	9477
646.779	8428
646.838	9282
646.896	12483
646.955	14227
647.014	20869
647.072	34916
647.131	92350
647.189	40472
647.248	8985
647.306	8724
647.365	8806
647.423	7132
647.481	8219
647.540	6198
647.598	7803
647.657	6665
647.715	8326
647.773	6495
647.832	8089
647.890	6146
647.948	7081
648.007	7605
648.065	6166
648.123	6803
648.181	8658
648.240	7260
648.298	6269
648.356	7208
648.414	8491
648.472	7922
648.531	6857
648.589	7217
648.647	6294
648.705	6228
648.763	6905
648.821	7699
648.879	6787
648.937	8337
648.995	9920
649.053	12259
649.111	16650
649.169	26831
649.227	45564
649.285	92877
649.343	262936
649.401	118431
649.459	43459
649.516	25953
649.574	10752
649.632	12603
649.690	13333
649.748	12094
649.806	14401
649.863	25487
649.921	63626
649.979	40116
650.037	9932
650.094	6206
650.152	8339
650.210	4959
650.268	7461
650.325	6767
650.383	6437
650.440	4802
650.498	6455
650.556	6376
650.613	5393
650.671	6008
650.728	5866
650.786	6306
650.843	6713
650.901	4401
650.958	5222
651.016	4511
651.073	4888
651.131	4605
651.188	5080
651.246	6064
651.303	4563
651.360	5795
651.418	5649
651.475	5442
651.532	4049
651.590	4981
651.647	4620
651.704	5326
651.762	5566
651.819	5830
651.876	5265
651.933	4512
651.990	5010
652.048	3306
652.105	4571
652.162	4862
652.219	5138
652.276	4951
652.333	5071
652.390	3408
652.448	4193
652.505	4801
652.562	5198
652.619	3992
652.676	5083
652.733	5484
652.790	4398
652.847	3621
652.904	5086
652.961	3054
653.017	3479
653.074	5083
653.131	5339
653.188	3413
653.245	4630
653.302	4052
653.359	4457
653.415	4651
653.472	4192
653.529	5191
653.586	3871
653.642	4673
653.699	4670
653.756	3647
653.813	4442
653.869	4998
653.926	3448
653.983	3769
654.039	5344
654.096	4055
654.152	5344
654.209	3639
654.266	5034
654.322	3900
654.379	5751
654.435	6753
654.492	6287
654.548	9692
654.605	13536
654.661	7782
654.717	4538
654.774	4993
654.830	4928
654.887	4902
654.943	5579
655.000	4937
655.056	4885
655.112	5051
655.168	4505
655.225	5174
655.281	5990
655.337	6464
655.394	10551
655.450	7602
655.506	7453
655.562	11085
655.618	9968
655.675	3848
655.731	5769
655.787	4838
655.843	4845
655.899	4502
655.955	5142
656.011	5970
656.067	5206
656.123	5869
656.179	7460
656.235	7724
656.291	5567
656.347	6863
656.403	5948
656.459	5428
656.515	6385
656.571	5452
656.627	5725
656.683	4757
656.739	5017
656.795	5931
656.850	5100
656.906	7094
656.962	5476
657.018	3359
657.074	4569
657.129	5288
657.185	6796
657.241	10884
657.297	7234
657.352	4758
657.408	4398
657.464	6599
657.519	4524
657.575	3500
657.630	4576
657.686	4048
657.742	3966
657.797	4477
657.853	3759
657.908	5177
657.964	2537
658.019	4121
658.075	4405
658.130	4756
658.186	2347
658.241	4182
658.297	3367
658.352	4581
658.407	3953
658.463	2312
658.518	4510
658.573	3561
658.629	2964
658.684	4060
658.739	4324
658.795	3159
658.850	3541
658.905	3611
658.960	3412
659.016	2786
659.071	4247
659.126	4768
659.181	4394
659.236	10445
659.291	10834
659.346	5504
659.401	4584
659.457	4354
659.512	3323
659.567	4635
659.622	4605
659.677	4192
659.732	3279
659.787	4643
659.842	4902
659.897	5791
659.952	4219
660.007	4164
660.061	3535
660.116	3062
660.171	3157
660.226	3648
660.281	4402
660.336	3189
660.391	4174
660.445	3745
660.500	3860
660.555	3841
660.610	3083
660.664	3511
660.719	3299
660.774	4316
660.828	4705
660.883	4800
660.938	4490
660.992	3185
661.047	4006
661.101	4165
661.156	4156
661.211	3061
661.265	3052
661.320	3564
661.374	3821
661.429	3896
661.483	4854
661.538	2807
661.592	3596
661.647	3584
661.701	4039
661.755	4080
661.810	4106
661.864	2742
661.919	3958
661.973	3630
662.027	4076
662.081	3172
662.136	4342
662.190	4307
662.244	4818
662.299	3538
662.353	4025
662.407	3882
662.461	3465
662.515	3261
662.569	3858
662.624	3773
662.678	3092
662.732	3683
662.786	3838
662.840	3471
662.894	3846
662.948	2845
663.002	3302
663.056	3168
663.110	3330
663.164	3679
663.218	3638
663.272	4349
663.326	4876
663.380	3956
663.434	4538
663.488	3669
663.542	4340
663.595	4391
663.649	3097
663.703	4125
663.757	3768
663.811	2635
663.864	3921
663.918	3520
663.972	4603
664.026	3748
664.079	3511
664.133	3832
664.187	4307
664.240	3823
664.294	3381
664.348	4404
664.401	3526
664.455	3682
664.508	4535
664.562	3595
664.615	3307
664.669	3822
664.722	3344
664.776	3520
664.829	4340
664.883	3802
664.936	3589
664.990	4653
665.043	3830
665.097	4629
665.150	4548
665.203	3942
665.257	3415
665.310	4246
665.363	3965
665.417	5185
665.470	4937
665.523	4218
665.576	4479
665.630	3412
665.683	4353
665.736	4212
665.789	4413
665.842	3936
665.895	3975
665.949	4326
666.002	3428
666.055	4181
666.108	4557
666.161	4034
666.214	5234
666.267	5075
666.320	6305
666.373	4707
666.426	4264
666.479	3433
666.532	5201
666.585	5639
666.638	5983
666.691	4592
666.744	5560
666.796	5450
666.849	5037
666.902	4202
666.955	4293
667.008	3308
667.060	3635
667.113	4040
667.166	3112
667.219	4401
667.271	4303
667.324	3033
667.377	3785
667.430	4275
667.482	3661
667.535	4336
667.587	4709
667.640	5603
667.693	6608
667.745	11188
667.798	11810
667.850	4860
667.903	4715
667.955	4878
668.008	4229
668.060	5647
668.113	5247
668.165	5002
668.218	5019
668.270	4850
668.322	4102
668.375	2891
668.427	5133
668.479	3848
668.532	5692
668.584	5349
668.636	4192
668.689	4642
668.741	4306
668.793	4825
668.845	4706
668.898	4376
668.950	4387
669.002	4771
669.054	4577
669.106	4005
669.158	5023
669.211	4765
669.263	3821
669.315	5800
669.367	4954
669.419	4538
669.471	5850
669.523	6165
669.575	7577
669.627	5945
669.679	5123
669.731	5221
669.783	5916
669.835	6017
669.886	6365
669.938	5628
669.990	5514
670.042	5943
670.094	6580
670.146	7492
670.197	9345
670.249	12035
670.301	13110
670.353	18675
670.404	25274
670.456	37592
670.508	54991
670.560	87656
670.611	139356
670.663	244074
670.715	532371
670.766	739336
670.818	302056
670.869	68125
670.921	32561
670.972	22689
671.024	16070
671.075	13497
671.127	11423
671.178	9403
671.230	8422
671.281	8737
671.333	7998
671.384	7072
671.436	7844
671.487	9241
671.538	9813
671.590	11529
671.641	16748
671.692	26107
671.744	44950
671.795	28620
671.846	10705
671.897	7415
671.949	6330
672.000	5399
672.051	5467
672.102	5942
672.153	5615
672.204	4415
672.256	5340
672.307	4702
672.358	5221
672.409	5137
672.460	4963
672.511	3849
672.562	4187
672.613	4094
672.664	4737
672.715	5316
672.766	4741
672.817	3799
672.868	3817
672.919	4499
672.970	4078
673.021	4866
673.071	3802
673.122	3581
673.173	4472
673.224	3903
673.275	3860
673.326	3283
673.376	4338
673.427	3460
673.478	4026
673.528	4634
673.579	4387
673.630	3327
673.680	5416
673.731	3734
673.782	3650
673.832	4112
673.883	4381
673.934	3129
673.984	3879
674.035	4201
674.085	3739
674.136	3606
674.186	4019
674.237	4818
674.287	8086
674.338	5544
674.388	4361
674.438	3650
674.489	3459
674.539	4019
674.589	4759
674.640	4669
674.690	4019
674.740	4476
674.791	4418
674.841	3930
674.891	4537
674.942	5257
674.992	4209
675.042	2782
675.092	3013
675.142	3809
675.193	3668
675.243	3928
675.293	4662
675.343	4056
675.393	3502
675.443	3870
675.493	4017
675.543	3653
675.593	3387
675.643	3541
675.693	4003
675.743	3323
675.793	3250
675.843	4008
675.893	3479
675.943	3788
675.993	3181
676.043	3026
676.093	4155
676.142	3424
676.192	3412
676.242	3481
676.292	3152
676.341	3876
676.391	3069
676.441	2649
676.491	3046
676.540	2769
676.590	3467
676.640	3520
676.689	3063
676.739	2483
676.789	2840
676.838	2465
676.888	3455
676.937	2888
676.987	2042
677.037	2401
677.086	2629
677.136	2878
677.185	2591
677.235	2150
677.284	3502
677.333	3593
677.383	1924
677.432	2153
677.482	2040
677.531	3754
677.580	2618
677.630	2673
677.679	3032
677.728	3185
677.778	3054
677.827	2623
677.876	2264
677.925	2021
677.975	2898
678.024	3247
678.073	3071
678.122	2931
678.171	2737
678.220	3087
678.269	3588
678.319	3890
678.368	2670
678.417	3277
678.466	4278
678.515	3936
678.564	2753
678.613	2277
678.662	3689
678.711	2090
678.760	3086
678.809	3246
678.857	3297
678.906	3436
678.955	3207
679.004	3336
679.053	2271
679.102	2794
679.151	3250
679.199	1902
679.248	2776
679.297	3343
679.346	3023
679.394	3824
679.443	3425
679.492	2780
679.540	2328
679.589	2807
679.638	2366
679.686	2412
679.735	3291
679.784	2828
679.832	3603
679.881	2782
679.929	2085
679.978	2671
680.026	1717
680.075	2628
680.123	2479
680.172	3250
680.220	1558
680.268	2158
680.317	2336
680.365	1828
680.414	2261
680.462	2327
680.510	2274
680.559	2196
680.607	2224
680.655	2105
680.703	2550
680.752	2283
680.800	1824
680.848	2675
680.896	1867
680.945	2746
680.993	2319
681.041	2501
681.089	1927
681.137	1856
681.185	2012
681.233	1612
681.258	2162
681.281	2667
681.329	2583
681.377	2022
681.380	2061
681.425	2477
681.473	3095
681.502	2559
681.521	2155
681.569	2659
681.617	2075
681.624	2212
681.665	2964
681.713	3416
681.745	2688
681.761	2326
681.809	2729
681.857	2734
681.867	2800
681.904	2935
681.952	3390
681.989	2992
682.000	2856
682.048	3455
682.096	2469
682.111	2324
682.143	1920
682.191	2502
682.233	3354
682.239	3474
682.286	3470
682.334	2000
682.354	2336
682.382	2740
682.430	2939
682.476	2928
682.477	2912
682.525	2771
682.572	2873
682.598	2570
682.620	2308
682.667	2293
682.715	4081
682.720	4066
682.763	3799
682.810	4378
682.841	3848
682.857	3516
682.905	3090
682.952	3467
682.963	3423
683.000	3243
683.047	2786
683.085	3150
683.095	3221
683.142	3267
683.190	2933
683.206	3035
683.237	3218
683.284	2935
683.328	3082
683.332	3083
683.379	3681
683.426	3260
683.449	3237
683.473	3171
683.521	3511
683.568	4057
683.571	4032
683.615	3549
683.662	4082
683.693	3999
683.709	3930
683.757	3096
683.804	3887
683.814	3780
683.851	3385
683.898	3986
683.936	4006
683.945	4016
683.992	3946
684.039	4643
684.057	4724
684.086	4764
684.133	3988
684.179	4345
684.180	4339
684.227	4672
684.274	4750
684.300	4661
684.321	4626
684.368	4533
684.415	4206
684.422	4298
684.462	4739
684.509	3749
684.543	3961
684.556	4035
684.603	4347
684.649	3841
684.665	4009
684.696	4374
684.743	4454
684.786	4155
684.790	4132
684.837	4149
684.883	5075
684.908	5006
684.930	4822
684.977	5231
685.023	4354
685.029	4437
685.070	4901
685.117	4442
685.150	4300
685.164	4299
685.210	4619
685.257	5450
685.272	5423
685.303	5377
685.350	5001
685.393	5887
685.396	5953
685.443	6495
685.490	6417
685.514	6224
685.536	5785
685.583	6039
685.629	5683
685.636	5584
685.675	5404
685.722	5227
685.757	6050
685.768	6222
685.815	5469
685.861	5521
685.878	5528
685.908	5726
685.954	5663
686.000	6046
686.000	6050
686.047	6640
686.093	7216
686.121	7585
686.139	7560
686.185	6456
686.232	6325
686.242	6102
686.278	5404
686.324	5421
686.363	4718
686.370	4637
686.416	5152
686.463	5475
686.484	5293
686.509	5044
686.555	5801
686.601	5319
686.606	5318
686.647	5386
686.693	5299
686.727	5234
686.739	5184
686.785	5870
686.831	5523
686.848	5698
686.877	5914
686.923	5213
686.969	4773
686.969	4771
687.015	5077
687.061	5404
687.090	5318
687.107	5262
687.153	6214
687.199	5675
687.211	5648
687.245	5711
687.291	6796
687.332	6345
687.336	6273
687.382	6125
687.428	6374
687.453	6370
687.474	6290
687.520	6208
687.565	5787
687.574	5627
687.611	5228
687.657	5637
687.695	5673
687.702	5688
687.748	6019
687.794	6457
687.816	6237
687.839	5927
687.885	6027
687.931	5882
687.937	5850
687.976	5733
688.022	5751
688.058	5996
688.067	6052
688.113	6203
688.158	5641
688.179	5765
688.204	6035
688.249	5814
688.295	6355
688.300	6365
688.340	6338
688.386	6826
688.421	6540
688.431	6471
688.477	6551
688.522	6769
688.542	6991
688.567	7253
688.613	6140
688.658	6875
688.663	6846
688.703	6581
688.749	6784
688.784	6403
688.794	6302
688.839	6236
688.884	6133
688.905	6212
688.930	6391
688.975	6217
689.020	6492
689.026	6439
689.065	6024
689.110	6438
689.146	6416
689.155	6414
689.201	6105
689.246	5706
689.267	5763
689.291	5993
689.336	6319
689.381	6729
689.388	6785
689.426	6863
689.471	6642
689.509	6507
689.516	6491
689.561	6512
689.606	6076
689.630	6170
689.651	6352
689.696	6349
689.741	6582
689.750	6610
689.785	6594
689.830	6596
689.871	6404
689.875	6400
689.920	6293
689.965	6424
689.992	6364
690.010	6402
690.054	6386
690.099	6715
690.112	6697
690.144	6422
690.189	6786
690.233	6326
690.233	6334
690.278	6489
690.323	6809
690.354	6938
690.367	6926
690.412	6928
690.457	6900
690.474	6933
690.501	6888
690.546	6772
690.590	6154
690.595	6146
690.635	6534
690.680	6541
690.716	6693
690.724	6708
690.769	6887
690.813	7278
690.836	6971
690.857	6761
690.902	6888
690.946	7271
690.957	7199
690.991	7045
691.035	7260
691.077	7750
691.080	7781
691.124	7371
691.168	7579
691.198	7525
691.213	7577
691.257	8137
691.301	8044
691.318	8198
691.346	8030
691.390	7110
691.434	6906
691.439	6802
691.478	6794
691.522	7734
691.559	7564
691.567	7486
691.611	7729
691.655	7352
691.680	7238
691.699	7313
691.743	7846
691.787	8161
691.800	8049
691.831	7600
691.875	8099
691.919	7960
691.921	7948
691.964	8189
692.008	8422
692.041	8301
692.052	8290
692.096	8411
692.139	8650
692.162	8559
692.183	8297
692.227	8158
692.271	7977
692.282	7914
692.315	8175
692.359	8557
692.402	8522
692.403	8535
692.447	8485
692.490	8263
692.523	8141
692.534	8130
692.578	8239
692.622	7915
692.643	7874
692.666	7914
692.709	7909
692.753	8028
692.763	8070
692.797	8145
692.840	8021
692.884	7905
692.884	7921
692.928	8008
692.971	8268
693.004	8154
693.015	8085
693.059	8199
693.102	8052
693.124	7927
693.146	8036
693.189	8609
693.233	8915
693.245	9022
693.276	8878
693.320	8474
693.363	8000
693.365	7973
693.407	8348
693.450	8682
693.485	8987
693.493	8994
693.537	8626
693.580	8562
693.605	8502
693.624	8545
693.667	8595
693.710	8502
693.725	8465
693.753	8515
693.797	8680
693.840	8672
693.845	8653
693.883	8624
693.926	8686
693.966	8764
693.970	8749
694.013	8211
694.056	7815
694.086	7466
694.099	7660
694.142	8443
694.185	8926
694.206	9317
694.229	9611
694.272	9550
694.315	9866
694.326	9934
694.358	10235
694.401	10314
694.444	10681
694.446	10674
694.487	10475
694.530	10005
694.566	9797
694.573	9732
694.616	8984
694.659	8399
694.686	8027
694.702	8064
694.745	7987
694.787	7831
694.806	7856
694.830	8132
694.873	8414
694.916	8670
694.926	8759
694.959	8791
695.002	8701
695.044	8356
695.046	8338
695.087	8931
695.130	9314
695.166	9530
695.172	9511
695.215	9396
695.258	9246
695.286	8998
695.301	8942
695.343	9055
695.386	9042
695.406	8928
695.428	8814
695.471	8528
695.514	8604
695.526	8549
695.556	8844
695.599	9117
695.641	9484
695.646	9505
695.684	8910
695.726	8186
695.766	7304
695.769	7340
695.811	7985
695.854	8264
695.886	8536
695.896	8468
695.938	8197
695.981	7811
696.005	7616
696.023	7871
696.065	8475
696.108	9001
696.125	9215
696.150	9263
696.192	9354
696.235	9258
696.245	9236
696.277	9274
696.319	9213
696.361	9264
696.365	9238
696.404	9061
696.446	8914
696.485	8697
696.488	8741
696.530	9040
696.572	9274
696.604	9556
696.614	9551
696.656	9308
696.698	9114
696.724	8953
696.740	8951
696.783	8798
696.825	8901
696.844	8790
696.867	8849
696.909	9066
696.951	9105
696.964	9169
696.992	9199
697.034	9111
697.076	8995
697.083	8963
697.118	9139
697.160	9189
697.202	9414
697.203	9394
697.244	9314
697.286	9119
697.323	8946
697.327	8970
697.369	8995
697.411	9048
697.442	9065
697.453	9199
697.494	9592
697.536	10006
697.562	10244
697.578	10252
697.620	10209
697.661	10165
697.682	10075
697.703	10290
697.744	10787
697.786	11330
697.801	11431
697.828	11454
697.869	11521
697.911	11556
697.921	11539
697.952	11157
697.994	10671
698.035	10104
698.040	10013
698.077	10085
698.118	10158
698.160	10157
698.160	10129
698.201	10074
698.243	9969
698.279	9886
698.284	9935
698.325	10103
698.367	10342
698.399	10413
698.408	10395
698.449	10216
698.491	10074
698.518	9913
698.532	9829
698.573	9507
698.614	9205
698.638	8999
698.656	9238
698.697	9721
698.738	10238
698.757	10438
698.779	10473
698.820	10499
698.862	10520
698.877	10497
698.903	10750
698.944	11119
698.985	11481
698.996	11553
699.026	11343
699.067	11010
699.116	10586
699.235	9710
699.354	8884
699.474	10519
699.593	12293
699.713	11706
699.832	10640
699.951	11009
700.070	11203
700.190	10039
700.309	10378
700.428	11531
700.547	9643
700.667	10484
700.786	12048
700.905	10153
701.024	10777
701.143	10028
701.262	9700
701.381	10134
701.500	9887
701.619	11980
701.738	9236
701.857	10228
701.976	8669
702.095	8978
702.214	10827
702.333	11479
702.452	9381
702.571	9083
702.690	8933
702.809	8642
702.928	8021
703.047	9401
703.165	8258
703.284	9277
703.403	9117
703.522	10107
703.640	9551
703.759	13783
703.878	15165
703.997	9478
704.115	7791
704.234	9413
704.353	8282
704.471	8640
704.590	7849
704.708	8313
704.827	7737
704.946	9631
705.064	8653
705.183	8433
705.301	10834
705.420	13608
705.538	11340
705.656	10217
705.775	9248
705.893	11123
706.012	11460
706.130	11120
706.249	10934
706.367	11009
706.485	11202
706.604	10892
706.722	10838
706.840	13245
706.958	13286
707.077	11468
707.195	10254
707.313	10024
707.431	8949
707.549	9285
707.668	9422
707.786	10047
707.904	8975
708.022	9506
708.140	9781
708.258	8784
708.376	9298
708.494	10386
708.612	10363
708.730	14299
708.848	12847
708.966	13052
709.084	12882
709.202	10925
709.320	11635
709.438	11632
709.556	12114
709.674	11763
709.791	11207
709.909	11145
710.027	10943
710.145	10772
710.263	11348
710.380	11445
710.498	10864
710.616	11313
710.733	11234
710.851	10088
710.969	11590
711.086	10796
711.204	10085
711.322	11086
711.439	10705
711.557	12216
711.674	10033
711.792	11037
711.909	10651
712.027	9459
712.144	10351
712.262	11011
712.379	10825
712.497	15966
712.614	14898
712.732	13728
712.849	11667
712.966	14813
713.084	17666
713.201	14726
713.318	12349
713.436	12863
713.553	13713
713.670	14115
713.787	15035
713.905	14425
714.022	12265
714.139	12914
714.256	15687
714.373	18649
714.490	28153
714.608	69357
714.725	278010
714.842	221167
714.959	21562
715.076	14200
715.193	11587
715.310	12730
715.427	12201
715.544	11416
715.661	10694
715.778	11198
715.895	12046
716.011	12350
716.128	12079
716.245	11925
716.362	14648
716.479	14869
716.596	10414
716.713	11488
716.829	11158
716.946	10935
717.063	9029
717.180	9915
717.296	9863
717.413	10253
717.530	10265
717.646	9853
717.763	9176
717.880	9147
717.996	8937
718.113	10374
718.229	9210
718.346	9596
718.462	10108
718.579	14943
718.695	25937
718.812	16182
718.928	14500
719.045	10789
719.161	9257
719.277	9991
719.394	9143
719.510	10230
719.626	9663
719.743	12644
719.859	13700
719.975	22375
720.092	80718
720.208	148281
720.324	18655
720.440	11031
720.557	12710
720.673	20549
720.789	25635
720.905	47966
721.021	14824
721.137	8556
721.253	9311
721.369	9097
721.486	11163
721.602	15039
721.718	8597
721.834	8114
721.950	7664
722.066	8432
722.181	8496
722.297	8780
722.413	8188
722.529	7837
722.645	7330
722.761	6966
722.877	6382
722.993	7358
723.108	8563
723.224	7525
723.340	7500
723.456	7171
723.571	7585
723.687	7056
723.803	6621
723.918	7414
724.034	7293
724.150	7541
724.265	9470
724.381	19064
724.497	20817
724.612	7718
724.728	6134
724.843	7661
724.959	8442
725.074	19164
725.190	19190
725.305	7899
725.421	6893
725.536	6097
725.651	5523
725.767	6536
725.882	6664
725.997	5835
726.113	6700
726.228	6701
726.343	6014
726.459	6322
726.574	7131
726.689	5511
726.804	6622
726.920	6348
727.035	6332
727.150	6329
727.265	6156
727.380	6547
727.495	6446
727.610	5967
727.725	5063
727.841	6068
727.956	6437
728.071	7014
728.186	6012
728.301	5370
728.416	7203
728.531	6145
728.645	5316
728.760	5676
728.875	7203
728.990	6493
729.105	5934
729.220	6976
729.335	6516
729.449	5292
729.564	5027
729.679	5426
729.794	4840
729.908	6944
730.023	5629
730.138	5222
730.253	5210
730.367	4683
730.482	5198
730.596	5810
730.711	6210
730.826	6180
730.940	5187
731.055	6062
731.169	5136
731.284	4760
731.398	4676
731.513	6810
731.627	6222
731.742	8322
731.856	6845
731.970	5813
732.085	6441
732.199	8685
732.313	11614
732.428	31910
732.542	85735
732.656	40055
732.771	9244
732.885	6173
732.999	6394
733.113	5971
733.227	5665
733.342	6469
733.456	5593
733.570	5003
733.684	5132
733.798	5484
733.912	5726
734.026	5179
734.140	5352
734.254	6523
734.368	11291
734.482	12418
734.596	5059
734.710	5403
734.824	5429
734.938	5436
735.052	5024
735.166	6812
735.280	5186
735.393	5043
735.507	5121
735.621	7962
735.735	12024
735.849	5916
735.962	4888
736.076	5555
736.190	4597
736.303	8634
736.417	8981
736.531	5034
736.644	4858
736.758	3546
736.872	4178
736.985	4471
737.099	4248
737.212	3767
737.326	4221
737.439	4444
737.553	4237
737.666	4300
737.780	3882
737.893	4130
738.007	4295
738.120	4335
738.233	4057
738.347	4766
738.460	4876
738.573	5474
738.687	4103
738.800	6201
738.913	7884
739.026	5356
739.140	3456
739.253	3752
739.366	4326
739.479	3350
739.592	3236
739.705	3988
739.818	4744
739.932	3677
740.045	4718
740.158	4062
740.271	4420
740.384	3856
740.497	3401
740.610	4994
740.723	3905
740.836	4942
740.949	5199
741.062	7968
741.174	5499
741.287	4896
741.400	3792
741.513	4712
741.626	4869
741.739	4481
741.851	4246
741.964	4407
742.077	4136
742.189	5143
742.302	5690
742.415	5512
742.527	3998
742.640	4687
742.753	3073
742.865	3919
742.978	2495
743.090	4171
743.203	3287
743.316	3584
743.428	3313
743.541	3830
743.653	2581
743.766	3104
743.878	3232
743.990	5066
744.103	5569
744.215	5818
744.327	3858
744.440	6141
744.552	9375
744.664	5190
744.777	3215
744.889	3523
745.001	3445
745.113	3498
745.226	2655
745.338	3320
745.450	2624
745.562	3185
745.674	3106
745.786	2840
745.898	3472
746.010	2758
746.122	3145
746.234	3480
746.347	3732
746.459	3502
746.570	3177
746.682	4569
746.794	6706
746.906	3739
747.018	2749
747.130	3125
747.242	2454
747.354	3123
747.466	3933
747.577	3378
747.689	3070
747.801	3594
747.913	2884
748.024	2439
748.136	2250
748.248	3047
748.359	2391
748.471	3321
748.583	2701
748.694	2519
748.806	3948
748.918	4226
749.029	3343
749.141	4538
749.252	3868
749.364	5609
749.475	11822
749.587	5288
749.698	3087
749.809	4145
749.921	2602
750.032	2261
750.144	2783
750.255	2912
750.366	2792
750.478	3256
750.589	2446
750.700	2872
750.811	3294
750.923	4768
751.034	13574
751.145	10385
751.256	2895
751.367	3248
751.479	2552
751.590	2969
751.701	2218
751.812	2261
751.923	2582
752.034	2737
752.145	1788
752.256	1762
752.367	2146
752.478	2537
752.589	2512
752.700	2537
752.811	2219
752.922	2332
753.032	2822
753.143	4181
753.254	1644
753.365	3295
753.476	2300
753.586	2214
753.697	2399
753.808	2835
753.919	2473
754.029	2913
754.140	1870
754.251	2278
754.361	2597
754.472	2562
754.582	2719
754.693	2143
754.804	2407
754.914	1668
755.025	1476
755.135	2554
755.246	2044
755.356	2103
755.466	2437
755.577	3163
755.687	1928
755.798	2236
755.908	2029
756.018	2087
756.129	2004
756.239	2302
756.349	2787
756.460	2533
756.570	3119
756.680	2764
756.790	2578
756.900	3881
757.011	2785
757.121	2151
757.231	2239
757.341	2188
757.451	2109
757.561	1632
757.671	2918
757.781	1854
757.891	2957
758.001	2428
758.111	2013
758.221	2570
758.331	3488
758.441	3544
758.551	4568
758.661	4114
758.771	2930
758.880	2462
758.990	2389
759.100	2504
759.210	1893
759.320	3121
759.429	2633
759.539	2942
759.649	2282
759.758	3706
759.868	3446
759.978	2216
760.087	3352
760.197	3334
760.307	2577
760.416	2861
760.526	2213
760.635	3392
760.745	2510
760.854	3290
760.964	2910
761.073	3737
761.182	3376
761.292	2789
761.401	2795
761.511	2861
761.620	1977
761.729	2661
761.839	2079
761.948	3012
762.057	2791
762.166	2866
762.276	1438
762.385	3067
762.494	2844
762.603	3225
762.712	2215
762.822	2128
762.931	2513
763.040	1654
763.149	1843
763.258	3176
763.367	2170
763.476	2294
763.585	2286
763.694	2538
763.803	2290
763.912	2860
764.021	2318
764.130	2743
764.238	2070
764.347	2858
764.456	2280
764.565	2750
764.674	1688
764.783	2183
764.891	2354
765.000	3076
765.109	2936
765.217	2555
765.326	4296
765.435	4584
765.543	3819
765.652	3892
765.761	4194
765.869	5852
765.978	7942
766.086	14557
766.195	30058
766.303	92659
766.412	300120
766.520	169972
766.629	25782
766.737	11107
766.846	6987
766.954	5233
767.062	5070
767.171	5014
767.279	3374
767.387	3431
767.496	3193
767.604	2928
767.712	2988
767.820	2319
767.928	2630
768.037	2707
768.145	2908
768.253	3690
768.361	2588
768.469	3526
768.577	2286
768.685	3996
768.793	3837
768.901	2249
769.009	3575
769.117	2946
769.225	3735
769.333	5150
769.441	6861
769.549	13380
769.657	31687
769.765	121400
769.873	213365
769.981	39879
770.088	7473
770.196	5149
770.304	4216
770.412	4298
770.519	3413
770.627	3809
770.735	3229
770.842	3393
770.950	3298
771.058	2689
771.165	2305
771.273	3236
771.380	2803
771.488	3352
771.595	2374
771.703	3444
771.810	2655
771.918	3180
772.025	2385
772.133	2708
772.240	2983
772.348	4057
772.455	3323
772.562	2697
772.670	2385
772.777	3554
772.884	1916
772.991	2784
773.099	2449
773.206	2495
773.313	3239
773.420	3369
773.528	1676
773.635	2871
773.742	2194
773.849	2832
773.956	2796
774.063	3062
774.170	2243
774.277	3081
774.384	2425
774.491	2586
774.598	2831
774.705	4009
774.812	4105
774.919	3325
775.026	2712
775.133	2740
775.239	2387
775.346	2564
775.453	2215
775.560	2320
775.667	1861
775.773	1701
775.880	3785
775.987	2469
776.093	3405
776.200	2699
776.307	2393
776.413	3193
776.520	2955
776.627	2796
776.733	2903
776.840	2458
776.946	4880
777.053	5059
777.159	9199
777.266	5393
777.372	9101
777.478	7750
777.585	4600
777.691	3117
777.798	2729
777.904	3448
778.010	5577
778.117	4447
778.223	2339
778.329	1611
778.435	2276
778.542	2885
778.648	1842
778.754	2105
778.860	2676
778.966	2580
779.072	2314
779.178	2402
779.284	2428
779.391	1861
779.497	1593
779.603	3472
779.708	460
779.815	3020
779.920	4337
780.026	3995
780.132	1833
780.238	2801
780.344	2272
780.450	3059
780.556	1689
780.661	2545
780.767	2003
780.873	2761
780.979	1755
781.085	1946
781.190	2223
781.296	2567
781.402	1287
781.507	1429
781.613	1396
781.719	1506
781.824	1631
781.930	2163
782.035	2525
782.141	2186
782.246	1913
782.352	1852
782.457	2031
782.563	2373
782.668	2813
782.773	2093
782.879	1612
782.984	2868
783.090	3358
783.195	5715
783.300	3528
783.405	2386
783.511	1554
783.616	3113
783.721	2341
783.826	2571
783.932	2429
784.037	2768
784.142	1852
784.247	2054
784.352	1971
784.457	1912
784.562	2270
784.667	2066
784.772	1923
784.877	2355
784.982	1837
785.087	2027
785.192	2531
785.297	1442
785.402	1459
785.507	1546
785.611	1866
785.716	2085
785.821	1783
785.926	1646
786.031	2131
786.135	1754
786.240	1730
786.345	1582
786.450	2003
786.554	1676
786.659	963
786.763	213
786.868	2034
786.973	1424
787.077	1551
787.182	1594
787.286	1421
787.391	1549
787.495	848
787.600	2436
787.704	124
787.809	1740
787.913	1118
788.017	2021
788.122	1943
788.226	1713
788.330	116
788.435	1278
788.539	2134
788.643	1118
788.747	1107
788.852	2319
788.956	1003
789.060	2069
789.164	1194
789.268	976
789.372	1908
789.476	1919
789.580	195
789.684	1507
789.788	1430
789.892	1742
789.996	1737
790.100	1591
790.204	1268
790.308	1052
790.412	481
790.516	2112
790.620	1761
790.724	2066
790.828	1049
790.931	37
791.035	2023
791.139	640
791.242	711
791.346	2585
791.450	769
791.554	932
791.657	-19
791.761	1958
791.864	1533
791.968	1606
792.072	1195
792.175	1872
792.279	984
792.382	1866
792.486	1532
792.589	958
792.693	1330
792.796	711
792.899	1429
793.003	1210
793.106	-463
793.209	1369
793.313	2025
793.416	-252
793.519	2328
793.623	4379
793.726	4843
793.829	1878
793.932	1560
794.035	358
794.138	2487
794.242	2356
794.345	2051
794.448	3294
794.551	3722
794.654	3762
794.757	2874
794.860	1919
794.963	1904
795.066	518
795.169	2305
795.272	659
795.375	980
795.477	545
795.580	1723
795.683	94
795.786	1347
795.889	-71
795.991	2179
796.094	2091
796.197	147
796.300	2194
796.402	457
796.505	485
796.608	743
796.710	1538
796.813	674
796.915	1076
797.018	1038
797.120	1690
797.223	-290
797.326	2263
797.428	856
797.530	584
797.633	1060
797.735	2819
797.838	3000
797.940	2671
798.042	-354
798.145	809
798.247	987
798.349	-187
798.452	1670
798.554	1668
798.656	266
798.758	2329
798.860	783
798.962	584
799.065	739
799.167	-188
799.269	1140
799.371	1787
799.473	1858
799.575	1114
799.677	1334
799.779	3289
799.881	2917
799.983	2150
800.085	722
800.187	720
800.289	-327
800.390	550
800.492	1046
800.594	2102
800.696	263
800.798	1310
800.899	933
801.001	698
801.103	627
801.205	1041
801.306	904
801.408	1226
801.509	706
801.611	1009
801.713	1274
801.814	129
801.916	51
802.017	756
802.119	-399
802.220	1797
802.322	-875
802.423	2704
802.525	-127
802.626	1595
802.727	962
802.829	1256
802.930	-1495
803.031	2129
803.133	99
803.234	1302
803.335	387
803.436	455
803.538	300
803.639	-976
803.740	481
803.841	48
803.942	1536
804.043	1028
804.144	-474
804.245	1357
804.346	-308
804.447	313
804.548	2227
804.649	3342
804.750	622
804.851	581
804.952	146
805.053	1242
805.154	-640
805.255	998
805.355	181
805.456	518
805.557	-490
805.658	-175
805.758	1282
805.859	418
805.960	98
806.061	547
806.161	156
806.262	492
806.362	-144
806.463	794
806.564	480
806.664	970
806.765	1254
806.865	1137
806.966	51
807.066	427
807.166	674
807.267	1245
807.367	3
807.468	917
807.568	-447
807.668	1343
807.769	102
807.869	-5
807.969	742
808.069	1057
808.170	765
808.270	-232
808.370	1218
808.470	2313
808.570	299
808.670	705
808.770	12
808.870	137
808.970	1310
809.070	236
809.170	49
809.271	1670
809.370	149
809.470	1153
809.570	-416
809.670	846
809.770	492
809.870	1597
809.970	343
810.070	781
810.169	1119
810.269	-834
810.369	1202
810.469	467
810.568	329
810.668	277
810.768	229
810.867	972
810.967	-115
811.066	-21
811.166	-415
811.265	787
811.365	-286
811.464	121
811.564	663
811.663	845
811.763	162
811.862	818
811.962	499
812.061	372
812.160	-407
812.260	1444
812.359	954
812.458	2660
812.557	8037
812.657	9051
812.756	1719
812.855	782
812.954	-16
813.053	888
813.153	404
813.252	-121
813.351	-33
813.450	501
813.549	-159
813.648	561
813.747	-104
813.846	1452
813.945	207
814.044	550
814.143	1170
814.242	1585
814.341	205
814.439	208
814.538	300
814.637	1162
814.736	239
814.835	2002
814.933	393
815.032	680
815.131	639
815.229	616
815.328	1870
815.427	676
815.525	1011
815.624	1900
815.722	750
815.821	975
815.919	607
816.018	1022
816.116	400
816.215	1545
816.313	1538
816.412	1277
816.510	1749
816.609	2671
816.707	1839
816.805	2118
816.904	833
817.002	1683
817.100	2493
817.198	3380
817.296	1361
817.395	3342
817.493	3880
817.591	3156
817.689	5477
817.787	7991
817.885	12890
817.983	24455
818.081	53207
818.179	130175
818.277	282891
818.375	194083
818.473	55356
818.571	23386
818.669	15600
818.767	13276
818.865	13670
818.963	17666
819.061	25962
819.158	47835
819.256	103289
819.354	243496
819.452	421678
819.549	234878
819.647	73882
819.745	30654
819.842	20165
819.940	14318
820.038	9640
820.135	7643
820.233	6678
820.330	5344
820.428	3934
820.525	4995
820.623	2953
820.720	2818
820.818	2239
820.915	3133
821.012	2638
821.110	1405
821.207	2024
821.304	1410
821.402	2735
821.499	3523
821.596	4185
821.693	2064
821.791	2182
821.888	3115
821.985	5991
822.082	4161
822.179	2758
822.276	1373
822.373	1156
822.470	1485
822.567	1049
822.664	460
822.761	1325
822.858	153
822.955	1056
823.052	953
823.149	326
823.246	785
823.343	351
823.440	1529
823.536	508
823.633	978
823.730	403
823.827	406
823.923	441
824.020	2203
824.117	789
824.213	634
824.310	601
824.407	1379
824.503	761
824.600	1266
824.696	-564
824.793	1579
824.889	-132
824.986	539
825.082	-508
825.179	1257
825.275	-91
825.371	226
825.468	1256
825.564	2
825.660	783
825.757	1550
825.853	980
825.949	-417
826.045	285
826.142	119
826.238	99
826.334	580
826.430	534
826.526	775
826.622	-539
826.718	1020
826.814	285
826.910	893
827.006	-98
827.102	336
827.198	125
827.294	164
827.390	-136
827.486	671
827.582	-1407
827.678	-186
827.774	781
827.869	377
827.965	1536
828.061	-749
828.157	349
828.252	764
828.348	-850
828.444	1648
828.539	-729
828.635	-545
828.731	747
828.826	133
828.922	592
829.017	319
829.113	554
829.208	678
829.304	-442
829.399	1425
829.495	-288
829.590	1227
829.685	-345
829.781	597
829.876	-520
829.971	-135
830.066	-86
830.162	235
830.257	-86
830.352	1021
830.447	1319
830.543	174
830.638	-1093
830.733	1372
830.828	-605
830.923	1621
831.018	235
831.113	821
831.208	-131
831.303	-375
831.398	-343
831.493	370
831.588	-460
831.683	-656
831.778	146
831.873	228
831.967	1303
832.062	-59
832.157	-909
832.252	1666
832.346	-59
832.441	1420
832.536	1998
832.631	5775
832.725	3348
832.820	442
832.914	-295
833.009	-149
833.104	591
833.198	1433
833.293	70
833.387	519
833.482	458
833.576	766
833.670	245
833.765	28
833.859	-542
833.954	557
834.048	533
834.142	378
834.237	-331
834.331	-626
834.425	950
834.519	-408
834.613	104
834.708	-465
834.802	166
834.896	-649
834.990	-410
835.084	294
835.178	-455
835.272	57
835.366	145
835.460	1129
835.554	-41
835.648	41
835.742	-262
835.836	647
835.930	-1370
836.024	669
836.117	139
836.211	333
836.305	690
836.399	2526
836.493	-622
836.586	1124
836.680	160
836.774	-604
836.867	1034
836.961	-358
837.055	307
837.148	-571
837.242	-52
837.335	56
837.429	-121
837.522	191
837.616	182
837.709	3143
837.803	1317
837.896	1053
837.989	-907
838.083	1310
838.176	2220
838.269	1840
838.363	-61
838.456	-346
838.549	1713
838.642	2871
838.735	6378
838.829	2241
838.922	116
839.015	385
839.108	-151
839.201	346
839.294	490
839.387	416
839.480	-774
839.573	806
839.666	572
839.759	421
839.852	-1132
839.945	366
840.038	-468
840.131	54
840.223	235
840.316	256
840.409	-1139
840.502	155
840.594	929
840.687	-739
840.780	150
840.873	393
840.965	63
841.058	1308
841.150	2888
841.243	499
841.336	793
841.428	-450
841.521	-270
841.613	-229
841.706	332
841.798	540
841.890	-294
841.983	-537
842.075	279
842.167	47
842.260	-373
842.352	805
842.444	575
842.537	3769
842.629	3191
842.721	671
842.813	223
842.905	-947
842.997	104
843.090	13
843.182	1051
843.274	2747
843.366	8467
843.458	15299
843.550	8237
843.642	477
843.734	894
843.826	13
843.918	739
844.009	716
844.101	101
844.193	154
844.285	-384
844.377	1269
844.469	1236
844.560	791
844.652	1288
844.744	817
844.835	630
844.927	351
845.019	255
845.110	-149
845.202	132
845.293	158
845.385	-502
845.476	-405
845.568	148
845.659	1697
845.751	435
845.842	-397
845.934	-438
846.025	-599
846.116	-650
846.208	542
846.299	54
846.390	583
846.482	110
846.573	194
846.664	665
846.755	2258
846.846	1823
846.937	-1196
847.029	398
847.120	-408
847.211	-347
847.302	372
847.393	-1245
847.484	-78
847.575	-328
847.666	-630
847.757	-936
847.847	116
847.938	-1081
848.029	-317
848.120	-1097
848.211	319
848.302	-571
848.392	-714
848.483	394
848.574	-159
848.664	-626
848.755	-53
848.846	-395
848.936	256
849.027	-1040
849.118	408
849.208	-291
849.299	629
849.389	1043
849.480	4582
849.570	8128
849.661	16632
849.751	25002
849.841	6939
849.932	753
850.022	736
850.112	-351
850.203	269
850.293	-564
850.383	-86
850.474	-557
850.564	-169
850.654	-588
850.744	-204
850.834	4
850.924	-411
851.014	-531
851.104	120
851.194	-247
851.284	576
851.374	611
851.464	0
851.554	-195
851.644	-324
851.734	684
851.824	404
851.914	-435
852.004	417
852.094	-352
852.183	95
852.273	22
852.363	52
852.452	-710
852.542	182
852.632	-62
852.721	-56
852.811	-619
852.901	-322
852.990	161
853.080	-49
853.169	-380
853.259	-376
853.348	45
853.438	1360
853.527	1287
853.617	2796
853.706	5916
853.795	11578
853.885	28309
853.974	53696
854.063	102956
854.152	146285
854.242	46353
854.331	7195
854.420	2319
854.509	3023
854.598	1746
854.687	1355
854.777	435
854.866	805
854.955	365
855.044	531
855.133	-92
855.222	134
855.311	24
855.400	65
855.488	-37
855.577	-412
855.666	-310
855.755	2
855.844	303
855.933	-355
856.021	82
856.110	301
856.199	-1309
856.288	-844
856.376	-798
856.465	-201
856.554	-267
856.642	-159
856.731	-492
856.819	196
856.908	-962
856.996	201
857.085	-729
857.173	-422
857.262	-631
857.350	-704
857.438	-125
857.527	-165
857.615	-1271
857.703	-224
857.792	-527
857.880	-394
857.968	-440
858.056	-115
858.145	-142
858.233	-269
858.321	-1355
858.409	477
858.497	-157
858.585	-836
858.673	-1055
858.761	-188
858.849	-675
858.937	94
859.025	-425
859.113	103
859.201	-898
859.289	474
859.377	-249
859.465	387
859.552	-855
859.640	-392
859.728	-282
859.816	-456
859.903	-682
859.991	-77
860.079	-388
860.166	-334
860.254	-270
860.342	174
860.429	-960
860.517	-236
860.604	-428
860.692	-224
860.779	-619
860.867	-470
860.954	-659
861.042	-247
861.129	312
861.216	-184
861.304	110
861.391	-524
861.478	-1261
861.565	-376
861.653	269
861.740	-1940
861.827	-578
861.914	410
862.001	-680
862.089	-47
862.176	-715
862.263	-761
862.350	-976
862.437	335
862.524	-684
862.611	-397
862.698	371
862.785	421
862.871	227
862.958	5
863.045	-400
863.132	-8
863.219	-203
863.306	-1237
863.392	75
863.479	155
863.566	-1085
863.652	-74
863.739	-1036
863.826	-52
863.912	-686
863.999	-148
864.086	-219
864.172	-332
864.259	-289
864.345	-415
864.432	-641
864.518	820
864.604	-512
864.691	-676
864.777	38
864.863	29
864.950	333
865.036	-250
865.122	356
865.209	770
865.295	293
865.381	767
865.467	1172
865.553	1526
865.639	3169
865.726	6672
865.812	12936
865.898	27475
865.984	39769
866.070	77009
866.156	73955
866.242	16359
866.328	3231
866.414	1082
866.499	1737
866.585	726
866.671	-82
866.757	1540
866.843	495
866.928	223
867.014	-15
867.100	658
867.186	-57
867.271	1206
867.357	1974
867.442	1418
867.528	796
867.614	365
867.699	1104
867.785	1567
867.870	1059
867.956	2072
868.041	998
868.127	1463
868.212	1814
868.297	1390
868.383	502
868.468	1576
868.553	3120
868.639	4364
868.724	6601
868.809	5396
868.894	789
868.979	-56
869.065	838
869.150	130
869.235	514
869.320	-160
869.405	-1054
869.490	-338
869.575	-482
869.660	274
869.745	224
869.830	-391
869.915	-15
870.000	221
870.085	-268
870.169	-215
870.254	-203
870.339	-303
870.424	-614
870.509	11
870.593	-779
870.678	-145
870.763	-543
870.847	-26
870.932	-336
871.016	410
871.101	-84
871.186	-357
871.270	428
871.355	-347
871.439	-34
871.523	-11
871.608	-34
871.692	208
871.777	-385
871.861	424
871.945	-393
872.030	329
872.114	-558
872.198	-950
872.282	-539
872.367	451
872.451	-526
872.535	-626
872.619	-672
872.703	308
872.787	367
872.871	-492
872.955	-792
873.039	464
873.123	-952
873.207	-74
873.291	103
873.375	-144
873.459	489
873.543	-815
873.627	-624
873.711	275
873.794	93
873.878	-875
873.962	-546
874.045	392
874.129	-694
874.137	-650
874.213	-212
874.245	-391
874.296	-685
874.352	-668
874.380	-659
874.460	-541
874.464	-536
874.547	-239
874.568	-277
874.631	-413
874.676	-488
874.714	-545
874.784	15
874.798	123
874.881	717
874.892	553
874.965	-573
874.999	-332
875.048	17
875.107	-422
875.131	-603
875.215	352
875.215	352
875.298	-99
875.323	-172
875.381	-305
875.430	51
875.465	302
875.538	695
875.548	741
875.631	-507
875.646	-519
875.714	-560
875.753	-397
875.798	-216
875.861	-63
875.881	-6
875.964	-592
875.968	-532
876.047	472
876.076	92
876.130	-601
876.183	2
876.213	395
876.291	468
876.296	459
876.379	215
876.398	-18
876.462	-799
876.506	-207
876.545	358
876.613	-126
876.628	-213
876.711	-265
876.721	-181
876.794	472
876.828	254
876.877	-153
876.935	294
876.960	548
877.043	112
877.043	114
877.125	611
877.150	629
877.208	791
877.258	604
877.291	397
877.365	860
877.374	934
877.456	827
877.472	835
877.539	794
877.579	541
877.622	321
877.687	653
877.704	729
877.787	114
877.794	152
877.869	714
877.901	765
877.952	711
878.008	221
878.034	5
878.115	-399
878.117	-401
878.199	-698
878.222	-420
878.282	301
878.329	460
878.364	520
878.437	842
878.447	884
878.529	-34
878.544	-11
878.611	176
878.651	289
878.694	495
878.758	566
878.776	558
878.858	372
878.865	362
878.941	318
878.972	531
879.023	886
879.078	579
879.105	454
879.185	772
879.187	777
879.269	889
879.292	692
879.351	290
879.399	175
879.433	103
879.506	1082
879.516	1189
879.598	375
879.613	348
879.680	797
879.720	1025
879.762	971
879.827	717
879.844	688
879.926	1154
879.933	1205
880.007	1745
880.040	1721
880.089	1616
880.147	2414
880.171	2921
880.253	3872
880.254	3883
880.335	6675
880.360	7312
880.417	10568
880.467	15556
880.499	18670
880.574	21480
880.580	20898
880.662	7826
880.680	5773
880.744	2641
880.787	1340
880.825	872
880.893	685
880.907	759
880.989	977
881.000	976
881.070	516
881.106	511
881.152	831
881.213	633
881.233	447
881.315	195
881.319	177
881.396	802
881.426	1069
881.478	957
881.532	936
881.559	1089
881.639	1005
881.641	998
881.722	1187
881.745	1033
881.803	1131
881.852	1124
881.885	853
881.958	1228
881.966	1318
882.047	1614
882.064	1573
882.129	1654
882.171	2131
882.210	2913
882.277	4285
882.291	4187
882.372	2050
882.383	1870
882.454	1633
882.489	1233
882.535	764
882.596	756
882.616	749
882.697	834
882.702	815
882.778	918
882.808	944
882.859	724
882.914	674
882.940	826
883.020	910
883.021	916
883.102	1694
883.127	1464
883.183	990
883.233	1433
883.264	1529
883.339	1080
883.345	1080
883.426	971
883.445	1095
883.507	1368
883.551	1073
883.587	1101
883.657	1487
883.668	1539
883.749	2181
883.763	2114
883.830	798
883.869	618
883.910	1154
883.975	1157
883.991	1002
884.072	1078
884.081	989
884.152	823
884.187	1129
884.233	1356
884.292	1045
884.314	998
884.394	1295
884.398	1277
884.475	770
884.504	639
884.555	838
884.610	1222
884.636	1273
884.716	1196
884.716	1204
884.797	1323
884.821	1287
884.877	1465
884.927	1638
884.958	1570
885.033	1294
885.038	1289
885.118	992
885.139	1031
885.199	1307
885.244	1297
885.279	1520
885.350	2115
885.359	2158
885.439	2303
885.456	2258
885.520	1479
885.561	1376
885.600	1614
885.667	1488
885.680	1508
885.760	1629
885.773	1670
885.840	1720
885.878	1750
885.920	1883
885.984	1902
886.000	1774
886.080	1195
886.089	1130
886.160	1233
886.195	1263
886.240	1612
886.300	1933
886.320	1837
886.400	1595
886.406	1580
886.480	1881
886.511	1971
886.560	2042
886.616	1839
886.640	1854
886.720	2265
886.722	2263
886.800	1681
886.827	1423
886.879	1224
886.932	1081
886.959	1386
887.038	2334
887.039	2338
887.119	1736
887.143	1536
887.198	1519
887.248	1564
887.278	1555
887.354	1390
887.358	1392
887.437	1469
887.459	1378
887.517	1632
887.564	2084
887.596	1980
887.669	1443
887.676	1449
887.755	1557
887.774	1550
887.835	1740
887.880	1951
887.914	2112
887.985	2200
887.994	2163
888.073	1990
888.090	1916
888.153	2227
888.195	2416
888.232	2053
888.300	1416
888.311	1494
888.391	1852
888.405	1945
888.470	1571
888.510	1239
888.549	1421
888.615	1834
888.628	1835
888.708	1676
888.720	1654
888.787	1872
888.825	1970
888.866	1846
888.930	1608
888.945	1635
889.024	1839
889.035	1846
889.103	2191
889.140	2373
889.182	2435
889.245	2518
889.261	2523
889.340	2500
889.349	2482
889.419	1703
889.454	1335
889.498	1553
889.559	1807
889.577	1818
889.656	1865
889.664	1864
889.735	1878
889.768	1881
889.814	1978
889.873	2092
889.978	2082
890.083	3286
890.187	1978
890.292	1971
890.397	1986
890.501	3062
890.606	1928
890.710	1708
890.815	2099
890.919	2220
891.024	2330
891.128	1581
891.233	2636
891.337	2445
891.442	2581
891.546	2606
891.650	1546
891.755	1653
891.859	2756
891.963	3145
892.068	2018
892.172	2458
892.276	1531
892.380	1866
892.484	2024
892.589	2359
892.693	1876
892.797	2428
892.901	1677
893.005	1510
893.109	2173
893.213	2540
893.317	2626
893.421	1658
893.525	1998
893.629	2879
893.733	1936
893.837	1628
893.941	2645
894.045	2892
894.148	2160
894.252	1961
894.356	1783
894.460	3218
894.564	1890
894.667	2372
894.771	2088
894.875	1648
894.978	1590
895.082	2002
895.186	2516
895.289	2096
895.393	1569
895.496	2019
895.600	1826
895.703	1107
895.807	1880
895.910	2539
896.014	1840
896.117	2448
896.221	2032
896.324	1900
896.427	2602
896.531	1312
896.634	2041
896.737	1728
896.840	1551
896.944	2713
897.047	2072
897.150	1658
897.253	1988
897.356	2484
897.460	1256
897.563	2188
897.666	1959
897.769	1575
897.872	2378
897.975	1676
898.078	2097
898.181	2439
898.284	1379
898.387	2042
898.490	2233
898.593	2822
898.695	2076
898.798	2234
898.901	1397
899.004	2654
899.107	1895
899.209	1672
899.312	2308
899.415	2159
899.518	2031
899.620	1564
899.723	1962
899.826	4760
899.928	4763
900.031	2445
900.133	1992
900.236	2403
900.338	1664
900.441	1721
900.543	1601
900.646	1795
900.748	1852
900.851	2605
900.953	1572
901.055	1953
901.158	2087
901.260	2070
901.362	1747
901.465	1901
901.567	1908
901.669	2368
901.771	1289
901.873	2518
901.976	1833
902.078	1935
902.180	1889
902.282	1235
902.384	2378
902.486	2258
902.588	2287
902.690	2695
902.792	1344
902.894	2967
902.996	1861
903.098	1362
903.200	2395
903.302	2303
903.404	1534
903.505	1630
903.607	1318
903.709	2378
903.811	986
903.913	2175
904.014	1886
904.116	2218
904.218	1677
904.319	2252
904.421	2393
904.523	2276
904.624	1595
904.726	2387
904.827	1890
904.929	2305
905.030	1492
905.132	1788
905.233	1782
905.335	1492
905.436	2232
905.537	2300
905.639	1584
905.740	2047
905.841	2261
905.943	2114
906.044	2374
906.145	2029
906.247	1242
906.348	1672
906.449	1696
906.550	1592
906.651	1735
906.752	1855
906.854	1357
906.955	2088
907.056	1930
907.157	2530
907.258	2203
907.359	1828
907.460	2377
907.561	1898
907.662	2014
907.762	1480
907.863	1512
907.964	2597
908.065	1861
908.166	2758
908.267	1505
908.367	2484
908.468	1896
908.569	2024
908.670	1875
908.770	2564
908.871	2641
908.971	2663
909.072	1733
909.173	1753
909.273	1165
909.374	1929
909.474	1119
909.575	1958
909.675	1457
909.776	2043
909.876	1466
909.977	2413
910.077	1950
910.177	2263
910.278	1661
910.378	2312
910.478	1848
910.579	1945
910.679	1506
910.779	1859
910.879	1731
910.980	2158
911.080	1521
911.180	1864
911.280	1605
911.380	1478
911.480	1926
911.580	1842
911.680	1272
911.780	1551
911.880	2256
911.980	1734
912.080	1822
912.180	2150
912.280	1757
912.380	1751
912.480	878
912.580	2738
912.679	1395
912.779	2112
912.879	1898
912.979	1461
913.078	1304
913.178	1688
913.278	1162
913.377	2031
913.477	1775
913.577	1609
913.676	2246
913.776	1345
913.875	1270
913.975	2271
914.074	2052
914.174	1340
914.273	749
914.373	2544
914.472	1563
914.572	1779
914.671	1988
914.770	1919
914.870	1192
914.969	936
915.068	2246
915.167	2024
915.267	1456
915.366	1956
915.465	2051
915.564	2409
915.663	1483
915.763	2203
915.862	2475
915.961	1994
916.060	1623
916.159	1631
916.258	2005
916.357	1954
916.456	1924
916.555	2430
916.654	1699
916.752	2078
916.851	2166
916.950	1866
917.049	1815
917.148	2112
917.247	1321
917.345	2186
917.444	788
917.543	2500
917.642	1393
917.740	1573
917.839	1259
917.937	1740
918.036	1552
918.135	2197
918.233	1248
918.332	1968
918.430	1801
918.529	1587
918.627	1523
918.726	2067
918.824	1961
918.923	2090
919.021	1532
919.119	1059
919.218	1035
919.316	1646
919.414	1085
919.512	1573
919.611	74
919.709	1743
919.807	1701
919.905	2281
920.003	1513
920.102	2099
920.200	1399
920.298	1938
920.396	1522
920.494	2070
920.592	758
920.690	1649
920.788	2043
920.886	1854
920.984	1358
921.082	1415
921.180	1713
921.277	2502
921.375	2095
921.473	2588
921.571	1796
921.669	2268
921.766	2268
921.864	2684
921.962	2160
922.060	2509
922.157	2216
922.255	2886
922.352	1560
922.450	2613
922.548	1847
922.645	2095
922.743	2464
922.840	2743
922.938	3753
923.035	3298
923.133	2613
923.230	3306
923.327	3833
923.425	4206
923.522	3252
923.619	3451
923.717	2796
923.814	3145
923.911	2668
924.008	2944
924.106	3216
924.203	3291
924.300	4176
924.397	3000
924.494	3231
924.591	3317
924.688	4017
924.786	3903
924.883	3613
924.979	3458
925.077	2920
925.173	3464
925.270	2838
925.367	3467
925.464	3581
925.561	4125
925.658	3608
925.755	4558
925.852	3688
925.948	3675
926.045	3601
926.142	3964
926.239	3455
926.335	3551
926.432	3862
926.529	3676
926.625	3944
926.722	3597
926.818	3019
926.915	3578
927.011	2932
927.108	3191
927.204	3831
927.301	3063
927.397	3218
927.494	3289
927.590	2411
927.687	3287
927.783	2913
927.879	3021
927.976	2711
928.072	2801
928.168	2563
928.264	2768
928.361	2962
928.457	3276
928.553	2448
928.649	3381
928.745	2709
928.841	2599
928.937	2269
929.033	2808
929.129	2587
929.225	2616
929.321	2773
929.417	3209
929.513	2683
929.609	2430
929.705	3000
929.801	3553
929.897	1464
929.993	2592
930.089	2294
930.184	2272
930.280	2694
930.376	3595
930.471	1513
930.567	2859
930.663	2338
930.758	2707
930.854	2369
930.950	2679
931.045	2358
931.141	2423
931.236	2970
931.332	3025
931.427	2033
931.523	2422
931.618	2589
931.714	1485
931.809	1667
931.905	3104
932.000	1300
932.095	1752
932.191	2039
932.286	2390
932.381	1728
932.476	2321
932.572	1915
932.667	2231
932.762	1449
932.857	2596
932.952	2078
933.047	2021
933.142	2307
933.237	2962
933.332	2551
933.427	2271
933.522	2392
933.617	2182
933.712	2666
933.807	2742
933.902	2245
933.997	2499
934.092	2401
934.187	3119
934.282	2573
934.376	2356
934.471	2234
934.566	2332
934.661	2039
934.755	2601
934.850	2522
934.945	2337
935.039	1559
935.134	2452
935.228	1759
935.323	3384
935.417	1790
935.512	1410
935.606	1782
935.701	2441
935.795	1991
935.890	2640
935.984	1343
936.079	2335
936.173	1871
936.267	3092
936.362	1804
936.456	2519
936.550	1415
936.644	2177
936.738	1329
936.833	2733
936.927	1274
937.021	1614
937.115	1500
937.209	1582
937.303	1914
937.397	2015
937.491	2278
937.585	2321
937.679	2338
937.773	1691
937.867	2295
937.961	1576
938.055	1892
938.149	2840
938.243	2321
938.337	2149
938.430	2247
938.524	3056
938.618	3025
938.712	1765
938.805	1882
938.899	2150
938.993	1683
939.086	2305
939.180	1889
939.274	3576
939.367	1898
939.461	3553
939.554	1832
939.648	2017
939.741	769
939.835	1777
939.928	2024
940.022	2860
940.115	1385
940.208	2035
940.302	2397
940.395	3055
940.488	1379
940.582	1453
940.675	796
940.768	2186
940.861	1448
940.954	2405
941.048	882
941.141	2211
941.234	2129
941.327	3451
941.420	3189
941.513	2692
941.606	1806
941.699	2505
941.792	1710
941.885	2281
941.978	1379
942.071	1711
942.164	1202
942.257	843
942.349	1439
942.442	1308
942.535	1106
942.628	1676
942.721	1735
942.813	763
942.906	2077
942.999	1883
943.091	1166
943.184	1815
943.277	1780
943.369	2761
943.462	1388
943.554	1991
943.647	1083
943.739	2334
943.832	1642
943.924	1501
944.017	1412
944.109	997
944.201	1247
944.294	1044
944.386	1512
944.478	1570
944.571	1285
944.663	1807
944.755	937
944.847	2329
944.940	1277
945.032	740
945.124	383
945.216	2120
945.308	1297
945.400	1675
945.492	1521
945.584	1657
945.676	1312
945.768	1706
945.860	2089
945.952	1854
946.044	954
946.136	2065
946.228	1846
946.320	874
946.412	1189
946.503	977
946.595	2297
946.687	1427
946.779	1103
946.870	1114
946.962	1050
947.054	1733
947.145	1962
947.237	1677
947.329	811
947.420	1066
947.512	953
947.603	792
947.695	1297
947.786	1053
947.878	924
947.969	946
948.061	844
948.152	1266
948.243	774
948.335	1506
948.426	1676
948.517	1327
948.609	1445
948.700	2068
948.791	1406
948.882	1133
948.973	167
949.065	1178
949.156	784
949.247	891
949.338	1046
949.429	1336
949.520	1244
949.611	1119
949.702	1263
949.793	1096
949.884	2088
949.975	939
950.066	727
950.157	664
950.247	836
950.338	1506
950.429	1378
950.520	1607
950.611	1669
950.701	1174
950.792	1355
950.883	2848
950.973	733
951.064	1888
951.155	1059
951.245	1768
951.336	1668
951.427	596
951.517	1947
951.608	1735
951.698	809
951.788	1400
951.879	965
951.969	1570
952.060	949
952.150	976
952.240	911
952.331	99
952.421	1388
952.511	975
952.602	1619
952.692	950
952.782	850
952.872	975
952.962	1591
953.052	653
953.143	553
953.233	841
953.323	1222
953.413	923
953.503	407
953.593	1769
953.683	671
953.773	-213
953.863	232
953.953	-103
954.042	1079
954.132	487
954.222	1533
954.312	426
954.402	1114
954.492	1760
954.581	2078
954.671	1624
954.761	509
954.850	1658
954.940	349
955.030	825
955.119	150
955.209	722
955.298	-331
955.388	722
955.477	1702
955.567	-5
955.656	1152
955.746	2120
955.835	525
955.925	1136
956.014	1016
956.103	721
956.193	338
956.282	725
956.371	1795
956.461	1145
956.550	974
956.639	866
956.728	285
956.817	810
956.906	-95
956.995	2188
957.085	138
957.174	1119
957.263	624
957.352	1344
957.441	498
957.530	544
957.619	1094
957.708	24
957.796	208
957.885	402
957.974	540
958.063	1638
958.152	-44
958.241	689
958.329	-2
958.418	467
958.507	193
958.596	1459
958.684	-1244
958.773	1306
958.861	197
958.950	745
959.039	462
959.127	1088
959.216	704
959.304	714
959.393	219
959.481	1004
959.570	544
959.658	902
959.746	384
959.835	2300
959.923	2476
960.011	1874
960.100	1176
960.188	1611
960.276	650
960.365	919
960.453	82
960.541	59
960.629	589
960.717	803
960.805	-202
960.893	331
960.981	-266
961.069	2337
961.158	589
961.245	1306
961.333	361
961.421	682
961.509	322
961.597	1405
961.685	-24
961.773	420
961.861	356
961.949	1432
962.036	262
962.124	673
962.212	-294
962.299	955
962.387	165
962.475	1729
962.562	88
962.650	1795
962.738	535
962.825	818
962.913	183
963.000	825
963.088	950
963.175	1464
963.263	648
963.350	387
963.438	560
963.525	954
963.612	2756
963.700	7442
963.787	12313
963.874	5322
963.962	594
964.049	659
964.136	-186
964.223	681
964.310	954
964.398	1513
964.485	175
964.572	1188
964.659	2304
964.746	1764
964.833	850
964.920	944
965.007	538
965.094	1211
965.181	101
965.268	323
965.355	300
965.441	650
965.528	477
965.615	1196
965.702	633
965.789	-234
965.875	652
965.962	532
966.049	-398
966.136	861
966.222	93
966.309	1395
966.395	-118
966.482	1256
966.569	-133
966.655	931
966.742	926
966.828	1024
966.915	228
967.001	365
967.087	-649
967.174	233
967.260	1231
967.347	1953
967.433	4726
967.519	8432
967.605	1897
967.692	101
967.778	-260
967.864	361
967.950	470
968.036	-49
968.123	493
968.209	561
968.295	-887
968.381	1593
968.467	432
968.553	-765
968.639	1420
968.725	607
968.811	1391
968.897	1155
968.983	-505
969.069	159
969.154	392
969.240	798
969.326	-417
969.412	-137
969.497	80
969.583	141
969.669	1088
969.755	558
969.840	115
969.926	1001
970.012	438
970.097	2069
970.183	158
970.268	428
970.354	1667
970.439	2264
970.525	5489
970.610	1117
970.696	1160
970.781	139
970.866	-20
970.952	946
971.037	-287
971.122	431
971.208	398
971.293	375
971.378	-1274
971.463	346
971.549	709
971.634	280
971.719	512
971.804	1299
971.889	866
971.974	-584
972.059	-725
972.144	288
972.229	-802
972.314	-804
972.399	323
972.484	18
972.569	848
972.654	460
972.739	3811
972.824	1986
972.908	310
972.993	763
973.078	-266
973.163	-98
973.247	-89
973.332	-1412
973.417	990
973.501	-698
973.586	16
973.671	392
973.755	184
973.840	1506
973.924	468
974.009	742
974.093	-224
974.178	1925
974.262	1503
974.346	2418
974.431	-880
974.515	-77
974.600	-499
974.684	930
974.768	-750
974.852	1498
974.937	-304
975.021	1046
975.105	-10
975.189	630
975.273	284
975.358	249
975.442	-348
975.526	848
975.610	-1164
975.694	-620
975.778	388
975.862	298
975.946	-1956
976.030	1467
976.114	-883
976.198	468
976.281	-5
976.365	144
976.449	-735
976.533	970
976.617	-509
976.700	-223
976.784	178
976.868	306
976.951	1356
977.035	306
977.119	214
977.202	251
977.286	156
977.369	1024
977.453	827
977.536	422
977.620	-864
977.703	818
977.787	-516
977.870	1299
977.953	713
978.037	-1430
978.120	216
978.203	1511
978.287	2303
978.370	1801
978.453	607
978.536	-216
978.620	1144
978.703	1843
978.786	141
978.869	82
978.952	-1524
979.035	1475
979.118	972
979.201	-554
979.284	104
979.367	-266
979.450	154
979.533	-271
979.616	-212
979.699	-455
979.782	-307
979.865	58
979.948	-447
980.030	-722
980.113	-443
980.196	-955
980.279	872
980.361	-221
980.444	-645
980.526	668
980.609	409
980.692	184
980.774	225
980.857	-1018
980.939	1254
981.022	-58
981.104	-417
981.187	-82
981.269	68
981.352	19
981.434	-1480
981.516	-531
981.599	804
981.681	938
981.763	-88
981.846	-601
981.928	-123
982.010	-430
982.092	-824
982.174	-492
982.256	-48
982.339	-108
982.421	-656
982.503	385
982.585	-1115
982.667	301
982.749	-722
982.831	49
982.913	-845
982.995	1320
983.077	-390
983.158	984
983.240	-972
983.322	159
983.404	-129
983.486	-716
983.568	-411
983.649	-261
983.731	175
983.813	326
983.894	-105
983.976	-595
984.058	-560
984.139	638
984.221	-836
984.302	455
984.384	-575
984.465	-485
984.547	-541
984.628	-704
984.710	-478
984.791	-440
984.872	-507
984.954	-501
985.035	-826
985.116	-521
985.198	-785
985.279	1706
985.360	-614
985.441	-404
985.522	-293
985.604	101
985.685	-1902
985.766	444
985.847	750
985.928	-1171
986.009	387
986.090	-1197
986.171	325
986.252	13
986.333	680
986.414	-13
986.495	-289
986.576	-597
986.656	-209
986.737	687
986.818	380
986.899	-46
986.980	-948
987.060	736
987.141	-337
987.222	-219
987.302	311
987.383	-397
987.464	-640
987.544	223
987.625	-313
987.705	299
987.786	-609
987.866	161
987.947	-368
988.027	252
988.108	-1071
988.188	160
988.268	-80
988.349	263
988.429	-998
988.509	670
988.589	-677
988.670	-1535
988.750	769
988.830	-194
988.910	51
988.990	-215
989.070	-775
989.151	68
989.231	-1015
989.311	394
989.391	34
989.471	-23
989.551	-760
989.631	-624
989.711	-197
989.791	-1029
989.870	-928
989.950	384
990.030	-880
990.110	212
990.190	-764
990.269	-94
990.349	-886
990.429	-355
990.509	-111
990.588	-1321
990.668	-232
990.747	-170
990.827	-637
990.907	401
990.986	-1112
991.066	-403
991.145	-830
991.225	-534
991.304	-160
991.383	-18
991.463	-1156
991.542	-35
991.622	-1026
991.701	-539
991.780	-587
991.859	-296
991.939	-1210
992.018	-746
992.097	-430
992.176	-155
992.256	-401
992.335	-1297
992.414	-479
992.493	-395
992.572	-1042
992.651	1367
992.730	-438
992.809	-648
992.888	-721
992.967	-678
993.046	-201
993.125	-1114
993.203	-836
993.282	-343
993.361	-84
993.440	-217
993.519	-1336
993.597	-168
993.676	-1305
993.755	521
993.834	-50
993.912	-1091
993.991	-979
994.069	-1059
994.148	-1208
994.226	-172
994.305	-181
994.384	-774
994.462	-203
994.540	-886
994.619	-414
994.697	-366
994.776	-869
994.854	-769
994.932	-1150
995.011	-498
995.089	-778
995.167	-595
995.245	-155
995.324	-1416
995.402	-834
995.480	-907
995.558	-896
995.636	-508
995.714	-732
995.792	327
995.870	-465
995.948	-45
996.026	-804
996.104	-1308
996.182	381
996.260	-507
996.338	-332
996.416	-1587
996.494	-1119
996.572	751
996.649	-1734
996.727	-527
996.805	-667
996.883	-1511
996.960	-215
997.038	-320
997.116	-73
997.193	-904
997.271	-558
997.348	-582
997.426	-861
997.504	-1131
997.581	-1351
997.658	-671
997.736	-1287
997.813	-611
997.891	-260
997.968	-763
998.046	-436
998.123	-1110
998.200	-636
998.277	-971
998.355	97
998.432	-1544
998.509	-640
998.586	-569
998.663	-690
998.741	-817
998.818	-1524
998.895	-459
998.972	-580
999.049	-1261
999.126	-1587
999.203	695
999.280	-1595
999.357	-620
999.434	-1456
999.511	50
999.587	-983
999.664	-1112
999.741	-665
999.818	-280
999.895	-1579
999.971	-1413
1000.048	-639
1000.125	-212
1000.202	-995
1000.278	-808
1000.355	-428
1000.431	-1775
1000.508	-1579
1000.584	-933
1000.661	-531
1000.738	-1101
1000.814	-938
1000.890	-793
1000.967	-1580
1001.043	-381
1001.120	-2399
1001.196	-1487
1001.272	-1677
1001.349	-1328
1001.425	-1003
1001.501	-1365
1001.577	-2387
1001.654	-1362
1001.730	-1479
1001.806	-1487
1001.882	-1700
1001.958	-393
1002.034	-610
1002.110	-1056
1002.186	-1593
1002.262	-1989
1002.338	-1318
1002.414	98
1002.490	-877
1002.566	-1086
1002.642	-1617
1002.718	-677
1002.794	-1536
1002.870	-997
1002.945	-1366
1003.021	-1021
1003.097	-1210
1003.173	-1510
1003.248	-1575
1003.324	-1945
1003.400	-1218
1003.475	-1548
1003.551	-1020
1003.626	-1256
1003.702	-2111
1003.777	-848
1003.853	-1510
1003.928	-1869
1004.004	-1082
1004.079	-1015
1004.155	-1066
1004.230	-1984
1004.305	-337
1004.381	-1304
1004.456	-1206
1004.531	-1018
1004.607	-1401
1004.682	-621
1004.757	-801
1004.832	-610
1004.907	-1588
1004.982	-977
1005.057	-896
1005.133	-1473
1005.208	-1619
1005.283	-1046
1005.358	-991
1005.433	-1530
1005.508	-2112
1005.583	-1624
1005.657	-1220
1005.732	-639
1005.807	-1721
1005.882	-722
1005.957	-1978
1006.032	-590
1006.106	-1834
1006.181	-153
1006.256	-923
1006.331	-1701
1006.405	-2115
1006.480	-1367
1006.554	-1341
1006.629	-1338
1006.704	-1706
1006.778	-1037
1006.853	-1070
1006.927	-1370
1007.002	-2002
1007.076	-1065
1007.150	-1734
1007.225	-793
1007.299	-1606
1007.373	-1467
1007.448	-809
1007.522	-180
1007.596	-1389
1007.671	-1129
1007.745	-956
1007.819	-1341
1007.893	-1889
1007.967	-325
1008.041	-2002
1008.115	-648
1008.190	-2408
1008.264	-813
1008.338	-1879
1008.412	-1592
1008.486	-1164
1008.560	-758
1008.633	-1143
1008.707	-1851
1008.781	-612
1008.855	-1439
1008.929	-939
1009.003	-1251
1009.076	-2602
1009.150	-984
1009.224	-966
1009.298	364
1009.371	-2082
1009.445	-1330
1009.519	-1752
1009.592	-1991
1009.666	-987
1009.739	-727
1009.813	-2175
1009.886	-931
1009.960	-1661
1010.033	-1070
1010.107	-989
1010.180	-2269
1010.253	-1147
1010.327	-1503
1010.400	-1376
1010.473	-942
1010.547	-194
1010.620	-1933
1010.693	-1713
1010.766	-1413
1010.840	-513
1010.913	-504
1010.986	-1976
1011.059	-772
1011.132	-1338
1011.205	-1245
1011.278	-1915
1011.351	-1475
1011.424	-1116
1011.497	-1926
1011.570	-1486
1011.643	-1241
1011.716	-1604
1011.789	-1066
1011.862	-1293
1011.934	-582
1012.007	-2673
1012.080	-649
1012.153	-1175
1012.225	515
1012.298	-1519
1012.371	-2053
1012.443	-1418
1012.516	-2203
1012.588	-1585
1012.661	-457
1012.733	-1860
1012.806	-743
1012.879	-2187
1012.951	-1169
1013.023	-2079
1013.096	-1031
1013.168	-1803
1013.241	-219
1013.313	-2006
1013.385	-1586
1013.458	-2702
1013.530	-1346
1013.602	-1975
1013.674	-598
1013.746	-1217
1013.819	-1544
1013.891	-1270
1013.963	-1864
1014.035	-1335
1014.107	-1648
1014.179	-1434
1014.251	-2051
1014.323	-973
1014.395	-1098
1014.467	-1338
1014.539	-931
1014.611	-2332
1014.683	-1182
1014.754	-1394
1014.826	-2040
1014.898	-1579
1014.970	-1987
1015.042	-2041
1015.113	-1526
1015.185	-1999
1015.257	-2356
1015.328	-611
1015.400	-1261
1015.471	-1712
1015.543	-2431
1015.615	-1355
1015.686	-1294
1015.757	-1500
1015.829	-2074
1015.901	-973
1015.972	-1326
1016.043	-1781
1016.115	-692
1016.186	-1598
1016.257	-1852
1016.328	-1771
1016.400	-598
1016.471	-1689
1016.542	-1871
1016.613	-1927
1016.685	-1841
1016.756	-686
1016.827	-1987
1016.898	-1695
1016.969	-1094
1017.040	-2370
1017.111	-1254
1017.182	-1704
1017.253	-1552
1017.324	-1655
1017.395	-2391
1017.466	-2151
1017.537	-2166
1017.608	-1739
1017.678	-1137
1017.749	-2058
1017.820	-1307
1017.891	-2575
1017.961	-1770
1018.032	-1933
1018.103	-1510
1018.173	-973
1018.244	-1882
1018.315	-1757
1018.385	-1316
1018.456	-2254
1018.526	-1768
1018.597	-1565
1018.667	-1173
1018.738	-1686
1018.808	-1882
1018.878	-2421
1018.949	-1261
1019.019	-1449
1019.089	-1455
1019.160	-1856
1019.230	-1546
1019.300	-1680
1019.371	-1750
1019.441	-602
1019.511	-984
1019.581	-1650
1019.651	-1649
1019.721	-1877
1019.791	-1315
1019.861	-2355
1019.931	-2405
1020.001	-1844
1020.071	-1621
1020.141	-1863
1020.211	-1311
1020.281	-2298
1020.351	-1655
1020.421	-1394
1020.491	-1037
1020.560	-2813
1020.630	-1238
1020.700	-2075
1020.770	-1773
1020.839	-1749
1020.909	-1250
1020.979	-2244
1021.048	-1554
1021.118	-1654
1021.187	-927
1021.257	-2555
1021.326	-1549
1021.396	-2416
1021.465	-1888
1021.535	-2535
1021.604	-2272
1021.674	-1854
1021.743	-949
1021.812	-2449
1021.882	-1788
1021.951	-1931
1022.020	-1917
1022.089	-1328
1022.159	-1966
1022.228	-732
1022.297	-1598
1022.366	-1339
1022.435	-1457
1022.504	-1183
1022.573	-1407
1022.642	-1820
1022.711	-2305
1022.781	-2591
1022.849	-1349
1022.918	-2439
1022.987	-2011
1023.056	-2164
1023.125	-1874
1023.194	-1156
1023.263	-1008
1023.331	-1517
1023.400	-1710
1023.469	-1762
1023.538	-1238
1023.606	-2326
1023.675	-2259
1023.744	-675
1023.812	-1844
1023.881	-1311
1023.949	-2245
1024.018	-1771
1024.086	-1794
1024.155	-1733
1024.223	-1712
1024.292	-1984
1024.360	-719
1024.429	-2018
1024.497	-2216
1024.565	-1707
1024.634	-2173
1024.702	-1695
1024.770	-1878
1024.838	-2933
1024.907	-1684
1024.975	-2666
1025.043	-1737
1025.111	-1526
1025.179	-1565
1025.247	-1849
1025.315	-1188
1025.383	-2410
1025.451	-1996
1025.519	-2617
1025.587	-1057
1025.655	-1524
1025.723	-1925
1025.791	-2878
1025.859	-2036
1025.927	-896
1025.995	-1942
1026.062	-1754
1026.130	-1589
1026.198	-2365
1026.266	-2103
1026.333	-2140
1026.401	-1333
1026.469	-1786
1026.536	-1474
1026.604	-2136
1026.671	-1761
1026.739	-2558
1026.806	-1888
1026.874	-2701
1026.941	-1297
1027.009	-1227
1027.076	-1987
1027.144	-1362
1027.211	-2574
1027.278	-2355
1027.345	-1482
1027.413	-2209
1027.480	-1220
1027.547	-2276
1027.614	-2103
1027.682	-1181
1027.749	-1793
1027.816	-2793
1027.883	-1146
1027.950	-2367
1028.017	-2010
1028.084	-1895
1028.151	-2161
1028.218	-1322
1028.285	-3092
1028.352	-1828
1028.419	-2275
1028.486	-2475
1028.553	-1278
1028.619	-1725
1028.686	-911
1028.753	-2442
1028.820	-1318
1028.886	-2589
1028.953	-1721
1029.020	-2286
1029.086	-1726
1029.153	-1987
1029.220	-1595
1029.286	-1974
1029.353	-1519
1029.419	-2516
1029.486	-1389
1029.552	-1629
1029.619	-1706
1029.685	-2458
1029.751	-1777
1029.818	-1135
1029.884	-1679
1029.951	-1729
1030.017	-1962
1030.083	-2238
1030.149	-2130
1030.216	-2324
1030.282	-1627
1030.348	-2032
1030.414	-2105
1030.480	-2310
1030.546	-1875
1030.612	-2290
1030.678	-1915
1030.744	-2326
1030.810	-1694
1030.876	-1863
1030.942	-2051
1031.008	-1962
1031.074	-1552
1031.140	-2357
1031.206	-1318
1031.272	-1825
1031.337	-1179
1031.403	-1622
1031.469	-2207
1031.534	-1233
1031.600	-1189
1031.666	-2172
1031.731	-1965
1031.797	-2202
1031.863	-2271
1031.928	-2779
1031.994	-1923
1032.059	-1983
1032.125	-2125
1032.190	-1315
1032.256	-2144
1032.321	-2440
1032.386	-1995
1032.452	-1864
1032.517	-1497
1032.582	-2140
1032.647	-2048
1032.713	-2745
1032.778	-1966
1032.843	-2042
1032.908	-2560
1032.974	-2508
1033.039	-2275
1033.104	-1311
1033.169	-1722
1033.234	-2343
1033.299	-733
1033.364	-1800
1033.429	-1297
1033.494	-980
1033.559	-1568
1033.624	-1734
1033.688	-1263
1033.753	-2937
1033.818	-1374
1033.883	-1306
1033.948	-1349
1034.013	-1767
1034.077	-1586
1034.142	-1620
1034.207	-1122
1034.271	-772
1034.336	-79
1034.400	-630
1034.465	-1221
1034.530	-2257
1034.594	-1044
1034.658	-2468
1034.723	-1796
1034.787	-2266
1034.852	-2006
1034.916	-2501
1034.981	-1750
1035.045	-1017
1035.109	-2023
1035.173	-2137
1035.238	-2214
1035.302	-1631
1035.366	-1934
1035.430	-1625
1035.495	-2048
1035.559	-2073
1035.623	-1897
1035.687	-2522
1035.751	-2405
1035.815	-2152
1035.879	-2799
1035.943	-2154
1036.007	-2810
1036.071	-2181
1036.135	-1605
1036.198	-3232
1036.262	-2002
1036.326	-2387
1036.390	-1724
1036.454	-2089
1036.517	-1010
1036.581	-1397
1036.645	-877
1036.709	-440
1036.772	-2011
1036.836	-2071
1036.900	-2219
1036.963	-2277
1037.026	-1698
1037.090	-1994
1037.154	-1916
1037.217	-2755
1037.280	-2289
1037.344	-1997
1037.407	-2702
1037.471	-2122
1037.534	-2723
1037.597	-2202
1037.661	-3021
1037.724	-2264
1037.787	-2408
1037.850	-2107
1037.913	-1893
1037.977	-2037
1038.040	-1904
1038.103	-2310
1038.166	-2404
1038.229	-2256
1038.292	-2543
1038.355	-2416
1038.418	-2435
1038.481	-2097
1038.544	-2047
1038.607	-1229
1038.670	-1759
1038.732	-2415
1038.795	-2505
1038.858	-1931
1038.921	-2666
1038.984	-2170
1039.046	-2187
1039.109	-2891
1039.172	-1678
1039.234	-1200
1039.297	-2391
1039.360	-2273
1039.422	-2321
1039.485	-1995
1039.547	-1827
1039.610	-2490
1039.672	-1905
1039.734	-2474
1039.797	-1995
1039.859	-2858
1039.922	-2257
1039.984	-2542
1040.046	-1732
1040.109	-2500
1040.171	-3106
1040.233	-2412
1040.295	-1961
1040.358	-3331
1040.420	-2078
1040.482	-2999
1040.544	-1726
1040.606	-2279
1040.668	-2382
1040.730	-2019
1040.792	-1581
1040.854	-2102
1040.916	-2318
1040.978	-1635
1041.040	-2192
1041.102	-2673
1041.164	-2025
1041.225	-2327
1041.287	-2161
1041.349	-2537
1041.411	-2198
1041.472	-1871
1041.534	-2808
1041.596	-3284
1041.657	-1107
1041.719	-2213
1041.781	-1398
1041.842	-2770
1041.904	-2535
1041.965	-2539
1042.027	-1937
1042.088	-1197
1042.150	-2850
1042.211	-1508
1042.272	-1853
1042.334	-2508
1042.395	-2570
1042.456	-2703
1042.518	-2130
1042.579	-2229
1042.640	-2522
1042.701	-2552
1042.763	-2031
1042.824	-3070
1042.885	-2261
1042.946	-3004
1043.007	-2506
1043.068	-2767
1043.129	-2612
1043.190	-2599
1043.251	-1078
1043.312	-2869
1043.373	-1301
1043.434	-2926
1043.495	-2407
1043.556	-1681
1043.616	-1964
1043.677	-2360
1043.738	-1698
1043.799	-2732
1043.859	-2156
1043.920	-2719
1043.981	-1205
1044.041	-1782
1044.102	-2090
1044.162	-3170
1044.223	-2407
1044.284	-2119
1044.344	-2104
1044.405	-2668
1044.465	-1704
1044.525	-2487
1044.586	-1495
1044.646	-2331
1044.707	-1992
1044.767	-1936
1044.827	-2402
1044.887	-3172
1044.948	-1560
1045.008	-2677
1045.068	-2189
1045.128	-2628
1045.188	-1768
1045.249	-1503
1045.309	-2683
1045.369	-1784
1045.429	-2129
1045.489	-1741
1045.549	-1429
1045.609	-2377
1045.669	-2156
1045.729	-2273
1045.789	-1767
1045.848	-2077
1045.908	-1105
1045.968	-2651
1046.028	-2209
1046.088	-2009
1046.147	-975
1046.207	-2026
1046.267	-1556
1046.326	-1611
1046.386	-2027
1046.446	-2016
1046.505	-1611
1046.565	-600
1046.624	-1149
1046.684	-1660
1046.743	-1622
1046.803	-616
1046.862	-803
1046.922	0
