'Start Wavelength	183.907
'End Wavelength	1046.922
'Gate Delay	5.000
'Gate Width (ms)	1.050
'Laser Output Level	0.000
'X Position	0.000
'Y Position	0.000
'Z Position	0.000
'Grid Point Number	1.000
'Shot Number	100.000
183.907	-236.000
183.977	-647.000
184.047	-540
184.116	595
184.186	-337
184.256	377
184.325	-602
184.395	-795
184.465	-332
184.534	510
184.604	-808
184.674	457
184.743	426
184.813	-53
184.883	-724
184.952	558
185.022	-211
185.092	-521
185.161	-260
185.231	-303
185.301	-696
185.370	1020
185.440	-271
185.509	-104
185.579	-624
185.649	348
185.718	165
185.788	586
185.857	-26
185.927	185
185.996	-530
186.066	-281
186.136	-118
186.205	-630
186.275	231
186.344	286
186.414	130
186.483	301
186.553	-129
186.622	682
186.692	-59
186.761	241
186.831	-686
186.900	-153
186.970	-133
187.039	-335
187.109	787
187.178	246
187.248	106
187.317	827
187.387	-509
187.456	157
187.526	-287
187.595	230
187.664	164
187.734	727
187.803	-673
187.873	903
187.942	119
188.012	595
188.081	-314
188.150	877
188.220	221
188.289	887
188.358	153
188.428	583
188.497	-721
188.567	402
188.636	57
188.705	584
188.775	-204
188.844	59
188.913	220
188.983	-32
189.052	-201
189.121	-346
189.191	108
189.260	513
189.329	208
189.399	1046
189.468	517
189.537	665
189.606	-120
189.676	121
189.745	-375
189.814	468
189.883	-111
189.953	821
190.022	-121
190.091	888
190.161	427
190.230	704
190.299	-93
190.368	343
190.437	535
190.507	375
190.576	279
190.645	703
190.714	385
190.783	571
190.853	241
190.922	627
190.991	77
191.060	714
191.129	165
191.198	663
191.268	19
191.337	-301
191.406	319
191.475	45
191.544	322
191.613	266
191.682	-567
191.752	560
191.821	-42
191.890	317
191.959	26
192.028	775
192.097	13
192.166	837
192.235	407
192.304	811
192.373	215
192.442	461
192.511	231
192.580	452
192.650	79
192.719	501
192.788	318
192.857	-37
192.926	-467
192.995	887
193.064	1318
193.133	1530
193.202	551
193.271	1055
193.340	955
193.409	1429
193.478	1259
193.547	1428
193.615	1431
193.684	1452
193.753	723
193.822	1505
193.891	469
193.960	1385
194.029	25
194.098	862
194.167	579
194.236	753
194.305	69
194.374	593
194.443	549
194.512	176
194.580	44
194.649	356
194.718	13
194.787	578
194.856	504
194.925	841
194.994	-273
195.062	1110
195.131	519
195.200	798
195.269	712
195.338	971
195.407	-116
195.475	801
195.544	317
195.613	1004
195.682	165
195.751	1347
195.819	-114
195.888	635
195.957	573
196.026	914
196.094	386
196.163	1116
196.232	126
196.301	1029
196.369	485
196.438	857
196.507	372
196.576	813
196.644	69
196.713	204
196.782	259
196.850	507
196.919	471
196.988	514
197.056	-777
197.125	283
197.194	617
197.262	797
197.331	553
197.400	389
197.468	425
197.537	981
197.606	-188
197.674	1866
197.743	853
197.812	1128
197.880	870
197.949	1388
198.017	548
198.086	639
198.155	389
198.223	971
198.292	1351
198.360	469
198.429	-122
198.497	722
198.566	1203
198.635	1953
198.703	1024
198.772	759
198.840	1181
198.909	761
198.977	745
199.046	797
199.114	434
199.183	1208
199.251	891
199.320	289
199.388	141
199.457	258
199.525	875
199.594	896
199.662	356
199.731	1024
199.799	369
199.867	729
199.936	-158
200.004	760
200.073	1025
200.141	652
200.210	-611
200.278	377
200.346	169
200.415	758
200.483	319
200.552	549
200.620	-392
200.688	846
200.757	-133
200.825	462
200.893	196
200.962	412
201.030	925
201.098	516
201.167	539
201.235	478
201.303	438
201.372	496
201.440	387
201.508	766
201.577	615
201.645	759
201.713	830
201.781	871
201.850	290
201.918	1878
201.986	713
202.055	1071
202.123	1177
202.191	-372
202.259	45
202.327	1399
202.396	669
202.464	464
202.532	770
202.600	1967
202.669	876
202.737	1206
202.805	475
202.873	712
202.941	958
203.009	531
203.078	376
203.146	1247
203.214	195
203.282	339
203.350	494
203.418	575
203.487	567
203.555	672
203.623	130
203.691	854
203.759	695
203.827	741
203.895	796
203.963	776
204.031	216
204.099	771
204.168	237
204.236	1027
204.304	765
204.372	1055
204.440	669
204.508	563
204.576	153
204.644	414
204.712	467
204.780	588
204.848	756
204.916	885
204.984	775
205.052	1279
205.120	1140
205.188	1026
205.256	78
205.324	1372
205.392	1093
205.460	1328
205.528	362
205.596	1192
205.664	486
205.732	860
205.799	2069
205.867	2829
205.935	923
206.003	1037
206.071	985
206.139	936
206.207	1587
206.275	1048
206.343	79
206.411	1465
206.478	188
206.546	1874
206.614	622
206.682	870
206.750	1028
206.818	1105
206.885	704
206.953	1065
207.021	49
207.089	1630
207.157	89
207.225	949
207.292	164
207.360	1288
207.428	148
207.496	1111
207.563	533
207.631	590
207.699	647
207.767	900
207.834	700
207.902	1095
207.970	461
208.038	1118
208.105	856
208.173	813
208.241	1485
208.309	2110
208.376	1429
208.444	2698
208.512	709
208.579	595
208.647	1411
208.715	1841
208.782	1219
208.850	1356
208.918	1040
208.985	1666
209.053	1000
209.120	1727
209.188	689
209.256	1462
209.323	555
209.391	1259
209.459	1516
209.526	1011
209.594	474
209.661	837
209.729	1190
209.796	1625
209.864	975
209.932	1258
209.999	1302
210.067	1489
210.134	424
210.202	1467
210.269	1475
210.337	1324
210.404	776
210.472	1660
210.539	1287
210.607	656
210.674	1778
210.742	1405
210.809	1207
210.877	1641
210.944	1653
211.012	1163
211.079	1900
211.146	1950
211.214	1636
211.281	1506
211.349	817
211.416	1399
211.484	1570
211.551	1385
211.618	1603
211.686	1160
211.753	953
211.821	1589
211.888	1224
211.955	1856
212.023	1502
212.090	1511
212.157	839
212.225	1727
212.292	2762
212.359	4946
212.427	6813
212.494	3661
212.561	1662
212.629	1710
212.696	1454
212.763	1913
212.831	1336
212.898	1910
212.965	1601
213.032	2125
213.100	1305
213.167	2017
213.234	1981
213.301	1905
213.369	1809
213.436	2366
213.503	1584
213.570	1372
213.638	1390
213.705	1704
213.772	476
213.839	1732
213.906	1459
213.973	1226
214.041	1631
214.108	1432
214.175	1674
214.242	1478
214.309	1075
214.376	1973
214.444	1567
214.511	1982
214.578	1506
214.645	1955
214.712	1373
214.779	1903
214.846	1687
214.913	1786
214.980	2242
215.048	1886
215.115	1909
215.182	2127
215.249	1935
215.316	1739
215.383	1894
215.450	1803
215.517	676
215.584	2360
215.651	1803
215.718	2086
215.785	1482
215.852	1866
215.919	1398
215.986	2074
216.053	1404
216.120	1831
216.187	2288
216.254	1598
216.321	1237
216.388	2108
216.455	1914
216.522	1550
216.589	2240
216.656	3838
216.722	2618
216.789	3327
216.856	2550
216.923	2711
216.990	2418
217.057	2501
217.124	2711
217.191	3141
217.258	3175
217.324	4264
217.391	4007
217.458	3285
217.525	2263
217.592	2414
217.659	1687
217.725	2701
217.792	1271
217.859	2821
217.926	1483
217.993	2134
218.059	1221
218.126	1965
218.193	1247
218.260	1372
218.327	1459
218.393	1360
218.460	940
218.527	1596
218.594	881
218.660	1756
218.727	1735
218.794	1880
218.860	345
218.927	1293
218.994	954
219.061	854
219.127	1019
219.194	1583
219.261	706
219.327	1197
219.394	1117
219.461	448
219.527	1291
219.594	997
219.661	836
219.727	958
219.794	1637
219.860	404
219.927	1369
219.994	1820
220.060	2296
220.127	2533
220.193	1808
220.260	2556
220.326	3756
220.393	6183
220.460	5181
220.526	4294
220.593	2391
220.659	3622
220.726	3129
220.792	6425
220.859	5947
220.925	8737
220.992	8471
221.058	8409
221.125	6829
221.191	5660
221.258	2929
221.324	2513
221.391	1304
221.457	530
221.524	2259
221.590	2021
221.657	4697
221.723	3149
221.789	3698
221.856	3370
221.922	2086
221.989	1239
222.055	1165
222.121	1220
222.188	1472
222.254	1883
222.321	788
222.387	1117
222.453	317
222.520	1141
222.586	879
222.652	1532
222.719	1245
222.785	1629
222.851	361
222.918	1358
222.984	1383
223.050	1494
223.116	488
223.183	1255
223.249	-186
223.315	804
223.382	684
223.448	1516
223.514	764
223.580	303
223.647	-50
223.713	659
223.779	911
223.845	734
223.911	917
223.978	1020
224.044	881
224.110	362
224.176	47
224.242	1333
224.309	460
224.375	1232
224.441	401
224.507	512
224.573	443
224.639	1349
224.705	191
224.772	663
224.838	698
224.904	1127
224.970	473
225.036	1106
225.102	739
225.168	782
225.234	713
225.300	1149
225.366	1269
225.432	546
225.499	776
225.565	1284
225.631	1398
225.697	1585
225.763	1713
225.829	1940
225.895	2283
225.961	2645
226.027	2646
226.093	2419
226.159	3438
226.225	6001
226.291	9682
226.357	12001
226.423	7143
226.489	4779
226.554	3735
226.620	4318
226.686	4392
226.752	7257
226.818	9516
226.884	13504
226.950	12252
227.016	6918
227.082	4089
227.148	3776
227.214	2980
227.279	3177
227.345	2125
227.411	2047
227.477	1263
227.543	2339
227.609	2796
227.674	2430
227.740	1244
227.806	2262
227.872	1405
227.938	1706
228.003	2523
228.069	1494
228.135	830
228.201	1749
228.267	1075
228.332	1943
228.398	1162
228.464	1097
228.530	650
228.595	1051
228.661	1199
228.727	1877
228.792	632
228.858	1218
228.924	945
228.990	1721
229.055	1278
229.121	2378
229.187	1558
229.252	1459
229.318	362
229.384	1489
229.449	284
229.515	292
229.581	-359
229.646	1907
229.712	718
229.777	3092
229.843	2376
229.909	2307
229.974	2368
230.040	2110
230.105	941
230.171	1992
230.236	3038
230.302	4618
230.368	2049
230.433	2312
230.499	1101
230.564	2538
230.630	1726
230.695	2414
230.761	1303
230.826	1040
230.892	2048
230.957	1675
231.023	523
231.088	1866
231.154	807
231.219	1352
231.284	2552
231.350	1446
231.415	1307
231.481	871
231.546	787
231.612	993
231.677	465
231.742	504
231.808	1400
231.873	905
231.939	-62
232.004	2726
232.069	1259
232.135	2092
232.200	442
232.265	971
232.331	311
232.396	1735
232.461	436
232.527	1493
232.592	-105
232.657	1206
232.723	1801
232.788	1398
232.853	484
232.918	1150
232.984	128
233.049	665
233.114	1447
233.179	1074
233.245	2690
233.310	2789
233.375	589
233.440	1163
233.506	735
233.571	1245
233.636	795
233.701	1119
233.766	2514
233.832	2132
233.897	1250
233.962	1573
234.027	1835
234.092	1525
234.157	965
234.222	1594
234.288	2267
234.353	6600
234.418	4653
234.483	3466
234.548	2284
234.613	2315
234.678	2458
234.743	1981
234.808	6770
234.873	4234
234.938	2147
235.004	1949
235.069	1559
235.134	1299
235.199	1602
235.264	1180
235.329	1272
235.394	904
235.459	1398
235.524	2760
235.589	889
235.654	1790
235.719	795
235.784	1178
235.849	1882
235.913	4474
235.978	3395
236.043	3817
236.108	1891
236.173	3038
236.238	1920
236.303	1485
236.368	1941
236.433	3974
236.498	5204
236.563	4381
236.627	9438
236.692	18288
236.757	15042
236.822	8611
236.887	5799
236.952	4675
237.017	3566
237.081	4917
237.146	6728
237.211	14604
237.276	19649
237.341	21478
237.405	14678
237.470	7746
237.535	5666
237.600	3760
237.664	2906
237.729	3099
237.794	4140
237.859	9301
237.923	4552
237.988	3291
238.053	4441
238.118	3879
238.182	9416
238.247	6584
238.312	3460
238.376	3048
238.441	2886
238.506	2733
238.570	1020
238.635	2483
238.700	1479
238.764	1129
238.829	4537
238.893	3684
238.958	2877
239.023	2389
239.087	1555
239.152	1654
239.216	1221
239.281	1600
239.346	450
239.410	1658
239.475	1879
239.539	9850
239.604	4476
239.668	2864
239.733	1000
239.797	1683
239.862	3323
239.926	6074
239.991	2307
240.055	1630
240.120	1995
240.184	1402
240.249	815
240.313	1978
240.378	1301
240.442	6599
240.507	6514
240.571	2510
240.635	3861
240.700	4122
240.764	2201
240.829	1802
240.893	1064
240.957	1247
241.022	5651
241.086	7288
241.151	2945
241.215	1640
241.279	2710
241.344	4341
241.408	1925
241.472	2562
241.537	2132
241.601	2782
241.665	1888
241.730	2466
241.794	2374
241.858	1861
241.922	2127
241.987	2196
242.051	1885
242.115	2055
242.179	1828
242.244	1402
242.308	2025
242.372	2511
242.436	2718
242.501	1941
242.565	1947
242.629	1218
242.693	1555
242.757	1541
242.822	1392
242.886	1743
242.950	1496
243.014	1482
243.078	2421
243.142	2791
243.206	1857
243.271	2782
243.335	1748
243.399	4565
243.463	14613
243.527	22945
243.591	6413
243.655	4476
243.719	2469
243.783	3410
243.847	5443
243.911	5773
243.975	6109
244.040	3677
244.104	2747
244.168	2887
244.232	4097
244.296	4537
244.360	4894
244.424	2943
244.488	1997
244.552	2454
244.615	1360
244.679	2122
244.743	2744
244.807	2133
244.871	1562
244.935	2156
244.999	1341
245.063	2338
245.127	2307
245.191	4886
245.255	3332
245.319	3541
245.383	884
245.446	2371
245.510	1183
245.574	2147
245.638	2161
245.702	2677
245.766	4608
245.829	3099
245.893	2141
245.957	1801
246.021	2958
246.085	3302
246.149	3409
246.212	7738
246.276	7583
246.340	3265
246.404	2759
246.467	3155
246.531	3698
246.595	3514
246.659	2941
246.722	3173
246.786	3199
246.850	4288
246.913	4373
246.977	1882
247.041	2275
247.104	2551
247.168	3760
247.232	6783
247.295	9773
247.359	4256
247.423	2698
247.486	5552
247.550	2767
247.614	3839
247.677	4170
247.741	2695
247.804	2586
247.868	3895
247.932	6594
247.995	9114
248.059	3891
248.122	2380
248.186	4310
248.249	7930
248.313	16287
248.376	15786
248.440	10064
248.503	5463
248.567	4903
248.630	7389
248.694	8265
248.757	10787
248.821	15818
248.884	12048
248.948	11258
249.011	15406
249.075	19617
249.138	15423
249.202	7612
249.265	6034
249.328	6260
249.392	5185
249.455	4441
249.519	4307
249.582	4593
249.645	8552
249.709	5410
249.772	5587
249.835	4599
249.899	4405
249.962	3670
250.025	3630
250.089	9131
250.152	9935
250.215	5294
250.279	4186
250.342	4340
250.405	4323
250.468	3646
250.532	6088
250.595	10461
250.658	32636
250.721	34632
250.785	14034
250.848	8740
250.911	6120
250.974	4721
251.038	8586
251.101	11416
251.164	6773
251.227	7044
251.290	7632
251.354	13084
251.417	40536
251.480	30357
251.543	32042
251.606	61703
251.669	39398
251.732	19930
251.795	19560
251.859	21161
251.922	40855
251.985	19901
252.048	11533
252.111	7879
252.174	8264
252.237	13643
252.300	21959
252.363	32092
252.426	42551
252.489	19229
252.552	13047
252.615	8243
252.678	10445
252.741	18168
252.804	29881
252.867	47640
252.930	27053
252.993	15220
253.056	11540
253.119	9007
253.182	7864
253.245	12328
253.308	8130
253.371	8182
253.434	7501
253.497	7705
253.559	12264
253.622	8881
253.685	13911
253.748	10047
253.811	5615
253.874	8013
253.937	6908
254.000	5471
254.062	10061
254.125	11454
254.188	15517
254.251	8536
254.314	5894
254.376	10836
254.439	9735
254.502	9285
254.565	10721
254.628	13933
254.690	9766
254.753	4835
254.816	4232
254.878	6004
254.941	9727
255.004	6339
255.067	4731
255.129	4082
255.192	3137
255.255	1981
255.317	3874
255.380	1853
255.443	1571
255.505	1229
255.568	2343
255.631	1990
255.693	2981
255.756	1416
255.819	2450
255.881	2060
255.944	1858
256.006	1333
256.069	1750
256.132	1703
256.194	4412
256.257	7627
256.319	5537
256.382	5342
256.444	4344
256.507	2204
256.569	3253
256.632	3053
256.694	6327
256.757	18645
256.819	34447
256.882	13776
256.944	7135
257.007	5962
257.069	5709
257.132	4698
257.194	4585
257.257	3204
257.319	3823
257.381	4772
257.444	15597
257.506	41706
257.569	38050
257.631	16976
257.693	11049
257.756	5977
257.818	5424
257.880	3784
257.943	3874
258.005	2434
258.067	2926
258.130	3123
258.192	4707
258.254	6488
258.317	3899
258.379	3184
258.441	6828
258.503	5048
258.566	11478
258.628	8926
258.690	2954
258.753	4710
258.815	7032
258.877	2904
258.939	2435
259.001	2692
259.064	3360
259.126	3230
259.188	4417
259.250	3212
259.312	3686
259.375	7429
259.437	4561
259.499	1956
259.561	2574
259.623	3363
259.685	3435
259.747	3840
259.809	11313
259.872	14686
259.934	26771
259.996	20345
260.058	6249
260.120	2867
260.182	2817
260.244	2391
260.306	1878
260.368	2593
260.430	2517
260.492	9252
260.554	10800
260.616	4285
260.678	13493
260.740	12373
260.802	3040
260.864	3441
260.926	2914
260.988	2865
261.050	4708
261.112	13319
261.174	23119
261.236	10114
261.298	4668
261.359	8683
261.421	9494
261.483	3149
261.545	2595
261.607	1519
261.669	2348
261.731	6827
261.793	11213
261.854	3365
261.916	4194
261.978	4365
262.040	4178
262.102	2734
262.164	4688
262.225	3341
262.287	3260
262.349	6212
262.411	4478
262.472	2576
262.534	6545
262.596	8515
262.658	3834
262.719	1715
262.781	4209
262.843	8908
262.904	3637
262.966	3442
263.028	5272
263.090	25825
263.151	43135
263.213	14650
263.275	9694
263.336	4113
263.398	3398
263.459	1997
263.521	3048
263.583	6592
263.644	4213
263.706	1775
263.767	1588
263.829	1635
263.891	1022
263.952	986
264.014	1163
264.075	6713
264.137	13197
264.198	4387
264.260	1897
264.321	1842
264.383	9655
264.444	17697
264.506	4396
264.567	2527
264.629	11340
264.690	14579
264.752	4449
264.813	2740
264.875	2908
264.936	2797
264.998	2937
265.059	1338
265.120	2217
265.182	5517
265.243	26744
265.305	18227
265.366	5831
265.427	2902
265.489	3240
265.550	1107
265.611	3347
265.673	2420
265.734	2927
265.795	1599
265.857	2611
265.918	2879
265.979	9634
266.040	36452
266.102	22409
266.163	8507
266.224	6662
266.286	4127
266.347	2540
266.408	2821
266.469	2421
266.530	1655
266.592	2519
266.653	5193
266.714	6203
266.775	2049
266.836	1230
266.898	2627
266.959	5592
267.020	1807
267.081	2691
267.142	1637
267.203	2190
267.264	587
267.326	2958
267.387	1464
267.448	1167
267.509	1636
267.570	2465
267.631	1301
267.692	1480
267.753	1812
267.814	961
267.875	4630
267.936	7789
267.997	6821
268.058	5405
268.119	1833
268.180	1930
268.241	1623
268.302	2314
268.363	792
268.424	1623
268.485	2250
268.546	1558
268.607	641
268.668	1316
268.729	499
268.790	2293
268.851	1951
268.912	7130
268.972	6283
269.033	3099
269.094	1142
269.155	1953
269.216	1737
269.277	2150
269.338	1047
269.398	2476
269.459	2625
269.520	4310
269.581	5037
269.642	5126
269.702	3051
269.763	2911
269.824	1719
269.885	3417
269.945	4571
270.006	2087
270.067	1344
270.128	827
270.188	1720
270.249	2148
270.310	1459
270.370	2507
270.431	1145
270.492	929
270.553	2381
270.613	4773
270.674	7677
270.734	3382
270.795	1944
270.856	4248
270.916	1808
270.977	2256
271.038	3074
271.098	2549
271.159	4012
271.219	3137
271.280	1543
271.340	2519
271.401	2202
271.462	6361
271.522	3058
271.583	2029
271.643	2603
271.704	1586
271.764	2974
271.825	8553
271.885	21247
271.946	19353
272.006	7731
272.066	13516
272.127	14742
272.187	6190
272.248	2409
272.308	4941
272.369	11749
272.429	6204
272.489	7867
272.550	7034
272.610	7629
272.671	4374
272.731	6290
272.791	7561
272.852	3492
272.912	3476
272.972	1499
273.033	2323
273.093	3790
273.153	5601
273.214	2286
273.274	3962
273.334	15989
273.394	16778
273.455	7200
273.515	10246
273.575	16330
273.635	6514
273.696	11306
273.756	16292
273.816	6089
273.876	4174
273.936	12298
273.997	16522
274.057	3577
274.117	3797
274.177	7539
274.237	25837
274.297	16685
274.358	14584
274.418	13815
274.478	10501
274.538	4682
274.598	4733
274.658	15065
274.718	14909
274.778	5911
274.838	4346
274.898	10913
274.958	23223
275.018	17135
275.078	10021
275.138	4496
275.198	3403
275.258	2185
275.318	3858
275.378	6386
275.438	7274
275.498	4908
275.558	13825
275.618	19459
275.678	11072
275.738	10445
275.798	8771
275.858	4761
275.918	2719
275.978	3611
276.038	3624
276.098	2145
276.157	7598
276.217	14137
276.277	6563
276.337	5204
276.397	2761
276.457	3340
276.517	2717
276.576	1573
276.636	1825
276.696	4390
276.756	10464
276.815	5015
276.875	2450
276.935	3222
276.995	3097
277.055	1675
277.114	2115
277.174	3306
277.234	9465
277.293	3659
277.353	3400
277.413	1859
277.472	2158
277.532	1642
277.592	3387
277.651	11659
277.711	13195
277.771	5578
277.830	21546
277.890	12471
277.950	14132
278.009	26078
278.069	9004
278.128	13975
278.188	13935
278.248	7247
278.307	18685
278.367	7312
278.426	3332
278.486	2588
278.545	2693
278.605	2229
278.664	1981
278.724	3323
278.783	9642
278.843	14895
278.902	4777
278.962	2492
279.021	3828
279.081	5514
279.140	4920
279.199	4757
279.259	4267
279.318	3423
279.378	5596
279.437	9816
279.496	31762
279.556	91818
279.615	48833
279.675	14906
279.734	10804
279.793	15980
279.853	16088
279.912	6596
279.971	5084
280.031	3375
280.090	8088
280.149	10525
280.208	16763
280.268	71535
280.327	45750
280.386	11850
280.445	12371
280.505	9258
280.564	6388
280.623	5354
280.682	7852
280.742	8650
280.801	4000
280.860	2955
280.919	2822
280.978	2309
281.037	3115
281.097	1656
281.156	2551
281.215	2031
281.274	3935
281.333	12380
281.392	5621
281.451	2398
281.510	2825
281.569	2534
281.628	1592
281.688	1548
281.747	3031
281.806	2369
281.865	2061
281.924	1666
281.983	2109
282.042	1355
282.101	589
282.160	684
282.219	1183
282.278	2214
282.337	6959
282.396	3125
282.454	2351
282.513	4015
282.572	11396
282.631	4334
282.690	2195
282.749	1254
282.808	3182
282.867	2284
282.926	2273
282.985	1528
283.043	262
283.102	1500
283.161	2244
283.220	7474
283.279	10463
283.338	2743
283.396	1998
283.455	2166
283.514	3293
283.573	4942
283.631	2660
283.690	1953
283.749	2928
283.808	6545
283.866	5768
283.925	1940
283.984	2655
284.043	3691
284.101	3549
284.160	3058
284.219	5332
284.277	3071
284.336	6429
284.395	15334
284.453	9203
284.512	4055
284.570	7488
284.629	4398
284.688	4893
284.746	4988
284.805	5773
284.863	7547
284.922	9341
284.981	11075
285.039	17061
285.098	31094
285.156	58612
285.215	66917
285.273	66239
285.332	48096
285.390	29798
285.449	18704
285.507	14382
285.566	10835
285.624	8226
285.683	6727
285.741	5717
285.799	4293
285.858	4609
285.916	4194
285.975	3805
286.033	2403
286.091	2622
286.150	1667
286.208	2494
286.267	3745
286.325	3699
286.383	4708
286.442	3164
286.500	1757
286.558	2078
286.616	1497
286.675	3992
286.733	3070
286.791	2833
286.850	3216
286.908	4481
286.966	6132
287.024	2707
287.083	1524
287.141	1819
287.199	2202
287.257	4097
287.315	2253
287.374	3581
287.432	7707
287.490	4530
287.548	3124
287.606	3153
287.664	2035
287.723	5292
287.781	5505
287.839	3239
287.897	3138
287.955	4938
288.013	9007
288.071	21487
288.129	73465
288.187	121734
288.245	52416
288.303	20634
288.361	12944
288.419	10698
288.477	7236
288.535	4736
288.593	4551
288.651	3750
288.709	2701
288.767	1602
288.825	3102
288.883	2319
288.941	1800
288.999	2415
289.057	2037
289.115	1583
289.173	1375
289.231	2710
289.289	925
289.346	2418
289.404	2812
289.462	5030
289.520	4292
289.578	2480
289.636	1721
289.694	1097
289.751	815
289.809	1263
289.867	1450
289.925	3201
289.983	2010
290.040	1822
290.098	1069
290.156	2285
290.214	2815
290.271	1450
290.329	1065
290.387	1630
290.444	1623
290.502	1256
290.560	1675
290.617	1944
290.675	1345
290.733	1166
290.790	2117
290.848	1599
290.906	1976
290.963	2328
291.021	1140
291.078	1841
291.136	2322
291.194	12035
291.251	14736
291.309	3379
291.366	1953
291.424	1392
291.481	1204
291.539	1712
291.596	1445
291.654	1514
291.711	798
291.769	2942
291.826	4144
291.884	2438
291.941	1206
291.999	1928
292.056	2218
292.114	2699
292.171	899
292.228	1172
292.286	2488
292.343	5968
292.401	6097
292.458	3368
292.515	2284
292.573	3120
292.630	2087
292.687	2789
292.745	2762
292.802	5482
292.859	13398
292.917	14329
292.974	5907
293.031	2760
293.089	1911
293.146	2335
293.203	2191
293.260	1535
293.318	2809
293.375	6430
293.432	2246
293.489	1975
293.546	1476
293.604	4482
293.661	10146
293.718	20065
293.775	10809
293.832	5254
293.889	3378
293.947	3404
294.004	2421
294.061	4170
294.118	7846
294.175	17988
294.232	22152
294.289	7807
294.346	4837
294.403	5369
294.460	3536
294.517	3065
294.574	1665
294.631	2500
294.688	3562
294.745	10397
294.802	29053
294.859	31159
294.916	10084
294.973	5738
295.030	5486
295.087	5075
295.144	3524
295.201	3120
295.258	2612
295.315	4327
295.372	10189
295.429	14536
295.486	7457
295.542	7296
295.599	21028
295.656	27538
295.713	17274
295.770	15353
295.827	6381
295.883	5557
295.940	3980
295.997	8967
296.054	5260
296.111	3650
296.167	2742
296.224	2238
296.281	2422
296.338	2140
296.394	2683
296.451	3309
296.508	9916
296.564	15164
296.621	12258
296.678	22069
296.734	25731
296.791	10678
296.848	6719
296.904	8180
296.961	15283
297.018	18902
297.074	12588
297.131	6172
297.187	4284
297.244	7065
297.301	18538
297.357	22735
297.414	8228
297.470	4649
297.527	4097
297.583	4677
297.640	3712
297.696	3942
297.753	2323
297.809	2392
297.866	1002
297.922	2404
297.979	1922
298.035	2909
298.092	4595
298.148	10886
298.204	8630
298.261	5328
298.317	12825
298.374	22388
298.430	10683
298.486	7334
298.543	5001
298.599	6214
298.656	7332
298.712	12068
298.768	23465
298.824	13594
298.881	5132
298.937	4352
298.993	3991
299.050	5761
299.106	4119
299.162	3212
299.218	3419
299.275	2586
299.331	3498
299.387	8053
299.443	18610
299.500	15446
299.556	6162
299.612	4687
299.668	3722
299.724	3198
299.780	2702
299.837	3236
299.893	6207
299.949	17730
300.005	16588
300.061	19009
300.117	25127
300.173	11736
300.229	6340
300.285	9504
300.341	9044
300.397	5308
300.453	2977
300.510	3516
300.566	2211
300.622	3013
300.678	6137
300.734	12765
300.790	14294
300.845	16120
300.901	10361
300.957	15477
301.013	10684
301.069	4797
301.125	3984
301.181	4909
301.237	3469
301.293	2611
301.349	2018
301.405	2371
301.461	2808
301.516	4482
301.572	4135
301.628	7109
301.684	5584
301.740	9753
301.796	11532
301.851	9807
301.907	15182
301.963	14265
302.019	23066
302.074	47410
302.130	43033
302.186	21026
302.242	9855
302.297	7459
302.353	7372
302.409	12590
302.464	10419
302.520	11126
302.576	22114
302.631	22141
302.687	12672
302.743	6265
302.798	4529
302.854	4728
302.910	4739
302.965	6695
303.021	9976
303.076	9716
303.132	11004
303.187	11522
303.243	4998
303.299	4159
303.354	3185
303.410	3937
303.465	3138
303.521	3683
303.576	2821
303.632	4518
303.687	8227
303.743	18297
303.798	12487
303.853	6623
303.909	3725
303.964	4534
304.020	7053
304.075	10327
304.130	9739
304.186	15707
304.241	15713
304.297	12184
304.352	5846
304.358	5785
304.407	5286
304.449	4415
304.463	4122
304.518	4873
304.539	4479
304.573	3844
304.629	5214
304.630	5246
304.684	6862
304.720	12032
304.739	14677
304.794	17911
304.811	15884
304.850	10719
304.902	5850
304.905	5555
304.960	4473
304.992	5276
305.015	5838
305.071	5178
305.083	4866
305.126	3658
305.173	3942
305.181	4001
305.236	2776
305.264	3240
305.292	3789
305.347	4302
305.354	4407
305.402	5001
305.445	4980
305.457	4996
305.512	7539
305.535	7126
305.567	6364
305.622	6750
305.626	6947
305.678	11696
305.716	20722
305.733	24056
305.788	22785
305.807	20576
305.843	16279
305.897	19441
305.898	19481
305.953	18035
305.988	13492
306.008	10892
306.063	7646
306.078	6988
306.118	5357
306.168	4243
306.173	4184
306.228	3463
306.259	3482
306.283	3482
306.338	3284
306.349	3573
306.393	5216
306.440	5930
306.448	5960
306.503	5413
306.530	6410
306.558	9145
306.613	19644
306.620	20552
306.668	24058
306.711	25065
306.723	24681
306.778	17917
306.801	14640
306.833	10551
306.888	5961
306.892	5758
306.943	4904
306.982	4398
306.997	4239
307.052	4249
307.072	4369
307.107	5404
307.162	8293
307.163	8336
307.217	13425
307.253	16175
307.272	16990
307.327	17363
307.343	16360
307.381	12538
307.434	10119
307.436	10363
307.491	19864
307.524	27460
307.546	29430
307.600	24890
307.614	22575
307.655	14234
307.704	9176
307.710	9185
307.765	10775
307.795	13562
307.819	17737
307.874	29844
307.885	30296
307.929	23449
307.975	16182
307.984	16182
308.038	21912
308.065	26637
308.093	39436
308.148	74640
308.156	80759
308.202	115596
308.246	135158
308.257	131208
308.312	87111
308.336	69235
308.366	55127
308.421	34267
308.426	32455
308.475	22365
308.517	16021
308.530	15184
308.585	13322
308.607	12337
308.639	11898
308.694	13431
308.697	13582
308.748	23546
308.787	34368
308.803	35193
308.857	27804
308.877	25169
308.912	21742
308.967	19084
308.967	19049
309.021	23957
309.058	28682
309.076	35070
309.130	58373
309.148	67585
309.185	100649
309.238	152011
309.239	152590
309.293	163567
309.328	162493
309.348	147691
309.402	95509
309.418	81667
309.457	60217
309.508	36787
309.511	36242
309.566	29065
309.598	25736
309.620	27103
309.674	31585
309.688	32877
309.729	32607
309.778	29944
309.783	29390
309.837	22875
309.868	19538
309.892	21064
309.946	26078
309.959	27927
310.001	38917
310.049	48555
310.055	47051
310.109	30218
310.139	20820
310.163	17456
310.218	12200
310.229	11153
310.272	9222
310.319	7573
310.326	7555
310.381	7576
310.409	7687
310.435	7545
310.489	6771
310.499	6704
310.543	7416
310.589	8131
310.598	8230
310.652	8898
310.679	8956
310.706	8091
310.760	6502
310.769	6193
310.814	4803
310.859	4034
310.868	4286
310.923	5060
310.948	5711
310.977	6182
311.031	6768
311.038	6858
311.085	7094
311.128	7028
311.139	6976
311.193	6897
311.218	6741
311.247	6357
311.301	5701
311.308	5611
311.356	5621
311.398	5607
311.410	5666
311.464	5847
311.488	5936
311.518	5627
311.572	5004
311.578	4935
311.626	6994
311.668	8755
311.680	8908
311.734	9497
311.758	9722
311.788	10125
311.842	10848
311.847	10897
311.896	12386
311.937	13717
311.950	14058
312.004	15365
312.027	15877
312.058	13200
312.112	8383
312.117	7884
312.165	7218
312.207	6623
312.297	11485
312.386	10882
312.476	7591
312.566	13384
312.656	8064
312.745	6836
312.835	7759
312.925	8916
313.015	7104
313.104	9537
313.194	5886
313.284	6679
313.374	6738
313.463	8008
313.553	6253
313.643	6060
313.732	5264
313.822	5447
313.912	6285
314.001	7276
314.091	7865
314.180	14770
314.270	9842
314.360	10877
314.449	8716
314.539	6588
314.628	5614
314.718	7802
314.808	9641
314.897	7023
314.987	4820
315.076	6829
315.166	8938
315.255	10368
315.345	9055
315.434	9769
315.524	6932
315.613	9521
315.703	8768
315.792	9729
315.881	7539
315.971	8183
316.060	13922
316.150	27774
316.239	29206
316.328	15265
316.418	5420
316.507	6029
316.597	7415
316.686	7653
316.775	10391
316.865	29960
316.954	8838
317.043	6109
317.133	4953
317.222	6055
317.311	5134
317.400	5488
317.490	6000
317.579	8091
317.668	5077
317.757	6650
317.847	8342
317.936	11742
318.025	15997
318.114	10664
318.203	8821
318.293	13524
318.382	26618
318.471	21810
318.560	27328
318.649	57610
318.738	18746
318.828	9742
318.917	10641
319.006	12307
319.095	29157
319.184	64758
319.273	44695
319.362	22588
319.451	8831
319.540	8536
319.629	13443
319.718	27489
319.807	14515
319.896	22316
319.985	75803
320.074	42597
320.163	12933
320.252	19446
320.341	16544
320.430	18226
320.519	14170
320.608	11677
320.697	7764
320.786	9139
320.875	8667
320.964	11686
321.053	16497
321.142	22384
321.230	29098
321.319	19556
321.408	45223
321.497	27006
321.586	18459
321.675	25779
321.764	28529
321.852	19962
321.941	25510
322.030	21643
322.119	19545
322.207	47008
322.296	43131
322.385	24918
322.474	19406
322.562	47246
322.651	37586
322.740	19596
322.829	29730
322.917	38895
323.006	22716
323.095	16370
323.183	14258
323.272	20788
323.361	29961
323.449	84889
323.538	40751
323.626	60193
323.715	50973
323.804	18986
323.892	56769
323.981	45241
324.069	13525
324.158	31593
324.246	40518
324.335	12546
324.424	17722
324.512	9316
324.601	10532
324.689	16679
324.778	30802
324.866	29330
324.954	10886
325.043	9203
325.131	15569
325.220	31229
325.308	36627
325.397	24238
325.485	18563
325.574	7129
325.662	5410
325.750	7504
325.839	5178
325.927	5709
326.015	8035
326.104	11717
326.192	21243
326.280	6962
326.369	6209
326.457	8013
326.545	13578
326.634	9394
326.722	5016
326.810	6285
326.898	5443
326.987	6238
327.075	12279
327.163	17504
327.251	11122
327.340	12668
327.428	21446
327.516	6167
327.604	5598
327.692	7502
327.781	7441
327.869	15408
327.957	10347
328.045	8560
328.133	5730
328.221	8090
328.309	6798
328.397	5063
328.485	6650
328.574	8642
328.662	23589
328.750	22206
328.838	10717
328.926	7191
329.014	5046
329.102	8630
329.190	21058
329.278	18714
329.366	5370
329.454	4710
329.542	5534
329.630	5093
329.718	5906
329.806	8651
329.893	8771
329.981	11554
330.069	14414
330.157	40968
330.245	91702
330.333	71500
330.421	21028
330.509	13713
330.597	31126
330.684	29415
330.772	12379
330.860	19643
330.948	25532
331.036	14054
331.123	4539
331.211	5793
331.299	8588
331.387	16903
331.475	38306
331.562	13900
331.650	4684
331.738	6912
331.825	10752
331.913	6069
332.001	4853
332.089	7336
332.176	18726
332.264	33163
332.352	35388
332.439	11390
332.527	7736
332.614	7182
332.702	9980
332.790	6724
332.877	14493
332.965	37228
333.052	10908
333.140	8168
333.228	17708
333.315	8347
333.403	7685
333.490	20371
333.578	21431
333.665	15665
333.753	10780
333.840	6198
333.928	6711
334.015	21705
334.103	29607
334.190	79423
334.278	33136
334.365	11087
334.452	7019
334.540	5679
334.627	6450
334.715	12715
334.802	19047
334.889	90911
334.977	113654
335.064	15136
335.151	6608
335.239	7696
335.326	11901
335.413	33658
335.501	63150
335.588	12357
335.675	6617
335.762	9734
335.850	20460
335.937	11810
336.024	21169
336.111	99575
336.199	56101
336.286	11091
336.373	5050
336.460	4800
336.547	4295
336.635	7369
336.722	6318
336.809	7486
336.896	8539
336.983	27338
337.070	66367
337.157	89135
337.245	68829
337.332	62953
337.419	9818
337.506	7001
337.593	7845
337.680	20755
337.767	74835
337.854	26984
337.941	29111
338.028	32764
338.115	14839
338.202	13941
338.289	22447
338.376	71384
338.463	33630
338.550	37622
338.637	54962
338.724	17318
338.811	29656
338.898	8069
338.984	5097
339.071	8815
339.158	7737
339.245	19661
339.332	15405
339.419	17263
339.506	21878
339.593	4632
339.679	4636
339.766	4586
339.853	7090
339.940	13538
340.027	6679
340.113	6369
340.200	7133
340.287	6496
340.374	6633
340.460	12638
340.547	7010
340.634	7831
340.720	26548
340.807	23200
340.894	4691
340.980	5696
341.067	4826
341.154	5811
341.240	7306
341.327	17217
341.414	6611
341.500	8906
341.587	4335
341.674	5211
341.760	10410
341.847	14819
341.933	5521
342.020	3268
342.106	2589
342.193	4778
342.279	9088
342.366	7370
342.452	11876
342.539	8027
342.625	11860
342.712	32007
342.798	16980
342.885	7917
342.971	3114
343.058	3253
343.144	3832
343.230	3882
343.317	4040
343.403	5055
343.490	2842
343.576	3205
343.662	4436
343.749	5499
343.835	6960
343.921	10059
344.008	32570
344.094	84312
344.180	27154
344.267	11796
344.353	22898
344.439	38196
344.525	20456
344.612	13518
344.698	13321
344.784	9688
344.870	4457
344.957	4690
345.043	7323
345.129	6221
345.215	10693
345.301	8530
345.387	5676
345.474	3816
345.560	3647
345.646	5910
345.732	5031
345.818	5918
345.904	4949
345.990	6319
346.076	5995
346.162	14659
346.249	6558
346.335	4393
346.421	3464
346.507	9507
346.593	31843
346.679	14489
346.765	6271
346.851	4200
346.937	4045
347.023	4283
347.108	4333
347.194	5256
347.280	3553
347.366	5552
347.452	9145
347.538	37321
347.624	33463
347.710	34368
347.796	8363
347.882	5625
347.967	5501
348.053	9179
348.139	6475
348.225	4515
348.311	4197
348.397	4316
348.482	3906
348.568	7058
348.654	3090
348.740	3446
348.825	2558
348.911	6329
348.997	18165
349.083	41010
349.168	12422
349.254	4994
349.340	6181
349.425	4499
349.511	4831
349.597	8358
349.682	9208
349.768	25733
349.854	17281
349.939	6409
350.025	3428
350.110	5085
350.196	3268
350.282	3852
350.367	2439
350.453	8262
350.538	10640
350.624	7531
350.709	7310
350.795	4678
350.880	3691
350.966	5397
351.051	9101
351.137	8740
351.222	4165
351.308	9762
351.393	26767
351.479	11456
351.564	4997
351.649	4859
351.735	3415
351.820	3756
351.906	4049
351.991	6875
352.076	15281
352.162	30035
352.247	8624
352.332	5737
352.418	9608
352.503	13001
352.588	33342
352.673	41013
352.759	10052
352.844	6720
352.929	4769
353.014	9620
353.100	4888
353.185	5638
353.270	10259
353.355	14944
353.441	6127
353.526	6245
353.611	10979
353.696	16030
353.781	8214
353.866	5441
353.952	4421
354.037	10465
354.122	23927
354.207	24099
354.292	10597
354.377	5508
354.462	4659
354.547	6574
354.632	6511
354.717	9359
354.802	7428
354.887	4661
354.972	2982
355.057	4260
355.142	3215
355.227	5293
355.312	6807
355.397	15855
355.482	36199
355.567	25378
355.652	13257
355.737	15273
355.822	26933
355.907	31884
355.991	6808
356.076	4477
356.161	3732
356.246	4012
356.331	3576
356.416	8846
356.501	37599
356.585	56695
356.670	13842
356.755	8037
356.840	8891
356.924	29163
357.009	107806
357.094	62750
357.179	15645
357.263	13035
357.348	9604
357.433	12832
357.517	9878
357.602	9137
357.687	6765
357.771	8154
357.856	27123
357.941	22149
358.025	25278
358.110	100235
358.195	68785
358.279	15237
358.364	10469
358.448	24092
358.533	63702
358.617	54657
358.702	46020
358.787	23688
358.871	12341
358.956	12966
359.040	5752
359.125	4112
359.209	4386
359.294	12818
359.378	27823
359.462	12620
359.547	7135
359.631	6817
359.716	4118
359.800	5627
359.885	9252
359.969	6717
360.053	4446
360.138	6358
360.222	6712
360.306	12828
360.391	10883
360.475	15397
360.559	41134
360.644	31725
360.728	25726
360.812	23403
360.896	67476
360.981	43720
361.065	33146
361.149	9231
361.233	6981
361.318	7021
361.402	6967
361.486	6321
361.570	3972
361.654	6323
361.739	12395
361.823	42460
361.907	73563
361.991	21487
362.075	9249
362.159	22785
362.243	16729
362.327	10858
362.411	9312
362.495	8809
362.580	6229
362.664	4268
362.748	3447
362.832	5207
362.916	3767
363.000	9918
363.084	34421
363.168	80322
363.252	29074
363.336	12437
363.420	13647
363.503	47719
363.587	78010
363.671	16985
363.755	8812
363.839	14389
363.923	6479
364.007	11583
364.091	16148
364.175	17930
364.258	76307
364.342	52369
364.426	14713
364.510	11735
364.594	13218
364.677	17417
364.761	52291
364.845	52466
364.929	19846
365.013	20630
365.096	12632
365.180	20479
365.264	19477
365.347	83104
365.431	53367
365.515	18175
365.598	6735
365.682	6612
365.766	11658
365.849	23012
365.933	8605
366.017	11806
366.100	13346
366.184	5120
366.267	5343
366.351	4979
366.435	3775
366.518	4031
366.602	3244
366.685	4067
366.769	5113
366.852	10468
366.936	21748
367.019	11858
367.103	8395
367.186	23425
367.270	7800
367.353	3357
367.436	3351
367.520	3484
367.603	4735
367.687	6944
367.770	13751
367.853	9031
367.937	14208
368.020	31636
368.104	10975
368.187	9846
368.270	15175
368.353	15865
368.437	18383
368.520	53965
368.603	35718
368.687	23805
368.770	46423
368.853	17004
368.936	15199
369.020	23540
369.103	7518
369.186	5391
369.269	5562
369.352	8717
369.436	16644
369.519	12204
369.602	5693
369.685	5955
369.768	7588
369.851	6406
369.934	3844
370.018	6797
370.101	12311
370.184	11859
370.267	9185
370.350	12523
370.433	20197
370.516	31219
370.599	37812
370.682	15029
370.765	28452
370.848	34014
370.931	51054
371.014	31895
371.097	8306
371.180	6254
371.263	3765
371.346	3325
371.429	3920
371.511	4914
371.594	8198
371.677	15232
371.760	23427
371.843	14640
371.926	32687
372.009	91556
372.091	42040
372.174	23495
372.257	44760
372.340	24217
372.423	23193
372.505	39193
372.588	16739
372.671	15905
372.754	47843
372.836	33234
372.919	23900
373.002	64673
373.085	23136
373.167	11174
373.250	23046
373.332	45032
373.415	55657
373.498	122367
373.580	61381
373.663	47455
373.746	79217
373.828	27476
373.911	13402
373.993	13723
374.076	47338
374.159	65396
374.241	20422
374.324	44386
374.406	38310
374.489	29253
374.571	91210
374.654	51212
374.736	20421
374.819	56957
374.901	81874
374.983	98037
375.066	24875
375.148	9899
375.231	32777
375.313	88484
375.395	44945
375.478	11113
375.560	4980
375.643	7382
375.725	18035
375.807	70269
375.890	82632
375.972	57417
376.054	25575
376.136	46825
376.219	22816
376.301	18782
376.383	61858
376.465	32935
376.548	21674
376.630	22508
376.712	51708
376.794	33445
376.877	5362
376.959	3608
377.041	4930
377.123	14678
377.205	23340
377.287	6615
377.369	3496
377.452	3800
377.534	3870
377.616	5062
377.698	3746
377.780	3687
377.862	4214
377.944	4192
378.026	2847
378.108	3860
378.190	3869
378.272	4026
378.354	2570
378.436	3161
378.518	6389
378.600	32098
378.682	25938
378.764	29927
378.846	31165
378.928	11811
379.010	14270
379.091	9632
379.173	4758
379.255	4325
379.337	5581
379.419	13535
379.501	42920
379.583	25598
379.664	7922
379.746	13987
379.828	32804
379.910	44595
379.991	42251
380.073	10746
380.155	7188
380.237	5959
380.318	3247
380.400	5067
380.482	8087
380.564	15851
380.645	11851
380.727	13634
380.809	8493
380.890	6312
380.972	5035
381.053	5202
381.135	5885
381.217	9986
381.298	34331
381.380	24180
381.461	14673
381.543	48504
381.624	78318
381.706	21956
381.787	11334
381.869	12299
381.951	20833
382.032	84001
382.113	74251
382.195	23972
382.276	12386
382.358	16613
382.439	47450
382.521	52952
382.602	87292
382.684	47632
382.765	71635
382.846	87260
382.928	106935
383.009	73484
383.090	41645
383.172	126990
383.253	237111
383.334	100066
383.416	81302
383.497	51702
383.578	24320
383.659	41320
383.741	111233
383.822	311698
383.903	204686
383.984	67460
384.066	96585
384.147	79217
384.228	20986
384.309	14113
384.390	11523
384.471	7995
384.553	8447
384.634	13481
384.715	15659
384.796	7672
384.877	8177
384.958	25590
385.039	42293
385.120	20872
385.201	9516
385.282	12874
385.363	15820
385.444	12637
385.525	13135
385.606	37373
385.687	40076
385.768	15178
385.849	17385
385.930	40880
386.011	79956
386.092	32343
386.173	10220
386.254	8046
386.335	8462
386.416	9633
386.496	18850
386.577	39546
386.658	21542
386.739	14376
386.820	13507
386.901	13670
386.981	10496
387.062	7160
387.143	8786
387.224	28690
387.304	37171
387.385	16966
387.466	11623
387.547	15956
387.627	9174
387.708	10881
387.789	44216
387.869	68085
387.950	24704
388.031	7071
388.111	6759
388.192	23310
388.273	38166
388.353	25433
388.434	9697
388.514	10751
388.595	38673
388.676	63627
388.756	38096
388.837	33734
388.917	27528
388.998	7795
389.078	6859
389.159	5839
389.239	4503
389.320	7634
389.400	7480
389.480	12997
389.561	32800
389.641	21580
389.722	6759
389.802	13086
389.883	14252
389.963	34583
390.043	31683
390.124	17705
390.204	12103
390.284	39378
390.365	33342
390.445	36795
390.525	91725
390.605	86436
390.686	30053
390.766	11452
390.846	6117
390.927	4370
391.007	4380
391.087	6660
391.167	7141
391.247	5971
391.328	9708
391.408	18941
391.488	15610
391.568	4049
391.648	5202
391.728	9217
391.808	7625
391.888	9014
391.969	13792
392.049	30310
392.129	20031
392.209	16741
392.289	31713
392.369	24313
392.449	30956
392.529	22692
392.609	9655
392.689	10312
392.769	26362
392.849	31552
392.929	20485
393.009	53558
393.089	37194
393.169	11739
393.248	19011
393.328	111636
393.408	173091
393.488	40944
393.568	9996
393.648	8065
393.728	5755
393.807	6016
393.887	6539
393.967	5724
394.047	8713
394.127	13845
394.206	21969
394.286	60582
394.366	225528
394.446	304345
394.525	120882
394.605	35750
394.685	21091
394.764	40397
394.844	68050
394.924	55905
395.003	14993
395.083	10519
395.163	8828
395.242	8122
395.322	8380
395.402	7007
395.481	8025
395.561	20229
395.640	69984
395.720	51772
395.799	65619
395.879	73693
395.958	40757
396.038	96628
396.117	291933
396.197	374033
396.276	193308
396.356	77551
396.435	49852
396.515	27908
396.594	17452
396.673	18813
396.753	30606
396.832	122180
396.912	134749
396.991	47790
397.070	12831
397.150	8120
397.229	5991
397.308	5180
397.388	6273
397.467	5048
397.546	3332
397.625	3650
397.705	5759
397.784	7396
397.863	4566
397.942	3311
398.022	3308
398.101	14957
398.180	64265
398.259	49197
398.338	12895
398.417	6994
398.497	5360
398.576	6055
398.655	3732
398.734	3611
398.813	4165
398.892	12624
398.971	64583
399.050	46152
399.129	6605
399.208	3870
399.287	3402
399.366	3322
399.445	2781
399.524	4351
399.603	2906
399.682	6435
399.761	16716
399.840	60914
399.919	65846
399.998	12216
400.077	3166
400.156	2982
400.235	5609
400.313	4283
400.392	4794
400.471	15782
400.550	35166
400.629	13399
400.708	5392
400.786	6612
400.865	17791
400.944	26780
401.023	12114
401.102	2954
401.180	1841
401.259	3980
401.338	5102
401.416	6397
401.495	5871
401.574	6021
401.652	4231
401.731	6021
401.810	6222
401.888	3807
401.967	1773
402.046	3440
402.124	4758
402.203	9466
402.281	5393
402.360	6538
402.438	23756
402.517	24779
402.596	7118
402.674	7513
402.753	4400
402.831	4094
402.910	3435
402.988	6903
403.066	23834
403.145	18695
403.223	7537
403.302	19588
403.380	15580
403.459	13421
403.537	7105
403.615	5513
403.694	1600
403.772	2925
403.850	1965
403.929	2414
404.007	1697
404.085	5407
404.164	4458
404.242	4207
404.320	10548
404.398	39806
404.477	51387
404.555	70265
404.633	77962
404.711	40414
404.789	30240
404.868	8719
404.946	3566
405.024	2781
405.102	2265
405.180	2173
405.258	1287
405.336	2938
405.415	2269
405.493	8533
405.571	6622
405.649	1791
405.727	1510
405.805	6241
405.883	5162
405.961	5893
406.039	8899
406.117	4237
406.195	3774
406.273	11682
406.351	58042
406.429	51588
406.507	13775
406.585	6834
406.663	3354
406.740	5548
406.818	4986
406.896	3652
406.974	2908
407.052	4322
407.130	28660
407.208	60567
407.285	16240
407.363	3837
407.441	3233
407.519	3364
407.596	3081
407.674	6068
407.752	12518
407.830	23794
407.907	17123
407.985	5314
408.063	2619
408.141	2433
408.218	6193
408.296	7935
408.373	2672
408.451	3642
408.529	3380
408.606	2655
408.684	1332
408.762	1657
408.839	534
408.917	1310
408.994	1306
409.072	1300
409.149	784
409.227	2847
409.304	2406
409.382	1018
409.459	560
409.537	1898
409.614	1595
409.692	2481
409.769	1017
409.846	2989
409.924	3397
410.001	4649
410.079	2277
410.156	2330
410.233	2121
410.311	2174
410.388	1778
410.465	2228
410.543	3043
410.620	2621
410.697	1733
410.775	3429
410.852	1068
410.929	3014
411.006	4762
411.083	3329
411.161	6061
411.238	10831
411.315	7527
411.392	3042
411.469	2461
411.547	5451
411.624	1834
411.701	2921
411.778	1996
411.855	6944
411.932	4518
412.009	2340
412.086	1956
412.163	4232
412.240	4473
412.317	6290
412.394	6525
412.471	3229
412.548	799
412.625	2330
412.702	2823
412.779	8080
412.856	6887
412.933	2726
413.010	1634
413.087	3574
413.164	13280
413.241	31345
413.318	10026
413.395	4767
413.471	6317
413.548	5341
413.625	1677
413.702	4349
413.779	4562
413.855	2547
413.932	907
414.009	645
414.086	1137
414.162	1057
414.239	2797
414.316	13556
414.393	40640
414.469	21320
414.546	2529
414.623	1524
414.699	938
414.776	3422
414.853	1946
414.929	2162
415.006	2798
415.082	4266
415.159	3314
415.236	2684
415.312	2010
415.389	3951
415.465	5605
415.542	4361
415.618	1628
415.695	4244
415.771	3392
415.848	3573
415.924	2228
416.000	3138
416.077	1913
416.153	744
416.230	-185
416.306	953
416.383	1850
416.459	2252
416.535	754
416.612	1567
416.688	876
416.764	1941
416.841	414
416.917	1831
416.993	1880
417.069	3266
417.146	4393
417.222	9738
417.298	5739
417.374	2728
417.451	1959
417.527	2948
417.603	3078
417.679	3373
417.755	1612
417.831	1229
417.908	945
417.984	1317
418.060	1032
418.136	4296
418.212	7387
418.288	4188
418.364	1586
418.440	1192
418.516	3667
418.592	7166
418.668	11245
418.744	13905
418.820	12146
418.896	4503
418.972	173
419.048	1400
419.124	4929
419.200	6336
419.276	1272
419.352	143
419.428	934
419.504	1812
419.579	2634
419.655	2680
419.731	929
419.807	6682
419.883	14030
419.959	14049
420.034	3636
420.110	5180
420.186	19863
420.262	24557
420.337	4873
420.413	3815
420.489	1152
420.565	2143
420.640	930
420.716	2771
420.792	54
420.867	2004
420.943	762
421.019	3477
421.094	2614
421.170	2243
421.245	5
421.321	797
421.397	757
421.472	2785
421.548	4602
421.623	6873
421.699	1682
421.774	2185
421.850	26
421.925	4000
422.001	3443
422.076	1547
422.152	1115
422.227	3541
422.302	4415
422.378	3198
422.453	4567
422.529	10883
422.604	33861
422.679	112332
422.755	84312
422.830	22096
422.905	5342
422.981	2804
423.056	1596
423.131	1771
423.207	1281
423.282	2321
423.357	6583
423.432	6270
423.508	3183
423.583	10531
423.658	12130
423.733	3978
423.808	3825
423.883	5231
423.959	2982
424.034	2170
424.109	1816
424.184	1093
424.259	365
424.334	964
424.409	-197
424.484	1316
424.559	1384
424.634	1127
424.709	1916
424.784	4004
424.859	2191
424.934	3300
425.009	11922
425.084	30948
425.159	15444
425.234	3681
425.309	1010
425.384	5596
425.459	17054
425.534	7644
425.609	2712
425.683	2558
425.758	759
425.833	1532
425.908	1995
425.983	7625
426.058	29990
426.132	21286
426.207	4754
426.282	7501
426.357	8732
426.431	2739
426.506	1640
426.581	2895
426.655	2310
426.730	1846
426.805	734
426.879	2286
426.954	1708
427.029	4643
427.103	16791
427.178	56043
427.253	36484
427.327	6329
427.402	4937
427.476	21877
427.551	15631
427.625	5015
427.700	3996
427.774	2218
427.849	3013
427.923	2072
427.998	314
428.072	1714
428.147	4267
428.221	9836
428.296	21187
428.370	10943
428.444	2741
428.519	8249
428.593	17550
428.667	19792
428.742	19831
428.816	17918
428.890	21351
428.965	38061
429.039	21008
429.113	25658
429.188	12246
429.262	2715
429.336	2499
429.410	14296
429.485	13074
429.559	15625
429.633	17734
429.707	3950
429.781	4649
429.855	29181
429.930	51799
430.004	40581
430.078	76973
430.152	72579
430.226	24107
430.300	22386
430.374	4508
430.448	3913
430.522	12857
430.596	65633
430.670	48156
430.744	24996
430.818	59089
430.892	22674
430.966	3669
431.040	2947
431.114	427
431.188	953
431.262	474
431.336	1575
431.410	4982
431.484	21544
431.557	20061
431.631	2641
431.705	214
431.779	1641
431.853	9270
431.927	11432
432.000	2473
432.074	1577
432.148	2313
432.222	5156
432.295	1089
432.369	1080
432.443	1336
432.516	15027
432.590	53893
432.664	33369
432.737	5375
432.811	1461
432.885	31
432.958	943
433.032	203
433.106	809
433.179	166
433.253	458
433.326	-166
433.400	41
433.473	431
433.547	839
433.620	-326
433.694	3358
433.767	4767
433.841	2238
433.914	1652
433.988	1088
434.061	1052
434.134	529
434.208	-75
434.281	392
434.355	-28
434.428	1561
434.501	856
434.575	921
434.648	1130
434.721	855
434.795	-661
434.868	-40
434.941	-363
435.014	376
435.088	-257
435.161	2442
435.234	1907
435.307	3814
435.381	1686
435.454	1527
435.527	-140
435.600	414
435.673	34
435.746	112
435.819	189
435.892	1239
435.966	209
436.039	409
436.112	990
436.185	802
436.258	175
436.331	16
436.404	-722
436.477	-185
436.550	-1094
436.623	700
436.696	-265
436.769	1692
436.842	327
436.915	1722
436.987	2448
437.060	1339
437.133	-290
437.206	25
437.279	427
437.352	279
437.425	359
437.498	988
437.570	3277
437.643	4723
437.716	735
437.789	450
437.861	1298
437.934	9743
438.007	6234
438.080	1081
438.152	770
438.225	2847
438.298	13966
438.370	66591
438.443	42801
438.516	13018
438.588	3492
438.661	1127
438.734	1172
438.806	1580
438.879	2014
438.951	1960
439.024	4620
439.096	2894
439.169	1032
439.241	1717
439.314	-131
439.386	3046
439.459	5129
439.531	7495
439.604	3382
439.676	916
439.749	-135
439.821	618
439.893	529
439.966	896
440.038	1250
440.110	2935
440.183	1085
440.255	143
440.327	1174
440.400	7311
440.472	42003
440.544	43919
440.617	6870
440.689	4325
440.761	3860
440.833	8054
440.905	6121
440.978	1943
441.050	270
441.122	829
441.194	-754
441.266	1300
441.338	538
441.411	2567
441.483	10777
441.555	29818
441.627	9248
441.699	4645
441.771	6393
441.843	2898
441.915	281
441.987	549
442.059	52
442.131	1276
442.203	2853
442.275	4535
442.347	3585
442.419	1811
442.491	1500
442.563	6556
442.635	8414
442.706	17019
442.778	21403
442.850	4063
442.922	491
442.994	1758
443.066	3753
443.137	3515
443.209	689
443.281	741
443.353	2079
443.425	7957
443.496	11050
443.568	12793
443.640	5012
443.711	3040
443.783	306
443.855	1422
443.926	135
443.998	1725
444.070	2945
444.141	3120
444.213	2735
444.285	4216
444.356	3481
444.428	5112
444.499	1368
444.571	168
444.642	-316
444.714	387
444.785	2579
444.857	4609
444.928	14930
445.000	12235
445.071	6839
445.143	13793
445.214	4147
445.285	4823
445.357	19985
445.428	21921
445.500	27431
445.571	34372
445.642	13831
445.714	11084
445.785	28352
445.856	9720
445.928	4075
445.999	4170
446.070	2834
446.141	2706
446.213	4322
446.284	2214
446.355	3165
446.426	3178
446.497	843
446.569	4227
446.640	7850
446.711	4882
446.782	922
446.853	2189
446.924	3400
446.995	2009
447.066	1316
447.138	6262
447.209	4372
447.280	518
447.351	-12
447.422	582
447.493	1451
447.564	4021
447.635	3156
447.706	2394
447.777	-160
447.847	983
447.918	-111
447.989	3197
448.060	3867
448.131	10415
448.202	11450
448.273	6750
448.344	3183
448.414	1416
448.485	258
448.556	1342
448.627	761
448.698	1567
448.768	-219
448.839	1179
448.910	4456
448.981	7089
449.051	1847
449.122	584
449.193	484
449.263	422
449.334	349
449.405	1784
449.475	4519
449.546	4008
449.616	5316
449.687	7945
449.758	1661
449.828	2622
449.899	716
449.969	697
450.040	-186
450.110	2194
450.181	2345
450.251	1638
450.322	241
450.392	1571
450.463	1337
450.533	1243
450.604	382
450.674	1675
450.744	845
450.815	1326
450.885	-27
450.955	1125
451.026	451
451.096	970
451.166	1278
451.237	4303
451.307	17925
451.377	9521
451.447	1089
451.518	809
451.588	354
451.658	1475
451.728	2302
451.799	14477
451.869	27537
451.939	7041
452.009	627
452.079	911
452.149	1469
452.219	3143
452.289	17380
452.360	22663
452.430	4046
452.500	2017
452.570	1567
452.640	2338
452.710	7293
452.780	20551
452.850	10895
452.920	9918
452.990	3174
453.060	1757
453.129	2367
453.199	4671
453.269	11481
453.339	46690
453.409	81950
453.479	58728
453.549	97734
453.619	120691
453.688	66012
453.758	11821
453.828	2873
453.898	2675
453.968	1699
454.037	1660
454.087	1949
454.107	2048
454.168	1063
454.177	898
454.247	839
454.249	861
454.316	850
454.330	1000
454.386	1617
454.411	4102
454.456	7638
454.492	13509
454.525	18543
454.574	10430
454.595	6982
454.655	2564
454.665	1879
454.734	3054
454.736	3152
454.804	5295
454.817	7550
454.873	15094
454.898	19535
454.943	26379
454.979	18327
455.013	11384
455.060	5830
455.082	3806
455.141	5229
455.152	5448
455.221	11921
455.222	12326
455.291	31394
455.303	30211
455.360	24277
455.384	30059
455.430	37779
455.465	33545
455.499	29499
455.546	24393
455.569	21397
455.627	16999
455.638	16432
455.707	3556
455.708	3572
455.777	1721
455.789	1863
455.846	2463
455.869	2117
455.916	1424
455.950	1643
455.985	1752
456.031	1946
456.054	2023
456.112	2082
456.124	2114
456.193	1271
456.193	1246
456.262	2971
456.274	3057
456.332	3135
456.355	3949
456.401	4774
456.436	3796
456.470	2687
456.516	2131
456.540	2095
456.597	1255
456.609	1088
456.678	1587
456.678	1569
456.747	1306
456.759	1332
456.817	1523
456.840	1417
456.886	1274
456.920	1723
456.955	2055
457.001	1691
457.024	1720
457.082	3250
457.093	3631
457.162	5137
457.163	5184
457.232	6547
457.243	6390
457.301	4081
457.324	3008
457.370	2150
457.405	2157
457.439	2119
457.485	2067
457.508	2109
457.566	2272
457.577	2262
457.646	2532
457.647	2547
457.715	2087
457.727	2189
457.784	2534
457.808	2359
457.853	2155
457.889	2703
457.922	2994
457.969	2695
457.991	2679
458.050	3522
458.060	3616
458.129	3795
458.130	3817
458.198	3711
458.211	3565
458.267	2604
458.292	2421
458.336	2305
458.372	2186
458.405	2398
458.453	3041
458.474	3333
458.533	4173
458.543	4358
458.611	6205
458.614	6277
458.680	4695
458.694	4344
458.749	3770
458.775	3160
458.818	2455
458.855	2237
458.887	2289
458.936	2940
458.955	3072
459.016	3183
459.024	3230
459.093	3278
459.097	3340
459.162	3897
459.177	3800
459.230	3661
459.257	4247
459.299	5029
459.338	4751
459.368	4550
459.418	5354
459.437	5305
459.499	4148
459.505	4078
459.574	3687
459.579	3637
459.643	3222
459.659	3360
459.711	3667
459.740	3664
459.780	3891
459.820	4474
459.849	4975
459.900	5276
459.917	5191
459.981	6215
459.986	6235
460.054	4874
460.061	4805
460.123	4785
460.141	4717
460.191	5210
460.222	5962
460.260	6700
460.302	7352
460.328	6882
460.382	5981
460.397	5907
460.462	4723
460.465	4707
460.534	5449
460.543	5417
460.602	9212
460.623	11161
460.671	19130
460.703	24880
460.739	24066
460.783	24640
460.808	21962
460.864	7916
460.876	6946
460.944	5590
460.945	5566
461.013	4646
461.024	4629
461.081	5054
461.104	5277
461.150	5281
461.184	5099
461.218	4869
461.264	4520
461.286	4598
461.345	4754
461.355	4809
461.423	5579
461.425	5600
461.491	5507
461.505	5489
461.559	9147
461.585	11004
461.628	21891
461.665	31443
461.696	36862
461.745	49928
461.764	43653
461.825	16567
461.832	16033
461.901	7320
461.905	7010
461.969	6114
461.985	6268
462.037	6190
462.065	5513
462.105	5538
462.145	6543
462.173	10542
462.225	17426
462.241	19849
462.305	30800
462.310	30055
462.378	19906
462.385	18141
462.446	9534
462.465	7115
462.514	6256
462.545	6528
462.582	6506
462.625	6278
462.650	6199
462.705	6198
462.718	6401
462.785	7117
462.786	7186
462.854	11371
462.865	12046
462.922	15286
462.945	17076
462.990	13111
463.025	8570
463.058	7203
463.104	5755
463.126	5693
463.184	5793
463.194	5907
463.262	7010
463.264	7039
463.330	7446
463.344	7528
463.398	8099
463.424	8295
463.466	8341
463.504	8708
463.533	8728
463.583	8171
463.601	8159
463.663	8563
463.669	8858
463.737	11786
463.743	12109
463.805	18870
463.823	20701
463.873	32829
463.903	40536
463.940	46763
463.982	54703
464.008	44473
464.062	20364
464.076	18650
464.142	7832
464.144	7760
464.211	7466
464.221	7486
464.279	7491
464.301	7434
464.347	8363
464.381	9127
464.414	10220
464.461	11744
464.482	12607
464.540	15054
464.550	14567
464.617	10924
464.620	10761
464.685	10538
464.699	10599
464.753	12660
464.779	13562
464.820	15468
464.859	17569
464.888	17476
464.938	16823
464.956	17184
465.018	18510
465.023	18162
465.091	13150
465.098	12607
465.158	12671
465.177	12729
465.226	13152
465.257	13391
465.293	13419
465.336	13345
465.361	14152
465.416	15962
465.428	16779
465.495	21097
465.496	21238
465.563	38212
465.575	41115
465.631	56620
465.654	63540
465.698	42872
465.734	24672
465.765	20430
465.813	13541
465.833	12952
465.893	11979
465.900	12032
465.968	12528
465.972	12528
466.035	12535
466.052	12559
466.102	12958
466.131	13110
466.170	13095
466.210	13129
466.237	13604
466.290	14284
466.304	14361
466.369	14786
466.372	14856
466.439	16040
466.449	16182
466.506	17225
466.528	17582
466.573	21265
466.607	24011
466.641	37585
466.687	56342
466.708	65473
466.766	90596
466.775	84426
466.842	36991
466.845	34650
466.909	22281
466.925	19370
466.977	17645
467.004	16786
467.044	17790
467.083	18732
467.111	20506
467.163	23739
467.178	24518
467.242	27521
467.245	27428
467.312	24375
467.321	23922
467.379	22994
467.400	22592
467.446	24663
467.480	26083
467.559	25402
467.638	19853
467.717	20198
467.796	20068
467.875	22534
467.955	22707
468.034	27158
468.113	65081
468.192	109156
468.271	41724
468.350	18160
468.429	17160
468.508	17038
468.588	16878
468.667	18727
468.746	20828
468.825	21173
468.904	16916
468.983	18587
469.062	29369
469.141	40070
469.220	19024
469.299	16349
469.378	19133
469.456	21418
469.535	20276
469.614	20006
469.693	20125
469.772	24543
469.851	34987
469.930	29874
470.009	18446
470.088	16636
470.166	17162
470.245	18835
470.324	21750
470.403	19828
470.482	17522
470.560	16180
470.639	17533
470.718	19174
470.797	18102
470.875	19089
470.954	26963
471.033	35045
471.111	16639
471.190	14679
471.269	12865
471.347	14498
471.426	15321
471.505	17396
471.583	19667
471.662	19024
471.740	15289
471.819	15892
471.898	16040
471.976	15364
472.055	15570
472.133	17411
472.212	22717
472.290	26589
472.369	18891
472.447	15447
472.526	14222
472.604	14589
472.683	14473
472.761	15174
472.839	14816
472.918	14369
472.996	14462
473.075	18164
473.153	18424
473.231	15098
473.310	17831
473.388	17796
473.466	15761
473.545	16522
473.623	20170
473.701	20698
473.780	15548
473.858	15222
473.936	18053
474.014	15770
474.093	16402
474.171	23495
474.249	35381
474.327	29569
474.405	14776
474.484	13229
474.562	13893
474.640	13737
474.718	15074
474.796	16301
474.874	13897
474.952	13313
475.030	12301
475.108	14111
475.187	15617
475.265	14850
475.343	15418
475.421	18112
475.499	15440
475.577	15863
475.655	18057
475.733	36243
475.811	68988
475.889	70197
475.966	56931
476.044	15244
476.122	15035
476.200	16563
476.278	16212
476.356	13016
476.434	14649
476.512	14973
476.590	16970
476.667	18144
476.745	13516
476.823	14733
476.901	14620
476.979	15906
477.056	13853
477.134	15620
477.212	15324
477.290	14718
477.367	12073
477.445	13536
477.523	14005
477.601	13453
477.678	13134
477.756	15929
477.834	20116
477.911	14507
477.989	14270
478.066	13122
478.144	14488
478.222	14080
478.299	14556
478.377	16026
478.454	12971
478.532	11656
478.609	12614
478.687	14179
478.764	11550
478.842	13739
478.919	13802
478.997	14298
479.074	12433
479.152	14855
479.229	19745
479.307	16553
479.384	10982
479.461	11247
479.539	11685
479.616	15752
479.694	13379
479.771	14411
479.848	14647
479.926	19957
480.003	25552
480.080	13621
480.157	11259
480.235	11587
480.312	12628
480.389	13805
480.467	21916
480.544	33294
480.621	18563
480.698	13431
480.775	15646
480.853	17126
480.930	14401
481.007	13749
481.084	15993
481.161	16973
481.238	16142
481.315	12293
481.392	12288
481.470	14189
481.547	14267
481.624	14507
481.701	12029
481.778	12831
481.855	14564
481.932	20286
482.009	38089
482.086	34105
482.163	13259
482.240	12739
482.317	15488
482.393	15144
482.470	13284
482.547	13964
482.624	11658
482.701	13392
482.778	12969
482.855	11125
482.932	10599
483.009	10505
483.085	11023
483.162	12976
483.239	13518
483.316	10976
483.393	10944
483.469	11211
483.546	12825
483.623	16406
483.699	12506
483.776	13086
483.853	13909
483.930	19657
484.006	47379
484.083	102510
484.160	58117
484.236	62653
484.313	58210
484.389	41945
484.466	35487
484.543	33970
484.619	33545
484.696	33729
484.772	36220
484.849	41274
484.925	33423
485.002	31938
485.078	34532
485.155	34300
485.231	31075
485.308	31933
485.384	31949
485.461	36294
485.537	56835
485.614	84376
485.690	38351
485.766	29730
485.843	29188
485.919	34623
485.995	39800
486.072	28005
486.148	27764
486.224	26949
486.301	28074
486.377	32017
486.453	33210
486.530	30536
486.606	38226
486.682	46545
486.758	53562
486.835	68246
486.911	49525
486.987	74372
487.063	76761
487.139	71430
487.215	58668
487.292	36484
487.368	29943
487.444	29838
487.520	33402
487.596	31545
487.672	29378
487.748	33576
487.824	42573
487.900	32960
487.976	26125
488.052	30226
488.128	36123
488.204	33559
488.280	30355
488.356	32804
488.432	58414
488.508	117693
488.584	52846
488.660	26487
488.736	26063
488.812	26222
488.888	31674
488.964	36864
489.039	57277
489.115	97531
489.191	76414
489.267	30763
489.343	27698
489.418	24915
489.494	23770
489.570	21865
489.646	23611
489.722	24128
489.797	25109
489.873	31215
489.949	75115
490.024	89200
490.100	26969
490.176	22713
490.251	24136
490.327	29852
490.403	23734
490.478	20745
490.554	18839
490.629	19688
490.705	18347
490.781	20892
490.856	20176
490.932	21853
491.007	22393
491.083	23296
491.158	21919
491.234	25940
491.309	54648
491.385	78113
491.460	27486
491.536	23481
491.611	20725
491.686	19254
491.762	24010
491.837	37789
491.913	69546
491.988	87570
492.063	128795
492.139	57374
492.214	38515
492.289	18543
492.365	15056
492.440	20516
492.515	20042
492.590	22359
492.666	17901
492.741	20545
492.816	37444
492.891	26454
492.967	17758
493.042	16255
493.117	16774
493.192	19592
493.267	25304
493.342	74529
493.418	147423
493.493	39545
493.568	16410
493.643	15155
493.718	18792
493.793	27375
493.868	31427
493.943	19321
494.018	16288
494.093	15722
494.168	15531
494.243	14550
494.318	13463
494.393	13476
494.468	13259
494.543	12772
494.618	14701
494.693	15620
494.768	13226
494.842	16897
494.917	11665
494.992	14234
495.067	13533
495.142	11926
495.217	13943
495.292	14027
495.366	15505
495.441	20376
495.516	23258
495.591	27642
495.665	60077
495.740	180254
495.815	120498
495.890	26199
495.964	20167
496.039	19304
496.114	19577
496.188	18214
496.263	19577
496.338	18568
496.412	20406
496.487	26633
496.561	22719
496.636	25035
496.710	20970
496.785	21990
496.860	27743
496.934	23337
497.009	20895
497.083	20420
497.158	21943
497.232	24916
497.307	32269
497.381	26717
497.455	29406
497.530	43199
497.604	34087
497.679	29349
497.753	43306
497.827	62900
497.902	54715
497.976	59076
498.050	89980
498.125	331495
498.199	524041
498.273	106896
498.348	59057
498.422	49936
498.496	45388
498.570	42532
498.645	35381
498.719	35586
498.793	36936
498.867	53764
498.941	72951
499.016	121749
499.090	436988
499.164	266885
499.238	33674
499.312	22828
499.386	25197
499.460	27240
499.534	23676
499.609	26649
499.683	43088
499.757	46111
499.831	58155
499.905	249903
499.979	383508
500.053	72742
500.127	56086
500.201	35380
500.275	23693
500.349	22423
500.422	24998
500.496	32796
500.570	53873
500.644	128660
500.718	354748
500.792	136375
500.866	24311
500.940	29921
501.013	29326
501.087	23649
501.161	35494
501.235	50167
501.309	89446
501.382	264770
501.456	356314
501.530	72002
501.603	109593
501.677	67576
501.751	20547
501.825	24067
501.898	34007
501.972	116646
502.046	121370
502.119	27294
502.193	42618
502.266	134571
502.340	103344
502.413	49629
502.487	129887
502.561	95772
502.634	33547
502.708	18517
502.781	16265
502.855	15154
502.928	12605
503.002	13597
503.075	12853
503.149	14991
503.222	15863
503.295	18503
503.369	22189
503.442	28107
503.516	66811
503.589	237592
503.662	219401
503.736	59598
503.809	100390
503.882	114808
503.956	104830
504.029	144044
504.102	37518
504.175	28075
504.249	16878
504.322	17865
504.395	19943
504.468	14594
504.542	15238
504.615	13005
504.688	11207
504.761	10997
504.834	13464
504.907	14821
504.980	22236
505.053	16303
505.127	15882
505.200	20452
505.273	23942
505.346	18742
505.419	12532
505.492	11330
505.565	10352
505.638	9541
505.711	10476
505.784	10576
505.857	9138
505.930	10882
506.003	10426
506.076	12451
506.149	16031
506.221	24155
506.294	19145
506.367	34706
506.440	145925
506.513	136041
506.586	27345
506.659	17902
506.731	12247
506.804	12585
506.877	18371
506.950	17157
507.022	11056
507.095	13841
507.168	21338
507.241	12838
507.313	9032
507.386	10705
507.459	14405
507.531	11687
507.604	10036
507.677	11216
507.749	8509
507.822	11510
507.894	20056
507.967	31478
508.040	21478
508.112	16801
508.185	16471
508.257	14366
508.330	17966
508.402	15655
508.475	15633
508.547	17943
508.620	14077
508.692	24195
508.765	20323
508.837	12969
508.909	12075
508.982	12866
509.054	13659
509.127	12834
509.199	11405
509.271	11700
509.344	11648
509.416	12023
509.488	12266
509.560	12176
509.633	11660
509.705	13960
509.777	14025
509.849	18029
509.922	16751
509.994	14149
510.066	12725
510.138	13696
510.210	24640
510.283	28667
510.355	22492
510.427	18137
510.499	17064
510.571	17298
510.643	16044
510.715	19984
510.787	21953
510.859	17304
510.931	19138
511.003	21319
511.076	22832
511.148	16941
511.219	16465
511.291	23601
511.363	36027
511.435	18520
511.507	14615
511.579	14893
511.651	14404
511.723	14420
511.795	13955
511.867	13989
511.939	16542
512.010	32340
512.082	37131
512.154	16591
512.226	15529
512.298	17561
512.369	28997
512.441	25633
512.513	22158
512.585	19451
512.656	17952
512.728	20202
512.800	17018
512.871	15916
512.943	16784
513.015	14602
513.086	14470
513.158	16309
513.230	16436
513.301	21312
513.373	23586
513.444	17036
513.516	14964
513.588	14398
513.659	14172
513.731	17576
513.802	16639
513.874	22379
513.945	43534
514.016	25115
514.088	15005
514.159	15665
514.231	17991
514.302	26203
514.374	23955
514.445	21331
514.516	35936
514.588	39819
514.659	19678
514.730	34498
514.802	32592
514.873	20853
514.944	23431
515.016	20709
515.087	20932
515.158	24119
515.229	41656
515.301	24191
515.372	28773
515.443	23530
515.514	19202
515.585	15225
515.656	15234
515.728	14388
515.799	14064
515.870	14205
515.941	14794
516.012	15151
516.083	18739
516.154	21029
516.225	22773
516.296	22389
516.367	19285
516.438	20700
516.509	24053
516.580	28208
516.651	52555
516.722	206093
516.793	184933
516.864	40858
516.935	36084
517.006	35977
517.077	43059
517.148	72767
517.219	173430
517.289	447941
517.360	229275
517.431	116390
517.502	27284
517.573	22340
517.643	20862
517.714	23240
517.785	25000
517.856	21923
517.926	25632
517.997	27750
518.068	31570
518.138	40592
518.209	48917
518.280	108123
518.350	500457
518.421	384948
518.492	53175
518.562	28383
518.633	26107
518.703	22354
518.774	21285
518.845	25385
518.915	28572
518.986	24517
519.056	25385
519.127	38184
519.197	56796
519.268	144467
519.338	167190
519.408	37756
519.479	29810
519.549	27225
519.620	19617
519.690	15393
519.760	15887
519.831	16062
519.901	17809
519.971	14618
520.042	16120
520.112	20005
520.182	19891
520.253	20902
520.323	18548
520.393	21217
520.463	33902
520.534	24317
520.604	47098
520.674	33337
520.744	23929
520.814	45765
520.885	56456
520.955	42887
521.025	181763
521.095	141540
521.165	22491
521.235	17806
521.305	16510
521.375	14178
521.445	14282
521.515	17254
521.585	18248
521.655	20665
521.725	17039
521.795	18633
521.865	14971
521.935	20177
522.005	24998
522.075	14232
522.145	14777
522.215	16716
522.285	23640
522.355	29646
522.424	56461
522.494	66221
522.564	30292
522.634	26909
522.704	79326
522.774	58862
522.843	16856
522.913	13792
522.983	16984
523.053	16161
523.122	14540
523.192	16002
523.262	35451
523.331	61886
523.401	18992
523.471	12417
523.540	12103
523.610	9900
523.680	10320
523.749	11465
523.819	13774
523.888	16966
523.958	11423
524.027	11844
524.097	13262
524.166	12859
524.236	12447
524.305	13247
524.375	11275
524.444	10491
524.514	13122
524.583	13024
524.653	16150
524.722	19713
524.791	15184
524.861	12847
524.930	11284
524.999	11139
525.069	14941
525.138	15337
525.207	18041
525.277	14565
525.346	11558
525.415	11997
525.484	11018
525.554	13857
525.623	14904
525.692	11149
525.761	12173
525.830	10920
525.900	10696
525.969	12575
526.038	15425
526.107	12182
526.176	20281
526.245	22470
526.314	18504
526.383	24422
526.452	22133
526.522	27064
526.591	48240
526.660	49918
526.729	30482
526.797	22523
526.867	33331
526.935	147931
527.004	189599
527.073	83386
527.142	17711
527.211	13688
527.280	13112
527.349	14683
527.418	9781
527.487	10419
527.555	9419
527.624	9187
527.693	8754
527.762	9372
527.831	9028
527.899	9470
527.968	10599
528.037	9759
528.106	11134
528.174	17308
528.243	19864
528.312	20298
528.380	33999
528.449	16286
528.518	9702
528.586	7830
528.655	9922
528.723	8298
528.792	7310
528.861	10751
528.929	9681
528.998	9562
529.066	8746
529.135	8235
529.203	8191
529.272	8514
529.340	9817
529.409	9911
529.477	8515
529.545	11610
529.614	15732
529.682	14334
529.751	19961
529.819	16909
529.887	14889
529.956	9833
530.024	9848
530.092	8664
530.161	8852
530.229	13915
530.297	10804
530.365	9512
530.434	7229
530.502	7455
530.570	7473
530.638	7211
530.707	8169
530.775	10387
530.843	8640
530.911	8845
530.979	7337
531.047	7968
531.115	8729
531.183	8888
531.252	9849
531.320	9682
531.388	8775
531.456	8711
531.524	8261
531.592	8754
531.660	9121
531.728	9086
531.796	8808
531.864	8747
531.932	10064
532.000	8844
532.067	8877
532.135	9535
532.203	11200
532.271	12093
532.339	14949
532.407	34721
532.475	34836
532.542	15785
532.610	16012
532.678	17336
532.746	37519
532.814	156022
532.881	74595
532.949	14957
533.017	10985
533.084	9778
533.152	9464
533.220	9470
533.287	9592
533.355	9047
533.423	8730
533.490	9069
533.558	9230
533.625	10314
533.693	10830
533.761	10977
533.828	12046
533.896	11478
533.963	15995
534.031	23795
534.098	26385
534.166	20269
534.233	12280
534.300	11503
534.368	12133
534.435	12189
534.503	9551
534.570	11056
534.637	10143
534.705	10038
534.772	9756
534.840	9770
534.907	13006
534.974	17584
535.041	10955
535.109	14253
535.176	11005
535.243	8834
535.310	8932
535.378	9375
535.445	8640
535.512	8310
535.579	9105
535.646	8713
535.714	8825
535.781	12033
535.848	12660
535.915	13172
535.982	14668
536.049	14554
536.116	14202
536.183	12422
536.250	11920
536.317	11712
536.384	12664
536.451	16299
536.518	17317
536.585	13582
536.652	15135
536.719	18754
536.786	18157
536.853	15401
536.920	17678
536.987	28231
537.053	23530
537.120	56980
537.187	97997
537.254	17723
537.321	11221
537.388	11672
537.454	9107
537.521	9329
537.588	9350
537.654	9891
537.721	13536
537.788	12995
537.855	10636
537.921	10580
537.988	11273
538.055	11867
538.121	10828
538.188	12636
538.254	13309
538.321	24971
538.388	22094
538.454	12013
538.521	10777
538.587	10179
538.654	9212
538.720	9826
538.787	10325
538.853	9916
538.920	12332
538.986	14771
539.053	13310
539.119	11135
539.185	11713
539.252	12752
539.318	16579
539.385	16191
539.451	14356
539.517	15364
539.583	14550
539.650	20688
539.716	64048
539.782	36976
539.849	12984
539.915	11883
539.981	11294
540.047	12914
540.114	13575
540.180	13254
540.246	11938
540.312	14827
540.378	24106
540.444	30425
540.510	22500
540.576	63586
540.643	45012
540.709	11695
540.775	11246
540.841	12335
540.907	14842
540.973	25858
541.039	22433
541.105	21321
541.171	13116
541.237	11579
541.303	12060
541.369	13784
541.435	15138
541.500	22787
541.566	20116
541.632	11789
541.698	9984
541.764	11713
541.830	10856
541.896	11146
541.961	11127
542.027	11329
542.093	11213
542.159	11806
542.224	13190
542.290	17566
542.356	22063
542.421	29789
542.487	17882
542.553	12978
542.618	14928
542.684	13579
542.750	12507
542.815	13769
542.881	18291
542.947	48804
543.012	66114
543.078	15816
543.143	11705
543.209	13536
543.274	13113
543.340	14099
543.405	19550
543.471	44858
543.536	19423
543.602	12012
543.667	11533
543.732	12382
543.798	10323
543.863	12402
543.928	10616
543.994	10136
544.059	11059
544.124	10346
544.190	11051
544.255	12112
544.320	11808
544.386	12506
544.451	14677
544.516	17558
544.581	16381
544.646	29435
544.712	70543
544.777	27893
544.842	16266
544.907	17758
544.972	16362
545.037	14947
545.102	15521
545.168	15502
545.233	16217
545.298	16356
545.363	18748
545.428	20462
545.493	23781
545.558	49121
545.623	38363
545.688	17828
545.753	15608
545.818	15544
545.883	15725
545.947	15483
546.012	16099
546.077	18371
546.142	17033
546.207	14851
546.272	17385
546.337	19312
546.401	17315
546.466	16330
546.531	14761
546.596	16395
546.661	15322
546.725	14544
546.790	13358
546.855	15066
546.919	13157
546.984	14756
547.049	14841
547.113	17582
547.178	15877
547.243	15920
547.307	17717
547.372	19090
547.436	22177
547.501	17761
547.565	15026
547.630	16795
547.695	19142
547.759	21014
547.823	23320
547.888	15840
547.952	15373
548.017	15443
548.081	17984
548.146	23338
548.210	24879
548.274	16607
548.339	13579
548.403	14361
548.468	13583
548.532	13854
548.596	14529
548.660	14556
548.725	14829
548.789	16412
548.853	22319
548.917	16639
548.982	19304
549.046	28507
549.110	16363
549.174	14781
549.238	13601
549.303	13413
549.367	14955
549.431	14574
549.495	13910
549.559	14066
549.623	13554
549.687	15774
549.751	22075
549.815	19017
549.879	16530
549.943	14228
550.007	15578
550.071	16698
550.135	19547
550.199	18342
550.263	16327
550.327	17145
550.391	24464
550.455	20435
550.519	15560
550.582	17112
550.646	17510
550.710	22323
550.774	17542
550.838	15064
550.901	16545
550.965	17906
551.029	17082
551.093	20475
551.156	23867
551.220	41762
551.284	67072
551.347	30454
551.411	49405
551.475	93401
551.538	29277
551.602	16565
551.666	15973
551.729	14129
551.793	15444
551.856	16177
551.920	16167
551.983	15033
552.047	14643
552.110	15000
552.174	14242
552.237	14061
552.301	13950
552.364	14099
552.428	14118
552.491	14467
552.554	15261
552.618	14891
552.681	16221
552.745	16088
552.808	19531
552.871	26890
552.934	22465
552.998	17047
553.061	18574
553.124	18499
553.187	17377
553.251	17645
553.314	21476
553.377	20748
553.440	25374
553.503	50962
553.567	142669
553.630	54327
553.693	18112
553.756	17542
553.819	15349
553.882	13580
553.945	14786
554.008	14424
554.071	13116
554.134	14372
554.197	13552
554.260	14140
554.323	14453
554.386	14973
554.449	14730
554.512	15081
554.575	14312
554.638	14346
554.701	14809
554.764	13906
554.827	14105
554.889	12651
554.952	12403
555.015	13284
555.078	13448
555.141	13210
555.203	11992
555.266	12297
555.329	13810
555.391	13324
555.454	13396
555.517	14483
555.580	14058
555.642	12839
555.705	12411
555.768	13538
555.830	13666
555.893	12023
555.955	12783
556.018	13643
556.080	13492
556.143	13637
556.206	13149
556.268	13945
556.330	15477
556.393	14414
556.455	14443
556.518	18834
556.580	26234
556.643	15160
556.705	12854
556.767	11563
556.830	14233
556.892	14792
556.955	18598
557.017	19316
557.079	14398
557.142	13199
557.204	14189
557.266	21877
557.328	25689
557.391	14776
557.453	12595
557.515	13229
557.577	14360
557.639	16108
557.701	12896
557.764	11976
557.826	12392
557.888	14398
557.950	13084
558.012	12176
558.074	12618
558.136	14068
558.198	19343
558.260	17637
558.322	13749
558.384	13468
558.446	15174
558.508	14804
558.570	16763
558.632	21116
558.694	37864
558.756	25698
558.818	23198
558.880	59961
558.942	38440
559.003	19590
559.065	18593
559.127	14481
559.189	13414
559.251	13725
559.312	14706
559.374	17017
559.436	34266
559.498	34487
559.559	15411
559.621	14000
559.683	15515
559.744	19262
559.806	30557
559.868	41314
559.929	23817
559.991	18801
560.052	17336
560.114	21378
560.176	22756
560.237	17938
560.299	23674
560.360	19877
560.422	15580
560.483	15472
560.545	15080
560.606	14511
560.667	15711
560.729	15102
560.790	15047
560.852	15028
560.913	15034
560.974	14621
561.036	14794
561.097	15458
561.158	15491
561.220	16114
561.281	15473
561.342	15891
561.403	17212
561.465	19280
561.526	28357
561.587	48651
561.648	25044
561.709	16262
561.771	16334
561.832	16139
561.893	15667
561.954	15186
562.015	16057
562.076	15719
562.137	15756
562.198	15752
562.259	16126
562.320	15477
562.381	16610
562.442	19307
562.503	21448
562.564	16815
562.625	15573
562.686	16147
562.747	16364
562.808	17420
562.869	16498
562.930	19574
562.991	20406
563.051	19694
563.112	17693
563.173	16790
563.234	16021
563.294	16603
563.355	15756
563.416	16355
563.477	15726
563.537	16190
563.598	17435
563.659	17496
563.720	16688
563.780	16692
563.841	17689
563.901	17018
563.962	16510
564.023	16918
564.083	17245
564.144	17806
564.204	17751
564.265	17397
564.325	19054
564.386	30533
564.446	40941
564.507	19903
564.567	17101
564.628	17145
564.688	16204
564.749	16349
564.809	18173
564.869	22143
564.930	19206
564.990	17939
565.050	15968
565.111	17714
565.171	17051
565.231	15939
565.292	16690
565.352	15110
565.412	17421
565.472	17401
565.532	17333
565.593	16867
565.653	16710
565.713	17559
565.773	18364
565.833	18038
565.893	22876
565.953	18649
566.013	17617
566.074	19277
566.134	21876
566.194	31454
566.254	38603
566.314	27019
566.374	21219
566.434	20767
566.494	20620
566.554	21070
566.614	21088
566.673	20044
566.733	21082
566.793	22998
566.853	23553
566.913	23959
566.973	24709
567.033	26235
567.092	24275
567.152	22885
567.212	24763
567.272	24578
567.331	25787
567.391	26938
567.451	26837
567.511	31902
567.570	37078
567.630	28052
567.690	24785
567.749	25195
567.809	25519
567.868	28296
567.928	31513
567.988	34823
568.047	39754
568.107	44161
568.166	55761
568.226	75554
568.285	111595
568.345	114111
568.404	97212
568.464	83523
568.523	77834
568.582	75196
568.642	79078
568.701	90122
568.761	114065
568.820	170096
568.879	205528
568.939	175752
568.998	137381
569.057	101660
569.116	83525
569.176	66440
569.235	56470
569.294	48737
569.353	42664
569.413	37389
569.472	35064
569.531	31691
569.590	29474
569.649	28229
569.708	25264
569.767	24985
569.827	25779
569.886	24991
569.945	20133
570.004	20837
570.063	21165
570.122	21203
570.181	20650
570.240	22308
570.299	22669
570.358	22077
570.417	19537
570.475	17604
570.534	18516
570.593	17351
570.652	18144
570.711	17966
570.770	16885
570.829	18664
570.887	18189
570.946	17642
571.005	17233
571.064	16576
571.122	15964
571.181	18936
571.240	17930
571.299	16045
571.357	16764
571.416	18857
571.475	18647
571.533	21514
571.592	16798
571.650	17374
571.709	16511
571.768	15428
571.826	15165
571.885	15137
571.943	15170
572.002	15413
572.060	15508
572.119	15005
572.177	13651
572.236	13436
572.294	14557
572.352	13660
572.411	12880
572.469	13358
572.528	13674
572.586	14464
572.644	14424
572.703	16890
572.761	16052
572.819	13909
572.877	14435
572.936	13740
572.994	12517
573.052	13389
573.110	13341
573.169	13317
573.227	12792
573.285	13323
573.343	12901
573.401	12826
573.459	13290
573.517	13609
573.576	12692
573.634	12886
573.692	13254
573.750	12922
573.808	12944
573.866	13971
573.924	17366
573.982	19123
574.040	14602
574.098	13584
574.155	13827
574.213	12657
574.271	12530
574.329	12939
574.387	12745
574.445	11865
574.503	12075
574.560	12479
574.618	12348
574.676	12039
574.734	11251
574.792	13025
574.849	12800
574.907	11331
574.965	11643
575.022	12107
575.080	11640
575.138	12768
575.195	12626
575.253	12608
575.311	12983
575.368	12797
575.426	11858
575.483	12422
575.541	12320
575.598	11707
575.656	12738
575.713	12744
575.771	12074
575.828	12211
575.886	12755
575.943	12911
576.001	13270
576.058	13884
576.115	14035
576.173	15301
576.230	16610
576.287	17626
576.345	16495
576.402	13920
576.459	14695
576.517	13831
576.574	15387
576.631	16262
576.688	16054
576.746	14390
576.803	13983
576.860	14700
576.917	13602
576.974	14429
577.031	12927
577.089	13596
577.146	14645
577.203	13966
577.260	14943
577.317	15760
577.374	16124
577.431	16256
577.488	14712
577.545	13704
577.602	13464
577.659	13515
577.716	14469
577.773	16203
577.830	14663
577.886	14946
577.943	13171
578.000	14432
578.057	14601
578.114	15879
578.171	16312
578.227	18891
578.284	19775
578.341	18867
578.398	16604
578.454	16098
578.511	16317
578.568	18052
578.625	16784
578.681	14814
578.738	14210
578.794	13471
578.851	13172
578.908	14050
578.964	15133
579.021	15694
579.077	14254
579.134	14140
579.190	13242
579.247	13302
579.303	13273
579.360	13067
579.416	13706
579.473	13045
579.529	13090
579.586	14344
579.642	14445
579.698	14058
579.755	14412
579.811	15071
579.867	14200
579.924	15146
579.980	15314
580.036	16478
580.093	17898
580.149	22465
580.205	28274
580.261	24875
580.317	20686
580.374	18578
580.430	18796
580.486	19635
580.542	16411
580.598	16100
580.619	16263
580.654	16555
580.692	15845
580.710	15507
580.765	16082
580.767	16110
580.823	16106
580.838	15849
580.879	15203
580.911	14897
580.935	14675
580.984	14868
580.991	14902
581.047	15861
581.057	15849
581.103	15864
581.130	16348
581.159	16888
581.203	17568
581.215	17739
581.270	18364
581.276	18299
581.326	17672
581.349	17130
581.382	16373
581.422	16294
581.438	16255
581.494	16523
581.494	16520
581.550	16472
581.567	16401
581.606	16223
581.640	15735
581.661	15450
581.713	17019
581.717	17147
581.773	16069
581.786	16129
581.829	16311
581.859	16671
581.885	17017
581.932	17573
581.940	17674
581.996	17162
582.004	17308
582.052	17941
582.077	17105
582.107	16275
582.150	17709
582.163	18099
582.219	17553
582.223	17552
582.274	17646
582.296	17958
582.330	18443
582.368	18430
582.386	18401
582.441	18171
582.441	18169
582.497	18760
582.514	18673
582.552	18646
582.587	19421
582.608	19832
582.659	19471
582.663	19429
582.719	19710
582.732	19468
582.774	18743
582.805	18891
582.830	19132
582.877	20226
582.885	20386
582.941	19762
582.950	19778
582.996	20019
583.023	20436
583.052	20897
583.095	21677
583.107	21940
583.162	24200
583.168	24516
583.218	27250
583.240	26485
583.273	25135
583.313	24324
583.328	23900
583.384	23063
583.385	23017
583.439	21993
583.458	22225
583.494	22767
583.531	21931
583.549	21464
583.603	21925
583.605	21948
583.660	22102
583.676	22052
583.715	21914
583.748	22308
583.770	22653
583.820	23745
583.825	23827
583.881	23503
583.893	23419
583.936	23309
583.965	23757
583.991	24025
584.038	23583
584.046	23553
584.101	23657
584.110	23803
584.156	24559
584.183	24667
584.211	24728
584.255	25011
584.266	25094
584.321	25019
584.328	25095
584.376	26169
584.400	26222
584.431	26162
584.472	26520
584.486	26575
584.541	26792
584.545	26790
584.596	27264
584.617	27272
584.651	27441
584.689	28334
584.706	28742
584.761	30106
584.762	30092
584.816	30122
584.834	30224
584.871	30550
584.906	31027
584.926	31224
584.978	31810
584.980	31874
585.035	32515
585.051	32917
585.090	33870
585.123	34186
585.145	34501
585.195	35355
585.200	35482
585.254	36977
585.267	37364
585.309	38850
585.340	40149
585.364	41142
585.412	41081
585.419	40892
585.473	39151
585.484	38997
585.528	39636
585.556	40314
585.583	41426
585.628	43074
585.637	43582
585.692	46941
585.700	47810
585.747	53992
585.772	55152
585.801	53300
585.845	48559
585.856	47666
585.910	45998
585.917	45830
585.965	46847
585.989	46949
586.019	47377
586.061	48345
586.074	48659
586.128	50369
586.133	50379
586.183	51692
586.205	52731
586.237	54303
586.277	55232
586.292	55716
586.346	57190
586.349	57216
586.401	59095
586.421	59772
586.455	61030
586.493	62322
586.509	64212
586.564	71914
586.565	72080
586.618	90890
586.637	96837
586.672	99087
586.709	90938
586.727	84128
586.781	72724
586.781	72834
586.835	74294
586.853	75011
586.889	76554
586.925	77225
586.944	78053
586.996	80401
586.998	80620
587.052	84228
587.068	85206
587.106	88012
587.140	90086
587.161	91605
587.212	95316
587.215	95726
587.269	100784
587.284	102080
587.323	106126
587.356	108854
587.377	111069
587.427	117047
587.431	117714
587.485	122696
587.499	124066
587.539	129715
587.571	134298
587.593	138053
587.643	145305
587.648	146426
587.702	156040
587.715	158296
587.755	167261
587.786	173358
587.810	179035
587.858	190486
587.864	192351
587.917	207550
587.930	210882
587.971	226680
588.001	237792
588.025	247238
588.073	264772
588.079	267957
588.133	293925
588.145	299053
588.187	324429
588.217	342454
588.241	360413
588.288	395181
588.295	401809
588.348	452213
588.360	462519
588.402	511509
588.431	545712
588.456	580873
588.503	646605
588.510	660204
588.564	764689
588.575	785818
588.617	890591
588.646	962196
588.671	1037022
588.718	1176084
588.725	1199029
588.778	1362302
588.789	1392368
588.832	1448322
588.861	1471563
588.886	1396452
588.932	1212997
588.939	1183042
588.993	910693
589.004	871223
589.047	1070873
589.075	1215433
589.100	1354529
589.147	1563522
589.154	1563677
589.207	1522268
589.218	1510747
589.261	1431757
589.290	1378017
589.314	1368621
589.361	1353400
589.368	1363787
589.421	1434937
589.433	1447918
589.475	1467187
589.504	1467469
589.528	1364548
589.576	1115980
589.582	1114980
589.635	1128948
589.647	1136204
589.689	1358562
589.718	1486197
589.742	1432661
589.790	1303978
589.795	1285019
589.849	1079462
589.861	1030516
589.902	914949
589.932	826546
589.955	775519
590.004	662935
590.009	656290
590.062	568298
590.075	545747
590.115	500963
590.146	464331
590.168	445558
590.218	400845
590.222	399261
590.275	365320
590.289	355621
590.328	336476
590.360	318925
590.381	309979
590.431	286628
590.435	286128
590.488	264062
590.503	257255
590.541	247560
590.574	237802
590.594	233423
590.645	220087
590.647	220232
590.700	206934
590.716	202379
590.753	195722
590.787	188741
590.806	186548
590.859	178162
590.859	178554
590.912	169658
590.930	166425
590.965	163327
591.001	159217
591.018	157867
591.071	152191
591.072	151668
591.124	146851
591.143	144590
591.177	141975
591.214	138188
591.230	137615
591.283	134367
591.285	133819
591.336	130750
591.356	129029
591.389	127359
591.427	124164
591.442	123189
591.495	118429
591.498	117706
591.547	115771
591.569	114377
591.600	113088
591.640	110522
591.653	110389
591.706	108522
591.711	107965
591.759	107683
591.782	107101
591.811	108534
591.853	109729
591.864	109349
591.917	105471
591.924	104563
591.969	100844
591.995	98317
592.022	98067
592.066	96635
592.075	97060
592.127	97875
592.137	97709
592.180	102784
592.208	105584
592.233	103271
592.279	97620
592.285	97042
592.338	89557
592.350	87566
592.390	86718
592.421	85559
592.443	85276
592.491	83791
592.495	84023
592.548	83404
592.562	82964
592.600	82266
592.633	81151
592.653	80979
592.704	79395
592.705	79812
592.775	77622
592.846	77303
592.916	75090
592.987	76757
593.058	75740
593.128	71736
593.199	70581
593.270	69023
593.341	67830
593.411	66678
593.482	66651
593.553	64222
593.623	63175
593.694	64003
593.764	65194
593.835	63166
593.906	61352
593.976	59888
594.047	60446
594.117	63973
594.188	69019
594.258	60289
594.329	55584
594.399	55647
594.470	54299
594.540	51804
594.611	52712
594.681	51809
594.751	51901
594.822	52906
594.892	52715
594.963	53518
595.033	52819
595.103	52543
595.174	54326
595.244	62975
595.314	87093
595.384	64272
595.455	48832
595.525	49655
595.595	50193
595.665	49032
595.736	48932
595.806	49050
595.876	47146
595.946	45983
596.016	46283
596.087	45823
596.157	47634
596.227	46585
596.297	47028
596.367	47149
596.437	48173
596.507	55030
596.577	76066
596.647	59003
596.717	44647
596.787	44193
596.857	44061
596.927	43313
596.997	43792
597.067	44137
597.137	45928
597.207	46177
597.277	43182
597.347	43238
597.417	43569
597.487	43430
597.557	43496
597.626	43394
597.696	44628
597.766	50477
597.836	64630
597.906	59390
597.975	42151
598.045	41495
598.115	40502
598.185	40203
598.254	40240
598.324	41300
598.394	41135
598.464	41141
598.533	40136
598.603	37449
598.672	38920
598.742	38796
598.812	39432
598.881	38411
598.951	37599
599.020	37317
599.090	36433
599.159	36902
599.229	35661
599.299	35432
599.368	35049
599.437	35503
599.507	35171
599.576	37244
599.646	38327
599.715	40389
599.785	36846
599.854	37619
599.924	42969
599.993	42326
600.062	37095
600.132	37199
600.201	35486
600.270	37187
600.340	36888
600.409	36360
600.478	34432
600.547	34236
600.617	35215
600.686	35372
600.755	36893
600.824	34954
600.894	36648
600.963	33617
601.032	33086
601.101	35006
601.170	34331
601.239	33361
601.308	34497
601.378	34059
601.447	33525
601.516	33111
601.585	32855
601.654	33243
601.723	34607
601.792	33489
601.861	35536
601.930	37675
601.999	38820
602.068	34021
602.137	32876
602.206	32907
602.275	32530
602.343	35294
602.412	37655
602.481	33755
602.550	31667
602.619	30839
602.688	31665
602.756	32290
602.825	32392
602.894	29869
602.963	30887
603.032	30663
603.100	31185
603.169	30447
603.238	30661
603.307	31201
603.375	30658
603.444	29505
603.513	30078
603.581	29984
603.650	31158
603.719	29792
603.787	30004
603.856	29409
603.924	29179
603.993	30718
604.061	29522
604.130	28851
604.198	30249
604.267	28664
604.335	28844
604.404	28895
604.472	28654
604.541	28680
604.609	28371
604.678	28243
604.746	28009
604.815	28517
604.883	28726
604.951	29169
605.020	28472
605.088	27949
605.156	28442
605.225	28421
605.293	26891
605.361	27490
605.429	28580
605.498	27743
605.566	28644
605.634	28291
605.702	28846
605.771	28385
605.839	28528
605.907	28131
605.975	27745
606.043	27667
606.111	27595
606.180	27864
606.248	30760
606.316	36109
606.384	31318
606.452	34933
606.520	35172
606.588	32088
606.656	26188
606.724	25784
606.792	26127
606.860	24887
606.928	23320
606.996	23675
607.064	23793
607.132	23594
607.200	24626
607.267	24340
607.335	23322
607.403	24490
607.471	24341
607.539	24386
607.607	23481
607.674	23796
607.742	24584
607.810	24881
607.878	24507
607.946	23486
608.013	23738
608.081	24679
608.149	25118
608.216	24221
608.284	23588
608.352	23322
608.419	25011
608.487	32757
608.555	36343
608.622	23281
608.690	22892
608.757	23818
608.825	23791
608.893	24519
608.960	26908
609.028	31611
609.095	37876
609.163	36074
609.230	24947
609.298	26975
609.365	23214
609.432	23605
609.500	23946
609.567	25587
609.635	25867
609.702	26482
609.769	25472
609.837	28915
609.904	29725
609.971	25686
610.039	29018
610.106	31965
610.173	43878
610.241	77800
610.308	134947
610.375	137880
610.442	57617
610.509	31939
610.577	26146
610.644	24117
610.711	24403
610.778	24390
610.845	24359
610.912	24985
610.980	26606
611.047	33048
611.114	36809
611.181	24673
611.248	23716
611.315	23061
611.382	22090
611.449	21845
611.516	22614
611.583	22573
611.650	22591
611.717	22463
611.784	23131
611.851	23643
611.918	24796
611.984	26041
612.051	27633
612.118	36941
612.185	61213
612.252	85595
612.319	34267
612.386	24311
612.452	23267
612.519	26720
612.586	35291
612.653	38834
612.719	23977
612.786	22793
612.853	22446
612.919	22378
612.986	21188
613.053	20782
613.120	21003
613.186	21384
613.253	22801
613.319	21181
613.386	20868
613.453	22229
613.519	23353
613.586	25864
613.652	36513
613.719	32795
613.785	33365
613.852	24701
613.918	22605
613.985	23636
614.051	28875
614.118	47100
614.184	81874
614.250	35165
614.317	22777
614.383	21560
614.449	21062
614.516	20519
614.582	22048
614.648	22169
614.715	20918
614.781	21665
614.847	22893
614.914	24065
614.980	25015
615.046	23437
615.112	22957
615.179	24227
615.245	26668
615.311	33237
615.377	56011
615.443	90758
615.509	67543
615.575	39134
615.642	30685
615.708	27525
615.774	30834
615.840	34251
615.906	42274
615.972	56819
616.038	105971
616.104	180962
616.170	157338
616.236	159278
616.302	67287
616.368	38078
616.434	34437
616.500	31293
616.565	30541
616.631	30299
616.697	29290
616.763	27235
616.829	28273
616.895	33941
616.961	39397
617.026	33884
617.092	27394
617.158	25503
617.224	24921
617.289	25913
617.355	26048
617.421	27724
617.487	27137
617.552	26843
617.618	24248
617.684	24630
617.749	25652
617.815	24649
617.880	24762
617.946	24461
618.012	25268
618.077	26119
618.143	25594
618.208	25435
618.274	26321
618.339	27236
618.405	26735
618.470	27318
618.536	26780
618.601	29651
618.667	32300
618.732	28710
618.798	27748
618.863	27028
618.928	27287
618.994	28820
619.059	30577
619.124	36372
619.190	36420
619.255	28770
619.320	28293
619.386	28240
619.451	26556
619.516	26932
619.581	26524
619.647	28178
619.712	28739
619.777	27023
619.842	27567
619.907	28172
619.972	27395
620.038	28507
620.103	27557
620.168	27051
620.233	27002
620.298	25819
620.363	25774
620.428	26345
620.493	27328
620.558	27142
620.623	26205
620.688	25916
620.753	25300
620.818	25475
620.883	25909
620.948	25358
621.013	26633
621.078	26923
621.143	27226
621.207	30162
621.272	28014
621.337	30996
621.402	32325
621.467	37731
621.532	48210
621.596	39245
621.661	33642
621.726	31015
621.791	30450
621.855	31550
621.920	33792
621.985	34537
622.049	40063
622.114	40957
622.179	37847
622.243	34975
622.308	36098
622.373	34775
622.437	34721
622.502	34643
622.566	32589
622.631	33810
622.695	33212
622.760	32931
622.824	34180
622.889	33590
622.953	35709
623.018	38975
623.082	49980
623.147	36132
623.211	34032
623.276	33799
623.340	33762
623.404	31080
623.469	31116
623.533	32070
623.597	31595
623.662	31125
623.726	31334
623.790	31345
623.854	31947
623.919	31730
623.983	30811
624.047	32208
624.111	29806
624.176	31023
624.240	31745
624.304	35351
624.368	32197
624.432	30922
624.496	31333
624.560	31630
624.625	34684
624.689	32216
624.753	29243
624.817	29011
624.881	29290
624.945	29683
625.009	28782
625.073	28838
625.137	29195
625.201	33181
625.265	37563
625.329	30113
625.393	29907
625.456	31470
625.520	30327
625.584	32101
625.648	38588
625.712	51612
625.776	104739
625.839	177288
625.903	121835
625.967	39760
626.031	46391
626.095	91066
626.158	64708
626.222	29222
626.286	26519
626.349	26337
626.413	26386
626.477	26709
626.540	27309
626.604	26478
626.668	26282
626.731	26847
626.795	27063
626.858	29314
626.922	27191
626.986	25231
627.049	25551
627.113	24998
627.176	24425
627.240	24093
627.303	24784
627.366	24066
627.430	24836
627.493	24878
627.557	25821
627.620	26168
627.684	24176
627.747	25726
627.810	24393
627.874	24959
627.937	22889
628.000	25101
628.064	26276
628.127	23293
628.190	22966
628.253	24077
628.317	24591
628.380	22739
628.443	21976
628.506	24250
628.569	23005
628.632	22893
628.696	22201
628.759	22320
628.822	22980
628.885	22493
628.948	21404
629.011	22227
629.074	21961
629.137	22018
629.200	22336
629.263	22936
629.326	22674
629.389	20189
629.452	21688
629.515	22889
629.578	21542
629.641	22234
629.704	22423
629.767	23890
629.830	21774
629.892	21724
629.955	21665
630.018	20864
630.081	21282
630.144	24306
630.207	23724
630.269	23367
630.332	23747
630.395	26838
630.458	20253
630.520	19659
630.583	21398
630.646	18626
630.708	19699
630.771	19308
630.834	19313
630.896	19230
630.959	18884
631.021	18277
631.084	18875
631.146	20749
631.209	24447
631.272	22392
631.334	19040
631.397	18525
631.459	17571
631.522	18300
631.584	19381
631.646	18660
631.709	18042
631.771	21681
631.834	21953
631.896	18081
631.958	17445
632.021	17244
632.083	17179
632.145	17925
632.208	18064
632.270	18188
632.332	17461
632.395	16437
632.457	17762
632.519	17742
632.581	17537
632.643	16464
632.706	17462
632.768	17281
632.830	17382
632.892	16873
632.954	16823
633.016	17528
633.078	16155
633.141	16783
633.203	16726
633.265	16852
633.327	16473
633.389	16142
633.451	16827
633.513	20217
633.575	21019
633.637	20496
633.698	19987
633.760	17524
633.822	16387
633.884	15256
633.946	16497
634.008	16821
634.070	15593
634.132	17881
634.193	18959
634.255	15772
634.317	14707
634.379	16045
634.441	14229
634.502	15963
634.564	16415
634.626	14694
634.687	14977
634.749	15579
634.811	15566
634.873	14521
634.934	15162
634.996	14290
635.057	15129
635.119	15614
635.181	14954
635.242	15058
635.304	14458
635.365	14751
635.427	14650
635.488	15333
635.550	15371
635.611	14796
635.673	13693
635.734	15735
635.796	15580
635.857	15821
635.918	15505
635.980	13878
636.041	14793
636.102	14955
636.164	13917
636.225	14259
636.286	13946
636.348	14839
636.409	14287
636.470	13731
636.531	14355
636.593	15520
636.654	18251
636.715	13916
636.776	13279
636.838	12874
636.899	13397
636.960	13327
637.021	13317
637.082	12445
637.143	14425
637.204	13685
637.265	12781
637.326	13211
637.387	12959
637.448	12319
637.509	13344
637.570	12347
637.631	12392
637.692	12435
637.753	11677
637.814	12256
637.875	12845
637.936	12786
637.997	12865
638.058	12748
638.119	14102
638.179	13436
638.240	12510
638.301	12909
638.362	11854
638.423	13047
638.483	13313
638.544	12349
638.605	12735
638.666	11877
638.726	12761
638.787	12817
638.848	11908
638.908	11415
638.969	11372
639.030	12060
639.090	10943
639.151	11117
639.211	12585
639.272	13210
639.332	17972
639.393	19932
639.453	12957
639.514	12590
639.574	11047
639.635	10950
639.695	10629
639.756	11620
639.816	12133
639.877	11446
639.937	16105
639.997	22161
640.058	17097
640.118	12109
640.178	10888
640.239	11123
640.299	9812
640.359	10805
640.420	11137
640.480	11200
640.540	10570
640.600	10272
640.661	10898
640.721	10246
640.781	13404
640.841	12055
640.901	11768
640.961	10982
641.021	11710
641.082	11912
641.142	13980
641.202	15608
641.262	10488
641.322	11511
641.382	10344
641.442	10557
641.502	11076
641.562	11233
641.622	10646
641.682	11002
641.742	10533
641.802	11143
641.861	10672
641.921	11228
641.981	12553
642.041	11905
642.101	12965
642.161	13582
642.221	9509
642.280	9601
642.340	10066
642.400	9633
642.460	10103
642.519	10349
642.579	10239
642.639	10206
642.698	9889
642.758	11418
642.818	9628
642.877	9982
642.937	10830
642.997	10977
643.056	14633
643.116	13192
643.175	11449
643.235	10320
643.294	9673
643.354	9764
643.414	10634
643.473	10604
643.532	9931
643.592	10395
643.651	11165
643.711	12671
643.770	17023
643.830	25584
643.889	61293
643.948	52982
644.008	13129
644.067	9904
644.126	9791
644.186	9326
644.245	9341
644.304	8572
644.363	10170
644.423	8313
644.482	8609
644.541	8350
644.600	8638
644.659	9632
644.719	8717
644.778	9896
644.837	10256
644.896	12304
644.955	16040
645.014	18031
645.073	12229
645.132	10924
645.191	10003
645.250	9164
645.309	9268
645.368	9128
645.427	9662
645.486	8406
645.545	10382
645.604	8864
645.663	9433
645.722	8745
645.781	9022
645.840	8107
645.898	8750
645.957	9140
646.016	9360
646.075	11889
646.134	13877
646.192	21516
646.251	50371
646.310	27920
646.369	9884
646.427	8497
646.486	7743
646.545	8190
646.603	8995
646.662	8022
646.721	7857
646.779	7539
646.838	6965
646.896	8957
646.955	7688
647.014	9014
647.072	8567
647.131	10737
647.189	13580
647.248	7747
647.306	8452
647.365	8676
647.423	6924
647.481	9289
647.540	7771
647.598	7794
647.657	7799
647.715	7615
647.773	7572
647.832	7847
647.890	7697
647.948	8352
648.007	8526
648.065	7737
648.123	7898
648.181	9341
648.240	9890
648.298	11472
648.356	8807
648.414	8578
648.472	8383
648.531	7927
648.589	8686
648.647	8205
648.705	7992
648.763	7204
648.821	7608
648.879	8053
648.937	8787
648.995	8257
649.053	7957
649.111	8151
649.169	9677
649.227	11259
649.285	11864
649.343	21357
649.401	30799
649.459	18734
649.516	25432
649.574	14795
649.632	18815
649.690	35781
649.748	22696
649.806	14157
649.863	22539
649.921	18079
649.979	12348
650.037	9277
650.094	7326
650.152	7240
650.210	6326
650.268	7152
650.325	7893
650.383	7415
650.440	7189
650.498	7651
650.556	7890
650.613	7069
650.671	7461
650.728	6637
650.786	9138
650.843	7875
650.901	6488
650.958	7180
651.016	6892
651.073	6639
651.131	6611
651.188	6390
651.246	7470
651.303	6341
651.360	6806
651.418	6531
651.475	7680
651.532	5755
651.590	6146
651.647	6216
651.704	7308
651.762	7021
651.819	6934
651.876	6105
651.933	6511
651.990	6202
652.048	6026
652.105	6243
652.162	7346
652.219	7087
652.276	6288
652.333	6916
652.390	5782
652.448	6177
652.505	6818
652.562	7679
652.619	8067
652.676	9766
652.733	14334
652.790	8194
652.847	5772
652.904	6891
652.961	5412
653.017	5906
653.074	6539
653.131	7094
653.188	5463
653.245	5735
653.302	7050
653.359	5497
653.415	7047
653.472	5896
653.529	6344
653.586	6459
653.642	6228
653.699	6962
653.756	6009
653.813	5784
653.869	5605
653.926	5347
653.983	5586
654.039	6228
654.096	5899
654.152	6870
654.209	5307
654.266	6889
654.322	6279
654.379	6901
654.435	8188
654.492	7287
654.548	8509
654.605	14009
654.661	14157
654.717	7179
654.774	7576
654.830	7514
654.887	7489
654.943	6785
655.000	7317
655.056	6721
655.112	6838
655.168	7177
655.225	7233
655.281	7640
655.337	8441
655.394	12617
655.450	16016
655.506	10981
655.562	12000
655.618	19241
655.675	8142
655.731	6813
655.787	6305
655.843	6658
655.899	6053
655.955	6893
656.011	6718
656.067	6347
656.123	6971
656.179	7446
656.235	7479
656.291	6183
656.347	8010
656.403	7759
656.459	6281
656.515	7263
656.571	8707
656.627	7531
656.683	6605
656.739	8225
656.795	6914
656.850	7146
656.906	7306
656.962	7646
657.018	5673
657.074	7143
657.129	6785
657.185	6523
657.241	6381
657.297	5917
657.352	6683
657.408	5843
657.464	6827
657.519	7503
657.575	6119
657.630	6263
657.686	5821
657.742	5562
657.797	6025
657.853	5605
657.908	7293
657.964	5453
658.019	6246
658.075	6488
658.130	5632
658.186	4941
658.241	5980
658.297	5066
658.352	5918
658.407	6477
658.463	5577
658.518	6445
658.573	6353
658.629	5981
658.684	6007
658.739	5827
658.795	5191
658.850	5863
658.905	5495
658.960	5948
659.016	5881
659.071	6075
659.126	6306
659.181	6397
659.236	7616
659.291	10656
659.346	7868
659.401	7340
659.457	8575
659.512	9757
659.567	9736
659.622	6174
659.677	6212
659.732	5968
659.787	6457
659.842	6411
659.897	8917
659.952	8029
660.007	5795
660.061	5559
660.116	6043
660.171	5486
660.226	6125
660.281	6497
660.336	5223
660.391	5085
660.445	5288
660.500	5635
660.555	5918
660.610	6007
660.664	6450
660.719	5578
660.774	6373
660.828	5490
660.883	6180
660.938	5543
660.992	5550
661.047	5698
661.101	6054
661.156	5713
661.211	5477
661.265	4853
661.320	6155
661.374	5420
661.429	5719
661.483	5589
661.538	4972
661.592	5341
661.647	5936
661.701	5583
661.755	5654
661.810	5650
661.864	5440
661.919	6059
661.973	6451
662.027	4921
662.081	5171
662.136	5813
662.190	5883
662.244	6887
662.299	5398
662.353	5708
662.407	5782
662.461	5644
662.515	6969
662.569	5860
662.624	6837
662.678	5669
662.732	5437
662.786	5639
662.840	6350
662.894	6240
662.948	6092
663.002	5183
663.056	6074
663.110	4388
663.164	5268
663.218	6090
663.272	6351
663.326	6085
663.380	5903
663.434	6181
663.488	5172
663.542	6732
663.595	6332
663.649	4723
663.703	6610
663.757	5679
663.811	5422
663.864	5135
663.918	5642
663.972	5591
664.026	5842
664.079	5098
664.133	6104
664.187	5718
664.240	5797
664.294	5661
664.348	5298
664.401	6195
664.455	6238
664.508	5068
664.562	5038
664.615	5889
664.669	5244
664.722	5876
664.776	5930
664.829	5008
664.883	5799
664.936	5482
664.990	6058
665.043	6662
665.097	6226
665.150	7382
665.203	6852
665.257	6617
665.310	6722
665.363	6317
665.417	6242
665.470	6774
665.523	6221
665.576	5521
665.630	6784
665.683	6213
665.736	6522
665.789	6286
665.842	5183
665.895	6309
665.949	7034
666.002	5945
666.055	6470
666.108	6531
666.161	6307
666.214	6744
666.267	6341
666.320	6389
666.373	7387
666.426	6464
666.479	5415
666.532	6248
666.585	7730
666.638	9073
666.691	7733
666.744	7684
666.796	8201
666.849	8055
666.902	7834
666.955	6015
667.008	5951
667.060	5806
667.113	5283
667.166	4921
667.219	5540
667.271	6142
667.324	6039
667.377	5969
667.430	6275
667.482	6095
667.535	7798
667.587	6600
667.640	6469
667.693	6362
667.745	7931
667.798	11227
667.850	8304
667.903	6193
667.955	5751
668.008	6403
668.060	7373
668.113	6735
668.165	7681
668.218	7431
668.270	6865
668.322	6577
668.375	6745
668.427	7578
668.479	6343
668.532	7374
668.584	7400
668.636	7049
668.689	6430
668.741	6502
668.793	6889
668.845	6751
668.898	7164
668.950	6309
669.002	6759
669.054	6329
669.106	6225
669.158	6952
669.211	7069
669.263	6463
669.315	7305
669.367	8651
669.419	7617
669.471	7715
669.523	7727
669.575	8028
669.627	9411
669.679	7960
669.731	7143
669.783	7207
669.835	7511
669.886	8421
669.938	7545
669.990	6696
670.042	6761
670.094	7683
670.146	7957
670.197	7952
670.249	9519
670.301	10242
670.353	13103
670.404	16427
670.456	21882
670.508	30523
670.560	46501
670.611	74581
670.663	122033
670.715	221496
670.766	441571
670.818	424610
670.869	125390
670.921	39107
670.972	23510
671.024	18083
671.075	13507
671.127	11706
671.178	9887
671.230	9703
671.281	8422
671.333	8610
671.384	8425
671.436	7672
671.487	9282
671.538	8081
671.590	8411
671.641	9147
671.692	8957
671.744	9204
671.795	11337
671.846	8790
671.897	7555
671.949	7702
672.000	7079
672.051	7237
672.102	7151
672.153	6466
672.204	7761
672.256	6685
672.307	6607
672.358	7539
672.409	7639
672.460	6738
672.511	5487
672.562	5867
672.613	6365
672.664	6439
672.715	6454
672.766	7020
672.817	6517
672.868	6208
672.919	5319
672.970	5892
673.021	6128
673.071	5760
673.122	6632
673.173	6173
673.224	6198
673.275	5266
673.326	5385
673.376	5903
673.427	5640
673.478	6353
673.528	6499
673.579	5846
673.630	6625
673.680	6097
673.731	4852
673.782	5693
673.832	5340
673.883	5692
673.934	5815
673.984	5461
674.035	5230
674.085	5370
674.136	6095
674.186	6418
674.237	6575
674.287	9256
674.338	10907
674.388	6129
674.438	5863
674.489	6014
674.539	6175
674.589	6357
674.640	6307
674.690	6219
674.740	5905
674.791	6429
674.841	6507
674.891	6559
674.942	5790
674.992	5333
675.042	5087
675.092	5526
675.142	5335
675.193	5208
675.243	5839
675.293	5479
675.343	6178
675.393	6672
675.443	6182
675.493	5909
675.543	4710
675.593	6522
675.643	5395
675.693	5663
675.743	5928
675.793	6001
675.843	4823
675.893	5467
675.943	5773
675.993	5255
676.043	5664
676.093	6105
676.142	4481
676.192	5185
676.242	4905
676.292	5182
676.341	4730
676.391	5029
676.441	4775
676.491	4658
676.540	4182
676.590	4194
676.640	4709
676.689	5501
676.739	4509
676.789	4964
676.838	4729
676.888	4489
676.937	4475
676.987	4960
677.037	4603
677.086	4075
677.136	4496
677.185	4557
677.235	4423
677.284	4262
677.333	3765
677.383	5142
677.432	4294
677.482	4561
677.531	4652
677.580	4119
677.630	4690
677.679	4208
677.728	4182
677.778	3982
677.827	3470
677.876	3870
677.925	4059
677.975	3917
678.024	5494
678.073	4688
678.122	4613
678.171	5443
678.220	5135
678.269	4459
678.319	5369
678.368	5301
678.417	5441
678.466	5258
678.515	4777
678.564	5511
678.613	4783
678.662	5104
678.711	4854
678.760	5353
678.809	5262
678.857	5021
678.906	5535
678.955	4947
679.004	4792
679.053	4844
679.102	4533
679.151	5262
679.199	4511
679.248	5596
679.297	5250
679.346	5181
679.394	5165
679.443	4569
679.492	4703
679.540	4098
679.589	4507
679.638	4981
679.686	4606
679.735	4518
679.784	4148
679.832	4505
679.881	4751
679.929	4516
679.978	3959
680.026	3526
680.075	4288
680.123	4610
680.172	4941
680.220	3821
680.268	3548
680.317	4778
680.365	3691
680.414	4273
680.462	3938
680.510	4340
680.559	3955
680.607	3394
680.655	4545
680.703	4409
680.752	3949
680.800	3976
680.848	3614
680.896	3784
680.945	3972
680.993	4121
681.041	4275
681.089	3818
681.137	3873
681.185	3000
681.233	3826
681.258	4043
681.281	4221
681.329	3971
681.377	4425
681.380	4421
681.425	3847
681.473	4099
681.502	4403
681.521	4562
681.569	4514
681.617	4629
681.624	4750
681.665	5313
681.713	4456
681.745	4484
681.761	4453
681.809	4188
681.857	4560
681.867	4635
681.904	4783
681.952	4037
681.989	4383
682.000	4456
682.048	4209
682.096	4867
682.111	4756
682.143	4414
682.191	5012
682.233	4224
682.239	4078
682.286	4450
682.334	5227
682.354	4839
682.382	4261
682.430	5366
682.476	5195
682.477	5165
682.525	4772
682.572	4206
682.598	4528
682.620	4775
682.667	4613
682.715	4473
682.720	4563
682.763	5189
682.810	5486
682.841	5511
682.857	5479
682.905	5097
682.952	5275
682.963	5347
683.000	5525
683.047	5184
683.085	5952
683.095	6130
683.142	5670
683.190	5325
683.206	5306
683.237	5203
683.284	5586
683.328	5747
683.332	5741
683.379	5579
683.426	6118
683.449	6069
683.473	5947
683.521	5969
683.568	5303
683.571	5396
683.615	6449
683.662	5808
683.693	5970
683.709	5995
683.757	5454
683.804	7134
683.814	6874
683.851	5938
683.898	6329
683.936	6502
683.945	6502
683.992	6339
684.039	6306
684.057	6313
684.086	6379
684.133	6613
684.179	6264
684.180	6232
684.227	7123
684.274	6555
684.300	6727
684.321	6856
684.368	6790
684.415	6501
684.422	6571
684.462	6834
684.509	6352
684.543	6686
684.556	6808
684.603	7166
684.649	7111
684.665	6903
684.696	6453
684.743	7064
684.786	6994
684.790	6974
684.837	7583
684.883	7703
684.908	7964
684.930	8230
684.977	8307
685.023	8726
685.029	8681
685.070	8051
685.117	8192
685.150	7671
685.164	7477
685.210	8663
685.257	8946
685.272	8857
685.303	8690
685.350	8310
685.393	9027
685.396	9057
685.443	9088
685.490	8966
685.514	8707
685.536	8588
685.583	9388
685.629	9420
685.636	9338
685.675	8496
685.722	8840
685.757	8836
685.768	8880
685.815	9321
685.861	9471
685.878	9546
685.908	9594
685.954	8932
686.000	9563
686.000	9569
686.047	9737
686.093	9812
686.121	11006
686.139	11831
686.185	10168
686.232	10555
686.242	10566
686.278	10104
686.324	10047
686.363	9144
686.370	9005
686.416	8842
686.463	9116
686.484	9383
686.509	9788
686.555	9322
686.601	9335
686.606	9387
686.647	9681
686.693	10038
686.727	9682
686.739	9570
686.785	9534
686.831	9280
686.848	9497
686.877	9805
686.923	9476
686.969	9602
686.969	9602
687.015	8972
687.061	9699
687.090	9532
687.107	9469
687.153	10051
687.199	9737
687.211	9839
687.245	9934
687.291	9807
687.332	9986
687.336	10035
687.382	10248
687.428	10371
687.453	10357
687.474	10133
687.520	9916
687.565	9811
687.574	9711
687.611	9596
687.657	9787
687.695	10060
687.702	10104
687.748	9964
687.794	10192
687.816	10173
687.839	10177
687.885	9876
687.931	9959
687.937	10002
687.976	10041
688.022	9730
688.058	9655
688.067	9733
688.113	10392
688.158	10329
688.179	10462
688.204	10402
688.249	10318
688.295	10398
688.300	10392
688.340	10710
688.386	10899
688.421	11114
688.431	11152
688.477	11086
688.522	11005
688.542	11360
688.567	11686
688.613	11323
688.658	11278
688.663	11250
688.703	11233
688.749	10995
688.784	11268
688.794	11358
688.839	11213
688.884	11241
688.905	11259
688.930	11144
688.975	11000
689.020	10561
689.026	10517
689.065	10867
689.110	11180
689.146	11701
689.155	11748
689.201	11703
689.246	11517
689.267	11503
689.291	11401
689.336	11383
689.381	11146
689.388	11101
689.426	11327
689.471	11428
689.509	11587
689.516	11587
689.561	11521
689.606	11613
689.630	11626
689.651	11673
689.696	11511
689.741	11356
689.750	11379
689.785	11580
689.830	11594
689.871	11684
689.875	11692
689.920	11211
689.965	11464
689.992	11326
690.010	11274
690.054	11199
690.099	11411
690.112	11393
690.144	11585
690.189	11670
690.233	11995
690.233	12009
690.278	11533
690.323	11468
690.354	11204
690.367	11247
690.412	12016
690.457	12224
690.474	12355
690.501	12506
690.546	12636
690.590	12747
690.595	12736
690.635	12778
690.680	13085
690.716	13172
690.724	13373
690.769	14817
690.813	15527
690.836	16005
690.857	16745
690.902	18640
690.946	20832
690.957	21274
690.991	26363
691.035	33831
691.077	43004
691.080	43674
691.124	53263
691.168	59586
691.198	63457
691.213	59082
691.257	47347
691.301	35677
691.318	31380
691.346	28532
691.390	23374
691.434	18690
691.439	18134
691.478	17097
691.522	16041
691.559	14849
691.567	14769
691.611	14675
691.655	14215
691.680	13775
691.699	13669
691.743	14163
691.787	13863
691.800	13851
691.831	13894
691.875	13795
691.919	14122
691.921	14099
691.964	14306
692.008	14483
692.041	14654
692.052	14684
692.096	14600
692.139	14639
692.162	14597
692.183	14621
692.227	14713
692.271	14572
692.282	14633
692.315	14829
692.359	14492
692.402	14249
692.403	14273
692.447	14360
692.490	14122
692.523	14013
692.534	14085
692.578	14394
692.622	14570
692.643	14674
692.666	14753
692.709	14582
692.753	14590
692.763	14577
692.797	14602
692.840	14512
692.884	14386
692.884	14414
692.928	14388
692.971	14737
693.004	15020
693.015	15120
693.059	14995
693.102	15177
693.124	14946
693.146	14777
693.189	14882
693.233	14943
693.245	15005
693.276	15754
693.320	16162
693.363	17033
693.365	17030
693.407	17871
693.450	18497
693.485	18965
693.493	19289
693.537	21207
693.580	22869
693.605	24001
693.624	26128
693.667	30995
693.710	35604
693.725	37497
693.753	48168
693.797	64699
693.840	83739
693.845	85764
693.883	102860
693.926	117863
693.966	131093
693.970	128638
694.013	102180
694.056	75705
694.086	57940
694.099	54553
694.142	43210
694.185	32167
694.206	26798
694.229	25702
694.272	23370
694.315	21123
694.326	20564
694.358	20116
694.401	19167
694.444	18370
694.446	18287
694.487	17858
694.530	17593
694.566	17051
694.573	17037
694.616	16892
694.659	16581
694.686	16587
694.702	16488
694.745	15814
694.787	15267
694.806	15008
694.830	15070
694.873	15220
694.916	14970
694.926	14946
694.959	15255
695.002	15703
695.044	15747
695.046	15728
695.087	15720
695.130	15612
695.166	15378
695.172	15384
695.215	15234
695.258	15215
695.286	15047
695.301	15183
695.343	15541
695.386	15894
695.406	16088
695.428	16012
695.471	15584
695.514	15292
695.526	15164
695.556	15166
695.599	15062
695.641	15010
695.646	14974
695.684	15087
695.726	15127
695.766	14996
695.769	15016
695.811	15072
695.854	14829
695.886	14905
695.896	14991
695.938	14744
695.981	14732
696.005	14671
696.023	14691
696.065	14596
696.108	14666
696.125	14640
696.150	14916
696.192	15267
696.235	15593
696.245	15640
696.277	15643
696.319	15624
696.361	15571
696.365	15523
696.404	15815
696.446	16242
696.485	16552
696.488	16590
696.530	16460
696.572	16349
696.604	16266
696.614	16248
696.656	16092
696.698	15804
696.724	15537
696.740	15493
696.783	15461
696.825	15395
696.844	15283
696.867	15237
696.909	15143
696.951	14859
696.964	14828
696.992	15133
697.034	15316
697.076	15509
697.083	15525
697.118	15494
697.160	15276
697.202	15126
697.203	15081
697.244	15124
697.286	15304
697.323	15163
697.327	15159
697.369	14989
697.411	14621
697.442	14457
697.453	14582
697.494	14821
697.536	15115
697.562	15254
697.578	15275
697.620	15222
697.661	15207
697.682	15123
697.703	15231
697.744	15377
697.786	15565
697.801	15610
697.828	15642
697.869	15537
697.911	15404
697.921	15352
697.952	15411
697.994	15429
698.035	15425
698.040	15388
698.077	15578
698.118	15698
698.160	15864
698.160	15824
698.201	15547
698.243	15206
698.279	14916
698.284	14967
698.325	15049
698.367	15133
698.399	15130
698.408	15125
698.449	14929
698.491	14798
698.518	14628
698.532	14667
698.573	14709
698.614	14721
698.638	14684
698.656	14906
698.697	15341
698.738	15796
698.757	15960
698.779	15919
698.820	15778
698.862	15617
698.877	15521
698.903	15745
698.944	16037
698.985	16326
698.996	16366
699.026	16479
699.067	16575
699.116	16647
699.235	15117
699.354	15221
699.474	15011
699.593	16080
699.713	17651
699.832	15261
699.951	15979
700.070	15398
700.190	15138
700.309	15677
700.428	15619
700.547	15720
700.667	15050
700.786	16016
700.905	15894
701.024	14096
701.143	15765
701.262	14944
701.381	13903
701.500	14298
701.619	14287
701.738	14020
701.857	14280
701.976	13812
702.095	13358
702.214	14580
702.333	15666
702.452	14337
702.571	14113
702.690	14282
702.809	14039
702.928	13691
703.047	13513
703.165	13805
703.284	12869
703.403	14346
703.522	13388
703.640	14491
703.759	14709
703.878	17687
703.997	16659
704.115	14428
704.234	13441
704.353	13692
704.471	14208
704.590	13588
704.708	13500
704.827	12903
704.946	12906
705.064	14078
705.183	14167
705.301	14151
705.420	20320
705.538	22929
705.656	19429
705.775	18161
705.893	21560
706.012	34840
706.130	23359
706.249	18829
706.367	18151
706.485	18972
706.604	18034
706.722	18268
706.840	18668
706.958	19556
707.077	17622
707.195	16654
707.313	16650
707.431	16236
707.549	16056
707.668	15907
707.786	16746
707.904	17138
708.022	15808
708.140	15969
708.258	16682
708.376	15436
708.494	15535
708.612	16798
708.730	20068
708.848	26202
708.966	21795
709.084	20416
709.202	19109
709.320	20288
709.438	19798
709.556	20323
709.674	20594
709.791	20187
709.909	19064
710.027	19677
710.145	18856
710.263	19992
710.380	19058
710.498	20533
710.616	18619
710.733	18744
710.851	19708
710.969	19505
711.086	18724
711.204	18655
711.322	17722
711.439	17238
711.557	18687
711.674	17523
711.792	18429
711.909	18078
712.027	19358
712.144	18301
712.262	17140
712.379	18286
712.497	22055
712.614	29274
712.732	26195
712.849	21477
712.966	21069
713.084	22452
713.201	24351
713.318	22535
713.436	22715
713.553	22433
713.670	21926
713.787	22572
713.905	24459
714.022	22181
714.139	21128
714.256	21154
714.373	20833
714.490	21224
714.608	21415
714.725	26351
714.842	39896
714.959	24423
715.076	20560
715.193	19479
715.310	19575
715.427	19017
715.544	18829
715.661	18708
715.778	18090
715.895	21089
716.011	20647
716.128	20047
716.245	18839
716.362	20196
716.479	19308
716.596	18932
716.713	19248
716.829	17650
716.946	18624
717.063	18201
717.180	18489
717.296	17261
717.413	17310
717.530	17957
717.646	17919
717.763	17130
717.880	16382
717.996	16332
718.113	16724
718.229	15558
718.346	15547
718.462	15949
718.579	16543
718.695	19454
718.812	20016
718.928	19518
719.045	19235
719.161	16172
719.277	15852
719.394	15615
719.510	14928
719.626	16018
719.743	17307
719.859	17860
719.975	16499
720.092	17685
720.208	21136
720.324	19365
720.440	15901
720.557	16282
720.673	18036
720.789	21293
720.905	33207
721.021	38048
721.137	16519
721.253	16132
721.369	16387
721.486	15920
721.602	17899
721.718	18229
721.834	13976
721.950	14589
722.066	13990
722.181	14071
722.297	14432
722.413	15077
722.529	14133
722.645	14171
722.761	12800
722.877	14567
722.993	13158
723.108	13731
723.224	13711
723.340	13133
723.456	13325
723.571	12897
723.687	12710
723.803	13710
723.918	12553
724.034	13332
724.150	13247
724.265	14119
724.381	15816
724.497	27539
724.612	15639
724.728	12834
724.843	11771
724.959	13694
725.074	15146
725.190	23990
725.305	14941
725.421	13105
725.536	12115
725.651	11674
725.767	11862
725.882	11908
725.997	11736
726.113	11887
726.228	11617
726.343	12290
726.459	11272
726.574	11439
726.689	11571
726.804	10695
726.920	11444
727.035	11661
727.150	11316
727.265	11665
727.380	11462
727.495	11708
727.610	11006
727.725	11764
727.841	12187
727.956	13576
728.071	20333
728.186	12610
728.301	10673
728.416	10512
728.531	11798
728.645	9918
728.760	10397
728.875	11111
728.990	9755
729.105	11615
729.220	10423
729.335	10312
729.449	10713
729.564	10161
729.679	9841
729.794	10704
729.908	10327
730.023	10603
730.138	10009
730.253	9657
730.367	9545
730.482	9619
730.596	10213
730.711	9776
730.826	9907
730.940	9470
731.055	9594
731.169	10262
731.284	8919
731.398	8964
731.513	10497
731.627	10435
731.742	9712
731.856	11174
731.970	9898
732.085	8355
732.199	9161
732.313	9348
732.428	9644
732.542	10695
732.656	12825
732.771	9895
732.885	8388
732.999	9187
733.113	10028
733.227	9442
733.342	8620
733.456	8434
733.570	9298
733.684	8480
733.798	9439
733.912	9297
734.026	8507
734.140	8777
734.254	8842
734.368	9750
734.482	16315
734.596	10926
734.710	8577
734.824	8591
734.938	8379
735.052	8173
735.166	8847
735.280	8804
735.393	9015
735.507	7897
735.621	9093
735.735	12439
735.849	12567
735.962	8007
736.076	8210
736.190	8725
736.303	8607
736.417	12330
736.531	9671
736.644	7809
736.758	7987
736.872	8664
736.985	8676
737.099	8397
737.212	7475
737.326	7601
737.439	7625
737.553	7527
737.666	8012
737.780	7526
737.893	7536
738.007	7689
738.120	7537
738.233	7331
738.347	7726
738.460	7427
738.573	7347
738.687	8079
738.800	7460
738.913	8017
739.026	8732
739.140	7575
739.253	7931
739.366	7762
739.479	7885
739.592	7677
739.705	7341
739.818	8392
739.932	7422
740.045	7465
740.158	7247
740.271	7616
740.384	7611
740.497	8134
740.610	7059
740.723	7348
740.836	7685
740.949	7345
741.062	8050
741.174	8054
741.287	7639
741.400	7493
741.513	7875
741.626	8158
741.739	7988
741.851	7593
741.964	6686
742.077	7525
742.189	7797
742.302	8604
742.415	9035
742.527	8049
742.640	7745
742.753	6977
742.865	6806
742.978	7750
743.090	7415
743.203	7954
743.316	7159
743.428	7303
743.541	7770
743.653	6836
743.766	6374
743.878	7064
743.990	7445
744.103	9658
744.215	8517
744.327	7687
744.440	7860
744.552	8942
744.664	7028
744.777	7259
744.889	7430
745.001	7719
745.113	6247
745.226	7245
745.338	7461
745.450	6588
745.562	6210
745.674	8169
745.786	6801
745.898	7305
746.010	7730
746.122	6958
746.234	7505
746.347	7499
746.459	7001
746.570	7539
746.682	7061
746.794	8497
746.906	8646
747.018	7028
747.130	7309
747.242	6846
747.354	7418
747.466	8008
747.577	6700
747.689	7076
747.801	7028
747.913	6324
748.024	6343
748.136	6961
748.248	7357
748.359	7600
748.471	6553
748.583	6368
748.694	6576
748.806	8298
748.918	7791
749.029	8031
749.141	6866
749.252	7527
749.364	7967
749.475	7940
749.587	9208
749.698	7141
749.809	7056
749.921	7122
750.032	6466
750.144	7373
750.255	6172
750.366	6769
750.478	7023
750.589	7350
750.700	7105
750.811	6956
750.923	6902
751.034	8024
751.145	10616
751.256	8092
751.367	7349
751.479	7112
751.590	6328
751.701	7501
751.812	6642
751.923	6457
752.034	7329
752.145	6617
752.256	6168
752.367	7251
752.478	6625
752.589	7100
752.700	6992
752.811	7404
752.922	7094
753.032	6819
753.143	7744
753.254	6668
753.365	7264
753.476	7340
753.586	7100
753.697	7097
753.808	7535
753.919	6921
754.029	6634
754.140	7297
754.251	7158
754.361	7734
754.472	6994
754.582	7564
754.693	6997
754.804	7193
754.914	7140
755.025	6889
755.135	8593
755.246	7594
755.356	7756
755.466	7920
755.577	8276
755.687	7185
755.798	7423
755.908	7245
756.018	6596
756.129	7960
756.239	7873
756.349	8038
756.460	7229
756.570	8547
756.680	8007
756.790	8365
756.900	8279
757.011	8197
757.121	9189
757.231	8146
757.341	8994
757.451	8443
757.561	7440
757.671	9103
757.781	9047
757.891	8298
758.001	9372
758.111	8882
758.221	9563
758.331	9470
758.441	8973
758.551	8738
758.661	10516
758.771	9773
758.880	9433
758.990	10509
759.100	9939
759.210	10547
759.320	10364
759.429	10537
759.539	10034
759.649	10794
759.758	10685
759.868	11051
759.978	10714
760.087	11062
760.197	10818
760.307	10811
760.416	11519
760.526	10938
760.635	11893
760.745	11467
760.854	12145
760.964	12130
761.073	13130
761.182	12491
761.292	12903
761.401	14070
761.511	13928
761.620	13679
761.729	14547
761.839	14837
761.948	14943
762.057	15115
762.166	15300
762.276	15776
762.385	16640
762.494	16566
762.603	16977
762.712	17342
762.822	18033
762.931	19037
763.040	19008
763.149	20335
763.258	20895
763.367	21932
763.476	22843
763.585	23223
763.694	25073
763.803	26823
763.912	27443
764.021	28531
764.130	30037
764.238	32508
764.347	34754
764.456	36979
764.565	39671
764.674	43304
764.783	46177
764.891	50783
765.000	56859
765.109	63057
765.217	72371
765.326	83337
765.435	98272
765.543	115683
765.652	141224
765.761	179401
765.869	231508
765.978	309441
766.086	430205
766.195	604723
766.303	808542
766.412	819815
766.520	618714
766.629	813668
766.737	741777
766.846	548705
766.954	398931
767.062	293861
767.171	225776
767.279	179757
767.387	142785
767.496	118327
767.604	101260
767.712	90767
767.820	78371
767.928	71913
768.037	66685
768.145	62330
768.253	59643
768.361	56130
768.469	55736
768.577	56468
768.685	57665
768.793	60211
768.901	64711
769.009	72891
769.117	85666
769.225	106098
769.333	137751
769.441	192417
769.549	289723
769.657	463327
769.765	710552
769.873	718988
769.981	687867
770.088	647261
770.196	431910
770.304	282378
770.412	200180
770.519	149918
770.627	117202
770.735	95918
770.842	80296
770.950	68242
771.058	60097
771.165	53974
771.273	48021
771.380	43549
771.488	39273
771.595	36946
771.703	33120
771.810	31108
771.918	29665
772.025	27131
772.133	25071
772.240	25186
772.348	24074
772.455	22752
772.562	21876
772.670	21224
772.777	19571
772.884	19101
772.991	17156
773.099	18029
773.206	16974
773.313	15857
773.420	15795
773.528	15525
773.635	14599
773.742	14587
773.849	13909
773.956	13912
774.063	12643
774.170	12672
774.277	12855
774.384	12750
774.491	12917
774.598	11576
774.705	12071
774.812	11820
774.919	13036
775.026	11707
775.133	11383
775.239	11756
775.346	10980
775.453	10717
775.560	10599
775.667	10670
775.773	10644
775.880	10450
775.987	9178
776.093	9275
776.200	9754
776.307	10002
776.413	9754
776.520	9570
776.627	9225
776.733	9976
776.840	9481
776.946	9210
777.053	9329
777.159	9926
777.266	10744
777.372	11241
777.478	10833
777.585	10121
777.691	8737
777.798	8017
777.904	8165
778.010	9109
778.117	9317
778.223	8032
778.329	7858
778.435	8210
778.542	7704
778.648	7341
778.754	7313
778.860	7173
778.966	6809
779.072	7973
779.178	7263
779.284	7170
779.391	7799
779.497	8244
779.603	9932
779.708	13623
779.815	24019
779.920	67144
780.026	211506
780.132	113989
780.238	17652
780.344	10607
780.450	8492
780.556	8486
780.661	7877
780.767	6626
780.873	6822
780.979	6452
781.085	6099
781.190	6870
781.296	5888
781.402	5831
781.507	5746
781.613	6084
781.719	5516
781.824	5890
781.930	5552
782.035	5959
782.141	5775
782.246	5749
782.352	5311
782.457	4971
782.563	5342
782.668	6032
782.773	5205
782.879	5657
782.984	5902
783.090	5473
783.195	5516
783.300	6118
783.405	5557
783.511	5507
783.616	5674
783.721	5451
783.826	5018
783.932	5617
784.037	4883
784.142	5135
784.247	5356
784.352	5186
784.457	5289
784.562	5216
784.667	5134
784.772	4703
784.877	4319
784.982	4638
785.087	4964
785.192	5500
785.297	5200
785.402	4563
785.507	5069
785.611	4635
785.716	4908
785.821	4606
785.926	5092
786.031	3681
786.135	3615
786.240	4450
786.345	4004
786.450	4458
786.554	4161
786.659	4680
786.763	3814
786.868	4739
786.973	4476
787.077	4043
787.182	3951
787.286	4053
787.391	4507
787.495	4452
787.600	4698
787.704	4168
787.809	4113
787.913	3850
788.017	4371
788.122	4518
788.226	3993
788.330	3878
788.435	3993
788.539	3785
788.643	4029
788.747	3276
788.852	4019
788.956	4173
789.060	3854
789.164	3247
789.268	3762
789.372	4018
789.476	4456
789.580	4368
789.684	2628
789.788	4218
789.892	3651
789.996	3524
790.100	3671
790.204	3065
790.308	3833
790.412	4220
790.516	3469
790.620	4166
790.724	3369
790.828	4081
790.931	3907
791.035	4796
791.139	4016
791.242	3219
791.346	3636
791.450	3423
791.554	3237
791.657	3363
791.761	2861
791.864	3487
791.968	3802
792.072	3865
792.175	3555
792.279	3343
792.382	4179
792.486	3853
792.589	3789
792.693	3496
792.796	2646
792.899	3836
793.003	2805
793.106	3305
793.209	2831
793.313	3966
793.416	2667
793.519	3893
793.623	3728
793.726	4216
793.829	4048
793.932	3314
794.035	3722
794.138	3453
794.242	4483
794.345	4999
794.448	7942
794.551	13466
794.654	38138
794.757	123001
794.860	74184
794.963	10492
795.066	5629
795.169	4844
795.272	4525
795.375	3722
795.477	3467
795.580	2890
795.683	2890
795.786	3073
795.889	2264
795.991	3718
796.094	4123
796.197	2797
796.300	2752
796.402	2780
796.505	2983
796.608	3104
796.710	2613
796.813	3146
796.915	3111
797.018	3614
797.120	2752
797.223	2817
797.326	3388
797.428	2877
797.530	2573
797.633	2412
797.735	2873
797.838	3366
797.940	5182
798.042	2695
798.145	2482
798.247	3067
798.349	2418
798.452	2550
798.554	2910
798.656	2740
798.758	3208
798.860	2491
798.962	2033
799.065	2248
799.167	2543
799.269	2974
799.371	3294
799.473	2065
799.575	2256
799.677	3028
799.779	3530
799.881	2823
799.983	2124
800.085	2230
800.187	2262
800.289	2041
800.390	2598
800.492	2252
800.594	2359
800.696	2345
800.798	2295
800.899	2935
801.001	1980
801.103	2246
801.205	2365
801.306	1959
801.408	2582
801.509	2628
801.611	2636
801.713	1863
801.814	2398
801.916	2683
802.017	2379
802.119	2278
802.220	2496
802.322	995
802.423	3087
802.525	2506
802.626	3214
802.727	1919
802.829	3030
802.930	1044
803.031	2559
803.133	2439
803.234	1473
803.335	1828
803.436	1860
803.538	1732
803.639	1838
803.740	2246
803.841	1865
803.942	1444
804.043	2576
804.144	1834
804.245	2108
804.346	1901
804.447	1945
804.548	2017
804.649	2585
804.750	2249
804.851	2037
804.952	2499
805.053	1072
805.154	1661
805.255	2572
805.355	2012
805.456	2261
805.557	1592
805.658	1139
805.758	2212
805.859	2772
805.960	1011
806.061	1745
806.161	2125
806.262	1576
806.362	1760
806.463	2348
806.564	1908
806.664	1743
806.765	2778
806.865	2604
806.966	2883
807.066	1238
807.166	1933
807.267	1721
807.367	2451
807.468	2185
807.568	1729
807.668	1872
807.769	1703
807.869	1895
807.969	2068
808.069	1356
808.170	1749
808.270	1619
808.370	1730
808.470	1933
808.570	1888
808.670	1563
808.770	1873
808.870	1913
808.970	1393
809.070	1338
809.170	2071
809.271	1340
809.370	1550
809.470	2132
809.570	1540
809.670	1448
809.770	1717
809.870	1439
809.970	1447
810.070	2136
810.169	1717
810.269	385
810.369	2719
810.469	1641
810.568	1693
810.668	1294
810.768	1758
810.867	1041
810.967	1607
811.066	1463
811.166	1585
811.265	1769
811.365	1343
811.464	1271
811.564	2063
811.663	1537
811.763	843
811.862	1570
811.962	1818
812.061	2361
812.160	1474
812.260	2099
812.359	1865
812.458	1084
812.557	3358
812.657	5514
812.756	5411
812.855	2565
812.954	1842
813.053	1518
813.153	2328
813.252	1347
813.351	1955
813.450	2110
813.549	1823
813.648	1300
813.747	1907
813.846	1782
813.945	1519
814.044	1607
814.143	1776
814.242	1858
814.341	2313
814.439	1411
814.538	2049
814.637	1800
814.736	2078
814.835	2921
814.933	872
815.032	1219
815.131	923
815.229	1803
815.328	1512
815.427	1395
815.525	2190
815.624	1794
815.722	2053
815.821	1379
815.919	2090
816.018	1695
816.116	2282
816.215	2850
816.313	1659
816.412	2765
816.510	2379
816.609	3335
816.707	2604
816.805	3165
816.904	2908
817.002	3370
817.100	3763
817.198	3557
817.296	3559
817.395	4877
817.493	6730
817.591	6008
817.689	8344
817.787	11506
817.885	16189
817.983	26225
818.081	48661
818.179	101770
818.277	220418
818.375	325250
818.473	191039
818.571	77605
818.669	40510
818.767	29026
818.865	26774
818.963	27376
819.061	34740
819.158	52410
819.256	91055
819.354	172637
819.452	333400
819.549	366428
819.647	219464
819.745	104365
819.842	55862
819.940	35880
820.038	24936
820.135	18467
820.233	15078
820.330	11831
820.428	9548
820.525	8541
820.623	7046
820.720	5793
820.818	5345
820.915	5667
821.012	5442
821.110	4308
821.207	3679
821.304	3720
821.402	3254
821.499	3735
821.596	4353
821.693	4591
821.791	3660
821.888	2799
821.985	3153
822.082	2926
822.179	3298
822.276	2653
822.373	2653
822.470	2201
822.567	2034
822.664	1293
822.761	2230
822.858	1643
822.955	945
823.052	1365
823.149	1422
823.246	1095
823.343	1509
823.440	1326
823.536	875
823.633	2156
823.730	874
823.827	1383
823.923	1124
824.020	2230
824.117	1603
824.213	1076
824.310	2612
824.407	1430
824.503	1172
824.600	1835
824.696	1326
824.793	884
824.889	1266
824.986	1355
825.082	1425
825.179	1007
825.275	1050
825.371	1354
825.468	869
825.564	1492
825.660	1097
825.757	1353
825.853	2009
825.949	472
826.045	1063
826.142	504
826.238	901
826.334	1350
826.430	409
826.526	1791
826.622	967
826.718	737
826.814	351
826.910	1286
827.006	1016
827.102	375
827.198	1492
827.294	-353
827.390	1114
827.486	655
827.582	195
827.678	22
827.774	1096
827.869	354
827.965	1906
828.061	879
828.157	395
828.252	1531
828.348	162
828.444	847
828.539	358
828.635	524
828.731	114
828.826	232
828.922	1267
829.017	593
829.113	396
829.208	858
829.304	579
829.399	1077
829.495	526
829.590	225
829.685	899
829.781	1024
829.876	-180
829.971	687
830.066	1125
830.162	709
830.257	318
830.352	945
830.447	1028
830.543	1282
830.638	256
830.733	80
830.828	668
830.923	-220
831.018	592
831.113	645
831.208	349
831.303	225
831.398	825
831.493	-57
831.588	439
831.683	-406
831.778	459
831.873	624
831.967	822
832.062	-44
832.157	210
832.252	1517
832.346	592
832.441	468
832.536	1060
832.631	1766
832.725	2216
832.820	1118
832.914	263
833.009	262
833.104	169
833.198	295
833.293	162
833.387	183
833.482	459
833.576	-20
833.670	315
833.765	-251
833.859	991
833.954	931
834.048	23
834.142	451
834.237	63
834.331	435
834.425	921
834.519	-58
834.613	952
834.708	8
834.802	307
834.896	8
834.990	1006
835.084	862
835.178	-174
835.272	466
835.366	137
835.460	142
835.554	453
835.648	486
835.742	127
835.836	480
835.930	220
836.024	428
836.117	273
836.211	774
836.305	989
836.399	1944
836.493	537
836.586	1123
836.680	214
836.774	921
836.867	344
836.961	568
837.055	351
837.148	-35
837.242	-325
837.335	332
837.429	194
837.522	610
837.616	60
837.709	823
837.803	2686
837.896	929
837.989	543
838.083	2105
838.176	1448
838.269	3304
838.363	920
838.456	387
838.549	842
838.642	1450
838.735	2067
838.829	1780
838.922	1316
839.015	1060
839.108	99
839.201	685
839.294	1328
839.387	747
839.480	442
839.573	429
839.666	1213
839.759	533
839.852	5
839.945	469
840.038	385
840.131	779
840.223	436
840.316	799
840.409	690
840.502	257
840.594	481
840.687	258
840.780	87
840.873	290
840.965	961
841.058	547
841.150	1696
841.243	2285
841.336	1489
841.428	1072
841.521	102
841.613	-215
841.706	1005
841.798	719
841.890	821
841.983	-812
842.075	463
842.167	592
842.260	276
842.352	652
842.444	1420
842.537	1701
842.629	4079
842.721	1954
842.813	-107
842.905	21
842.997	564
843.090	-136
843.182	709
843.274	1266
843.366	4553
843.458	9028
843.550	12372
843.642	3652
843.734	600
843.826	147
843.918	1413
844.009	285
844.101	749
844.193	177
844.285	423
844.377	1315
844.469	1263
844.560	333
844.652	714
844.744	1172
844.835	795
844.927	8
845.019	-269
845.110	699
845.202	299
845.293	882
845.385	236
845.476	-179
845.568	949
845.659	-359
845.751	549
845.842	545
845.934	-368
846.025	-59
846.116	473
846.208	468
846.299	385
846.390	-154
846.482	451
846.573	112
846.664	1368
846.755	1017
846.846	2125
846.937	122
847.029	548
847.120	326
847.211	-60
847.302	369
847.393	-20
847.484	274
847.575	154
847.666	59
847.757	347
847.847	-100
847.938	492
848.029	156
848.120	39
848.211	40
848.302	127
848.392	115
848.483	524
848.574	77
848.664	421
848.755	364
848.846	-238
848.936	46
849.027	38
849.118	147
849.208	395
849.299	131
849.389	135
849.480	578
849.570	-48
849.661	451
849.751	880
849.841	1630
849.932	-24
850.022	-33
850.112	942
850.203	-262
850.293	-78
850.383	282
850.474	91
850.564	-600
850.654	147
850.744	-566
850.834	-120
850.924	175
851.014	377
851.104	-81
851.194	340
851.284	121
851.374	379
851.464	253
851.554	-488
851.644	228
851.734	1519
851.824	1744
851.914	2000
852.004	3739
852.094	6521
852.183	3590
852.273	1606
852.363	-430
852.452	630
852.542	-206
852.632	316
852.721	-167
852.811	-219
852.901	-30
852.990	420
853.080	31
853.169	142
853.259	-732
853.348	323
853.438	-511
853.527	638
853.617	235
853.706	229
853.795	-768
853.885	731
853.974	1678
854.063	2274
854.152	3726
854.242	4226
854.331	935
854.420	149
854.509	-324
854.598	-381
854.687	-321
854.777	1076
854.866	-18
854.955	606
855.044	-800
855.133	-529
855.222	-28
855.311	241
855.400	415
855.488	33
855.577	-780
855.666	269
855.755	672
855.844	479
855.933	11
856.021	885
856.110	247
856.199	139
856.288	-759
856.376	152
856.465	-108
856.554	417
856.642	-622
856.731	-9
856.819	-401
856.908	-812
856.996	-256
857.085	-34
857.173	224
857.262	-34
857.350	-298
857.438	370
857.527	-55
857.615	-347
857.703	-177
857.792	102
857.880	140
857.968	-442
858.056	224
858.145	231
858.233	-1000
858.321	44
858.409	371
858.497	-133
858.585	-94
858.673	858
858.761	112
858.849	187
858.937	-259
859.025	414
859.113	118
859.201	59
859.289	628
859.377	19
859.465	-13
859.552	-312
859.640	879
859.728	338
859.816	387
859.903	-158
859.991	-526
860.079	306
860.166	-32
860.254	-61
860.342	276
860.429	274
860.517	-486
860.604	704
860.692	-567
860.779	-28
860.867	229
860.954	-601
861.042	-49
861.129	-515
861.216	-146
861.304	-546
861.391	-306
861.478	-375
861.565	-690
861.653	-18
861.740	-313
861.827	-730
861.914	352
862.001	-728
862.089	-314
862.176	-904
862.263	-506
862.350	-77
862.437	-41
862.524	-417
862.611	-861
862.698	-15
862.785	381
862.871	-229
862.958	-205
863.045	697
863.132	-523
863.219	-408
863.306	-613
863.392	-272
863.479	-436
863.566	511
863.652	-418
863.739	-99
863.826	-1010
863.912	302
863.999	-98
864.086	-245
864.172	0
864.259	-760
864.345	197
864.432	-460
864.518	-582
864.604	5
864.691	-802
864.777	-531
864.863	-38
864.950	-323
865.036	-900
865.122	544
865.209	-706
865.295	-668
865.381	-456
865.467	-455
865.553	-92
865.639	-422
865.726	-239
865.812	1001
865.898	475
865.984	884
866.070	1332
866.156	3715
866.242	726
866.328	43
866.414	-390
866.499	-159
866.585	-936
866.671	-402
866.757	-251
866.843	-954
866.928	-185
867.014	-617
867.100	261
867.186	-195
867.271	564
867.357	-576
867.442	-666
867.528	379
867.614	-74
867.699	-840
867.785	219
867.870	-166
867.956	687
868.041	793
868.127	114
868.212	-80
868.297	1391
868.383	590
868.468	71
868.553	165
868.639	1088
868.724	439
868.809	2073
868.894	1489
868.979	-25
869.065	81
869.150	-217
869.235	338
869.320	-801
869.405	-668
869.490	-132
869.575	-407
869.660	-176
869.745	-431
869.830	-1037
869.915	-553
870.000	-232
870.085	-592
870.169	-858
870.254	555
870.339	-977
870.424	-585
870.509	30
870.593	-907
870.678	-760
870.763	-1060
870.847	-102
870.932	-1617
871.016	186
871.101	-120
871.186	-382
871.270	-566
871.355	-1364
871.439	-707
871.523	-996
871.608	-132
871.692	298
871.777	-1318
871.861	-897
871.945	-800
872.030	-133
872.114	-996
872.198	-109
872.282	-230
872.367	-809
872.451	-757
872.535	-921
872.619	-1169
872.703	-707
872.787	-1462
872.871	-482
872.955	-1459
873.039	-859
873.123	-247
873.207	-566
873.291	-714
873.375	-886
873.459	-263
873.543	-613
873.627	-437
873.711	-597
873.794	213
873.878	-745
873.962	-1232
874.045	-1337
874.129	-1432
874.137	-1392
874.213	-992
874.245	-941
874.296	-866
874.352	-1107
874.380	-1220
874.460	-887
874.464	-875
874.547	-453
874.568	-401
874.631	-233
874.676	-487
874.714	-706
874.784	-639
874.798	-619
874.881	21
874.892	-54
874.965	-614
874.999	-511
875.048	-352
875.107	-416
875.131	-450
875.215	-717
875.215	-717
875.298	-178
875.323	-308
875.381	-613
875.430	-560
875.465	-500
875.538	-338
875.548	-327
875.631	-370
875.646	-411
875.714	-519
875.753	-531
875.798	-582
875.861	-247
875.881	-146
875.964	-394
875.968	-396
876.047	-379
876.076	-233
876.130	33
876.183	-523
876.213	-824
876.291	-429
876.296	-403
876.379	-305
876.398	-187
876.462	156
876.506	-171
876.545	-390
876.613	-59
876.628	-1
876.711	-259
876.721	-257
876.794	-176
876.828	-175
876.877	-288
876.935	-327
876.960	-271
877.043	-239
877.043	-237
877.125	14
877.150	-111
877.208	-198
877.258	-5
877.291	50
877.365	-178
877.374	-197
877.456	92
877.472	99
877.539	88
877.579	40
877.622	4
877.687	218
877.704	265
877.787	-158
877.794	-223
877.869	-820
877.901	-446
877.952	64
878.008	78
878.034	145
878.115	243
878.117	243
878.199	-442
878.222	-296
878.282	83
878.329	-159
878.364	-333
878.437	12
878.447	69
878.529	-161
878.544	-141
878.611	-75
878.651	-18
878.694	127
878.758	504
878.776	558
878.858	-329
878.865	-304
878.941	81
878.972	100
879.023	5
879.078	-436
879.105	-509
879.185	51
879.187	62
879.269	-573
879.292	-250
879.351	430
879.399	214
879.433	221
879.506	338
879.516	306
879.598	-268
879.613	-338
879.680	-573
879.720	-364
879.762	-26
879.827	-249
879.844	-355
879.926	-364
879.933	-372
880.007	-316
880.040	-313
880.089	-151
880.147	142
880.171	191
880.253	383
880.254	382
880.335	436
880.360	471
880.417	993
880.467	1396
880.499	1736
880.574	2982
880.580	3012
880.662	2113
880.680	1812
880.744	166
880.787	-217
880.825	73
880.893	287
880.907	259
880.989	-108
881.000	-132
881.070	126
881.106	176
881.152	187
881.213	285
881.233	205
881.315	319
881.319	276
881.396	26
881.426	115
881.478	219
881.532	215
881.559	138
881.639	0
881.641	11
881.722	272
881.745	355
881.803	191
881.852	-77
881.885	-155
881.958	76
881.966	92
882.047	222
882.064	240
882.129	334
882.171	24
882.210	-153
882.277	673
882.291	857
882.372	742
882.383	716
882.454	191
882.489	68
882.535	127
882.596	33
882.616	-33
882.697	18
882.702	23
882.778	403
882.808	525
882.859	457
882.914	207
882.940	280
883.020	757
883.021	761
883.102	408
883.127	477
883.183	600
883.233	503
883.264	490
883.339	422
883.345	437
883.426	171
883.445	273
883.507	34
883.551	-271
883.587	-44
883.657	213
883.668	190
883.749	250
883.763	252
883.830	419
883.869	478
883.910	318
883.975	-77
883.991	-161
884.072	-43
884.081	-90
884.152	168
884.187	407
884.233	569
884.292	602
884.314	501
884.394	269
884.398	248
884.475	596
884.504	719
884.555	531
884.610	563
884.636	617
884.716	327
884.716	329
884.797	152
884.821	99
884.877	134
884.927	217
884.958	238
885.033	400
885.038	414
885.118	341
885.139	302
885.199	133
885.244	131
885.279	263
885.350	452
885.359	450
885.439	598
885.456	535
885.520	190
885.561	189
885.600	475
885.667	602
885.680	575
885.760	619
885.773	590
885.840	71
885.878	-44
885.920	299
885.984	613
886.000	690
886.080	1071
886.089	1099
886.160	357
886.195	-6
886.240	-161
886.300	-287
886.320	-118
886.400	487
886.406	527
886.480	627
886.511	639
886.560	882
886.616	1114
886.640	1011
886.720	750
886.722	736
886.800	576
886.827	536
886.879	455
886.932	400
886.959	728
887.038	1520
887.039	1514
887.119	455
887.143	204
887.198	740
887.248	1006
887.278	830
887.354	433
887.358	455
887.437	943
887.459	1026
887.517	902
887.564	850
887.596	740
887.669	402
887.676	404
887.755	413
887.774	391
887.835	518
887.880	679
887.914	811
887.985	1069
887.994	1087
888.073	1074
888.090	1080
888.153	1153
888.195	1161
888.232	910
888.300	480
888.311	445
888.391	103
888.405	55
888.470	560
888.510	834
888.549	847
888.615	932
888.628	857
888.708	290
888.720	205
888.787	638
888.825	856
888.866	813
888.930	754
888.945	679
889.024	307
889.035	250
889.103	890
889.140	1229
889.182	579
889.245	-378
889.261	-149
889.340	929
889.349	1051
889.419	381
889.454	40
889.498	9
889.559	-35
889.577	67
889.656	515
889.664	558
889.735	1474
889.768	1900
889.814	1435
889.873	809
889.978	1459
890.083	1112
890.187	1099
890.292	822
890.397	1095
890.501	1250
890.606	1184
890.710	1209
890.815	1245
890.919	403
891.024	1055
891.128	873
891.233	887
891.337	993
891.442	841
891.546	-221
891.650	1162
891.755	273
891.859	1982
891.963	1045
892.068	1499
892.172	928
892.276	954
892.380	391
892.484	1446
892.589	394
892.693	845
892.797	730
892.901	1562
893.005	617
893.109	1407
893.213	194
893.317	1080
893.421	517
893.525	982
893.629	1031
893.733	234
893.837	359
893.941	187
894.045	1695
894.148	447
894.252	3130
894.356	1848
894.460	973
894.564	991
894.667	651
894.771	642
894.875	879
894.978	932
895.082	505
895.186	502
895.289	-69
895.393	949
895.496	541
895.600	459
895.703	137
895.807	588
895.910	1172
896.014	691
896.117	628
896.221	1164
896.324	590
896.427	1396
896.531	802
896.634	229
896.737	1039
896.840	449
896.944	308
897.047	739
897.150	321
897.253	241
897.356	544
897.460	611
897.563	130
897.666	606
897.769	148
897.872	1594
897.975	-93
898.078	739
898.181	628
898.284	838
898.387	731
898.490	202
898.593	710
898.695	462
898.798	285
898.901	1461
899.004	472
899.107	159
899.209	-92
899.312	826
899.415	407
899.518	1123
899.620	504
899.723	1904
899.826	1188
899.928	1626
900.031	104
900.133	618
900.236	488
900.338	1017
900.441	541
900.543	1201
900.646	547
900.748	1034
900.851	997
900.953	31
901.055	64
901.158	739
901.260	505
901.362	590
901.465	918
901.567	710
901.669	533
901.771	485
901.873	449
901.976	953
902.078	480
902.180	748
902.282	405
902.384	704
902.486	437
902.588	631
902.690	824
902.792	1363
902.894	1343
902.996	959
903.098	529
903.200	924
903.302	1341
903.404	564
903.505	753
903.607	1030
903.709	-70
903.811	1043
903.913	236
904.014	485
904.116	708
904.218	1066
904.319	1230
904.421	727
904.523	1095
904.624	1034
904.726	932
904.827	1740
904.929	699
905.030	760
905.132	219
905.233	737
905.335	-57
905.436	789
905.537	-17
905.639	1175
905.740	608
905.841	323
905.943	461
906.044	544
906.145	263
906.247	351
906.348	310
906.449	578
906.550	-274
906.651	1317
906.752	-574
906.854	968
906.955	-396
907.056	1115
907.157	532
907.258	260
907.359	106
907.460	1544
907.561	16
907.662	746
907.762	1273
907.863	116
907.964	-166
908.065	762
908.166	-131
908.267	578
908.367	699
908.468	460
908.569	1055
908.670	1519
908.770	1330
908.871	1269
908.971	77
909.072	1672
909.173	1472
909.273	505
909.374	115
909.474	424
909.575	916
909.675	476
909.776	1505
909.876	1082
909.977	-156
910.077	1762
910.177	7
910.278	797
910.378	422
910.478	582
910.579	170
910.679	37
910.779	838
910.879	398
910.980	475
911.080	136
911.180	-53
911.280	1070
911.380	774
911.480	166
911.580	504
911.680	946
911.780	946
911.880	905
911.980	504
912.080	702
912.180	473
912.280	945
912.380	386
912.480	187
912.580	535
912.679	535
912.779	1368
912.879	919
912.979	305
913.078	324
913.178	707
913.278	130
913.377	890
913.477	485
913.577	45
913.676	1569
913.776	565
913.875	614
913.975	-163
914.074	833
914.174	621
914.273	720
914.373	179
914.472	1231
914.572	471
914.671	510
914.770	-155
914.870	1201
914.969	-6
915.068	200
915.167	437
915.267	584
915.366	-453
915.465	999
915.564	961
915.663	546
915.763	458
915.862	235
915.961	1021
916.060	845
916.159	355
916.258	-232
916.357	224
916.456	719
916.555	99
916.654	1122
916.752	820
916.851	549
916.950	481
917.049	552
917.148	353
917.247	821
917.345	-181
917.444	130
917.543	436
917.642	128
917.740	182
917.839	39
917.937	610
918.036	838
918.135	-518
918.233	293
918.332	335
918.430	489
918.529	222
918.627	34
918.726	-152
918.824	480
918.923	706
919.021	1240
919.119	624
919.218	460
919.316	459
919.414	-228
919.512	242
919.611	717
919.709	-58
919.807	469
919.905	651
920.003	923
920.102	-381
920.200	346
920.298	34
920.396	525
920.494	846
920.592	297
920.690	-728
920.788	127
920.886	236
920.984	202
921.082	361
921.180	804
921.277	269
921.375	966
921.473	252
921.571	814
921.669	9
921.766	696
921.864	1707
921.962	1657
922.060	-57
922.157	1249
922.255	43
922.352	-237
922.450	2096
922.548	-330
922.645	729
922.743	271
922.840	-60
922.938	697
923.035	64
923.133	796
923.230	-449
923.327	230
923.425	78
923.522	311
923.619	167
923.717	195
923.814	38
923.911	530
924.008	882
924.106	272
924.203	274
924.300	250
924.397	27
924.494	1220
924.591	1264
924.688	1311
924.786	15
924.883	651
924.979	387
925.077	1076
925.173	422
925.270	896
925.367	-141
925.464	-390
925.561	705
925.658	586
925.755	312
925.852	841
925.948	518
926.045	337
926.142	440
926.239	468
926.335	553
926.432	794
926.529	650
926.625	568
926.722	-7
926.818	-328
926.915	252
927.011	671
927.108	127
927.204	275
927.301	676
927.397	697
927.494	-126
927.590	252
927.687	-348
927.783	387
927.879	-737
927.976	338
928.072	515
928.168	451
928.264	406
928.361	406
928.457	55
928.553	2224
928.649	15
928.745	223
928.841	224
928.937	850
929.033	201
929.129	34
929.225	-558
929.321	937
929.417	226
929.513	-276
929.609	-236
929.705	600
929.801	-126
929.897	855
929.993	-514
930.089	706
930.184	305
930.280	744
930.376	-133
930.471	109
930.567	27
930.663	-290
930.758	152
930.854	648
930.950	-27
931.045	447
931.141	187
931.236	496
931.332	477
931.427	140
931.523	177
931.618	540
931.714	570
931.809	-26
931.905	115
932.000	427
932.095	687
932.191	764
932.286	301
932.381	28
932.476	600
932.572	606
932.667	-128
932.762	675
932.857	-32
932.952	-29
933.047	410
933.142	951
933.237	168
933.332	901
933.427	71
933.522	653
933.617	286
933.712	273
933.807	291
933.902	403
933.997	650
934.092	359
934.187	98
934.282	621
934.376	225
934.471	-137
934.566	335
934.661	65
934.755	-469
934.850	303
934.945	39
935.039	221
935.134	250
935.228	-185
935.323	176
935.417	157
935.512	51
935.606	279
935.701	-36
935.795	-292
935.890	591
935.984	815
936.079	-464
936.173	254
936.267	-862
936.362	381
936.456	-107
936.550	511
936.644	-397
936.738	152
936.833	-355
936.927	1176
937.021	801
937.115	526
937.209	-104
937.303	868
937.397	184
937.491	35
937.585	-201
937.679	331
937.773	-114
937.867	271
937.961	161
938.055	-457
938.149	603
938.243	3
938.337	714
938.430	389
938.524	-212
938.618	887
938.712	217
938.805	-111
938.899	113
938.993	1065
939.086	-474
939.180	243
939.274	735
939.367	407
939.461	-811
939.554	-37
939.648	150
939.741	-257
939.835	-222
939.928	-354
940.022	-375
940.115	597
940.208	-387
940.302	1068
940.395	-474
940.488	186
940.582	24
940.675	203
940.768	-223
940.861	733
940.954	283
941.048	72
941.141	-44
941.234	98
941.327	267
941.420	553
941.513	759
941.606	-238
941.699	-548
941.792	406
941.885	476
941.978	22
942.071	169
942.164	335
942.257	48
942.349	23
942.442	-138
942.535	151
942.628	251
942.721	429
942.813	-458
942.906	691
942.999	695
943.091	47
943.184	40
943.277	-151
943.369	-158
943.462	879
943.554	-664
943.647	537
943.739	-182
943.832	601
943.924	-771
944.017	166
944.109	-594
944.201	-221
944.294	-357
944.386	-20
944.478	-258
944.571	201
944.663	-441
944.755	779
944.847	-114
944.940	36
945.032	-269
945.124	371
945.216	38
945.308	300
945.400	74
945.492	-205
945.584	354
945.676	329
945.768	-478
945.860	479
945.952	-471
946.044	268
946.136	-362
946.228	-326
946.320	178
946.412	-60
946.503	-430
946.595	-398
946.687	-714
946.779	17
946.870	-458
946.962	-261
947.054	-241
947.145	897
947.237	-1083
947.329	-99
947.420	-620
947.512	-449
947.603	239
947.695	-935
947.786	176
947.878	289
947.969	-47
948.061	-66
948.152	282
948.243	-841
948.335	-1255
948.426	298
948.517	-229
948.609	-904
948.700	-217
948.791	-103
948.882	-689
948.973	-581
949.065	-551
949.156	-465
949.247	-1269
949.338	572
949.429	-548
949.520	-736
949.611	-443
949.702	807
949.793	934
949.884	290
949.975	-223
950.066	602
950.157	-626
950.247	-310
950.338	-1184
950.429	-636
950.520	-55
950.611	-523
950.701	-868
950.792	-156
950.883	260
950.973	-418
951.064	-183
951.155	-426
951.245	-199
951.336	-731
951.427	-162
951.517	189
951.608	-378
951.698	81
951.788	-755
951.879	-693
951.969	-611
952.060	-602
952.150	-113
952.240	83
952.331	-637
952.421	886
952.511	-700
952.602	-441
952.692	-731
952.782	-375
952.872	124
952.962	-228
953.052	-110
953.143	-536
953.233	-438
953.323	-356
953.413	-1241
953.503	638
953.593	-222
953.683	-87
953.773	-99
953.863	95
953.953	-99
954.042	-297
954.132	-845
954.222	-142
954.312	110
954.402	-611
954.492	572
954.581	510
954.671	910
954.761	-215
954.850	148
954.940	-239
955.030	-858
955.119	-706
955.209	-483
955.298	-340
955.388	-630
955.477	232
955.567	-567
955.656	-216
955.746	-184
955.835	-33
955.925	-825
956.014	-328
956.103	-885
956.193	-41
956.282	-532
956.371	340
956.461	-891
956.550	-274
956.639	-400
956.728	41
956.817	-789
956.906	555
956.995	-42
957.085	-282
957.174	-597
957.263	-370
957.352	-355
957.441	331
957.530	600
957.619	290
957.708	-473
957.796	-36
957.885	-288
957.974	102
958.063	-1225
958.152	-376
958.241	-537
958.329	545
958.418	-69
958.507	-268
958.596	-169
958.684	-446
958.773	878
958.861	295
958.950	-216
959.039	441
959.127	-421
959.216	280
959.304	142
959.393	244
959.481	-159
959.570	-197
959.658	329
959.746	-222
959.835	471
959.923	1925
960.011	1290
960.100	502
960.188	6
960.276	314
960.365	-258
960.453	-67
960.541	49
960.629	135
960.717	-257
960.805	-226
960.893	-655
960.981	-525
961.069	-457
961.158	104
961.245	-564
961.333	549
961.421	106
961.509	-873
961.597	-266
961.685	-137
961.773	-49
961.861	-772
961.949	51
962.036	-89
962.124	-598
962.212	-136
962.299	-483
962.387	-871
962.475	-768
962.562	247
962.650	419
962.738	-43
962.825	-759
962.913	-204
963.000	-184
963.088	-911
963.175	-1018
963.263	-494
963.350	-563
963.438	-349
963.525	-792
963.612	155
963.700	2505
963.787	6962
963.874	7647
963.962	1034
964.049	-323
964.136	-559
964.223	-1305
964.310	-649
964.398	-299
964.485	-568
964.572	113
964.659	349
964.746	1291
964.833	495
964.920	-620
965.007	-560
965.094	-357
965.181	-638
965.268	-545
965.355	-767
965.441	-1
965.528	-198
965.615	-247
965.702	-126
965.789	-965
965.875	-233
965.962	-290
966.049	-512
966.136	-962
966.222	-332
966.309	-179
966.395	-1323
966.482	-171
966.569	-208
966.655	-1144
966.742	-362
966.828	-1006
966.915	-533
967.001	219
967.087	-448
967.174	-770
967.260	380
967.347	-188
967.433	1303
967.519	3775
967.605	4145
967.692	-770
967.778	-118
967.864	-1119
967.950	-393
968.036	-510
968.123	-748
968.209	-158
968.295	-139
968.381	-230
968.467	-221
968.553	-512
968.639	-1
968.725	-885
968.811	441
968.897	410
968.983	114
969.069	-1180
969.154	-347
969.240	-1119
969.326	-1055
969.412	-886
969.497	-811
969.583	-612
969.669	-293
969.755	-1153
969.840	-307
969.926	-1057
970.012	-369
970.097	-90
970.183	-969
970.268	79
970.354	-545
970.439	380
970.525	2779
970.610	2117
970.696	-259
970.781	-304
970.866	-429
970.952	-1640
971.037	-1203
971.122	-1324
971.208	49
971.293	-934
971.378	-654
971.463	-424
971.549	161
971.634	-109
971.719	-591
971.804	-435
971.889	386
971.974	-476
972.059	-404
972.144	147
972.229	-529
972.314	-978
972.399	188
972.484	-539
972.569	-1033
972.654	-994
972.739	110
972.824	1682
972.908	823
972.993	-932
973.078	-1003
973.163	-678
973.247	-798
973.332	-1604
973.417	745
973.501	-1356
973.586	-267
973.671	-845
973.755	-643
973.840	-658
973.924	79
974.009	-1028
974.093	-477
974.178	-749
974.262	-83
974.346	1269
974.431	21
974.515	-883
974.600	-833
974.684	-742
974.768	-861
974.852	-1
974.937	-41
975.021	-544
975.105	-194
975.189	-402
975.273	-1367
975.358	-547
975.442	-971
975.526	-999
975.610	-1253
975.694	-1202
975.778	-326
975.862	-360
975.946	-2163
976.030	-869
976.114	-1049
976.198	-1037
976.281	-1374
976.365	-921
976.449	-1144
976.533	-450
976.617	-1206
976.700	-239
976.784	-1221
976.868	-766
976.951	155
977.035	-98
977.119	-853
977.202	-1732
977.286	-1061
977.369	-821
977.453	-824
977.536	-1472
977.620	-997
977.703	-1000
977.787	-851
977.870	-232
977.953	-473
978.037	-825
978.120	77
978.203	-723
978.287	225
978.370	1007
978.453	-585
978.536	-996
978.620	-259
978.703	-409
978.786	-112
978.869	-1276
978.952	-1315
979.035	-168
979.118	-345
979.201	-1011
979.284	-368
979.367	-1368
979.450	-1116
979.533	-1351
979.616	-1457
979.699	-1260
979.782	-1107
979.865	-1101
979.948	-237
980.030	-1507
980.113	-278
980.196	-1151
980.279	-726
980.361	-1440
980.444	-1032
980.526	-1531
980.609	-1200
980.692	-1066
980.774	-1128
980.857	-1237
980.939	-1079
981.022	-1551
981.104	-1312
981.187	-1412
981.269	-1267
981.352	-2024
981.434	-889
981.516	-1505
981.599	-18
981.681	-1293
981.763	-863
981.846	-1009
981.928	-1133
982.010	-1751
982.092	-1321
982.174	-1319
982.256	-1103
982.339	-1842
982.421	-1036
982.503	-955
982.585	-1035
982.667	-712
982.749	-519
982.831	-1604
982.913	-1385
982.995	-676
983.077	-836
983.158	-1461
983.240	-1859
983.322	-997
983.404	-1338
983.486	-1487
983.568	-850
983.649	-1120
983.731	-1340
983.813	-1489
983.894	-604
983.976	-1961
984.058	-1256
984.139	-1022
984.221	-1337
984.302	-1023
984.384	-979
984.465	-919
984.547	-462
984.628	-1868
984.710	-1173
984.791	-1624
984.872	-1038
984.954	-1373
985.035	-1271
985.116	-1492
985.198	-723
985.279	-1127
985.360	-1071
985.441	-1715
985.522	-1329
985.604	-1688
985.685	-1518
985.766	-1150
985.847	-861
985.928	-1513
986.009	-1462
986.090	-692
986.171	-993
986.252	-1583
986.333	-975
986.414	-1270
986.495	-1318
986.576	-1661
986.656	-1152
986.737	-1383
986.818	-1361
986.899	-2003
986.980	-1540
987.060	-1137
987.141	-1469
987.222	-833
987.302	-260
987.383	-1452
987.464	-1967
987.544	-990
987.625	-1565
987.705	-548
987.786	-1310
987.866	-1302
987.947	-1478
988.027	-2214
988.108	-1359
988.188	-1206
988.268	-1747
988.349	-733
988.429	-1586
988.509	-1260
988.589	-1100
988.670	-2382
988.750	-1055
988.830	-1249
988.910	-1606
988.990	-2390
989.070	-1799
989.151	-1876
989.231	-1880
989.311	-1543
989.391	-1221
989.471	-1260
989.551	-670
989.631	-1398
989.711	-584
989.791	-1097
989.870	-1495
989.950	-1331
990.030	-1389
990.110	-709
990.190	-942
990.269	-2262
990.349	-1387
990.429	-1193
990.509	-573
990.588	-1788
990.668	-1132
990.747	-1596
990.827	-902
990.907	-1641
990.986	-1700
991.066	-1909
991.145	-1463
991.225	-1585
991.304	-1667
991.383	-1136
991.463	-498
991.542	-1102
991.622	-893
991.701	-1314
991.780	-1728
991.859	-879
991.939	-1321
992.018	-2302
992.097	-1742
992.176	-1704
992.256	-835
992.335	-1416
992.414	-1437
992.493	-2338
992.572	-1822
992.651	-1102
992.730	-848
992.809	-1896
992.888	-1406
992.967	-1474
993.046	-1648
993.125	-2056
993.203	-1665
993.282	-1004
993.361	-1201
993.440	-825
993.519	-1604
993.597	-617
993.676	-339
993.755	-1001
993.834	-1837
993.912	-1392
993.991	-1039
994.069	-1263
994.148	-1269
994.226	-2024
994.305	-1012
994.384	-1438
994.462	-478
994.540	-1457
994.619	-1954
994.697	-1791
994.776	-1966
994.854	-1463
994.932	-1825
995.011	-1601
995.089	-1033
995.167	-1379
995.245	-1896
995.324	-1671
995.402	-168
995.480	-1732
995.558	-1082
995.636	-1956
995.714	-2060
995.792	-665
995.870	-2205
995.948	-1188
996.026	-1263
996.104	-2800
996.182	-580
996.260	-1592
996.338	-1730
996.416	-1786
996.494	-1077
996.572	-1304
996.649	-1054
996.727	-2322
996.805	-798
996.883	-1657
996.960	-1587
997.038	-1361
997.116	-1169
997.193	-1325
997.271	-1161
997.348	-2253
997.426	-996
997.504	-2232
997.581	-261
997.658	-993
997.736	-968
997.813	-1596
997.891	-966
997.968	-1508
998.046	-1398
998.123	-1981
998.200	-885
998.277	-2237
998.355	-1020
998.432	-2286
998.509	-564
998.586	-258
998.663	-1139
998.741	-1636
998.818	-1520
998.895	-1417
998.972	-1286
999.049	-2277
999.126	-1697
999.203	-778
999.280	-1200
999.357	-2020
999.434	-1278
999.511	-1182
999.587	-411
999.664	-1501
999.741	-882
999.818	-1338
999.895	-1435
999.971	-1138
1000.048	-1335
1000.125	-1250
1000.202	-1263
1000.278	-1799
1000.355	-1207
1000.431	-1879
1000.508	-1552
1000.584	-769
1000.661	-1562
1000.738	-1376
1000.814	-1578
1000.890	-1439
1000.967	-1431
1001.043	-1740
1001.120	-1702
1001.196	-1413
1001.272	-1509
1001.349	-826
1001.425	-2100
1001.501	-1694
1001.577	-1954
1001.654	-1423
1001.730	-1247
1001.806	-1964
1001.882	-1843
1001.958	-1499
1002.034	-963
1002.110	-1491
1002.186	-1533
1002.262	-1413
1002.338	-1539
1002.414	-1111
1002.490	-801
1002.566	-1626
1002.642	-1597
1002.718	-1373
1002.794	-1221
1002.870	-783
1002.945	-1735
1003.021	-2087
1003.097	-1077
1003.173	-1524
1003.248	-1050
1003.324	-1340
1003.400	-1261
1003.475	-2097
1003.551	-1030
1003.626	-1723
1003.702	-997
1003.777	-1617
1003.853	-1374
1003.928	-1177
1004.004	-1496
1004.079	-1703
1004.155	-1326
1004.230	-1520
1004.305	32
1004.381	-1633
1004.456	-1497
1004.531	-1329
1004.607	-1324
1004.682	-1991
1004.757	-1838
1004.832	-1482
1004.907	-1219
1004.982	-1500
1005.057	-637
1005.133	-1160
1005.208	-1274
1005.283	-1931
1005.358	-716
1005.433	-1484
1005.508	-1313
1005.583	-2133
1005.657	-1357
1005.732	-492
1005.807	-457
1005.882	-1355
1005.957	-671
1006.032	-1060
1006.106	-1381
1006.181	-1668
1006.256	-1281
1006.331	-2805
1006.405	-1909
1006.480	-1063
1006.554	-2098
1006.629	-1559
1006.704	-1533
1006.778	-2030
1006.853	-1214
1006.927	-1943
1007.002	-1704
1007.076	-1281
1007.150	-1648
1007.225	-2120
1007.299	-1131
1007.373	-2018
1007.448	-2120
1007.522	-1603
1007.596	-1497
1007.671	-1046
1007.745	-960
1007.819	-1754
1007.893	-1421
1007.967	-949
1008.041	-2125
1008.115	-1377
1008.190	-1397
1008.264	-1743
1008.338	-1754
1008.412	-1629
1008.486	-657
1008.560	-1823
1008.633	-1430
1008.707	-2084
1008.781	-1329
1008.855	-1141
1008.929	-1794
1009.003	-2111
1009.076	-2140
1009.150	-1753
1009.224	-1815
1009.298	-1835
1009.371	-1359
1009.445	-834
1009.519	-663
1009.592	-1648
1009.666	-781
1009.739	-1269
1009.813	-2072
1009.886	-1201
1009.960	-2545
1010.033	-1073
1010.107	-1390
1010.180	-1632
1010.253	-1363
1010.327	-1296
1010.400	-1038
1010.473	-2114
1010.547	-1030
1010.620	-1309
1010.693	-1307
1010.766	-1890
1010.840	-1022
1010.913	-1594
1010.986	-1450
1011.059	-1324
1011.132	-1392
1011.205	-1940
1011.278	-1481
1011.351	-1647
1011.424	-1880
1011.497	-1543
1011.570	-1662
1011.643	-2084
1011.716	-1609
1011.789	-1594
1011.862	-702
1011.934	-1959
1012.007	-1932
1012.080	-1746
1012.153	-404
1012.225	-1330
1012.298	-1551
1012.371	-1415
1012.443	-1799
1012.516	-2164
1012.588	-1100
1012.661	-1643
1012.733	-1766
1012.806	-1511
1012.879	-1069
1012.951	-1206
1013.023	-1002
1013.096	-1983
1013.168	-1899
1013.241	-1301
1013.313	-968
1013.385	-1821
1013.458	-1432
1013.530	-1165
1013.602	-1252
1013.674	-1363
1013.746	-2421
1013.819	-1795
1013.891	-1061
1013.963	-2034
1014.035	-1773
1014.107	-1398
1014.179	-457
1014.251	-2801
1014.323	-660
1014.395	-1830
1014.467	-1172
1014.539	-1583
1014.611	-2109
1014.683	-1587
1014.754	-1735
1014.826	-1716
1014.898	-1885
1014.970	-2183
1015.042	-1295
1015.113	-1310
1015.185	-1865
1015.257	-2032
1015.328	-1742
1015.400	-2162
1015.471	-1652
1015.543	-2414
1015.615	-1420
1015.686	-2168
1015.757	-2063
1015.829	-1395
1015.901	-600
1015.972	-1294
1016.043	-2465
1016.115	-1648
1016.186	-1267
1016.257	-2226
1016.328	-568
1016.400	-1476
1016.471	-1530
1016.542	-1543
1016.613	-1677
1016.685	-2638
1016.756	-1502
1016.827	-2440
1016.898	-1640
1016.969	-1490
1017.040	-1414
1017.111	-1253
1017.182	-2176
1017.253	-2493
1017.324	-2579
1017.395	-1590
1017.466	-1726
1017.537	-1980
1017.608	-2158
1017.678	-2011
1017.749	-1749
1017.820	-1586
1017.891	-2314
1017.961	-2094
1018.032	-1130
1018.103	-1258
1018.173	-1217
1018.244	-2197
1018.315	-2363
1018.385	-1046
1018.456	-2284
1018.526	-2089
1018.597	-2232
1018.667	-1594
1018.738	-1412
1018.808	-2304
1018.878	-1304
1018.949	-2095
1019.019	-1413
1019.089	-1798
1019.160	-1908
1019.230	-2386
1019.300	-1531
1019.371	-2381
1019.441	-1029
1019.511	-1878
1019.581	-1812
1019.651	-1705
1019.721	-1139
1019.791	-1638
1019.861	-1923
1019.931	-2178
1020.001	-1875
1020.071	-1109
1020.141	-1578
1020.211	-1927
1020.281	-1921
1020.351	-2131
1020.421	-1032
1020.491	-1060
1020.560	-1481
1020.630	-2037
1020.700	-1803
1020.770	-1582
1020.839	-1229
1020.909	-1968
1020.979	-1219
1021.048	-1942
1021.118	-1573
1021.187	-1989
1021.257	-1585
1021.326	-1301
1021.396	-2086
1021.465	-2342
1021.535	-1201
1021.604	-2635
1021.674	-1710
1021.743	-1823
1021.812	-832
1021.882	-2316
1021.951	-1253
1022.020	-1684
1022.089	-1100
1022.159	-1804
1022.228	-809
1022.297	-2392
1022.366	-1646
1022.435	-1950
1022.504	-1599
1022.573	-2808
1022.642	-1261
1022.711	-2577
1022.781	-2061
1022.849	-1785
1022.918	-2669
1022.987	-1964
1023.056	-2004
1023.125	-1716
1023.194	-2240
1023.263	-1933
1023.331	-1359
1023.400	-1939
1023.469	-1432
1023.538	-1345
1023.606	-2492
1023.675	-1600
1023.744	-2459
1023.812	-1991
1023.881	-956
1023.949	-1696
1024.018	-2399
1024.086	-2289
1024.155	-1553
1024.223	-2173
1024.292	-1179
1024.360	-2317
1024.429	-2180
1024.497	-2348
1024.565	-1339
1024.634	-2662
1024.702	-1854
1024.770	-1916
1024.838	-1775
1024.907	-1346
1024.975	-1731
1025.043	-1917
1025.111	-2015
1025.179	-1953
1025.247	-1980
1025.315	-1670
1025.383	-1518
1025.451	-1992
1025.519	-1206
1025.587	-1808
1025.655	-1435
1025.723	-3023
1025.791	-1512
1025.859	-2093
1025.927	-557
1025.995	-1350
1026.062	-1914
1026.130	-2513
1026.198	-1724
1026.266	-2536
1026.333	-1209
1026.401	-1743
1026.469	-1813
1026.536	-1971
1026.604	-1839
1026.671	-1075
1026.739	-969
1026.806	-1906
1026.874	-1819
1026.941	-1975
1027.009	-1792
1027.076	-1987
1027.144	-1689
1027.211	-1620
1027.278	-2410
1027.345	-1755
1027.413	-2140
1027.480	-1939
1027.547	-2367
1027.614	-2055
1027.682	-1974
1027.749	-1747
1027.816	-2080
1027.883	-2192
1027.950	-1613
1028.017	-1901
1028.084	-1758
1028.151	-2411
1028.218	-2188
1028.285	-1568
1028.352	-1982
1028.419	-2275
1028.486	-1670
1028.553	-1811
1028.619	-1494
1028.686	-1027
1028.753	-2035
1028.820	-1717
1028.886	-1252
1028.953	-1678
1029.020	-2198
1029.086	-1770
1029.153	-1629
1029.220	-1981
1029.286	-1783
1029.353	-2155
1029.419	-1306
1029.486	-2376
1029.552	-1084
1029.619	-2007
1029.685	-2435
1029.751	-1845
1029.818	-1529
1029.884	-2136
1029.951	-1304
1030.017	-1960
1030.083	-1053
1030.149	-2276
1030.216	-1726
1030.282	-1200
1030.348	-1923
1030.414	-2356
1030.480	-1761
1030.546	-1941
1030.612	-1397
1030.678	-1800
1030.744	-2287
1030.810	-2329
1030.876	-1903
1030.942	-2366
1031.008	-2571
1031.074	-1866
1031.140	-1605
1031.206	-818
1031.272	-1500
1031.337	-1458
1031.403	-1853
1031.469	-1270
1031.534	-1901
1031.600	-1453
1031.666	-1852
1031.731	-1762
1031.797	-1543
1031.863	-2413
1031.928	-1661
1031.994	-2357
1032.059	-1787
1032.125	-2244
1032.190	-1730
1032.256	-1885
1032.321	-1811
1032.386	-2732
1032.452	-836
1032.517	-1796
1032.582	-2535
1032.647	-1350
1032.713	-2538
1032.778	-1862
1032.843	-2299
1032.908	-2543
1032.974	-1973
1033.039	-3187
1033.104	-1758
1033.169	-2110
1033.234	-1674
1033.299	-1928
1033.364	-993
1033.429	-1827
1033.494	-1642
1033.559	-2408
1033.624	-1659
1033.688	-1847
1033.753	-1983
1033.818	-2173
1033.883	-1609
1033.948	-1156
1034.013	-1617
1034.077	-2239
1034.142	-2008
1034.207	-2668
1034.271	-2039
1034.336	-2060
1034.400	-1435
1034.465	-2241
1034.530	-2129
1034.594	-2094
1034.658	-1625
1034.723	-1117
1034.787	-331
1034.852	-1540
1034.916	-1828
1034.981	-2046
1035.045	-1368
1035.109	-1304
1035.173	-1525
1035.238	-2355
1035.302	-1038
1035.366	-1780
1035.430	-1582
1035.495	-2091
1035.559	-1422
1035.623	-1996
1035.687	-1650
1035.751	-1865
1035.815	-1973
1035.879	-1699
1035.943	-1893
1036.007	-1828
1036.071	-1812
1036.135	-1831
1036.198	-1863
1036.262	-1716
1036.326	-2115
1036.390	-2084
1036.454	-1286
1036.517	-1269
1036.581	-1631
1036.645	-1912
1036.709	-648
1036.772	-1980
1036.836	-1335
1036.900	-2194
1036.963	-1732
1037.026	-1451
1037.090	-1889
1037.154	-1728
1037.217	-1869
1037.280	-1938
1037.344	-2170
1037.407	-2166
1037.471	-1015
1037.534	-2497
1037.597	-2063
1037.661	-2243
1037.724	-1708
1037.787	-2248
1037.850	-1686
1037.913	-1697
1037.977	-863
1038.040	-1883
1038.103	-2263
1038.166	-1446
1038.229	-1343
1038.292	-1805
1038.355	-1964
1038.418	-1969
1038.481	-2015
1038.544	-2069
1038.607	-2082
1038.670	-2784
1038.732	-994
1038.795	-2008
1038.858	-2623
1038.921	-1114
1038.984	-1821
1039.046	-2649
1039.109	-1847
1039.172	-2212
1039.234	-2313
1039.297	-1388
1039.360	-1665
1039.422	-1872
1039.485	-1424
1039.547	-2182
1039.610	-2076
1039.672	-2337
1039.734	-1914
1039.797	-2131
1039.859	-986
1039.922	-2406
1039.984	-1319
1040.046	-2616
1040.109	-2471
1040.171	-2585
1040.233	-1691
1040.295	-2525
1040.358	-1867
1040.420	-1899
1040.482	-2041
1040.544	-2086
1040.606	-1928
1040.668	-2394
1040.730	-1575
1040.792	-2054
1040.854	-1572
1040.916	-1940
1040.978	-1986
1041.040	-2240
1041.102	-1478
1041.164	-2530
1041.225	-1733
1041.287	-2291
1041.349	-1694
1041.411	-1613
1041.472	-1601
1041.534	-2277
1041.596	-1397
1041.657	-1841
1041.719	-2154
1041.781	-1721
1041.842	-1322
1041.904	-2392
1041.965	-1763
1042.027	-1744
1042.088	-2091
1042.150	-1727
1042.211	-2114
1042.272	-2020
1042.334	-2076
1042.395	-1225
1042.456	-1826
1042.518	-1709
1042.579	-1683
1042.640	-2442
1042.701	-1168
1042.763	-1673
1042.824	-2020
1042.885	-1172
1042.946	-2334
1043.007	-1959
1043.068	-2483
1043.129	-2277
1043.190	-2247
1043.251	-2023
1043.312	-2194
1043.373	-1975
1043.434	-2293
1043.495	-1909
1043.556	-1388
1043.616	-2156
1043.677	-2007
1043.738	-1916
1043.799	-1314
1043.859	-2202
1043.920	-1334
1043.981	-1895
1044.041	-2223
1044.102	-1311
1044.162	-1662
1044.223	-1665
1044.284	-2783
1044.344	-1714
1044.405	-2401
1044.465	-2110
1044.525	-1952
1044.586	-1861
1044.646	-1729
1044.707	-1737
1044.767	-1772
1044.827	-1492
1044.887	-1269
1044.948	-1286
1045.008	-1934
1045.068	-1197
1045.128	-1822
1045.188	-1420
1045.249	-1876
1045.309	-2202
1045.369	-2139
1045.429	-1780
1045.489	-1937
1045.549	-1893
1045.609	-1654
1045.669	-2121
1045.729	-2096
1045.789	-2930
1045.848	-1758
1045.908	-1615
1045.968	-1409
1046.028	-1268
1046.088	-1419
1046.147	-1400
1046.207	-1878
1046.267	-2011
1046.326	-1306
1046.386	-1519
1046.446	-1636
1046.505	-1671
1046.565	-1285
1046.624	-691
1046.684	-1073
1046.743	-1111
1046.803	-1533
1046.862	-1131
1046.922	0
