'Start Wavelength	183.907
'End Wavelength	1046.922
'Gate Delay	5.000
'Gate Width (ms)	1.050
'Laser Output Level	0.000
'X Position	0.000
'Y Position	0.000
'Z Position	0.000
'Grid Point Number	1.000
'Shot Number	100.000
183.907	-447.000
183.977	-557.000
184.047	123
184.116	36
184.186	-171
184.256	-437
184.325	753
184.395	-621
184.465	689
184.534	51
184.604	-321
184.674	-549
184.743	-355
184.813	200
184.883	319
184.952	97
185.022	78
185.092	233
185.161	-147
185.231	94
185.301	46
185.370	101
185.440	15
185.509	-588
185.579	-232
185.649	199
185.718	537
185.788	-2
185.857	210
185.927	898
185.996	-853
186.066	-264
186.136	-1049
186.205	-338
186.275	575
186.344	-335
186.414	-461
186.483	-396
186.553	251
186.622	846
186.692	-413
186.761	-354
186.831	746
186.900	-1432
186.970	684
187.039	446
187.109	1004
187.178	154
187.248	-612
187.317	-70
187.387	122
187.456	641
187.526	850
187.595	-402
187.664	94
187.734	-347
187.803	514
187.873	528
187.942	916
188.012	321
188.081	181
188.150	-509
188.220	424
188.289	499
188.358	797
188.428	453
188.497	-851
188.567	168
188.636	587
188.705	412
188.775	169
188.844	104
188.913	1233
188.983	139
189.052	895
189.121	-326
189.191	268
189.260	783
189.329	435
189.399	656
189.468	-18
189.537	327
189.606	1074
189.676	339
189.745	878
189.814	802
189.883	-327
189.953	943
190.022	871
190.091	1815
190.161	2825
190.230	1007
190.299	1586
190.368	-65
190.437	196
190.507	224
190.576	-432
190.645	1
190.714	80
190.783	364
190.853	880
190.922	208
190.991	-250
191.060	26
191.129	-83
191.198	71
191.268	308
191.337	890
191.406	1619
191.475	369
191.544	408
191.613	108
191.682	179
191.752	614
191.821	742
191.890	692
191.959	708
192.028	206
192.097	766
192.166	129
192.235	375
192.304	804
192.373	366
192.442	196
192.511	199
192.580	106
192.650	992
192.719	789
192.788	1213
192.857	379
192.926	597
192.995	815
193.064	647
193.133	2371
193.202	3083
193.271	2830
193.340	2695
193.409	1873
193.478	3209
193.547	3356
193.615	4619
193.684	3993
193.753	2726
193.822	2118
193.891	588
193.960	1417
194.029	718
194.098	750
194.167	989
194.236	570
194.305	636
194.374	283
194.443	7
194.512	604
194.580	879
194.649	1150
194.718	1217
194.787	-45
194.856	663
194.925	-110
194.994	1218
195.062	553
195.131	713
195.200	794
195.269	931
195.338	1125
195.407	1220
195.475	737
195.544	1051
195.613	748
195.682	1107
195.751	1206
195.819	917
195.888	950
195.957	1312
196.026	1552
196.094	1207
196.163	1213
196.232	2400
196.301	832
196.369	1766
196.438	1711
196.507	916
196.576	1446
196.644	756
196.713	544
196.782	655
196.850	840
196.919	1355
196.988	1332
197.056	843
197.125	1358
197.194	1003
197.262	621
197.331	1102
197.400	717
197.468	747
197.537	1307
197.606	1726
197.674	2151
197.743	4067
197.812	1885
197.880	3412
197.949	2539
198.017	4049
198.086	3078
198.155	2368
198.223	2144
198.292	3286
198.360	2864
198.429	1052
198.497	1579
198.566	3018
198.635	4279
198.703	2632
198.772	2080
198.840	4589
198.909	4348
198.977	1989
199.046	1081
199.114	1690
199.183	1362
199.251	2065
199.320	859
199.388	1628
199.457	616
199.525	1221
199.594	1224
199.662	1478
199.731	1345
199.799	1241
199.867	1036
199.936	1975
200.004	1223
200.073	1497
200.141	1075
200.210	578
200.278	1184
200.346	1629
200.415	2032
200.483	2496
200.552	1258
200.620	1793
200.688	1661
200.757	1209
200.825	1215
200.893	1577
200.962	1499
201.030	1643
201.098	704
201.167	1493
201.235	1630
201.303	1684
201.372	1136
201.440	1051
201.508	1994
201.577	1648
201.645	1850
201.713	1084
201.781	951
201.850	2629
201.918	1252
201.986	1837
202.055	1019
202.123	1306
202.191	2089
202.259	1622
202.327	1080
202.396	1257
202.464	1926
202.532	2023
202.600	4181
202.669	3047
202.737	1727
202.805	1539
202.873	2151
202.941	2322
203.009	1912
203.078	2093
203.146	1499
203.214	2123
203.282	1271
203.350	2190
203.418	1178
203.487	2251
203.555	1670
203.623	2001
203.691	1682
203.759	1720
203.827	616
203.895	1889
203.963	1980
204.031	2112
204.099	1458
204.168	1782
204.236	2106
204.304	1741
204.372	1416
204.440	2406
204.508	2013
204.576	1203
204.644	2059
204.712	2396
204.780	1934
204.848	2546
204.916	1545
204.984	2379
205.052	1978
205.120	1988
205.188	1395
205.256	1957
205.324	1155
205.392	2182
205.460	2676
205.528	2335
205.596	2229
205.664	2017
205.732	1988
205.799	5302
205.867	9052
205.935	3177
206.003	3404
206.071	2318
206.139	2741
206.207	2320
206.275	2241
206.343	2016
206.411	2493
206.478	2554
206.546	2076
206.614	2520
206.682	2342
206.750	2668
206.818	3511
206.885	3668
206.953	1313
207.021	3185
207.089	2713
207.157	2826
207.225	3401
207.292	2978
207.360	2435
207.428	3150
207.496	2704
207.563	2149
207.631	2070
207.699	2791
207.767	2225
207.834	3174
207.902	2747
207.970	3036
208.038	2384
208.105	2666
208.173	2168
208.241	3831
208.309	5157
208.376	3587
208.444	5713
208.512	3673
208.579	1923
208.647	2928
208.715	3422
208.782	2822
208.850	2689
208.918	3240
208.985	3262
209.053	2435
209.120	3244
209.188	2898
209.256	2354
209.323	2793
209.391	3512
209.459	4040
209.526	3240
209.594	3168
209.661	3076
209.729	2942
209.796	3363
209.864	3206
209.932	2210
209.999	4201
210.067	3786
210.134	3818
210.202	3357
210.269	4628
210.337	3303
210.404	3323
210.472	3206
210.539	3607
210.607	3202
210.674	4429
210.742	3503
210.809	3370
210.877	4276
210.944	4191
211.012	2689
211.079	5399
211.146	3926
211.214	3943
211.281	4007
211.349	5653
211.416	3256
211.484	4723
211.551	3586
211.618	3485
211.686	3458
211.753	3169
211.821	4047
211.888	3311
211.955	4206
212.023	4157
212.090	3515
212.157	4290
212.225	4342
212.292	7255
212.359	11717
212.427	23259
212.494	13609
212.561	6966
212.629	5539
212.696	5141
212.763	5144
212.831	4110
212.898	4725
212.965	3891
213.032	4713
213.100	4702
213.167	4807
213.234	5344
213.301	4072
213.369	4208
213.436	3649
213.503	3641
213.570	4118
213.638	3821
213.705	3425
213.772	3543
213.839	4561
213.906	5456
213.973	4388
214.041	3986
214.108	4208
214.175	4355
214.242	3846
214.309	4894
214.376	4114
214.444	4614
214.511	5163
214.578	4366
214.645	5086
214.712	5420
214.779	5218
214.846	4190
214.913	5893
214.980	6346
215.048	6006
215.115	6265
215.182	5792
215.249	5468
215.316	4458
215.383	5266
215.450	4253
215.517	3874
215.584	4134
215.651	3560
215.718	3760
215.785	4613
215.852	3071
215.919	4251
215.986	4731
216.053	4521
216.120	3662
216.187	4248
216.254	3886
216.321	3671
216.388	3999
216.455	4505
216.522	4428
216.589	4945
216.656	6552
216.722	8133
216.789	6901
216.856	7487
216.923	6793
216.990	7297
217.057	6844
217.124	7182
217.191	7910
217.258	9282
217.324	10501
217.391	10832
217.458	8716
217.525	7095
217.592	6603
217.659	5472
217.725	6503
217.792	6374
217.859	6857
217.926	4568
217.993	4783
218.059	4739
218.126	3695
218.193	3990
218.260	3938
218.327	3570
218.393	4324
218.460	3555
218.527	3167
218.594	3796
218.660	5991
218.727	6421
218.794	3491
218.860	4145
218.927	3914
218.994	3197
219.061	2441
219.127	3621
219.194	5298
219.261	3216
219.327	2459
219.394	3712
219.461	2447
219.527	3631
219.594	3869
219.661	3526
219.727	2497
219.794	4340
219.860	3552
219.927	3662
219.994	5389
220.060	8505
220.127	6292
220.193	6479
220.260	6821
220.326	11061
220.393	14919
220.460	17343
220.526	12248
220.593	9344
220.659	9977
220.726	9568
220.792	17370
220.859	19859
220.925	23625
220.992	29405
221.058	26089
221.125	23404
221.191	17938
221.258	9738
221.324	8078
221.391	6436
221.457	4855
221.524	5790
221.590	7044
221.657	17891
221.723	13598
221.789	11804
221.856	11736
221.922	7643
221.989	5541
222.055	4910
222.121	3496
222.188	5501
222.254	5566
222.321	3697
222.387	2173
222.453	3814
222.520	3244
222.586	2988
222.652	4223
222.719	3226
222.785	3790
222.851	3623
222.918	3527
222.984	2831
223.050	3036
223.116	2175
223.183	4512
223.249	3091
223.315	2671
223.382	2978
223.448	2663
223.514	2379
223.580	2085
223.647	2369
223.713	2964
223.779	3100
223.845	2844
223.911	3153
223.978	3143
224.044	3228
224.110	2253
224.176	3779
224.242	1886
224.309	2209
224.375	1707
224.441	2998
224.507	1931
224.573	2239
224.639	3107
224.705	2142
224.772	2834
224.838	2577
224.904	2468
224.970	2325
225.036	2663
225.102	2545
225.168	3363
225.234	3094
225.300	2393
225.366	3016
225.432	2335
225.499	2615
225.565	2878
225.631	3607
225.697	4182
225.763	4845
225.829	6872
225.895	6163
225.961	7242
226.027	7249
226.093	6749
226.159	10196
226.225	15247
226.291	32223
226.357	46454
226.423	27378
226.489	14938
226.554	11238
226.620	10350
226.686	10558
226.752	16886
226.818	31114
226.884	58833
226.950	53275
227.016	26398
227.082	14469
227.148	10235
227.214	8484
227.279	7091
227.345	6080
227.411	5459
227.477	5604
227.543	9242
227.609	9559
227.674	6814
227.740	4939
227.806	5596
227.872	5178
227.938	4127
228.003	5569
228.069	4346
228.135	3601
228.201	4106
228.267	4067
228.332	3713
228.398	4334
228.464	4262
228.530	2981
228.595	3362
228.661	2699
228.727	4458
228.792	5560
228.858	2275
228.924	2338
228.990	5526
229.055	2771
229.121	4772
229.187	3628
229.252	2887
229.318	1789
229.384	2894
229.449	3592
229.515	1444
229.581	1943
229.646	3969
229.712	3044
229.777	5522
229.843	6805
229.909	5563
229.974	6309
230.040	6104
230.105	4274
230.171	4903
230.236	8287
230.302	9232
230.368	7539
230.433	4578
230.499	6651
230.564	5270
230.630	5009
230.695	5086
230.761	5212
230.826	2828
230.892	5898
230.957	3865
231.023	4022
231.088	4141
231.154	3645
231.219	4345
231.284	4737
231.350	5517
231.415	3818
231.481	3599
231.546	4188
231.612	3196
231.677	3552
231.742	1984
231.808	4035
231.873	2607
231.939	1974
232.004	5139
232.069	6068
232.135	3773
232.200	3305
232.265	2577
232.331	3813
232.396	2367
232.461	2603
232.527	2819
232.592	2329
232.657	3041
232.723	2711
232.788	2842
232.853	3566
232.918	2892
232.984	2270
233.049	2680
233.114	2056
233.179	3980
233.245	3544
233.310	4781
233.375	2009
233.440	3746
233.506	3286
233.571	3517
233.636	2507
233.701	2685
233.766	2901
233.832	3578
233.897	3661
233.962	1720
234.027	4789
234.092	2460
234.157	1475
234.222	2799
234.288	4202
234.353	7399
234.418	7337
234.483	6568
234.548	5641
234.613	4830
234.678	5261
234.743	3499
234.808	8506
234.873	5910
234.938	5756
235.004	4424
235.069	4650
235.134	3857
235.199	4461
235.264	4643
235.329	3025
235.394	4991
235.459	5006
235.524	3611
235.589	4248
235.654	3142
235.719	2577
235.784	4392
235.849	4147
235.913	5070
235.978	4897
236.043	5811
236.108	4296
236.173	3942
236.238	5829
236.303	4517
236.368	5304
236.433	7422
236.498	8447
236.563	10013
236.627	23194
236.692	72797
236.757	66575
236.822	27538
236.887	15910
236.952	15444
237.017	11288
237.081	13108
237.146	17079
237.211	37538
237.276	72142
237.341	104193
237.405	58140
237.470	25256
237.535	15271
237.600	11159
237.664	9063
237.729	7087
237.794	10515
237.859	24121
237.923	13549
237.988	7679
238.053	6941
238.118	6692
238.182	11801
238.247	11794
238.312	5366
238.376	5935
238.441	3283
238.506	6146
238.570	3258
238.635	5342
238.700	4281
238.764	3252
238.829	6015
238.893	5850
238.958	5571
239.023	5339
239.087	3636
239.152	4742
239.216	3519
239.281	4354
239.346	3665
239.410	3652
239.475	3859
239.539	9681
239.604	8667
239.668	5793
239.733	4053
239.797	5630
239.862	12390
239.926	10118
239.991	5556
240.055	4309
240.120	3262
240.184	3764
240.249	2986
240.313	3017
240.378	3296
240.442	5328
240.507	8943
240.571	3895
240.635	3121
240.700	5742
240.764	3806
240.829	3049
240.893	1846
240.957	3480
241.022	5390
241.086	7814
241.151	4501
241.215	2075
241.279	4350
241.344	3597
241.408	4905
241.472	4995
241.537	6751
241.601	6270
241.665	3318
241.730	4181
241.794	7015
241.858	5028
241.922	5527
241.987	5221
242.051	4660
242.115	3899
242.179	5028
242.244	4310
242.308	6121
242.372	4940
242.436	5358
242.501	5400
242.565	2938
242.629	3731
242.693	5471
242.757	3938
242.822	4769
242.886	4851
242.950	5827
243.014	3575
243.078	4910
243.142	5486
243.206	4820
243.271	5188
243.335	6221
243.399	10474
243.463	32849
243.527	86514
243.591	31092
243.655	11550
243.719	7175
243.783	8474
243.847	11999
243.911	15421
243.975	11367
244.040	7485
244.104	6976
244.168	4964
244.232	6145
244.296	9676
244.360	13526
244.424	5428
244.488	5208
244.552	4907
244.615	2788
244.679	3836
244.743	5060
244.807	4492
244.871	4336
244.935	4127
244.999	2579
245.063	3049
245.127	4692
245.191	9636
245.255	10072
245.319	5502
245.383	4216
245.446	5230
245.510	3454
245.574	3683
245.638	4505
245.702	2964
245.766	10071
245.829	7307
245.893	3213
245.957	3817
246.021	5157
246.085	3954
246.149	5334
246.212	11390
246.276	19491
246.340	8469
246.404	6828
246.467	6589
246.531	8092
246.595	6351
246.659	5998
246.722	4800
246.786	5809
246.850	5608
246.913	9399
246.977	3629
247.041	4258
247.104	4890
247.168	4711
247.232	10620
247.295	24352
247.359	12546
247.423	6135
247.486	9727
247.550	7516
247.614	5217
247.677	6270
247.741	4769
247.804	4663
247.868	5224
247.932	9144
247.995	21389
248.059	8206
248.122	5048
248.186	7303
248.249	10258
248.313	36130
248.376	39280
248.440	26387
248.503	9779
248.567	8583
248.630	10162
248.694	13483
248.757	18725
248.821	42014
248.884	25627
248.948	21653
249.011	30740
249.075	46742
249.138	41167
249.202	16845
249.265	10900
249.328	10712
249.392	8392
249.455	9269
249.519	7562
249.582	8443
249.645	12150
249.709	10809
249.772	7165
249.835	7534
249.899	7439
249.962	7860
250.025	7463
250.089	16627
250.152	21796
250.215	12267
250.279	8470
250.342	9367
250.405	9538
250.468	8786
250.532	12000
250.595	20732
250.658	77526
250.721	132558
250.785	47785
250.848	25580
250.911	15510
250.974	14520
251.038	16663
251.101	28256
251.164	16484
251.227	16131
251.290	17576
251.354	29102
251.417	106505
251.480	116375
251.543	83868
251.606	189107
251.669	160417
251.732	64142
251.795	49293
251.859	55003
251.922	123063
251.985	79299
252.048	29324
252.111	20971
252.174	16645
252.237	24723
252.300	52932
252.363	67632
252.426	149633
252.489	68473
252.552	28670
252.615	18635
252.678	19862
252.741	41597
252.804	68904
252.867	159472
252.930	87908
252.993	40845
253.056	24176
253.119	16915
253.182	13906
253.245	26811
253.308	20167
253.371	11563
253.434	10543
253.497	11139
253.559	21090
253.622	15012
253.685	13265
253.748	14436
253.811	7650
253.874	8852
253.937	7772
254.000	7797
254.062	13741
254.125	23080
254.188	17797
254.251	16465
254.314	7067
254.376	11498
254.439	14840
254.502	11028
254.565	13415
254.628	25898
254.690	13130
254.753	7598
254.816	5890
254.878	7151
254.941	15327
255.004	17504
255.067	6836
255.129	6115
255.192	4728
255.255	2704
255.317	5990
255.380	4278
255.443	3019
255.505	3255
255.568	3128
255.631	4503
255.693	4203
255.756	3276
255.819	4549
255.881	3406
255.944	3151
256.006	3141
256.069	2938
256.132	3574
256.194	4134
256.257	6670
256.319	5735
256.382	6341
256.444	7193
256.507	6885
256.569	6606
256.632	7715
256.694	10907
256.757	40089
256.819	123979
256.882	55392
256.944	19488
257.007	13973
257.069	11842
257.132	8775
257.194	8536
257.257	7026
257.319	7351
257.381	11403
257.444	30788
257.506	131514
257.569	150375
257.631	49999
257.693	25677
257.756	15844
257.818	10027
257.880	8507
257.943	7385
258.005	6543
258.067	5680
258.130	5582
258.192	6298
258.254	7920
258.317	6455
258.379	5719
258.441	12966
258.503	14048
258.566	9743
258.628	13247
258.690	4890
258.753	6676
258.815	9386
258.877	6740
258.939	5510
259.001	5676
259.064	5393
259.126	4764
259.188	6056
259.250	5693
259.312	6171
259.375	7471
259.437	7811
259.499	5076
259.561	4263
259.623	5151
259.685	4597
259.747	5096
259.809	9090
259.872	16128
259.934	26414
259.996	30310
260.058	10610
260.120	4498
260.182	4917
260.244	4683
260.306	4592
260.368	4459
260.430	3241
260.492	8295
260.554	12502
260.616	6301
260.678	14935
260.740	18354
260.802	5896
260.864	5808
260.926	4168
260.988	5475
261.050	5417
261.112	11722
261.174	23483
261.236	15592
261.298	6638
261.359	7755
261.421	10922
261.483	4889
261.545	4925
261.607	3030
261.669	3932
261.731	5145
261.793	11842
261.854	7120
261.916	5709
261.978	5111
262.040	5438
262.102	3967
262.164	4247
262.225	4160
262.287	3696
262.349	9774
262.411	7795
262.472	4427
262.534	4012
262.596	8746
262.658	4858
262.719	2611
262.781	4066
262.843	7890
262.904	5952
262.966	4515
263.028	6949
263.090	32749
263.151	101754
263.213	34041
263.275	16864
263.336	8226
263.398	6266
263.459	3853
263.521	4114
263.583	9257
263.644	7591
263.706	3780
263.767	1815
263.829	2186
263.891	1952
263.952	3186
264.014	2437
264.075	5544
264.137	15030
264.198	7613
264.260	3021
264.321	3792
264.383	7939
264.444	22606
264.506	7921
264.567	4519
264.629	9597
264.690	21445
264.752	8565
264.813	4852
264.875	3076
264.936	5014
264.998	3742
265.059	4041
265.120	5172
265.182	10980
265.243	63458
265.305	73826
265.366	17279
265.427	8167
265.489	7550
265.550	4325
265.611	4669
265.673	4377
265.734	4080
265.795	4274
265.857	3441
265.918	6179
265.979	18093
266.040	102819
266.102	95866
266.163	23988
266.224	13665
266.286	8174
266.347	4642
266.408	5834
266.469	4886
266.530	3261
266.592	2229
266.653	5225
266.714	9391
266.775	4262
266.836	3234
266.898	3217
266.959	6228
267.020	4600
267.081	4391
267.142	3340
267.203	2388
267.264	2200
267.326	3405
267.387	2385
267.448	2919
267.509	2816
267.570	2492
267.631	2643
267.692	2630
267.753	3512
267.814	2706
267.875	6116
267.936	14399
267.997	8720
268.058	7650
268.119	4850
268.180	2993
268.241	2967
268.302	3386
268.363	2351
268.424	2102
268.485	2955
268.546	1820
268.607	2450
268.668	2383
268.729	2166
268.790	2389
268.851	3796
268.912	7345
268.972	9049
269.033	4312
269.094	2851
269.155	2895
269.216	2477
269.277	2571
269.338	2835
269.398	3048
269.459	3812
269.520	4423
269.581	5396
269.642	5826
269.702	3825
269.763	4311
269.824	3316
269.885	3803
269.945	6889
270.006	3992
270.067	2545
270.128	3069
270.188	2978
270.249	2539
270.310	3007
270.370	3076
270.431	1591
270.492	2912
270.553	2914
270.613	5728
270.674	12249
270.734	4949
270.795	3830
270.856	4860
270.916	3485
270.977	3010
271.038	3947
271.098	3705
271.159	4913
271.219	5750
271.280	3915
271.340	2128
271.401	2815
271.462	4388
271.522	3517
271.583	3792
271.643	3191
271.704	3132
271.764	3535
271.825	9497
271.885	31353
271.946	46651
272.006	14668
272.066	19295
272.127	37907
272.187	11613
272.248	6389
272.308	7064
272.369	25732
272.429	15300
272.489	8624
272.550	8871
272.610	8651
272.671	6517
272.731	5018
272.791	7031
272.852	5178
272.912	5305
272.972	3532
273.033	2031
273.093	4476
273.153	5424
273.214	4890
273.274	4762
273.334	17082
273.394	37264
273.455	12663
273.515	12643
273.575	28707
273.635	11835
273.696	12816
273.756	32083
273.816	13191
273.876	6913
273.936	8972
273.997	14387
274.057	4628
274.117	4378
274.177	8312
274.237	38267
274.297	33418
274.358	14975
274.418	25170
274.478	19558
274.538	6772
274.598	4638
274.658	9695
274.718	12452
274.778	6084
274.838	3781
274.898	5806
274.958	17224
275.018	29364
275.078	21396
275.138	6613
275.198	4103
275.258	3502
275.318	3766
275.378	6402
275.438	8412
275.498	4468
275.558	9193
275.618	22437
275.678	21937
275.738	11238
275.798	9736
275.858	6360
275.918	3592
275.978	3788
276.038	3628
276.098	2813
276.157	6600
276.217	18449
276.277	8384
276.337	5864
276.397	3900
276.457	4816
276.517	3563
276.576	2545
276.636	2665
276.696	4314
276.756	9922
276.815	7959
276.875	3489
276.935	4380
276.995	3723
277.055	3134
277.114	2875
277.174	4494
277.234	16086
277.293	7633
277.353	3364
277.413	3062
277.472	2578
277.532	2926
277.592	3613
277.651	12167
277.711	25517
277.771	8613
277.830	29145
277.890	25442
277.950	16817
278.009	56530
278.069	22073
278.128	18303
278.188	25007
278.248	11595
278.307	27120
278.367	18276
278.426	5557
278.486	4370
278.545	3134
278.605	3473
278.664	2424
278.724	4101
278.783	12479
278.843	36567
278.902	10145
278.962	4924
279.021	5005
279.081	4389
279.140	4296
279.199	5150
279.259	5672
279.318	6152
279.378	8269
279.437	11121
279.496	37719
279.556	112603
279.615	94301
279.675	23170
279.734	13274
279.793	16887
279.853	28214
279.912	11195
279.971	6602
280.031	5714
280.090	10012
280.149	18768
280.208	15522
280.268	75690
280.327	84060
280.386	18367
280.445	14754
280.505	14448
280.564	6681
280.623	6415
280.682	9115
280.742	14878
280.801	4319
280.860	3519
280.919	3298
280.978	2924
281.037	2403
281.097	2743
281.156	3062
281.215	3356
281.274	4247
281.333	19227
281.392	17071
281.451	4205
281.510	2964
281.569	2685
281.628	2642
281.688	3140
281.747	2934
281.806	2751
281.865	2124
281.924	2024
281.983	2233
282.042	1560
282.101	1700
282.160	1735
282.219	2532
282.278	2454
282.337	9626
282.396	7406
282.454	2968
282.513	4034
282.572	13798
282.631	8480
282.690	2657
282.749	2353
282.808	2333
282.867	2593
282.926	3243
282.985	2101
283.043	1961
283.102	1776
283.161	3276
283.220	7505
283.279	19424
283.338	6183
283.396	2996
283.455	3403
283.514	3388
283.573	5919
283.631	3875
283.690	2653
283.749	2186
283.808	5871
283.866	8226
283.925	2545
283.984	3677
284.043	4002
284.101	3993
284.160	2461
284.219	3826
284.277	4067
284.336	5702
284.395	20704
284.453	18893
284.512	6237
284.570	7908
284.629	7304
284.688	6683
284.746	6228
284.805	6569
284.863	8654
284.922	10012
284.981	13620
285.039	20327
285.098	37481
285.156	97219
285.215	231100
285.273	230278
285.332	119933
285.390	57692
285.449	34285
285.507	23920
285.566	16993
285.624	11987
285.683	8519
285.741	6936
285.799	6370
285.858	5896
285.916	5748
285.975	3706
286.033	4059
286.091	3911
286.150	3488
286.208	3392
286.267	3246
286.325	3949
286.383	6208
286.442	5309
286.500	3272
286.558	1985
286.616	3263
286.675	3532
286.733	3650
286.791	3113
286.850	3604
286.908	4290
286.966	8324
287.024	3615
287.083	2886
287.141	2853
287.199	3185
287.257	4704
287.315	3110
287.374	4331
287.432	10563
287.490	7287
287.548	3836
287.606	3713
287.664	4273
287.723	4619
287.781	7548
287.839	4707
287.897	7001
287.955	9786
288.013	17494
288.071	44086
288.129	152009
288.187	366720
288.245	192762
288.303	65807
288.361	37841
288.419	25113
288.477	17991
288.535	13672
288.593	9246
288.651	6976
288.709	4532
288.767	4849
288.825	4198
288.883	3650
288.941	3645
288.999	2875
289.057	2822
289.115	2594
289.173	2413
289.231	3214
289.289	2716
289.346	2235
289.404	3184
289.462	4362
289.520	4681
289.578	2492
289.636	1750
289.694	1869
289.751	1993
289.809	1507
289.867	2682
289.925	3235
289.983	3767
290.040	2235
290.098	2183
290.156	2638
290.214	3043
290.271	2109
290.329	2533
290.387	1153
290.444	1957
290.502	1270
290.560	2195
290.617	1616
290.675	1419
290.733	1174
290.790	2523
290.848	2290
290.906	1929
290.963	2302
291.021	1928
291.078	1665
291.136	1980
291.194	8482
291.251	21807
291.309	6277
291.366	2521
291.424	2319
291.481	2415
291.539	1834
291.596	1738
291.654	816
291.711	2427
291.769	2019
291.826	4339
291.884	2911
291.941	528
291.999	2023
292.056	2112
292.114	1507
292.171	1220
292.228	2463
292.286	2293
292.343	4110
292.401	4685
292.458	3454
292.515	1719
292.573	2869
292.630	2812
292.687	2218
292.745	1959
292.802	3983
292.859	11848
292.917	18517
292.974	11020
293.031	3973
293.089	2860
293.146	2110
293.203	1752
293.260	1734
293.318	2622
293.375	4589
293.432	2810
293.489	1745
293.546	2309
293.604	3904
293.661	11947
293.718	34611
293.775	16890
293.832	6874
293.889	4351
293.947	4255
294.004	3063
294.061	3591
294.118	7475
294.175	19464
294.232	27968
294.289	10719
294.346	6242
294.403	6384
294.460	3776
294.517	2550
294.574	3287
294.631	2415
294.688	3695
294.745	10809
294.802	39975
294.859	47146
294.916	14853
294.973	7160
295.030	5949
295.087	4433
295.144	4083
295.201	3697
295.258	3622
295.315	4122
295.372	14109
295.429	29135
295.486	11422
295.542	7510
295.599	19197
295.656	36120
295.713	21004
295.770	27688
295.827	10506
295.883	6005
295.940	4666
295.997	6772
296.054	6983
296.111	3865
296.167	3089
296.224	2661
296.281	2196
296.338	2796
296.394	2106
296.451	3740
296.508	10218
296.564	22567
296.621	15519
296.678	29045
296.734	45271
296.791	15853
296.848	9417
296.904	6850
296.961	16455
297.018	29627
297.074	24723
297.131	8551
297.187	6875
297.244	9578
297.301	30401
297.357	59429
297.414	19394
297.470	8226
297.527	5040
297.583	5419
297.640	3926
297.696	3400
297.753	2647
297.809	1837
297.866	1580
297.922	2549
297.979	2333
298.035	3082
298.092	4999
298.148	17211
298.204	16733
298.261	7944
298.317	13978
298.374	38796
298.430	22017
298.486	7995
298.543	5027
298.599	4858
298.656	6089
298.712	12753
298.768	42516
298.824	37363
298.881	10993
298.937	5204
298.993	5439
299.050	5413
299.106	4759
299.162	3806
299.218	3789
299.275	3264
299.331	4639
299.387	9024
299.443	31610
299.500	35073
299.556	13028
299.612	5921
299.668	5670
299.724	6539
299.780	7982
299.837	4345
299.893	7561
299.949	24202
300.005	30739
300.061	23864
300.117	46839
300.173	21972
300.229	8821
300.285	9366
300.341	9998
300.397	6487
300.453	3635
300.510	2215
300.566	3406
300.622	5285
300.678	15277
300.734	27132
300.790	24661
300.845	33211
300.901	19124
300.957	23661
301.013	20458
301.069	6387
301.125	5691
301.181	4846
301.237	3419
301.293	2329
301.349	2216
301.405	1443
301.461	1744
301.516	2825
301.572	1643
301.628	5498
301.684	5620
301.740	8149
301.796	14586
301.851	9730
301.907	15897
301.963	19244
302.019	32161
302.074	91020
302.130	88057
302.186	36294
302.242	15394
302.297	10671
302.353	10083
302.409	18018
302.464	16487
302.520	12302
302.576	29713
302.631	35600
302.687	17430
302.743	7807
302.798	5329
302.854	4710
302.910	4244
302.965	5258
303.021	8435
303.076	7446
303.132	8977
303.187	11570
303.243	6522
303.299	4713
303.354	3230
303.410	4007
303.465	3703
303.521	3106
303.576	3642
303.632	4740
303.687	8695
303.743	29149
303.798	24208
303.853	8929
303.909	5451
303.964	4764
304.020	6488
304.075	9004
304.130	8236
304.186	13333
304.241	14356
304.297	11798
304.352	6574
304.358	6265
304.407	3751
304.449	4116
304.463	4245
304.518	3670
304.539	3545
304.573	3336
304.629	4391
304.630	4451
304.684	7641
304.720	16341
304.739	20599
304.794	34592
304.811	29181
304.850	15869
304.902	7124
304.905	6598
304.960	5413
304.992	6715
305.015	7642
305.071	6540
305.083	5965
305.126	3769
305.173	3823
305.181	3877
305.236	2413
305.264	2912
305.292	3395
305.347	3613
305.354	3728
305.402	4643
305.445	5767
305.457	6033
305.512	7071
305.535	7006
305.567	6949
305.622	6564
305.626	6917
305.678	16499
305.716	32502
305.733	37470
305.788	41400
305.807	34818
305.843	24487
305.897	32496
305.898	32550
305.953	33488
305.988	22128
306.008	16215
306.063	9089
306.078	8043
306.118	6159
306.168	4663
306.173	4564
306.228	4052
306.259	3672
306.283	3399
306.338	3496
306.349	3694
306.393	4966
306.440	6953
306.448	7167
306.503	6467
306.530	6509
306.558	8694
306.613	17285
306.620	18458
306.668	25812
306.711	32741
306.723	32588
306.778	25210
306.801	18896
306.833	12589
306.888	7173
306.892	6931
306.943	5707
306.982	4739
306.997	4487
307.052	4491
307.072	4632
307.107	5646
307.162	7309
307.163	7333
307.217	10952
307.253	12906
307.272	12927
307.327	13188
307.343	12404
307.381	11067
307.434	10417
307.436	10806
307.491	21385
307.524	30624
307.546	31960
307.600	30386
307.614	27706
307.655	18615
307.704	11286
307.710	11290
307.765	13898
307.795	16531
307.819	19702
307.874	29858
307.885	30710
307.929	27632
307.975	24058
307.984	25642
308.038	42395
308.065	54838
308.093	96065
308.148	198366
308.156	219112
308.202	323902
308.246	390940
308.257	377580
308.312	211947
308.336	144642
308.366	105230
308.421	59796
308.426	56082
308.475	39232
308.517	29001
308.530	27119
308.585	21953
308.607	20226
308.639	19701
308.694	19349
308.697	19451
308.748	31741
308.787	43293
308.803	42254
308.857	33694
308.877	29726
308.912	28134
308.967	29081
308.967	29083
309.021	41494
309.058	52522
309.076	68623
309.130	124936
309.148	147318
309.185	259926
309.238	447708
309.239	449287
309.293	474397
309.328	449305
309.348	391314
309.402	201266
309.418	152426
309.457	107123
309.508	61511
309.511	60371
309.566	47655
309.598	41755
309.620	42889
309.674	47098
309.688	48541
309.729	45062
309.778	38849
309.783	38103
309.837	29016
309.868	24427
309.892	29481
309.946	43247
309.959	47040
310.001	58926
310.049	70236
310.055	67686
310.109	39668
310.139	24016
310.163	19483
310.218	11959
310.229	10593
310.272	9386
310.319	8234
310.326	8108
310.381	7378
310.409	7035
310.435	6980
310.489	6870
310.499	6835
310.543	6935
310.589	7133
310.598	7175
310.652	7531
310.679	7561
310.706	6966
310.760	5655
310.769	5450
310.814	4837
310.859	4363
310.868	4397
310.923	4491
310.948	4539
310.977	4963
311.031	5832
311.038	5945
311.085	5656
311.128	5213
311.139	5445
311.193	6666
311.218	7188
311.247	6804
311.301	5974
311.308	5864
311.356	5945
311.398	5978
311.410	5827
311.464	5180
311.488	4737
311.518	4563
311.572	4479
311.578	4448
311.626	6726
311.668	8823
311.680	8892
311.734	8873
311.758	8899
311.788	8678
311.842	8222
311.847	8150
311.896	11645
311.937	14681
311.950	14282
312.004	12316
312.027	11385
312.058	9578
312.112	6350
312.117	6015
312.165	5837
312.207	5666
312.297	11106
312.386	7442
312.476	7059
312.566	12823
312.656	6956
312.745	5489
312.835	6244
312.925	6545
313.015	6000
313.104	6345
313.194	4562
313.284	4918
313.374	7361
313.463	6045
313.553	5036
313.643	4520
313.732	4600
313.822	4942
313.912	4948
314.001	6707
314.091	8331
314.180	11187
314.270	8937
314.360	9601
314.449	7525
314.539	5343
314.628	5162
314.718	6544
314.808	8095
314.897	5253
314.987	5689
315.076	6557
315.166	8289
315.255	8284
315.345	8322
315.434	7743
315.524	8134
315.613	8129
315.703	10339
315.792	11794
315.881	27680
315.971	12183
316.060	15591
316.150	22697
316.239	24992
316.328	9988
316.418	6226
316.507	4606
316.597	7829
316.686	6461
316.775	10264
316.865	26539
316.954	6377
317.043	4336
317.133	5180
317.222	4013
317.311	4985
317.400	3950
317.490	7570
317.579	6899
317.668	6808
317.757	9084
317.847	17081
317.936	49728
318.025	25629
318.114	14623
318.203	10519
318.293	13895
318.382	24915
318.471	20578
318.560	32109
318.649	82129
318.738	17536
318.828	10346
318.917	11252
319.006	13836
319.095	32349
319.184	98842
319.273	48355
319.362	21020
319.451	7273
319.540	6766
319.629	15412
319.718	27404
319.807	16558
319.896	29630
319.985	123693
320.074	39980
320.163	10379
320.252	15118
320.341	14106
320.430	12609
320.519	13800
320.608	8200
320.697	7776
320.786	8405
320.875	8805
320.964	11742
321.053	17815
321.142	24330
321.230	26689
321.319	20641
321.408	50145
321.497	20999
321.586	19936
321.675	24109
321.764	23612
321.852	16092
321.941	27945
322.030	18092
322.119	21279
322.207	50435
322.296	38900
322.385	20106
322.474	20596
322.562	58864
322.651	32665
322.740	19771
322.829	27913
322.917	33158
323.006	18676
323.095	14515
323.183	12075
323.272	19648
323.361	33157
323.449	110902
323.538	35855
323.626	72124
323.715	45061
323.804	18846
323.892	66096
323.981	35274
324.069	12865
324.158	35788
324.246	32646
324.335	11311
324.424	17165
324.512	6312
324.601	8125
324.689	8531
324.778	12383
324.866	20961
324.954	7009
325.043	7208
325.131	14847
325.220	26698
325.308	30994
325.397	21497
325.485	12895
325.574	4775
325.662	4899
325.750	5343
325.839	4738
325.927	3823
326.015	6825
326.104	10510
326.192	15084
326.280	4270
326.369	4963
326.457	6618
326.545	14918
326.634	6630
326.722	3847
326.810	4186
326.898	4810
326.987	5883
327.075	13080
327.163	13271
327.251	6328
327.340	4222
327.428	6115
327.516	3691
327.604	3928
327.692	4926
327.781	6375
327.869	10868
327.957	7352
328.045	6514
328.133	4351
328.221	5741
328.309	5215
328.397	4252
328.485	6896
328.574	9567
328.662	30629
328.750	17796
328.838	7902
328.926	5494
329.014	4632
329.102	7431
329.190	22615
329.278	14132
329.366	4810
329.454	4157
329.542	4784
329.630	4195
329.718	5116
329.806	6290
329.893	7744
329.981	10549
330.069	20849
330.157	79067
330.245	218697
330.333	105285
330.421	18323
330.509	13360
330.597	38023
330.684	25642
330.772	11853
330.860	16111
330.948	21528
331.036	8967
331.123	4247
331.211	4940
331.299	7213
331.387	17748
331.475	31020
331.562	9001
331.650	4235
331.738	5926
331.825	8983
331.913	4007
332.001	4257
332.089	6849
332.176	15092
332.264	33756
332.352	26130
332.439	8541
332.527	6660
332.614	4971
332.702	7957
332.790	4450
332.877	14894
332.965	31184
333.052	8524
333.140	7548
333.228	18794
333.315	5935
333.403	6536
333.490	19202
333.578	15923
333.665	20506
333.753	10484
333.840	5028
333.928	8135
334.015	22582
334.103	37495
334.190	121041
334.278	29609
334.365	10791
334.452	7880
334.540	5961
334.627	8512
334.715	13280
334.802	25551
334.889	126967
334.977	124098
335.064	16376
335.151	7908
335.239	8807
335.326	14596
335.413	61298
335.501	83704
335.588	10890
335.675	6926
335.762	10117
335.850	18179
335.937	12308
336.024	32443
336.111	138468
336.199	54009
336.286	10994
336.373	6173
336.460	4572
336.547	4989
336.635	6684
336.722	6662
336.809	5923
336.896	11052
336.983	36251
337.070	90879
337.157	131355
337.245	86244
337.332	58582
337.419	8787
337.506	5936
337.593	9386
337.680	28333
337.767	92297
337.854	24052
337.941	25392
338.028	28781
338.115	9863
338.202	13885
338.289	24053
338.376	83653
338.463	27923
338.550	52445
338.637	56806
338.724	16672
338.811	24970
338.898	5747
338.984	4260
339.071	7267
339.158	7429
339.245	18847
339.332	12876
339.419	15924
339.506	15764
339.593	2484
339.679	3927
339.766	3280
339.853	7493
339.940	12388
340.027	4979
340.113	4299
340.200	7078
340.287	5504
340.374	6464
340.460	12308
340.547	4789
340.634	9785
340.720	36349
340.807	21113
340.894	3666
340.980	4181
341.067	3602
341.154	5539
341.240	8811
341.327	17919
341.414	6531
341.500	6038
341.587	4783
341.674	4374
341.760	11289
341.847	13783
341.933	4595
342.020	1820
342.106	3122
342.193	3903
342.279	8821
342.366	6444
342.452	11435
342.539	7011
342.625	15589
342.712	39592
342.798	15477
342.885	5942
342.971	2671
343.058	2315
343.144	3530
343.230	3293
343.317	4034
343.403	2443
343.490	3504
343.576	1895
343.662	3403
343.749	4446
343.835	6575
343.921	16207
344.008	88857
344.094	201872
344.180	41563
344.267	14296
344.353	52246
344.439	54060
344.525	20779
344.612	11755
344.698	11564
344.784	5257
344.870	4537
344.957	3896
345.043	8088
345.129	5130
345.215	11627
345.301	5675
345.387	3907
345.474	3203
345.560	2842
345.646	4832
345.732	4586
345.818	4192
345.904	4255
345.990	4525
346.076	5748
346.162	10697
346.249	5152
346.335	3759
346.421	5971
346.507	22297
346.593	76888
346.679	17014
346.765	6082
346.851	4220
346.937	3779
347.023	4559
347.108	5755
347.194	3475
347.280	4333
347.366	5952
347.452	21679
347.538	95111
347.624	62849
347.710	49094
347.796	8653
347.882	4073
347.967	4460
348.053	6330
348.139	4729
348.225	3215
348.311	3500
348.397	3027
348.482	4525
348.568	5823
348.654	2383
348.740	4054
348.825	4943
348.911	10281
348.997	43373
349.083	85408
349.168	12834
349.254	4317
349.340	4828
349.425	3010
349.511	6331
349.597	5657
349.682	13362
349.768	49052
349.854	21718
349.939	4749
350.025	3698
350.110	4155
350.196	2992
350.282	1540
350.367	3192
350.453	7593
350.538	6830
350.624	5931
350.709	5854
350.795	3022
350.880	2949
350.966	4261
351.051	7379
351.137	4970
351.222	4886
351.308	13238
351.393	39116
351.479	9687
351.564	3442
351.649	3697
351.735	2647
351.820	2997
351.906	3722
351.991	5413
352.076	25317
352.162	37926
352.247	7695
352.332	4355
352.418	9868
352.503	12963
352.588	54993
352.673	41970
352.759	9066
352.844	5005
352.929	5379
353.014	6649
353.100	4081
353.185	5197
353.270	11318
353.355	12449
353.441	5142
353.526	5099
353.611	12374
353.696	13927
353.781	8903
353.866	3734
353.952	5056
354.037	11106
354.122	26230
354.207	23468
354.292	9096
354.377	4380
354.462	3432
354.547	5446
354.632	5373
354.717	6582
354.802	5023
354.887	2725
354.972	2902
355.057	1732
355.142	2541
355.227	4428
355.312	8049
355.397	17901
355.482	43351
355.567	20443
355.652	15182
355.737	17156
355.822	57443
355.907	44843
355.991	7144
356.076	3954
356.161	4560
356.246	3822
356.331	4620
356.416	14110
356.501	100557
356.585	101214
356.670	12633
356.755	8118
356.840	13298
356.924	60477
357.009	233058
357.094	81182
357.179	15815
357.263	9030
357.348	10651
357.433	10222
357.517	8665
357.602	6457
357.687	4976
357.771	6997
357.856	13688
357.941	13415
358.025	51717
358.110	232740
358.195	101946
358.279	14934
358.364	10661
358.448	34944
358.533	101015
358.617	69445
358.702	71374
358.787	24268
358.871	13982
358.956	10190
359.040	4318
359.125	3094
359.209	3861
359.294	5957
359.378	9879
359.462	9582
359.547	6344
359.631	4974
359.716	3231
359.800	4463
359.885	9466
359.969	4580
360.053	3667
360.138	3057
360.222	6927
360.306	12732
360.391	10307
360.475	13718
360.559	29580
360.644	35347
360.728	27927
360.812	52004
360.896	153260
360.981	58600
361.065	28543
361.149	7241
361.233	6733
361.318	5845
361.402	6995
361.486	5649
361.570	4989
361.654	6823
361.739	20046
361.823	96669
361.907	150080
361.991	24221
362.075	12385
362.159	25639
362.243	18970
362.327	16603
362.411	17834
362.495	11084
362.580	7633
362.664	4812
362.748	4493
362.832	6903
362.916	10633
363.000	33139
363.084	108059
363.168	173774
363.252	38294
363.336	13332
363.420	19216
363.503	85714
363.587	100185
363.671	16016
363.755	10399
363.839	14777
363.923	6088
364.007	15245
364.091	17587
364.175	32398
364.258	138347
364.342	80440
364.426	60336
364.510	31104
364.594	21283
364.677	29280
364.761	134503
364.845	88856
364.929	25016
365.013	18959
365.096	16109
365.180	20787
365.264	36726
365.347	142998
365.431	56419
365.515	13202
365.598	6015
365.682	6644
365.766	13396
365.849	16804
365.933	7168
366.017	11490
366.100	8368
366.184	3513
366.267	5438
366.351	3809
366.435	3373
366.518	2380
366.602	2703
366.685	3741
366.769	4964
366.852	10882
366.936	18703
367.019	9151
367.103	9803
367.186	19535
367.270	5156
367.353	2294
367.436	4461
367.520	3201
367.603	5822
367.687	7755
367.770	16460
367.853	9646
367.937	36440
368.020	60765
368.104	12814
368.187	12157
368.270	16698
368.353	13800
368.437	21796
368.520	54302
368.603	31318
368.687	41331
368.770	77266
368.853	18115
368.936	17223
369.020	18680
369.103	6209
369.186	4133
369.269	4692
369.352	9841
369.436	15666
369.519	9404
369.602	3343
369.685	6538
369.768	5695
369.851	5705
369.934	3704
370.018	5751
370.101	13323
370.184	11432
370.267	8017
370.350	12504
370.433	22408
370.516	66351
370.599	79380
370.682	20269
370.765	37590
370.848	48564
370.931	100340
371.014	36246
371.097	7120
371.180	5246
371.263	4307
371.346	2044
371.429	4086
371.511	4238
371.594	8395
371.677	15928
371.760	20670
371.843	14664
371.926	81190
372.009	186370
372.091	53034
372.174	36869
372.257	97498
372.340	34616
372.423	26834
372.505	33085
372.588	13105
372.671	27168
372.754	95933
372.836	45466
372.919	40688
373.002	79916
373.085	21087
373.167	13990
373.250	38866
373.332	93887
373.415	124001
373.498	258412
373.580	86470
373.663	116649
373.746	158838
373.828	32224
373.911	15438
373.993	17863
374.076	79842
374.159	70806
374.241	26611
374.324	79119
374.406	50253
374.489	74898
374.571	215376
374.654	80753
374.736	40850
374.819	133237
374.901	185357
374.983	187516
375.066	30368
375.148	12900
375.231	63677
375.313	122674
375.395	41075
375.478	8600
375.560	6130
375.643	9308
375.725	36483
375.807	165959
375.890	124296
375.972	49362
376.054	25426
376.136	42851
376.219	19129
376.301	44819
376.383	142487
376.465	49624
376.548	28464
376.630	36477
376.712	118260
376.794	50580
376.877	6747
376.959	3741
377.041	5785
377.123	15266
377.205	18701
377.287	4093
377.369	4208
377.452	3477
377.534	4399
377.616	3479
377.698	4638
377.780	1745
377.862	3849
377.944	5101
378.026	2051
378.108	3167
378.190	3392
378.272	3829
378.354	2849
378.436	2872
378.518	8228
378.600	31780
378.682	24718
378.764	53363
378.846	39903
378.928	11415
379.010	14398
379.091	8164
379.173	4142
379.255	3940
379.337	6116
379.419	24291
379.501	77233
379.583	29764
379.664	8304
379.746	16765
379.828	51278
379.910	68240
379.991	61303
380.073	9664
380.155	6148
380.237	5148
380.318	3793
380.400	4173
380.482	11180
380.564	15387
380.645	12941
380.727	13165
380.809	8829
380.890	6191
380.972	3955
381.053	5288
381.135	7564
381.217	16467
381.298	52943
381.380	24608
381.461	23041
381.543	116794
381.624	140220
381.706	23494
381.787	12794
381.869	12706
381.951	50188
382.032	198897
382.113	114979
382.195	22013
382.276	14814
382.358	31922
382.439	104504
382.521	116465
382.602	186786
382.684	76248
382.765	142578
382.846	135311
382.928	159719
383.009	86010
383.090	68547
383.172	248844
383.253	351930
383.334	132045
383.416	162550
383.497	78235
383.578	32956
383.659	62030
383.741	227764
383.822	561147
383.903	270943
383.984	107887
384.066	187215
384.147	110675
384.228	22939
384.309	16105
384.390	11560
384.471	8542
384.553	9939
384.634	13799
384.715	14119
384.796	7568
384.877	9864
384.958	47477
385.039	55888
385.120	17452
385.201	9654
385.282	12461
385.363	13759
385.444	10600
385.525	20273
385.606	81631
385.687	70295
385.768	16735
385.849	21376
385.930	89200
386.011	157376
386.092	38890
386.173	9891
386.254	8521
386.335	8906
386.416	8173
386.496	31283
386.577	52521
386.658	20365
386.739	11048
386.820	13094
386.901	10206
386.981	9159
387.062	5701
387.143	11577
387.224	52442
387.304	46164
387.385	16664
387.466	11763
387.547	14486
387.627	8627
387.708	18753
387.789	94889
387.869	116628
387.950	29627
388.031	6739
388.111	6642
388.192	21296
388.273	30728
388.353	16381
388.434	8388
388.514	18981
388.595	98649
388.676	118555
388.756	48775
388.837	47307
388.917	27665
388.998	5873
389.078	6141
389.159	5507
389.239	5351
389.320	10192
389.400	9027
389.480	22390
389.561	58251
389.641	27133
389.722	10022
389.802	14772
389.883	24472
389.963	70777
390.043	42691
390.124	14511
390.204	18310
390.284	58345
390.365	39328
390.445	69513
390.525	223528
390.605	181476
390.686	38984
390.766	12014
390.846	7312
390.927	4828
391.007	5698
391.087	7567
391.167	7312
391.247	5405
391.328	11895
391.408	18360
391.488	13066
391.568	4025
391.648	7497
391.728	10525
391.808	10441
391.888	10771
391.969	29995
392.049	48800
392.129	22103
392.209	26223
392.289	65177
392.369	35346
392.449	35469
392.529	20718
392.609	15838
392.689	20106
392.769	65910
392.849	54335
392.929	39646
393.009	96873
393.089	68540
393.169	53452
393.248	180095
393.328	741160
393.408	756335
393.488	179847
393.568	49250
393.648	26220
393.728	18766
393.807	14723
393.887	15432
393.967	14612
394.047	18831
394.127	25597
394.206	49594
394.286	184255
394.366	703190
394.446	723159
394.525	191786
394.605	51481
394.685	33454
394.764	54877
394.844	89235
394.924	59522
395.003	19248
395.083	13906
395.163	13137
395.242	12724
395.322	13528
395.402	10169
395.481	16419
395.561	38059
395.640	95342
395.720	71248
395.799	113614
395.879	96583
395.958	83538
396.038	280904
396.117	904289
396.197	946613
396.276	318351
396.356	102813
396.435	63481
396.515	38887
396.594	36346
396.673	57200
396.753	205301
396.832	679767
396.912	469189
396.991	101742
397.070	29788
397.150	16700
397.229	14187
397.308	14925
397.388	23051
397.467	13229
397.546	7811
397.625	4981
397.705	9876
397.784	9358
397.863	5410
397.942	4785
398.022	6003
398.101	29030
398.180	89954
398.259	43212
398.338	11669
398.417	6851
398.497	5524
398.576	6779
398.655	3899
398.734	3885
398.813	5223
398.892	27543
398.971	97501
399.050	44001
399.129	6005
399.208	3284
399.287	4974
399.366	2660
399.445	4471
399.524	3839
399.603	3463
399.682	7997
399.761	26889
399.840	103726
399.919	75851
399.998	10617
400.077	3963
400.156	2911
400.235	7060
400.313	3554
400.392	5854
400.471	26203
400.550	42414
400.629	11184
400.708	5760
400.786	5482
400.865	20744
400.944	20505
401.023	9805
401.102	2137
401.180	3073
401.259	3587
401.338	4725
401.416	5544
401.495	4658
401.574	5403
401.652	3670
401.731	5794
401.810	4393
401.888	2668
401.967	2325
402.046	2915
402.124	5213
402.203	6999
402.281	4820
402.360	6466
402.438	25235
402.517	16742
402.596	6012
402.674	5383
402.753	3319
402.831	3507
402.910	4532
402.988	9620
403.066	29574
403.145	16371
403.223	11221
403.302	21342
403.380	15558
403.459	13262
403.537	6460
403.615	4542
403.694	1493
403.772	2402
403.850	2045
403.929	1760
404.007	2577
404.085	6031
404.164	4462
404.242	5560
404.320	20540
404.398	63520
404.477	65121
404.555	152861
404.633	132261
404.711	49359
404.789	23685
404.868	6137
404.946	3757
405.024	3452
405.102	3275
405.180	1643
405.258	1800
405.336	2976
405.415	2695
405.493	7066
405.571	5695
405.649	1837
405.727	3091
405.805	5728
405.883	5036
405.961	5829
406.039	7239
406.117	3700
406.195	6135
406.273	30457
406.351	121467
406.429	68468
406.507	12258
406.585	4676
406.663	4512
406.740	4979
406.818	5374
406.896	2918
406.974	4698
407.052	9195
407.130	69340
407.208	95408
407.285	18053
407.363	3614
407.441	3809
407.519	3535
407.596	6775
407.674	28828
407.752	121741
407.830	94110
407.907	20692
407.985	5298
408.063	3981
408.141	1905
408.218	7259
408.296	5341
408.373	2982
408.451	4231
408.529	4260
408.606	1158
408.684	1713
408.762	1865
408.839	908
408.917	1392
408.994	2604
409.072	1516
409.149	2293
409.227	3534
409.304	3983
409.382	3039
409.459	3730
409.537	6057
409.614	4994
409.692	3809
409.769	4555
409.846	5739
409.924	8679
410.001	4834
410.079	4185
410.156	3932
410.233	4103
410.311	4502
410.388	3068
410.465	2765
410.543	2790
410.620	2871
410.697	4081
410.775	3802
410.852	1529
410.929	3974
411.006	5635
411.083	1836
411.161	6798
411.238	8150
411.315	5129
411.392	2523
411.469	4290
411.547	3443
411.624	1336
411.701	2639
411.778	4220
411.855	8407
411.932	4367
412.009	1767
412.086	3048
412.163	3276
412.240	5212
412.317	5365
412.394	4956
412.471	2184
412.548	1596
412.625	2467
412.702	3727
412.779	6795
412.856	4354
412.933	1627
413.010	2315
413.087	5199
413.164	23722
413.241	33086
413.318	7247
413.395	4391
413.471	7147
413.548	3801
413.625	3652
413.702	3645
413.779	3641
413.855	1793
413.932	1595
414.009	781
414.086	2088
414.162	1582
414.239	4403
414.316	23121
414.393	53757
414.469	17417
414.546	2061
414.623	1426
414.699	1412
414.776	2805
414.853	1613
414.929	2771
415.006	2914
415.082	4093
415.159	3359
415.236	2286
415.312	2905
415.389	4748
415.465	7114
415.542	4465
415.618	2240
415.695	4992
415.771	3223
415.848	2813
415.924	3610
416.000	3079
416.077	2009
416.153	1074
416.230	600
416.306	1427
416.383	1865
416.459	1712
416.535	1537
416.612	1033
416.688	1297
416.764	1598
416.841	1306
416.917	1802
416.993	1180
417.069	3467
417.146	5538
417.222	8386
417.298	4776
417.374	1832
417.451	3110
417.527	3713
417.603	4010
417.679	2488
417.755	1938
417.831	1176
417.908	1215
417.984	1634
418.060	1517
418.136	6676
418.212	8550
418.288	3370
418.364	1995
418.440	1963
418.516	5493
418.592	7661
418.668	12114
418.744	14139
418.820	10960
418.896	3226
418.972	1209
419.048	2092
419.124	7388
419.200	4393
419.276	2390
419.352	534
419.428	1789
419.504	1512
419.579	2969
419.655	2530
419.731	2525
419.807	9463
419.883	18454
419.959	11711
420.034	3367
420.110	7241
420.186	32883
420.262	23816
420.337	5089
420.413	3896
420.489	2813
420.565	2238
420.640	2662
420.716	2782
420.792	566
420.867	2672
420.943	2024
421.019	4440
421.094	4178
421.170	1166
421.245	1933
421.321	2707
421.397	4347
421.472	21256
421.548	68062
421.623	34444
421.699	6360
421.774	4559
421.850	3978
421.925	7005
422.001	6482
422.076	4311
422.152	6405
422.227	8641
422.302	11406
422.378	14713
422.453	28892
422.529	81274
422.604	291522
422.679	511104
422.755	272748
422.830	71640
422.905	26637
422.981	14257
423.056	9617
423.131	7127
423.207	5743
423.282	5129
423.357	10526
423.432	8049
423.508	6864
423.583	15277
423.658	11551
423.733	4625
423.808	5576
423.883	6165
423.959	5271
424.034	3538
424.109	2763
424.184	1116
424.259	1801
424.334	2214
424.409	1594
424.484	1586
424.559	2785
424.634	1879
424.709	3753
424.784	4188
424.859	2484
424.934	5248
425.009	21313
425.084	34798
425.159	13237
425.234	2919
425.309	1588
425.384	3113
425.459	3463
425.534	2682
425.609	2792
425.683	1790
425.758	1418
425.833	1991
425.908	4073
425.983	13037
426.058	37822
426.132	15621
426.207	4441
426.282	7203
426.357	6537
426.431	2433
426.506	2829
426.581	2539
426.655	2933
426.730	2234
426.805	1817
426.879	2374
426.954	2040
427.029	7102
427.103	37998
427.178	96830
427.253	39447
427.327	5447
427.402	6068
427.476	11029
427.551	4817
427.625	3425
427.700	4319
427.774	1410
427.849	4274
427.923	1775
427.998	2048
428.072	2330
428.147	7382
428.221	31588
428.296	85240
428.370	37087
428.444	5840
428.519	9379
428.593	19554
428.667	14661
428.742	20590
428.816	17844
428.890	57875
428.965	76987
429.039	23672
429.113	20798
429.188	6984
429.262	1915
429.336	5796
429.410	16939
429.485	11259
429.559	15818
429.633	12046
429.707	4228
429.781	13027
429.855	66298
429.930	87096
430.004	52161
430.078	90808
430.152	76813
430.226	131537
430.300	115011
430.374	15939
430.448	7776
430.522	29902
430.596	88955
430.670	48440
430.744	101223
430.818	134577
430.892	24881
430.966	4160
431.040	3093
431.114	1316
431.188	1640
431.262	1761
431.336	1933
431.410	9007
431.484	22766
431.557	12472
431.631	2362
431.705	3384
431.779	16583
431.853	73426
431.927	44627
432.000	6192
432.074	3171
432.148	3923
432.222	3062
432.295	1430
432.369	1741
432.443	5882
432.516	38805
432.590	97813
432.664	31580
432.737	3867
432.811	1930
432.885	1132
432.958	1213
433.032	997
433.106	605
433.179	313
433.253	1011
433.326	814
433.400	859
433.473	2108
433.547	635
433.620	743
433.694	3025
433.767	3764
433.841	618
433.914	659
433.988	940
434.061	522
434.134	799
434.208	254
434.281	84
434.355	908
434.428	579
434.501	890
434.575	416
434.648	1951
434.721	1097
434.795	48
434.868	594
434.941	-51
435.014	310
435.088	579
435.161	773
435.234	2466
435.307	3947
435.381	1727
435.454	2027
435.527	2098
435.600	1996
435.673	1760
435.746	1550
435.819	638
435.892	584
435.966	1451
436.039	1517
436.112	1274
436.185	424
436.258	364
436.331	-569
436.404	184
436.477	-19
436.550	522
436.623	368
436.696	667
436.769	1088
436.842	1506
436.915	864
436.987	2996
437.060	671
437.133	985
437.206	-263
437.279	1191
437.352	386
437.425	428
437.498	1092
437.570	4111
437.643	3135
437.716	104
437.789	549
437.861	3307
437.934	8007
438.007	3492
438.080	987
438.152	2097
438.225	7144
438.298	52744
438.370	138442
438.443	46836
438.516	8551
438.588	1698
438.661	1141
438.734	1569
438.806	1563
438.879	1908
438.951	1321
439.024	3123
439.096	685
439.169	1265
439.241	631
439.314	1020
439.386	2688
439.459	5200
439.531	5649
439.604	1721
439.676	622
439.749	446
439.821	32
439.893	797
439.966	1019
440.038	1528
440.110	1859
440.183	934
440.255	1051
440.327	3084
440.400	19431
440.472	83125
440.544	46520
440.617	4802
440.689	3463
440.761	4850
440.833	6990
440.905	3389
440.978	93
441.050	245
441.122	207
441.194	-149
441.266	232
441.338	1385
441.411	3255
441.483	22329
441.555	30037
441.627	5838
441.699	4118
441.771	4119
441.843	1029
441.915	981
441.987	-43
442.059	656
442.131	1640
442.203	3551
442.275	5130
442.347	3770
442.419	5620
442.491	28282
442.563	59097
442.635	23083
442.706	20202
442.778	12608
442.850	1837
442.922	564
442.994	2134
443.066	3753
443.137	2936
443.209	2483
443.281	3051
443.353	10088
443.425	40723
443.496	126817
443.568	98460
443.640	28649
443.711	5889
443.783	3282
443.855	1606
443.926	894
443.998	1403
444.070	2600
444.141	1877
444.213	3865
444.285	4124
444.356	3755
444.428	2966
444.499	856
444.571	-380
444.642	398
444.714	1824
444.785	3573
444.857	5388
444.928	15186
445.000	6852
445.071	10178
445.143	10070
445.214	4888
445.285	10598
445.357	34122
445.428	100017
445.500	201777
445.571	100255
445.642	43678
445.714	22223
445.785	22738
445.856	5414
445.928	4270
445.999	3169
446.070	1998
446.141	1883
446.213	3252
446.284	1706
446.355	3137
446.426	1160
446.497	1058
446.569	3705
446.640	5910
446.711	3456
446.782	380
446.853	3022
446.924	2230
446.995	1189
447.066	2065
447.138	5433
447.209	2941
447.280	34
447.351	51
447.422	246
447.493	2245
447.564	1747
447.635	3292
447.706	831
447.777	639
447.847	4
447.918	756
447.989	2424
448.060	4024
448.131	9718
448.202	7362
448.273	3654
448.344	1989
448.414	1032
448.485	1074
448.556	225
448.627	325
448.698	789
448.768	324
448.839	491
448.910	4084
448.981	3383
449.051	1051
449.122	732
449.193	178
449.263	590
449.334	942
449.405	2132
449.475	5417
449.546	3011
449.616	5770
449.687	3742
449.758	1120
449.828	1070
449.899	1461
449.969	262
450.040	1158
450.110	1336
450.181	2681
450.251	461
450.322	1123
450.392	2050
450.463	879
450.533	1247
450.604	1422
450.674	254
450.744	985
450.815	-461
450.885	588
450.955	974
451.026	1205
451.096	75
451.166	2102
451.237	6189
451.307	14775
451.377	4066
451.447	391
451.518	572
451.588	1288
451.658	1535
451.728	3499
451.799	17297
451.869	15803
451.939	2367
452.009	1190
452.079	706
452.149	1752
452.219	4257
452.289	19856
452.360	10623
452.430	1330
452.500	783
452.570	2468
452.640	4579
452.710	12370
452.780	17410
452.850	9444
452.920	7836
452.990	2778
453.060	2499
453.129	3200
453.199	5150
453.269	22129
453.339	40067
453.409	58052
453.479	69924
453.549	95707
453.619	96721
453.688	28527
453.758	4765
453.828	2706
453.898	1413
453.968	1917
454.037	995
454.087	1097
454.107	1132
454.168	565
454.177	469
454.247	1361
454.249	1343
454.316	639
454.330	889
454.386	1835
454.411	4323
454.456	8417
454.492	9973
454.525	11367
454.574	5156
454.595	2430
454.655	1868
454.665	1802
454.734	1792
454.736	1889
454.804	5120
454.817	7334
454.873	16274
454.898	16428
454.943	16626
454.979	10290
455.013	4553
455.060	2734
455.082	2089
455.141	3278
455.152	3489
455.221	12700
455.222	12880
455.291	26499
455.303	28230
455.360	32961
455.384	46881
455.430	69888
455.465	47957
455.499	27393
455.546	19677
455.569	16498
455.627	8770
455.638	7366
455.707	771
455.708	785
455.777	1338
455.789	1396
455.846	1556
455.869	1362
455.916	958
455.950	974
455.985	978
456.031	1074
456.054	1102
456.112	992
456.124	989
456.193	1334
456.193	1323
456.262	1471
456.274	1537
456.332	1961
456.355	2159
456.401	2169
456.436	1503
456.470	954
456.516	616
456.540	443
456.597	657
456.609	687
456.678	937
456.678	929
456.747	883
456.759	836
456.817	603
456.840	619
456.886	503
456.920	440
456.955	446
457.001	825
457.024	1030
457.082	983
457.093	976
457.162	2285
457.163	2297
457.232	3296
457.243	3030
457.301	1770
457.324	1741
457.370	1620
457.405	1370
457.439	1076
457.485	612
457.508	461
457.566	918
457.577	1011
457.646	1636
457.647	1654
457.715	3208
457.727	3389
457.784	4765
457.808	5946
457.853	7368
457.889	8336
457.922	8454
457.969	6334
457.991	6071
458.050	6734
458.060	6925
458.129	10954
458.130	11065
458.198	11818
458.211	10887
458.267	5852
458.292	4217
458.336	2975
458.372	2912
458.405	3745
458.453	5066
458.474	6108
458.533	10921
458.543	11464
458.611	19493
458.614	19550
458.680	12315
458.694	10098
458.749	4714
458.775	3807
458.818	2795
458.855	2223
458.887	2091
458.936	1575
458.955	1339
459.016	1707
459.024	1805
459.093	2158
459.097	2144
459.162	1608
459.177	1800
459.230	2339
459.257	2352
459.299	2458
459.338	2801
459.368	2948
459.418	2574
459.437	2319
459.499	1703
459.505	1705
459.574	2567
459.579	2572
459.643	1999
459.659	1778
459.711	1477
459.740	1785
459.780	2447
459.820	2673
459.849	2488
459.900	2526
459.917	2568
459.981	2790
459.986	2797
460.054	2493
460.061	2469
460.123	2213
460.141	2249
460.191	2873
460.222	3085
460.260	3250
460.302	3952
460.328	4084
460.382	3244
460.397	3240
460.462	3918
460.465	4063
460.534	7803
460.543	8435
460.602	32409
460.623	41698
460.671	62102
460.703	86014
460.739	90152
460.783	73990
460.808	57918
460.864	10419
460.876	6560
460.944	3573
460.945	3544
461.013	3381
461.024	3200
461.081	2319
461.104	2536
461.150	2946
461.184	2626
461.218	2699
461.264	3279
461.286	3107
461.345	2301
461.355	2399
461.423	3496
461.425	3514
461.491	2656
461.505	2570
461.559	4509
461.585	5225
461.628	7752
461.665	11445
461.696	13608
461.745	18475
461.764	17534
461.825	6769
461.832	6233
461.901	3316
461.905	3265
461.969	2498
461.985	2326
462.037	3096
462.065	3524
462.105	3300
462.145	3106
462.173	4509
462.225	7350
462.241	7828
462.305	10892
462.310	10779
462.378	8076
462.385	7431
462.446	3574
462.465	2928
462.514	2391
462.545	2220
462.582	2625
462.625	3099
462.650	3028
462.705	2863
462.718	3020
462.785	3789
462.786	3794
462.854	3833
462.865	3975
462.922	5749
462.945	6447
462.990	5722
463.025	4348
463.058	3648
463.104	3026
463.126	2769
463.184	2566
463.194	2640
463.262	2514
463.264	2541
463.330	3769
463.344	3860
463.398	3568
463.424	3559
463.466	3501
463.504	3508
463.533	3813
463.583	4213
463.601	4280
463.663	4197
463.669	4226
463.737	4932
463.743	5007
463.805	7627
463.823	8297
463.873	11533
463.903	14012
463.940	15666
463.982	18024
464.008	15549
464.062	7065
464.076	6358
464.142	3765
464.144	3747
464.211	4154
464.221	4195
464.279	3427
464.301	3135
464.347	3518
464.381	3841
464.414	4161
464.461	4650
464.482	4869
464.540	5769
464.550	5670
464.617	4075
464.620	4027
464.685	4784
464.699	4923
464.753	6526
464.779	7536
464.820	7886
464.859	7868
464.888	7752
464.938	7682
464.956	7827
465.018	8158
465.023	8049
465.091	6473
465.098	6279
465.158	5887
465.177	5906
465.226	5987
465.257	5861
465.293	5713
465.336	5637
465.361	6319
465.416	7781
465.428	8209
465.495	10419
465.496	10465
465.563	15167
465.575	16032
465.631	19705
465.654	21420
465.698	15249
465.734	9036
465.765	7982
465.813	6842
465.833	6765
465.893	6903
465.900	6915
465.968	6873
465.972	6859
466.035	6930
466.052	6940
466.102	6591
466.131	6373
466.170	6454
466.210	6493
466.237	7041
466.290	8163
466.304	8125
466.369	7810
466.372	7842
466.439	8403
466.449	8456
466.506	9103
466.528	9374
466.573	11275
466.607	12625
466.641	17133
466.687	23436
466.708	25677
466.766	32032
466.775	30135
466.842	15153
466.845	14417
466.909	10969
466.925	10218
466.977	10472
467.004	10600
467.044	10929
467.083	11241
467.111	11757
467.163	12657
467.178	12954
467.242	14119
467.245	14026
467.312	11635
467.321	11302
467.379	11599
467.400	11673
467.446	12571
467.480	13185
467.559	11074
467.638	10320
467.717	10222
467.796	9801
467.875	10657
467.955	10162
468.034	13383
468.113	26546
468.192	39190
468.271	15175
468.350	9546
468.429	9994
468.508	9812
468.588	9266
468.667	8726
468.746	8388
468.825	7979
468.904	7772
468.983	9735
469.062	11531
469.141	15180
469.220	7868
469.299	8179
469.378	9039
469.456	10536
469.535	10202
469.614	8884
469.693	8569
469.772	11765
469.851	13274
469.930	11867
470.009	8293
470.088	8191
470.166	8511
470.245	10000
470.324	10795
470.403	9511
470.482	8447
470.560	8386
470.639	7689
470.718	9002
470.797	7865
470.875	8423
470.954	10288
471.033	11909
471.111	7354
471.190	6829
471.269	6116
471.347	6472
471.426	7052
471.505	7744
471.583	8945
471.662	8663
471.740	7871
471.819	7764
471.898	6897
471.976	8244
472.055	7587
472.133	9271
472.212	12102
472.290	11540
472.369	7555
472.447	7386
472.526	6608
472.604	8153
472.683	7269
472.761	7719
472.839	7376
472.918	7122
472.996	7054
473.075	8269
473.153	8180
473.231	6887
473.310	7058
473.388	8044
473.466	6808
473.545	8078
473.623	10087
473.701	9144
473.780	8100
473.858	6175
473.936	8133
474.014	6666
474.093	8663
474.171	11895
474.249	14313
474.327	11427
474.405	5990
474.484	6436
474.562	6478
474.640	6118
474.718	7616
474.796	7722
474.874	7597
474.952	6718
475.030	6714
475.108	7991
475.187	8518
475.265	9003
475.343	8664
475.421	9067
475.499	7699
475.577	7555
475.655	8454
475.733	15267
475.811	24947
475.889	23877
475.966	18690
476.044	6883
476.122	6596
476.200	7648
476.278	6550
476.356	7195
476.434	6213
476.512	7025
476.590	6888
476.667	7375
476.745	6063
476.823	6317
476.901	6191
476.979	7028
477.056	6286
477.134	6208
477.212	6913
477.290	6644
477.367	6430
477.445	5459
477.523	4979
477.601	5628
477.678	6388
477.756	6923
477.834	7332
477.911	6697
477.989	6132
478.066	4972
478.144	5822
478.222	6532
478.299	6550
478.377	8915
478.454	7109
478.532	5534
478.609	5455
478.687	7376
478.764	5896
478.842	6520
478.919	6296
478.997	5825
479.074	5459
479.152	7123
479.229	7634
479.307	6961
479.384	5290
479.461	5841
479.539	5907
479.616	6460
479.694	5678
479.771	6331
479.848	6158
479.926	7679
480.003	10711
480.080	5970
480.157	5844
480.235	5143
480.312	5027
480.389	5966
480.467	9145
480.544	11682
480.621	7937
480.698	6354
480.775	6756
480.853	7676
480.930	5542
481.007	6837
481.084	9650
481.161	15016
481.238	12331
481.315	5091
481.392	5068
481.470	5295
481.547	4969
481.624	5618
481.701	5607
481.778	5325
481.855	6040
481.932	8879
482.009	14346
482.086	12871
482.163	5383
482.240	4848
482.317	7150
482.393	7756
482.470	6139
482.547	5944
482.624	5477
482.701	6560
482.778	6047
482.855	4863
482.932	5453
483.009	5108
483.085	7179
483.162	9229
483.239	10665
483.316	4815
483.393	6093
483.469	5445
483.546	6019
483.623	7191
483.699	5454
483.776	5716
483.853	6507
483.930	7807
484.006	21272
484.083	38592
484.160	25228
484.236	32323
484.313	27800
484.389	18246
484.466	18164
484.543	16361
484.619	16710
484.696	16662
484.772	18163
484.849	18087
484.925	16462
485.002	16295
485.078	15935
485.155	15361
485.231	14463
485.308	15727
485.384	15648
485.461	16872
485.537	26287
485.614	32884
485.690	15839
485.766	15148
485.843	14318
485.919	16624
485.995	18601
486.072	12939
486.148	13254
486.224	13132
486.301	13979
486.377	15589
486.453	14687
486.530	15288
486.606	19811
486.682	22505
486.758	25133
486.835	28388
486.911	22535
486.987	31863
487.063	33246
487.139	34946
487.215	29981
487.292	21603
487.368	16544
487.444	16442
487.520	19579
487.596	21994
487.672	27708
487.748	48940
487.824	80061
487.900	46450
487.976	19707
488.052	15826
488.128	17942
488.204	15614
488.280	14977
488.356	16203
488.432	28080
488.508	44176
488.584	21111
488.660	13305
488.736	12719
488.812	13558
488.888	16117
488.964	18210
489.039	28019
489.115	44608
489.191	34783
489.267	15909
489.343	13679
489.418	11704
489.494	11846
489.570	10585
489.646	12938
489.722	10972
489.797	11175
489.873	15520
489.949	32538
490.024	34784
490.100	11485
490.176	11516
490.251	11923
490.327	14464
490.403	11304
490.478	11256
490.554	9685
490.629	10126
490.705	9398
490.781	11018
490.856	10458
490.932	11903
491.007	11444
491.083	11328
491.158	10472
491.234	12499
491.309	23943
491.385	29045
491.460	12075
491.536	11667
491.611	10135
491.686	9754
491.762	12402
491.837	18753
491.913	30348
491.988	41396
492.063	54905
492.139	25190
492.214	16264
492.289	9969
492.365	7937
492.440	9926
492.515	9351
492.590	9634
492.666	8471
492.741	11827
492.816	16592
492.891	11816
492.967	10334
493.042	9692
493.117	11017
493.192	14375
493.267	25607
493.342	111864
493.418	194564
493.493	41209
493.568	10459
493.643	8075
493.718	9805
493.793	12237
493.868	14587
493.943	9627
494.018	8264
494.093	7941
494.168	8405
494.243	6606
494.318	7686
494.393	7335
494.468	7295
494.543	6964
494.618	7580
494.693	7029
494.768	6740
494.842	7752
494.917	6854
494.992	7716
495.067	6872
495.142	6415
495.217	7470
495.292	6986
495.366	8351
495.441	8971
495.516	11473
495.591	13095
495.665	33080
495.740	81353
495.815	55869
495.890	12227
495.964	8398
496.039	11745
496.114	10792
496.188	16115
496.263	17948
496.338	9291
496.412	10121
496.487	13345
496.561	11264
496.636	13703
496.710	11603
496.785	13838
496.860	14941
496.934	12835
497.009	12555
497.083	12616
497.158	12978
497.232	14711
497.307	17976
497.381	17003
497.455	18285
497.530	24184
497.604	21672
497.679	20895
497.753	29578
497.827	37592
497.902	36708
497.976	40936
498.050	65785
498.125	231334
498.199	324182
498.273	63775
498.348	40817
498.422	37063
498.496	33437
498.570	31013
498.645	27484
498.719	25332
498.793	26874
498.867	30529
498.941	38067
499.016	88778
499.090	258683
499.164	154379
499.238	18544
499.312	14607
499.386	14831
499.460	14645
499.534	13614
499.609	15161
499.683	20022
499.757	21563
499.831	35141
499.905	152539
499.979	205414
500.053	32332
500.127	24355
500.201	16013
500.275	12514
500.349	11054
500.422	13186
500.496	15302
500.570	26396
500.644	78195
500.718	178887
500.792	67327
500.866	12963
500.940	14983
501.013	14227
501.087	10870
501.161	16212
501.235	21121
501.309	44776
501.382	134872
501.456	164609
501.530	33070
501.603	46202
501.677	27204
501.751	7715
501.825	11378
501.898	18025
501.972	53076
502.046	50870
502.119	11085
502.193	21733
502.266	59136
502.340	42982
502.413	24450
502.487	54813
502.561	36643
502.634	14141
502.708	8414
502.781	7046
502.855	7855
502.928	6195
503.002	6757
503.075	6195
503.149	7603
503.222	8037
503.295	7790
503.369	10154
503.442	12183
503.516	34614
503.589	104218
503.662	89075
503.736	26111
503.809	45962
503.882	49237
503.956	53554
504.029	67852
504.102	32966
504.175	45268
504.249	25216
504.322	13422
504.395	11602
504.468	7639
504.542	6826
504.615	6086
504.688	6641
504.761	3955
504.834	7625
504.907	7150
504.980	11096
505.053	7723
505.127	5571
505.200	11487
505.273	9183
505.346	7808
505.419	5901
505.492	7105
505.565	5072
505.638	5689
505.711	4664
505.784	4577
505.857	3883
505.930	6949
506.003	4831
506.076	7878
506.149	6505
506.221	9117
506.294	9757
506.367	17812
506.440	73324
506.513	61366
506.586	11548
506.659	7015
506.731	5640
506.804	5846
506.877	8571
506.950	7936
507.022	6509
507.095	5975
507.168	9207
507.241	6049
507.313	4696
507.386	3520
507.459	7037
507.531	5580
507.604	4417
507.677	6154
507.749	3357
507.822	6883
507.894	10142
507.967	16996
508.040	10650
508.112	9052
508.185	8359
508.257	7038
508.330	10413
508.402	8307
508.475	8041
508.547	8791
508.620	7756
508.692	12301
508.765	10172
508.837	6415
508.909	6886
508.982	6844
509.054	7359
509.127	6105
509.199	6218
509.271	5138
509.344	6318
509.416	6087
509.488	5553
509.560	6984
509.633	6280
509.705	7409
509.777	7918
509.849	9389
509.922	7828
509.994	7841
510.066	8556
510.138	6583
510.210	16208
510.283	14017
510.355	11652
510.427	11378
510.499	10260
510.571	9579
510.643	9121
510.715	11716
510.787	9945
510.859	10000
510.931	9882
511.003	11822
511.076	11776
511.148	7621
511.219	8456
511.291	13161
511.363	16943
511.435	9634
511.507	7360
511.579	8788
511.651	8812
511.723	7656
511.795	7302
511.867	8016
511.939	9040
512.010	15269
512.082	17058
512.154	8346
512.226	7766
512.298	11657
512.369	16159
512.441	13974
512.513	11707
512.585	9782
512.656	10217
512.728	10688
512.800	8831
512.871	9054
512.943	8921
513.015	7641
513.086	8532
513.158	9354
513.230	7723
513.301	11009
513.373	13317
513.444	9215
513.516	8631
513.588	7876
513.659	8143
513.731	9611
513.802	7888
513.874	13928
513.945	22702
514.016	12767
514.088	8419
514.159	7004
514.231	10302
514.302	14720
514.374	13124
514.445	10508
514.516	19668
514.588	18533
514.659	10361
514.730	17370
514.802	18149
514.873	12214
514.944	18122
515.016	15003
515.087	12921
515.158	14786
515.229	21435
515.301	15831
515.372	24811
515.443	19720
515.514	13266
515.585	10422
515.656	11016
515.728	9995
515.799	7592
515.870	9236
515.941	9707
516.012	8035
516.083	11535
516.154	12460
516.225	12836
516.296	14503
516.367	10823
516.438	11830
516.509	13629
516.580	17897
516.651	40628
516.722	148389
516.793	117941
516.864	21983
516.935	19584
517.006	20786
517.077	25178
517.148	44730
517.219	150645
517.289	351302
517.360	138147
517.431	58105
517.502	13235
517.573	12818
517.643	11200
517.714	12422
517.785	13972
517.856	12651
517.926	15850
517.997	18165
518.068	19843
518.138	27535
518.209	31353
518.280	101727
518.350	446435
518.421	306982
518.492	34868
518.562	18728
518.633	17434
518.703	16819
518.774	26246
518.845	52579
518.915	66004
518.986	28821
519.056	18546
519.127	22452
519.197	32102
519.268	83628
519.338	84827
519.408	18238
519.479	14929
519.549	13920
519.620	9875
519.690	7924
519.760	8633
519.831	8191
519.901	8715
519.971	7504
520.042	7486
520.112	9262
520.182	9483
520.253	11186
520.323	8849
520.393	7758
520.463	11974
520.534	6780
520.604	14856
520.674	12333
520.744	10338
520.814	13395
520.885	16202
520.955	25053
521.025	104946
521.095	70042
521.165	12502
521.235	8942
521.305	7068
521.375	6967
521.445	7850
521.515	7918
521.585	10178
521.655	9468
521.725	8498
521.795	10233
521.865	4960
521.935	12410
522.005	11113
522.075	6604
522.145	8455
522.215	8042
522.285	12603
522.355	14680
522.424	28078
522.494	28196
522.564	13952
522.634	15649
522.704	46584
522.774	29683
522.843	8625
522.913	7166
522.983	9903
523.053	7997
523.122	8668
523.192	8283
523.262	20385
523.331	32754
523.401	10239
523.471	6295
523.540	6543
523.610	5311
523.680	5858
523.749	6292
523.819	9190
523.888	10170
523.958	5789
524.027	6018
524.097	7123
524.166	6448
524.236	5193
524.305	7648
524.375	5691
524.444	5125
524.514	8151
524.583	6263
524.653	7137
524.722	9413
524.791	5879
524.861	7391
524.930	5073
524.999	5549
525.069	7006
525.138	7215
525.207	7752
525.277	7738
525.346	6500
525.415	7159
525.484	6452
525.554	7453
525.623	9618
525.692	11878
525.761	10218
525.830	9714
525.900	10624
525.969	14915
526.038	22710
526.107	34225
526.176	113933
526.245	128981
526.314	42645
526.383	56621
526.452	95865
526.522	127683
526.591	196382
526.660	52091
526.729	27726
526.797	25419
526.867	37850
526.935	151566
527.004	342491
527.073	286208
527.142	33004
527.211	11675
527.280	8992
527.349	8997
527.418	4759
527.487	6208
527.555	4103
527.624	4550
527.693	3131
527.762	6276
527.831	3521
527.899	4931
527.968	4733
528.037	4551
528.106	5924
528.174	9183
528.243	10650
528.312	10312
528.380	17504
528.449	7587
528.518	6317
528.586	2823
528.655	6055
528.723	4223
528.792	4307
528.861	4260
528.929	2929
528.998	4661
529.066	3927
529.135	4212
529.203	3326
529.272	2480
529.340	4534
529.409	5539
529.477	3396
529.545	4483
529.614	8476
529.682	4269
529.751	8168
529.819	9089
529.887	5818
529.956	4532
530.024	5466
530.092	2694
530.161	4379
530.229	7233
530.297	4455
530.365	4916
530.434	3281
530.502	2447
530.570	3742
530.638	2360
530.707	3668
530.775	5714
530.843	3923
530.911	4018
530.979	3905
531.047	3908
531.115	4366
531.183	3898
531.252	4196
531.320	3434
531.388	3832
531.456	4565
531.524	2464
531.592	3737
531.660	6226
531.728	3760
531.796	3148
531.864	4386
531.932	4583
532.000	3581
532.067	3913
532.135	4974
532.203	6592
532.271	5357
532.339	8482
532.407	21271
532.475	18812
532.542	8518
532.610	8715
532.678	8848
532.746	28957
532.814	105939
532.881	38549
532.949	8046
533.017	5389
533.084	5270
533.152	3752
533.220	4243
533.287	4650
533.355	4471
533.423	4524
533.490	2722
533.558	4146
533.625	4014
533.693	5088
533.761	6361
533.828	5047
533.896	4722
533.963	10434
534.031	13211
534.098	15605
534.166	11749
534.233	5552
534.300	7979
534.368	7360
534.435	5454
534.503	7217
534.570	6982
534.637	6481
534.705	8053
534.772	8385
534.840	10714
534.907	47600
534.974	96987
535.041	16838
535.109	7305
535.176	6031
535.243	4938
535.310	4422
535.378	4533
535.445	4976
535.512	4885
535.579	5352
535.646	4002
535.714	5128
535.781	6895
535.848	7546
535.915	8053
535.982	7805
536.049	7563
536.116	9330
536.183	6673
536.250	6300
536.317	6056
536.384	7602
536.451	9001
536.518	9773
536.585	5624
536.652	8899
536.719	11215
536.786	8288
536.853	7211
536.920	11047
536.987	13680
537.053	13060
537.120	42241
537.187	58506
537.254	7702
537.321	5337
537.388	5642
537.454	4077
537.521	5190
537.588	4600
537.654	6541
537.721	7272
537.788	7233
537.855	5452
537.921	5756
537.988	5624
538.055	5335
538.121	4521
538.188	5435
538.254	7667
538.321	14129
538.388	11251
538.454	6339
538.521	6216
538.587	5165
538.654	5115
538.720	4559
538.787	4887
538.853	5523
538.920	6802
538.986	7484
539.053	5679
539.119	5225
539.185	5029
539.252	6906
539.318	9304
539.385	9253
539.451	6806
539.517	7368
539.583	8164
539.650	12418
539.716	40063
539.782	18307
539.849	5389
539.915	7001
539.981	5502
540.047	6687
540.114	6893
540.180	7338
540.246	5655
540.312	7421
540.378	13884
540.444	16658
540.510	13429
540.576	42392
540.643	22016
540.709	6052
540.775	5668
540.841	5771
540.907	8061
540.973	12873
541.039	10018
541.105	10245
541.171	7330
541.237	5390
541.303	6226
541.369	8915
541.435	8082
541.500	12305
541.566	9379
541.632	6011
541.698	5621
541.764	5803
541.830	5095
541.896	5836
541.961	5537
542.027	5575
542.093	4737
542.159	6450
542.224	5829
542.290	11214
542.356	12266
542.421	16304
542.487	11352
542.553	6715
542.618	8116
542.684	7245
542.750	5716
542.815	8018
542.881	10093
542.947	34718
543.012	36323
543.078	7038
543.143	5547
543.209	6615
543.274	6273
543.340	7384
543.405	12201
543.471	27185
543.536	9572
543.602	6470
543.667	5173
543.732	7798
543.798	5211
543.863	6190
543.928	5485
543.994	5590
544.059	5965
544.124	5538
544.190	5772
544.255	7095
544.320	6991
544.386	5437
544.451	8218
544.516	9434
544.581	8942
544.646	19625
544.712	44934
544.777	12208
544.842	7865
544.907	8561
544.972	7631
545.037	8254
545.102	8487
545.168	7887
545.233	8892
545.298	8812
545.363	9140
545.428	11390
545.493	14786
545.558	31312
545.623	19421
545.688	8185
545.753	8814
545.818	6900
545.883	7822
545.947	8366
546.012	8830
546.077	8866
546.142	8619
546.207	7645
546.272	9789
546.337	9930
546.401	9818
546.466	8852
546.531	7951
546.596	9531
546.661	8967
546.725	9358
546.790	7132
546.855	7735
546.919	6897
546.984	8881
547.049	9552
547.113	11460
547.178	10411
547.243	10602
547.307	11676
547.372	13613
547.436	15573
547.501	11985
547.565	12620
547.630	13222
547.695	13704
547.759	14610
547.823	15782
547.888	12606
547.952	12752
548.017	13470
548.081	21542
548.146	23852
548.210	18024
548.274	13437
548.339	12436
548.403	12214
548.468	11514
548.532	11224
548.596	11591
548.660	11311
548.725	12431
548.789	14169
548.853	16608
548.917	13694
548.982	15448
549.046	17994
549.110	11622
549.174	11707
549.238	11307
549.303	11475
549.367	12699
549.431	13011
549.495	11575
549.559	11511
549.623	12757
549.687	15248
549.751	17601
549.815	17225
549.879	16614
549.943	13683
550.007	15066
550.071	16418
550.135	16482
550.199	15833
550.263	14432
550.327	15034
550.391	21168
550.455	21651
550.519	16331
550.582	15746
550.646	18250
550.710	21792
550.774	16943
550.838	17663
550.901	18309
550.965	20203
551.029	20725
551.093	25042
551.156	29887
551.220	48047
551.284	65069
551.347	36531
551.411	44158
551.475	58747
551.538	23430
551.602	17004
551.666	15663
551.729	14867
551.793	15110
551.856	15746
551.920	16898
551.983	16375
552.047	14038
552.110	14794
552.174	17462
552.237	16638
552.301	14280
552.364	12531
552.428	12857
552.491	13456
552.554	14709
552.618	13961
552.681	14796
552.745	14341
552.808	19140
552.871	24797
552.934	19868
552.998	16333
553.061	16919
553.124	16856
553.187	17263
553.251	19074
553.314	20544
553.377	22074
553.440	30873
553.503	96029
553.567	229180
553.630	55613
553.693	18125
553.756	15784
553.819	13106
553.882	12367
553.945	12611
554.008	13079
554.071	11303
554.134	12843
554.197	11342
554.260	11554
554.323	13246
554.386	12180
554.449	12647
554.512	13107
554.575	10099
554.638	11944
554.701	12135
554.764	11530
554.827	11838
554.889	10790
554.952	9535
555.015	9697
555.078	10067
555.141	10883
555.203	10420
555.266	10819
555.329	11088
555.391	10150
555.454	10079
555.517	10567
555.580	10786
555.642	9492
555.705	9140
555.768	10183
555.830	9722
555.893	9336
555.955	8884
556.018	9102
556.080	8569
556.143	8872
556.206	9197
556.268	9596
556.330	9500
556.393	9046
556.455	9502
556.518	11477
556.580	15760
556.643	8683
556.705	8310
556.767	7711
556.830	9221
556.892	8924
556.955	12397
557.017	11848
557.079	8686
557.142	8292
557.204	9183
557.266	15751
557.328	16952
557.391	7975
557.453	8248
557.515	8543
557.577	8912
557.639	10618
557.701	8429
557.764	8692
557.826	9673
557.888	10756
557.950	11401
558.012	12386
558.074	15328
558.136	33130
558.198	106003
558.260	55297
558.322	16041
558.384	16340
558.446	18277
558.508	22286
558.570	27368
558.632	37432
558.694	53555
558.756	62361
558.818	174650
558.880	629138
558.942	272768
559.003	119631
559.065	79983
559.127	26353
559.189	24184
559.251	26312
559.312	33516
559.374	75852
559.436	333439
559.498	250888
559.559	34348
559.621	24658
559.683	25156
559.744	37974
559.806	123313
559.868	275810
559.929	67503
559.991	24866
560.052	30244
560.114	94000
560.176	84107
560.237	49316
560.299	109742
560.360	33416
560.422	11218
560.483	9216
560.545	8152
560.606	8838
560.667	6700
560.729	7653
560.790	6038
560.852	6799
560.913	6789
560.974	6600
561.036	7109
561.097	7629
561.158	7484
561.220	7237
561.281	6678
561.342	7444
561.403	8407
561.465	8842
561.526	17874
561.587	30149
561.648	11715
561.709	6888
561.771	7287
561.832	7113
561.893	7307
561.954	7135
562.015	6377
562.076	6846
562.137	6785
562.198	7070
562.259	6309
562.320	6823
562.381	7415
562.442	9449
562.503	9133
562.564	6853
562.625	6490
562.686	7149
562.747	7699
562.808	7513
562.869	6443
562.930	8863
562.991	8960
563.051	6891
563.112	7271
563.173	6987
563.234	6458
563.294	6685
563.355	6255
563.416	7194
563.477	6445
563.537	6372
563.598	7612
563.659	6901
563.720	7240
563.780	8229
563.841	8007
563.901	8423
563.962	7194
564.023	6859
564.083	7489
564.144	7250
564.204	8293
564.265	7697
564.325	8690
564.386	16071
564.446	18705
564.507	8706
564.567	7594
564.628	7359
564.688	6371
564.749	7263
564.809	8605
564.869	10770
564.930	8193
564.990	7087
565.050	6589
565.111	7426
565.171	7601
565.231	7294
565.292	8428
565.352	7009
565.412	7507
565.472	8531
565.532	8161
565.593	8143
565.653	7537
565.713	8055
565.773	9285
565.833	9857
565.893	13296
565.953	9533
566.013	8170
566.074	9532
566.134	12455
566.194	16778
566.254	19785
566.314	14899
566.374	10786
566.434	11760
566.494	12245
566.554	12378
566.614	11925
566.673	13155
566.733	14778
566.793	15558
566.853	15571
566.913	17537
566.973	17039
567.033	17739
567.092	16779
567.152	16487
567.212	17548
567.272	18653
567.331	20720
567.391	21641
567.451	23803
567.511	26315
567.570	26450
567.630	20181
567.690	19615
567.749	20448
567.809	21081
567.868	23207
567.928	27210
567.988	31185
568.047	37449
568.107	45406
568.166	61397
568.226	89374
568.285	127284
568.345	133939
568.404	118365
568.464	101555
568.523	90738
568.582	88959
568.642	92492
568.701	109296
568.761	145225
568.820	209190
568.879	244422
568.939	213017
568.998	168351
569.057	128759
569.116	101719
569.176	81189
569.235	64473
569.294	54713
569.353	44625
569.413	39125
569.472	34629
569.531	30018
569.590	26917
569.649	23285
569.708	21380
569.767	20826
569.827	19684
569.886	18191
569.945	16092
570.004	14891
570.063	14183
570.122	13225
570.181	13537
570.240	14017
570.299	13148
570.358	12436
570.417	11147
570.475	9895
570.534	10137
570.593	10135
570.652	10085
570.711	8887
570.770	9537
570.829	11128
570.887	10251
570.946	10271
571.005	7781
571.064	7758
571.122	7962
571.181	9514
571.240	8341
571.299	7784
571.357	8089
571.416	9102
571.475	9169
571.533	10191
571.592	7150
571.650	8230
571.709	6687
571.768	7354
571.826	6262
571.885	5691
571.943	6525
572.002	5999
572.060	6983
572.119	6258
572.177	6207
572.236	5687
572.294	4642
572.352	5734
572.411	5982
572.469	5808
572.528	5336
572.586	5791
572.644	6044
572.703	7514
572.761	5638
572.819	4999
572.877	6415
572.936	6644
572.994	5089
573.052	5433
573.110	5781
573.169	5803
573.227	4354
573.285	5574
573.343	4771
573.401	5052
573.459	5409
573.517	5559
573.576	5555
573.634	6468
573.692	6130
573.750	5901
573.808	4165
573.866	4882
573.924	7313
573.982	7463
574.040	5826
574.098	5460
574.155	4890
574.213	4261
574.271	4597
574.329	4927
574.387	4122
574.445	4767
574.503	4392
574.560	3950
574.618	4063
574.676	3613
574.734	4882
574.792	4541
574.849	4512
574.907	4296
574.965	3460
575.022	3345
575.080	3988
575.138	4585
575.195	4975
575.253	5431
575.311	4613
575.368	5032
575.426	3772
575.483	5436
575.541	4942
575.598	4530
575.656	4582
575.713	5197
575.771	4876
575.828	4921
575.886	4445
575.943	5460
576.001	4837
576.058	4511
576.115	5760
576.173	5861
576.230	6082
576.287	7694
576.345	6785
576.402	5280
576.459	4577
576.517	5590
576.574	5501
576.631	6568
576.688	5772
576.746	5304
576.803	4859
576.860	5009
576.917	4933
576.974	4628
577.031	5287
577.089	5262
577.146	4757
577.203	4845
577.260	6057
577.317	6939
577.374	7537
577.431	5635
577.488	4620
577.545	5029
577.602	6955
577.659	6253
577.716	6614
577.773	9046
577.830	7628
577.886	6488
577.943	6361
578.000	5870
578.057	5378
578.114	7330
578.171	7672
578.227	10112
578.284	10509
578.341	9696
578.398	7612
578.454	8077
578.511	7334
578.568	7505
578.625	6385
578.681	6325
578.738	4876
578.794	5225
578.851	4685
578.908	5370
578.964	5196
579.021	5410
579.077	4544
579.134	4915
579.190	4228
579.247	4481
579.303	4219
579.360	4292
579.416	5081
579.473	4609
579.529	4014
579.586	5219
579.642	4659
579.698	5249
579.755	5413
579.811	6862
579.867	5977
579.924	6128
579.980	6476
580.036	7283
580.093	9265
580.149	13167
580.205	17534
580.261	15192
580.317	12045
580.374	10304
580.430	8889
580.486	9448
580.542	7827
580.598	6929
580.619	6789
580.654	6553
580.692	6017
580.710	5763
580.765	5132
580.767	5116
580.823	5993
580.838	5925
580.879	5759
580.911	5654
580.935	5592
580.984	5972
580.991	6031
581.047	5752
581.057	5945
581.103	6820
581.130	6908
581.159	7026
581.203	7143
581.215	7171
581.270	7272
581.276	7260
581.326	7189
581.349	6817
581.382	6284
581.422	5964
581.438	5838
581.494	5841
581.494	5842
581.550	6098
581.567	6262
581.606	6653
581.640	5928
581.661	5481
581.713	6612
581.717	6711
581.773	5546
581.786	5525
581.829	5439
581.859	5562
581.885	5703
581.932	4978
581.940	4833
581.996	6196
582.004	6227
582.052	6390
582.077	5885
582.107	5316
582.150	6219
582.163	6495
582.219	5844
582.223	5805
582.274	5427
582.296	5635
582.330	5932
582.368	6164
582.386	6293
582.441	6006
582.441	6005
582.497	6488
582.514	6530
582.552	6884
582.587	7794
582.608	8280
582.659	7905
582.663	7867
582.719	6439
582.732	6371
582.774	6401
582.805	6247
582.830	6040
582.877	6336
582.885	6399
582.941	6508
582.950	6583
582.996	6776
583.023	6953
583.052	7448
583.095	8257
583.107	8446
583.162	9379
583.168	9581
583.218	11131
583.240	10856
583.273	10238
583.313	9067
583.328	8783
583.384	8086
583.385	8093
583.439	7841
583.458	7581
583.494	7288
583.531	7331
583.549	7367
583.603	7898
583.605	7912
583.660	7122
583.676	7072
583.715	6965
583.748	7135
583.770	7323
583.820	7937
583.825	7957
583.881	7371
583.893	7194
583.936	7071
583.965	7223
583.991	7101
584.038	6984
584.046	7032
584.101	8084
584.110	8031
584.156	7413
584.183	7058
584.211	6760
584.255	7427
584.266	7620
584.321	7588
584.328	7656
584.376	8100
584.400	8079
584.431	8009
584.472	7560
584.486	7443
584.541	7681
584.545	7705
584.596	7868
584.617	7891
584.651	8344
584.689	8831
584.706	8838
584.761	8923
584.762	8919
584.816	8794
584.834	8974
584.871	9236
584.906	8934
584.926	8848
584.978	9815
584.980	9851
585.035	9984
585.051	10244
585.090	10921
585.123	11066
585.145	11166
585.195	11633
585.200	11731
585.254	13513
585.267	14129
585.309	16396
585.340	19411
585.364	21160
585.412	18524
585.419	18152
585.473	17744
585.484	17966
585.528	19919
585.556	22454
585.583	27180
585.628	39620
585.637	44031
585.692	84895
585.700	94809
585.747	134710
585.772	115548
585.801	80617
585.845	33848
585.856	26218
585.910	17889
585.917	17249
585.965	15230
585.989	14709
586.019	14298
586.061	14165
586.074	14137
586.128	14396
586.133	14374
586.183	14313
586.205	14568
586.237	15045
586.277	15403
586.292	15503
586.346	15861
586.349	15872
586.401	15756
586.421	15818
586.455	16477
586.493	17421
586.509	18499
586.564	22996
586.565	23166
586.618	32190
586.637	33155
586.672	29019
586.709	22678
586.727	20772
586.781	19325
586.781	19327
586.835	19480
586.853	19473
586.889	19902
586.925	20098
586.944	20035
586.996	20677
586.998	20702
587.052	21415
587.068	21639
587.106	22397
587.140	22598
587.161	23048
587.212	24981
587.215	25038
587.269	25571
587.284	25806
587.323	26654
587.356	27403
587.377	28150
587.427	30025
587.431	30144
587.485	31388
587.499	31859
587.539	33364
587.571	34465
587.593	35476
587.643	37566
587.648	37848
587.702	41652
587.715	42377
587.755	43889
587.786	45736
587.810	47829
587.858	51552
587.864	52042
587.917	58153
587.930	59333
587.971	64316
588.001	68599
588.025	72026
588.073	79290
588.079	80475
588.133	91336
588.145	93843
588.187	104093
588.217	112299
588.241	120244
588.288	136469
588.295	139007
588.348	161986
588.360	167204
588.402	190427
588.431	207809
588.456	224671
588.503	259948
588.510	266426
588.564	323336
588.575	336486
588.617	400299
588.646	449722
588.671	511998
588.718	644019
588.725	676248
588.778	953238
588.789	1016849
588.832	1389706
588.861	1657350
588.886	1847400
588.932	2101633
588.939	2093054
588.993	1854288
589.004	1855058
589.047	1861193
589.075	1772922
589.100	1548497
589.147	1037865
589.154	995997
589.207	732609
589.218	687005
589.261	623578
589.290	596172
589.314	614419
589.361	670164
589.368	696564
589.421	945422
589.433	1005995
589.475	1388868
589.504	1664081
589.528	1774136
589.576	1845190
589.582	1814594
589.635	1596506
589.647	1524382
589.689	1092457
589.718	766149
589.742	622955
589.790	388269
589.795	374543
589.849	272890
589.861	252048
589.902	210725
589.932	183018
589.955	166709
590.004	135304
590.009	133241
590.062	113965
590.075	109513
590.115	98141
590.146	90015
590.168	86231
590.218	77987
590.222	77351
590.275	69953
590.289	68037
590.328	64043
590.360	60902
590.381	59041
590.431	54653
590.435	54450
590.488	51026
590.503	50058
590.541	47007
590.574	44468
590.594	43532
590.645	41309
590.647	41256
590.700	39324
590.716	38649
590.753	36864
590.787	35423
590.806	34905
590.859	33533
590.859	33545
590.912	32993
590.930	32853
590.965	31841
591.001	30866
591.018	30265
591.071	28268
591.072	28228
591.124	28197
591.143	28161
591.177	27733
591.214	27330
591.230	27397
591.283	27398
591.285	27360
591.336	26653
591.356	26435
591.389	25773
591.427	24793
591.442	24633
591.495	23985
591.498	23897
591.547	23333
591.569	23138
591.600	22916
591.640	22389
591.653	22413
591.706	22515
591.711	22484
591.759	22481
591.782	22523
591.811	22954
591.853	23357
591.864	22991
591.917	20984
591.924	20661
591.969	20908
591.995	21027
592.022	20583
592.066	19755
592.075	20159
592.127	22526
592.137	22926
592.180	24013
592.208	24650
592.233	22748
592.279	18911
592.285	18899
592.338	18680
592.350	18606
592.390	17938
592.421	17396
592.443	17441
592.491	17468
592.495	17563
592.548	18561
592.562	18812
592.600	18285
592.633	17777
592.653	17572
592.704	16886
592.705	16987
592.775	17204
592.846	17225
592.916	16803
592.987	18719
593.058	16618
593.128	16360
593.199	17015
593.270	15737
593.341	15691
593.411	15062
593.482	16278
593.553	15819
593.623	15531
593.694	15701
593.764	16367
593.835	17039
593.906	14712
593.976	14738
594.047	14965
594.117	18773
594.188	17899
594.258	15393
594.329	14291
594.399	15161
594.470	14856
594.540	15668
594.611	14105
594.681	15410
594.751	14692
594.822	16192
594.892	16811
594.963	16260
595.033	15219
595.103	15933
595.174	17151
595.244	24454
595.314	28484
595.384	16845
595.455	16489
595.525	16588
595.595	15532
595.665	16338
595.736	16213
595.806	16303
595.876	15540
595.946	15977
596.016	16079
596.087	16336
596.157	16616
596.227	16127
596.297	17716
596.367	18010
596.437	19859
596.507	25477
596.577	27947
596.647	20009
596.717	17923
596.787	18754
596.857	18217
596.927	18629
596.997	18149
597.067	19661
597.137	21359
597.207	18952
597.277	18243
597.347	18778
597.417	17692
597.487	18917
597.557	19106
597.626	18841
597.696	19173
597.766	23771
597.836	26776
597.906	19843
597.975	16786
598.045	16928
598.115	17143
598.185	19147
598.254	20390
598.324	20940
598.394	20592
598.464	20757
598.533	19435
598.603	18191
598.672	18332
598.742	18424
598.812	18028
598.881	18972
598.951	19570
599.020	18939
599.090	17990
599.159	19548
599.229	19302
599.299	17902
599.368	18527
599.437	18711
599.507	17591
599.576	18815
599.646	17992
599.715	19228
599.785	17058
599.854	17096
599.924	18735
599.993	17794
600.062	16535
600.132	16680
600.201	17175
600.270	20102
600.340	18683
600.409	19235
600.478	18344
600.547	19150
600.617	18242
600.686	16149
600.755	15017
600.824	14307
600.894	13797
600.963	13744
601.032	13749
601.101	13519
601.170	12873
601.239	13122
601.308	12905
601.378	13379
601.447	12689
601.516	11995
601.585	12813
601.654	13636
601.723	13455
601.792	14046
601.861	14643
601.930	17379
601.999	14572
602.068	13920
602.137	14063
602.206	14926
602.275	13195
602.343	16136
602.412	15090
602.481	13972
602.550	13788
602.619	14017
602.688	14387
602.756	14964
602.825	14246
602.894	14979
602.963	15331
603.032	14903
603.100	15176
603.169	14570
603.238	13926
603.307	15460
603.375	15387
603.444	15031
603.513	15642
603.581	15748
603.650	15892
603.719	15541
603.787	15193
603.856	15666
603.924	16476
603.993	17704
604.061	16758
604.130	18056
604.198	18045
604.267	18311
604.335	17715
604.404	17923
604.472	17785
604.541	18354
604.609	18765
604.678	18412
604.746	18629
604.815	19157
604.883	19323
604.951	19808
605.020	19188
605.088	20008
605.156	19987
605.225	20232
605.293	20249
605.361	20129
605.429	21095
605.498	21004
605.566	22314
605.634	22601
605.702	22977
605.771	23738
605.839	22839
605.907	22955
605.975	22426
606.043	22530
606.111	21716
606.180	22156
606.248	24311
606.316	25705
606.384	21843
606.452	25434
606.520	25405
606.588	23600
606.656	21151
606.724	21787
606.792	20325
606.860	18927
606.928	17019
606.996	18288
607.064	16325
607.132	16647
607.200	17233
607.267	17395
607.335	17554
607.403	19147
607.471	17490
607.539	18628
607.607	18033
607.674	16591
607.742	16577
607.810	16894
607.878	16595
607.946	16680
608.013	17296
608.081	18024
608.149	18343
608.216	17117
608.284	20267
608.352	18589
608.419	18140
608.487	24416
608.555	19142
608.622	18195
608.690	19453
608.757	20367
608.825	21127
608.893	21417
608.960	20967
609.028	22019
609.095	25816
609.163	19856
609.230	16783
609.298	17614
609.365	16414
609.432	17568
609.500	19116
609.567	22020
609.635	23619
609.702	24910
609.769	24633
609.837	21417
609.904	19177
609.971	17916
610.039	25413
610.106	33128
610.173	65691
610.241	152828
610.308	82652
610.375	31105
610.442	19264
610.509	18107
610.577	18483
610.644	18298
610.711	18214
610.778	18623
610.845	19450
610.912	21262
610.980	24762
611.047	29141
611.114	23575
611.181	20041
611.248	18711
611.315	22781
611.382	20285
611.449	21700
611.516	23226
611.583	22834
611.650	22833
611.717	23218
611.784	24470
611.851	26717
611.918	32364
611.984	40742
612.051	65324
612.118	141537
612.185	358901
612.252	186227
612.319	40844
612.386	31959
612.452	27159
612.519	28174
612.586	32909
612.653	27954
612.719	26276
612.786	24457
612.853	21938
612.919	20780
612.986	23655
613.053	21616
613.120	18815
613.186	18447
613.253	20834
613.319	19463
613.386	19160
613.453	20529
613.519	21071
613.586	23596
613.652	29251
613.719	25242
613.785	23647
613.852	21591
613.918	19722
613.985	25437
614.051	33100
614.118	60850
614.184	52974
614.250	22287
614.317	21050
614.383	20909
614.449	19752
614.516	20123
614.582	21067
614.648	19507
614.715	19384
614.781	19569
614.847	19889
614.914	20310
614.980	18928
615.046	20027
615.112	21322
615.179	20998
615.245	23539
615.311	27985
615.377	41512
615.443	42723
615.509	27551
615.575	25231
615.642	23419
615.708	25438
615.774	27850
615.840	34662
615.906	44505
615.972	68602
616.038	126538
616.104	225464
616.170	494413
616.236	349673
616.302	68084
616.368	44433
616.434	31793
616.500	29977
616.565	32380
616.631	39229
616.697	31736
616.763	33764
616.829	50886
616.895	93903
616.961	82012
617.026	33434
617.092	23054
617.158	21568
617.224	20641
617.289	19976
617.355	18773
617.421	18039
617.487	19318
617.552	16692
617.618	17025
617.684	15424
617.749	18618
617.815	17343
617.880	16456
617.946	16416
618.012	16497
618.077	16049
618.143	15811
618.208	16199
618.274	17133
618.339	17546
618.405	14390
618.470	15149
618.536	14945
618.601	16713
618.667	14315
618.732	13985
618.798	13731
618.863	13755
618.928	13076
618.994	15262
619.059	15910
619.124	19901
619.190	15426
619.255	13845
619.320	14248
619.386	14195
619.451	12016
619.516	12716
619.581	12545
619.647	13535
619.712	12992
619.777	13252
619.842	13047
619.907	12951
619.972	13257
620.038	13642
620.103	12834
620.168	11555
620.233	13150
620.298	12843
620.363	12285
620.428	13510
620.493	12799
620.558	13388
620.623	12276
620.688	13988
620.753	12511
620.818	12732
620.883	13731
620.948	13475
621.013	14392
621.078	13478
621.143	12072
621.207	15486
621.272	14278
621.337	14606
621.402	14853
621.467	18790
621.532	17919
621.596	15411
621.661	15114
621.726	14080
621.791	14196
621.855	15133
621.920	15038
621.985	15718
622.049	18730
622.114	17402
622.179	15317
622.243	16477
622.308	14491
622.373	17017
622.437	15334
622.502	14638
622.566	15303
622.631	14195
622.695	15886
622.760	15645
622.824	15251
622.889	16097
622.953	15175
623.018	21835
623.082	20100
623.147	15650
623.211	13847
623.276	15212
623.340	13798
623.404	13851
623.469	13785
623.533	13783
623.597	12997
623.662	13246
623.726	12437
623.790	12261
623.854	12063
623.919	13452
623.983	12324
624.047	13152
624.111	12322
624.176	13153
624.240	12584
624.304	14674
624.368	13230
624.432	12713
624.496	13719
624.560	14176
624.625	15200
624.689	14331
624.753	12828
624.817	13429
624.881	12555
624.945	12864
625.009	11764
625.073	12208
625.137	12176
625.201	16459
625.265	15549
625.329	13410
625.393	13065
625.456	13152
625.520	13658
625.584	14558
625.648	18194
625.712	29107
625.776	60631
625.839	64626
625.903	23975
625.967	15749
626.031	26335
626.095	37491
626.158	14576
626.222	9312
626.286	9924
626.349	9461
626.413	8171
626.477	11252
626.540	9282
626.604	9258
626.668	9687
626.731	8447
626.795	9474
626.858	9522
626.922	8652
626.986	9572
627.049	6114
627.113	9944
627.176	8057
627.240	8867
627.303	7788
627.366	8345
627.430	8931
627.493	8769
627.557	7533
627.620	10450
627.684	8067
627.747	9020
627.810	6717
627.874	8891
627.937	6985
628.000	9314
628.064	9175
628.127	6028
628.190	7930
628.253	7316
628.317	7657
628.380	7033
628.443	7292
628.506	7807
628.569	6257
628.632	6210
628.696	6564
628.759	6169
628.822	5886
628.885	6064
628.948	5738
629.011	6248
629.074	6612
629.137	6248
629.200	6557
629.263	7547
629.326	5139
629.389	5872
629.452	6172
629.515	6736
629.578	5844
629.641	7868
629.704	5545
629.767	5892
629.830	6232
629.892	5601
629.955	5580
630.018	8257
630.081	5079
630.144	8551
630.207	5878
630.269	7595
630.332	6737
630.395	5991
630.458	5212
630.520	4221
630.583	6261
630.646	6488
630.708	4517
630.771	4874
630.834	6167
630.896	5208
630.959	5100
631.021	5319
631.084	5679
631.146	6507
631.209	7652
631.272	5709
631.334	4248
631.397	5480
631.459	4850
631.522	5548
631.584	4961
631.646	6507
631.709	6778
631.771	8570
631.834	6527
631.896	6621
631.958	4214
632.021	6205
632.083	4496
632.145	5704
632.208	5477
632.270	6078
632.332	3942
632.395	3601
632.457	5505
632.519	5140
632.581	5499
632.643	4219
632.706	4775
632.768	4279
632.830	4821
632.892	4919
632.954	4175
633.016	5094
633.078	3798
633.141	3898
633.203	4304
633.265	5060
633.327	4880
633.389	4295
633.451	5509
633.513	6393
633.575	6378
633.637	6259
633.698	5368
633.760	4831
633.822	5033
633.884	5169
633.946	4824
634.008	5023
634.070	6041
634.132	7115
634.193	5266
634.255	7121
634.317	5816
634.379	6958
634.441	5169
634.502	4990
634.564	5120
634.626	4707
634.687	4934
634.749	4966
634.811	4781
634.873	3320
634.934	4305
634.996	5093
635.057	4127
635.119	4242
635.181	4448
635.242	5422
635.304	2417
635.365	6457
635.427	3744
635.488	3934
635.550	3793
635.611	4579
635.673	2859
635.734	6479
635.796	4322
635.857	6235
635.918	3682
635.980	6793
636.041	5006
636.102	7257
636.164	6368
636.225	7251
636.286	3835
636.348	5855
636.409	5339
636.470	4418
636.531	4185
636.593	5030
636.654	4951
636.715	3950
636.776	3540
636.838	3068
636.899	4180
636.960	3580
637.021	3749
637.082	3331
637.143	3969
637.204	2823
637.265	3083
637.326	3924
637.387	3809
637.448	1500
637.509	3393
637.570	2816
637.631	3892
637.692	1994
637.753	2080
637.814	3348
637.875	3072
637.936	4030
637.997	1741
638.058	3442
638.119	3824
638.179	3434
638.240	2672
638.301	2919
638.362	2359
638.423	2794
638.483	3985
638.544	2359
638.605	2948
638.666	2962
638.726	2224
638.787	3452
638.848	2133
638.908	2758
638.969	2918
639.030	2788
639.090	2004
639.151	2549
639.211	3384
639.272	4847
639.332	6823
639.393	4149
639.453	2692
639.514	3880
639.574	2898
639.635	2332
639.695	2783
639.756	2361
639.816	2820
639.877	3473
639.937	7148
639.997	8726
640.058	1525
640.118	1871
640.178	3265
640.239	2581
640.299	2098
640.359	2540
640.420	2162
640.480	2860
640.540	3772
640.600	3026
640.661	4192
640.721	3464
640.781	7425
640.841	4910
640.901	2679
640.961	3741
641.021	3379
641.082	3432
641.142	5120
641.202	4597
641.262	1271
641.322	2893
641.382	1890
641.442	3008
641.502	2519
641.562	3571
641.622	1945
641.682	2390
641.742	2731
641.802	2861
641.861	2740
641.921	3395
641.981	3838
642.041	3907
642.101	4663
642.161	2245
642.221	1963
642.280	2233
642.340	2353
642.400	1298
642.460	3283
642.519	1743
642.579	2397
642.639	2670
642.698	-565
642.758	4786
642.818	2040
642.877	1520
642.937	2705
642.997	3482
643.056	4388
643.116	1767
643.175	4016
643.235	2833
643.294	2923
643.354	3578
643.414	4130
643.473	5302
643.532	6788
643.592	10661
643.651	18618
643.711	32846
643.770	63346
643.830	152883
643.889	307659
643.948	63956
644.008	10670
644.067	6608
644.126	3908
644.186	3206
644.245	3281
644.304	2107
644.363	5276
644.423	1777
644.482	2498
644.541	4020
644.600	576
644.659	4267
644.719	3929
644.778	7164
644.837	11726
644.896	25550
644.955	57530
645.014	17491
645.073	5519
645.132	3008
645.191	3289
645.250	2043
645.309	3779
645.368	3256
645.427	3836
645.486	5193
645.545	10433
645.604	2430
645.663	3588
645.722	2103
645.781	3487
645.840	5079
645.898	6717
645.957	10770
646.016	14919
646.075	29305
646.134	53353
646.192	145184
646.251	200772
646.310	24990
646.369	6683
646.427	5557
646.486	2238
646.545	3609
646.603	3265
646.662	2812
646.721	2509
646.779	2007
646.838	1189
646.896	4469
646.955	4141
647.014	7631
647.072	12401
647.131	35998
647.189	15810
647.248	2108
647.306	2796
647.365	3173
647.423	-421
647.481	3096
647.540	635
647.598	1964
647.657	1037
647.715	2046
647.773	312
647.832	2749
647.890	628
647.948	1187
648.007	2102
648.065	1135
648.123	1377
648.181	3349
648.240	3318
648.298	2395
648.356	1422
648.414	1828
648.472	1405
648.531	1908
648.589	1604
648.647	1078
648.705	1615
648.763	1809
648.821	1574
648.879	1116
648.937	2909
648.995	2678
649.053	3696
649.111	7653
649.169	11562
649.227	19744
649.285	40535
649.343	112712
649.401	52844
649.459	14336
649.516	11067
649.574	8377
649.632	20481
649.690	23009
649.748	8510
649.806	8901
649.863	17370
649.921	26134
649.979	15393
650.037	2988
650.094	386
650.152	2414
650.210	1574
650.268	3061
650.325	3162
650.383	3273
650.440	1096
650.498	1911
650.556	472
650.613	1557
650.671	1088
650.728	1738
650.786	1325
650.843	1920
650.901	-115
650.958	1529
651.016	695
651.073	927
651.131	-233
651.188	-355
651.246	976
651.303	747
651.360	1406
651.418	764
651.475	272
651.532	-76
651.590	262
651.647	334
651.704	1507
651.762	1358
651.819	491
651.876	-312
651.933	907
651.990	1471
652.048	-658
652.105	747
652.162	965
652.219	635
652.276	375
652.333	1663
652.390	190
652.448	1229
652.505	1073
652.562	1241
652.619	1035
652.676	4137
652.733	5003
652.790	1151
652.847	-624
652.904	1737
652.961	-903
653.017	521
653.074	901
653.131	718
653.188	-161
653.245	1089
653.302	334
653.359	621
653.415	1228
653.472	650
653.529	1378
653.586	181
653.642	277
653.699	1137
653.756	38
653.813	70
653.869	764
653.926	385
653.983	342
654.039	1497
654.096	837
654.152	1375
654.209	-696
654.266	898
654.322	-696
654.379	792
654.435	1612
654.492	2051
654.548	2656
654.605	3929
654.661	1785
654.717	671
654.774	669
654.830	1077
654.887	1501
654.943	1084
655.000	1783
655.056	916
655.112	901
655.168	746
655.225	470
655.281	1272
655.337	2152
655.394	4150
655.450	2469
655.506	2220
655.562	4991
655.618	3119
655.675	-404
655.731	1314
655.787	246
655.843	1138
655.899	-230
655.955	968
656.011	568
656.067	426
656.123	806
656.179	1430
656.235	1625
656.291	-754
656.347	1039
656.403	1174
656.459	16
656.515	2272
656.571	558
656.627	1375
656.683	561
656.739	1457
656.795	951
656.850	1309
656.906	894
656.962	2062
657.018	-291
657.074	939
657.129	1592
657.185	1607
657.241	3016
657.297	1825
657.352	-220
657.408	275
657.464	1039
657.519	529
657.575	-491
657.630	966
657.686	352
657.742	-154
657.797	282
657.853	28
657.908	1487
657.964	214
658.019	72
658.075	-357
658.130	1037
658.186	-588
658.241	570
658.297	-474
658.352	208
658.407	271
658.463	133
658.518	450
658.573	455
658.629	-60
658.684	-140
658.739	934
658.795	-646
658.850	926
658.905	-525
658.960	1020
659.016	-804
659.071	409
659.126	375
659.181	779
659.236	2992
659.291	2931
659.346	141
659.401	1753
659.457	1837
659.512	1970
659.567	1832
659.622	404
659.677	401
659.732	13
659.787	866
659.842	692
659.897	1454
659.952	982
660.007	392
660.061	387
660.116	51
660.171	415
660.226	158
660.281	1831
660.336	-653
660.391	1078
660.445	-399
660.500	833
660.555	-178
660.610	8
660.664	656
660.719	226
660.774	205
660.828	660
660.883	213
660.938	832
660.992	-764
661.047	180
661.101	-717
661.156	573
661.211	-408
661.265	1000
661.320	657
661.374	490
661.429	-385
661.483	635
661.538	-798
661.592	889
661.647	600
661.701	1637
661.755	268
661.810	758
661.864	-115
661.919	113
661.973	385
662.027	477
662.081	-1789
662.136	-6
662.190	356
662.244	712
662.299	151
662.353	406
662.407	-92
662.461	1274
662.515	336
662.569	425
662.624	197
662.678	893
662.732	-188
662.786	607
662.840	841
662.894	642
662.948	369
663.002	-203
663.056	172
663.110	-550
663.164	3
663.218	-65
663.272	788
663.326	784
663.380	-175
663.434	716
663.488	-693
663.542	1293
663.595	44
663.649	158
663.703	338
663.757	332
663.811	-323
663.864	166
663.918	561
663.972	31
664.026	182
664.079	477
664.133	356
664.187	531
664.240	48
664.294	866
664.348	732
664.401	490
664.455	-466
664.508	192
664.562	450
664.615	607
664.669	-413
664.722	721
664.776	588
664.829	348
664.883	-77
664.936	-379
664.990	89
665.043	1055
665.097	-163
665.150	1563
665.203	18
665.257	197
665.310	295
665.363	398
665.417	581
665.470	457
665.523	431
665.576	769
665.630	-116
665.683	889
665.736	720
665.789	-174
665.842	-167
665.895	742
665.949	329
666.002	532
666.055	-142
666.108	1574
666.161	55
666.214	789
666.267	806
666.320	1845
666.373	391
666.426	727
666.479	334
666.532	649
666.585	834
666.638	1105
666.691	435
666.744	1471
666.796	681
666.849	837
666.902	435
666.955	451
667.008	-110
667.060	421
667.113	-319
667.166	514
667.219	1242
667.271	94
667.324	941
667.377	1066
667.430	666
667.482	1501
667.535	478
667.587	676
667.640	329
667.693	969
667.745	1851
667.798	1492
667.850	704
667.903	376
667.955	168
668.008	803
668.060	1114
668.113	1675
668.165	1339
668.218	1269
668.270	1274
668.322	1331
668.375	401
668.427	484
668.479	437
668.532	195
668.584	878
668.636	987
668.689	800
668.741	447
668.793	424
668.845	902
668.898	657
668.950	88
669.002	495
669.054	862
669.106	-86
669.158	1436
669.211	1246
669.263	1144
669.315	1174
669.367	2394
669.419	721
669.471	1471
669.523	2010
669.575	3545
669.627	2128
669.679	2049
669.731	1438
669.783	1499
669.835	1883
669.886	1456
669.938	75
669.990	1097
670.042	330
670.094	681
670.146	655
670.197	1494
670.249	1720
670.301	2530
670.353	3854
670.404	5593
670.456	7902
670.508	13187
670.560	20481
670.611	33762
670.663	56734
670.715	137197
670.766	208307
670.818	59002
670.869	7953
670.921	4294
670.972	2564
671.024	2065
671.075	1918
671.127	1029
671.178	836
671.230	1227
671.281	570
671.333	1219
671.384	1269
671.436	1490
671.487	3008
671.538	2588
671.590	2348
671.641	5602
671.692	8470
671.744	15429
671.795	11421
671.846	3725
671.897	2225
671.949	1071
672.000	1016
672.051	900
672.102	1136
672.153	89
672.204	508
672.256	390
672.307	639
672.358	358
672.409	639
672.460	422
672.511	124
672.562	-271
672.613	515
672.664	336
672.715	126
672.766	601
672.817	-64
672.868	382
672.919	-599
672.970	370
673.021	348
673.071	19
673.122	579
673.173	398
673.224	1001
673.275	198
673.326	396
673.376	733
673.427	-900
673.478	513
673.528	-87
673.579	132
673.630	-30
673.680	905
673.731	-163
673.782	-587
673.832	139
673.883	751
673.934	722
673.984	271
674.035	-140
674.085	1155
674.136	254
674.186	693
674.237	1165
674.287	2837
674.338	582
674.388	-362
674.438	-446
674.489	237
674.539	248
674.589	680
674.640	384
674.690	269
674.740	107
674.791	1115
674.841	439
674.891	642
674.942	232
674.992	-205
675.042	261
675.092	-33
675.142	-131
675.193	212
675.243	-421
675.293	592
675.343	-32
675.393	1058
675.443	267
675.493	778
675.543	507
675.593	354
675.643	-32
675.693	-285
675.743	-461
675.793	614
675.843	1
675.893	80
675.943	-148
675.993	-32
676.043	511
676.093	395
676.142	-57
676.192	1112
676.242	-484
676.292	370
676.341	-470
676.391	132
676.441	-244
676.491	22
676.540	567
676.590	259
676.640	39
676.689	-40
676.739	-910
676.789	-77
676.838	-215
676.888	83
676.937	-308
676.987	-236
677.037	-272
677.086	-398
677.136	-249
677.185	418
677.235	-547
677.284	-296
677.333	-123
677.383	-272
677.432	-1482
677.482	-715
677.531	172
677.580	-835
677.630	-1371
677.679	-1654
677.728	-151
677.778	164
677.827	-1375
677.876	-415
677.925	-415
677.975	-860
678.024	-663
678.073	-128
678.122	-575
678.171	-821
678.220	-989
678.269	-495
678.319	-363
678.368	-14
678.417	-545
678.466	314
678.515	674
678.564	215
678.613	-1134
678.662	-430
678.711	330
678.760	-289
678.809	576
678.857	-284
678.906	-129
678.955	-131
679.004	447
679.053	226
679.102	-486
679.151	-206
679.199	-371
679.248	-111
679.297	-473
679.346	-295
679.394	-864
679.443	94
679.492	52
679.540	336
679.589	100
679.638	-681
679.686	-728
679.735	-377
679.784	-831
679.832	-334
679.881	-324
679.929	-415
679.978	8
680.026	-522
680.075	-111
680.123	-1016
680.172	-253
680.220	-314
680.268	-103
680.317	-534
680.365	-717
680.414	-613
680.462	-759
680.510	488
680.559	-759
680.607	-539
680.655	-526
680.703	-252
680.752	-886
680.800	134
680.848	-512
680.896	-863
680.945	-495
680.993	-791
681.041	-570
681.089	-141
681.137	-666
681.185	83
681.233	19
681.258	-299
681.281	-606
681.329	-613
681.377	-380
681.380	-409
681.425	-1067
681.473	-445
681.502	-7
681.521	285
681.569	751
681.617	-194
681.624	-127
681.665	266
681.713	-278
681.745	-185
681.761	-151
681.809	-1063
681.857	140
681.867	-81
681.904	-863
681.952	-348
681.989	-263
682.000	-248
682.048	95
682.096	-364
682.111	-472
682.143	-727
682.191	-346
682.233	472
682.239	587
682.286	-954
682.334	143
682.354	-152
682.382	-554
682.430	-391
682.476	-266
682.477	-269
682.525	-30
682.572	-1024
682.598	-505
682.620	-43
682.667	-376
682.715	911
682.720	806
682.763	-273
682.810	-471
682.841	-354
682.857	-278
682.905	-487
682.952	348
682.963	247
683.000	-202
683.047	-673
683.085	348
683.095	637
683.142	-257
683.190	-630
683.206	-618
683.237	-652
683.284	339
683.328	-33
683.332	-62
683.379	139
683.426	-269
683.449	-212
683.473	-179
683.521	-187
683.568	-405
683.571	-405
683.615	-504
683.662	172
683.693	-384
683.709	-676
683.757	125
683.804	-379
683.814	-165
683.851	559
683.898	397
683.936	313
683.945	288
683.992	-85
684.039	627
684.057	344
684.086	-101
684.133	568
684.179	34
684.180	8
684.227	627
684.274	217
684.300	776
684.321	1250
684.368	-852
684.415	438
684.422	422
684.462	283
684.509	-359
684.543	-444
684.556	-478
684.603	-49
684.649	-479
684.665	-339
684.696	-33
684.743	59
684.786	550
684.790	584
684.837	440
684.883	812
684.908	513
684.930	227
684.977	510
685.023	-5
685.029	49
685.070	456
685.117	712
685.150	400
685.164	258
685.210	794
685.257	-171
685.272	83
685.303	625
685.350	750
685.393	297
685.396	266
685.443	1099
685.490	785
685.514	692
685.536	532
685.583	707
685.629	424
685.636	427
685.675	458
685.722	21
685.757	283
685.768	369
685.815	443
685.861	520
685.878	690
685.908	1021
685.954	48
686.000	675
686.000	684
686.047	1004
686.093	1304
686.121	1294
686.139	1212
686.185	1261
686.232	952
686.242	977
686.278	1036
686.324	473
686.363	63
686.370	-3
686.416	234
686.463	1267
686.484	822
686.509	413
686.555	889
686.601	517
686.606	630
686.647	1375
686.693	888
686.727	743
686.739	764
686.785	828
686.831	438
686.848	671
686.877	979
686.923	1029
686.969	524
686.969	521
687.015	454
687.061	592
687.090	746
687.107	812
687.153	528
687.199	613
687.211	544
687.245	441
687.291	1082
687.332	871
687.336	847
687.382	784
687.428	455
687.453	748
687.474	961
687.520	1093
687.565	1234
687.574	1187
687.611	1071
687.657	1373
687.695	1407
687.702	1440
687.748	1118
687.794	2343
687.816	1968
687.839	1338
687.885	1446
687.931	535
687.937	577
687.976	1173
688.022	1249
688.058	1333
688.067	1299
688.113	718
688.158	488
688.179	525
688.204	678
688.249	313
688.295	727
688.300	738
688.340	874
688.386	1138
688.421	1383
688.431	1436
688.477	1213
688.522	1333
688.542	1506
688.567	1716
688.613	748
688.658	1622
688.663	1510
688.703	584
688.749	1121
688.784	860
688.794	827
688.839	1010
688.884	989
688.905	1267
688.930	1556
688.975	1455
689.020	1051
689.026	1118
689.065	1481
689.110	1056
689.146	919
689.155	914
689.201	1251
689.246	840
689.267	981
689.291	1233
689.336	1140
689.381	1763
689.388	1705
689.426	1097
689.471	1524
689.509	990
689.516	913
689.561	1236
689.606	889
689.630	946
689.651	1093
689.696	895
689.741	1354
689.750	1472
689.785	1855
689.830	1587
689.871	1177
689.875	1122
689.920	1595
689.965	1348
689.992	1167
690.010	1135
690.054	892
690.099	1085
690.112	1241
690.144	1590
690.189	1550
690.233	1536
690.233	1540
690.278	1416
690.323	1182
690.354	1400
690.367	1544
690.412	1654
690.457	1802
690.474	1974
690.501	2030
690.546	1689
690.590	1459
690.595	1416
690.635	1451
690.680	1576
690.716	2221
690.724	2374
690.769	2191
690.813	2845
690.836	2839
690.857	3381
690.902	5078
690.946	6652
690.957	7004
690.991	9003
691.035	13109
691.077	16325
691.080	16299
691.124	13129
691.168	10246
691.198	8533
691.213	7753
691.257	6215
691.301	4021
691.318	3388
691.346	3209
691.390	2593
691.434	2126
691.439	2098
691.478	2240
691.522	2171
691.559	2240
691.567	2265
691.611	1853
691.655	2189
691.680	2213
691.699	2121
691.743	1719
691.787	1853
691.800	1631
691.831	1451
691.875	2048
691.919	1835
691.921	1845
691.964	2091
692.008	1826
692.041	1701
692.052	1719
692.096	1832
692.139	2059
692.162	1956
692.183	1763
692.227	2157
692.271	1862
692.282	1940
692.315	2498
692.359	2491
692.402	2678
692.403	2683
692.447	2035
692.490	2238
692.523	1833
692.534	1843
692.578	1829
692.622	2128
692.643	2161
692.666	2056
692.709	1981
692.753	1953
692.763	1863
692.797	1692
692.840	2199
692.884	1816
692.884	1821
692.928	1941
692.971	2126
693.004	2073
693.015	2092
693.059	2421
693.102	2495
693.124	2402
693.146	2220
693.189	2664
693.233	2502
693.245	2532
693.276	2927
693.320	2906
693.363	3277
693.365	3284
693.407	3633
693.450	3946
693.485	4174
693.493	4387
693.537	5607
693.580	6479
693.605	7283
693.624	8531
693.667	11016
693.710	13797
693.725	14755
693.753	19018
693.797	26545
693.840	34397
693.845	35060
693.883	30461
693.926	23631
693.966	18594
693.970	18160
694.013	13421
694.056	9386
694.086	6154
694.099	5763
694.142	5142
694.185	4123
694.206	3725
694.229	3718
694.272	3712
694.315	3704
694.326	3650
694.358	3434
694.401	3267
694.444	2983
694.446	2973
694.487	3110
694.530	2852
694.566	2768
694.573	2752
694.616	2422
694.659	2468
694.686	2320
694.702	2344
694.745	2545
694.787	2527
694.806	2596
694.830	2476
694.873	2116
694.916	1838
694.926	1763
694.959	1885
695.002	1934
695.044	2062
695.046	2059
695.087	2255
695.130	2541
695.166	2601
695.172	2600
695.215	2645
695.258	2654
695.286	2578
695.301	2555
695.343	2639
695.386	2697
695.406	2705
695.428	2740
695.471	2604
695.514	2750
695.526	2693
695.556	2588
695.599	2903
695.641	2705
695.646	2706
695.684	2735
695.726	2591
695.766	2485
695.769	2489
695.811	2569
695.854	2487
695.886	2258
695.896	2218
695.938	2350
695.981	2326
696.005	2373
696.023	2498
696.065	2608
696.108	2873
696.125	2930
696.150	2838
696.192	2695
696.235	2436
696.245	2417
696.277	2437
696.319	2249
696.361	2180
696.365	2162
696.404	2393
696.446	2529
696.485	2836
696.488	2838
696.530	2632
696.572	2346
696.604	2161
696.614	2191
696.656	2262
696.698	2411
696.724	2424
696.740	2349
696.783	2254
696.825	2112
696.844	2016
696.867	2136
696.909	2327
696.951	2609
696.964	2646
696.992	2456
697.034	2271
697.076	2028
697.083	1995
697.118	2242
697.160	2465
697.202	2584
697.203	2580
697.244	2454
697.286	2286
697.323	2065
697.327	2097
697.369	2397
697.411	2620
697.442	2819
697.453	2794
697.494	2586
697.536	2478
697.562	2350
697.578	2422
697.620	2529
697.661	2716
697.682	2791
697.703	2837
697.744	2939
697.786	3072
697.801	3060
697.828	3137
697.869	3280
697.911	3447
697.921	3484
697.952	3321
697.994	3078
698.035	2789
698.040	2744
698.077	2927
698.118	3112
698.160	3346
698.160	3335
698.201	3152
698.243	3009
698.279	2858
698.284	2899
698.325	3199
698.367	3453
698.399	3639
698.408	3572
698.449	3220
698.491	2892
698.518	2627
698.532	2726
698.573	3034
698.614	3330
698.638	3474
698.656	3447
698.697	3410
698.738	3305
698.757	3261
698.779	3492
698.820	3896
698.862	4306
698.877	4444
698.903	4332
698.944	4134
698.985	3936
698.996	3869
699.026	3783
699.067	3648
699.116	3477
699.235	2446
699.354	3313
699.474	2570
699.593	3202
699.713	3063
699.832	3080
699.951	4033
700.070	3362
700.190	2855
700.309	4012
700.428	3047
700.547	2485
700.667	3214
700.786	4219
700.905	3265
701.024	2857
701.143	2626
701.262	2351
701.381	2644
701.500	3084
701.619	3254
701.738	2648
701.857	2868
701.976	2720
702.095	2080
702.214	3142
702.333	3311
702.452	2640
702.571	2740
702.690	2915
702.809	2538
702.928	2535
703.047	2396
703.165	3094
703.284	2649
703.403	2978
703.522	2673
703.640	3187
703.759	3914
703.878	5408
703.997	2802
704.115	2930
704.234	2204
704.353	2846
704.471	2221
704.590	2224
704.708	1911
704.827	2402
704.946	2340
705.064	3072
705.183	2049
705.301	3168
705.420	4561
705.538	4299
705.656	3674
705.775	4488
705.893	9701
706.012	8044
706.130	3554
706.249	4894
706.367	4337
706.485	3211
706.604	3092
706.722	3448
706.840	5527
706.958	7014
707.077	3980
707.195	3886
707.313	3952
707.431	3205
707.549	2813
707.668	3699
707.786	3268
707.904	2810
708.022	1886
708.140	3460
708.258	3583
708.376	2825
708.494	2883
708.612	4312
708.730	5283
708.848	3841
708.966	4276
709.084	4221
709.202	4349
709.320	4213
709.438	4101
709.556	3382
709.674	4345
709.791	4461
709.909	4467
710.027	4245
710.145	3614
710.263	4763
710.380	3358
710.498	4345
710.616	4142
710.733	4196
710.851	3968
710.969	5301
711.086	3096
711.204	4479
711.322	3375
711.439	4172
711.557	3689
711.674	4072
711.792	4179
711.909	4983
712.027	4613
712.144	3073
712.262	3685
712.379	4844
712.497	5936
712.614	6014
712.732	5414
712.849	4662
712.966	5112
713.084	5521
713.201	5416
713.318	4750
713.436	4166
713.553	4697
713.670	4979
713.787	6503
713.905	5103
714.022	4538
714.139	4221
714.256	5119
714.373	6206
714.490	9380
714.608	24284
714.725	90278
714.842	40007
714.959	5255
715.076	3748
715.193	5441
715.310	3955
715.427	4820
715.544	3521
715.661	3939
715.778	4043
715.895	4044
716.011	4656
716.128	4303
716.245	4120
716.362	5509
716.479	4235
716.596	5115
716.713	3763
716.829	4340
716.946	4013
717.063	3179
717.180	3824
717.296	3376
717.413	3718
717.530	4213
717.646	3625
717.763	4248
717.880	2897
717.996	3184
718.113	3061
718.229	3820
718.346	2592
718.462	2857
718.579	4432
718.695	6180
718.812	4257
718.928	5095
719.045	3565
719.161	3981
719.277	3259
719.394	4143
719.510	3781
719.626	3494
719.743	3787
719.859	4487
719.975	7752
720.092	28157
720.208	29074
720.324	5016
720.440	2973
720.557	4073
720.673	6036
720.789	9235
720.905	17117
721.021	5586
721.137	3661
721.253	3718
721.369	3619
721.486	3705
721.602	4884
721.718	2990
721.834	3119
721.950	2964
722.066	2749
722.181	2453
722.297	2533
722.413	3458
722.529	3395
722.645	3326
722.761	2930
722.877	2754
722.993	2877
723.108	2791
723.224	2711
723.340	3184
723.456	2671
723.571	3226
723.687	2113
723.803	2877
723.918	2032
724.034	3120
724.150	1913
724.265	3633
724.381	7581
724.497	6810
724.612	2280
724.728	2264
724.843	3100
724.959	4091
725.074	7431
725.190	6655
725.305	2619
725.421	2569
725.536	1646
725.651	3453
725.767	1250
725.882	2593
725.997	2577
726.113	2643
726.228	1824
726.343	1660
726.459	1621
726.574	3057
726.689	2107
726.804	1363
726.920	1298
727.035	2187
727.150	1812
727.265	2147
727.380	2393
727.495	2443
727.610	1918
727.725	2161
727.841	3525
727.956	7608
728.071	3598
728.186	2382
728.301	2492
728.416	1575
728.531	2563
728.645	2295
728.760	1658
728.875	2127
728.990	2143
729.105	2183
729.220	1718
729.335	1842
729.449	1266
729.564	1136
729.679	1414
729.794	2127
729.908	2257
730.023	1697
730.138	1114
730.253	1582
730.367	1537
730.482	1898
730.596	1468
730.711	2529
730.826	2233
730.940	2263
731.055	1162
731.169	1765
731.284	1554
731.398	2100
731.513	1227
731.627	2181
731.742	2806
731.856	2259
731.970	1508
732.085	1538
732.199	2535
732.313	4477
732.428	9112
732.542	24413
732.656	7252
732.771	1991
732.885	1291
732.999	2044
733.113	1347
733.227	2070
733.342	1962
733.456	2025
733.570	1366
733.684	2140
733.798	1256
733.912	2112
734.026	1803
734.140	2433
734.254	1233
734.368	5228
734.482	3666
734.596	1208
734.710	1109
734.824	1667
734.938	721
735.052	2394
735.166	1534
735.280	2119
735.393	877
735.507	2174
735.621	2677
735.735	4139
735.849	1431
735.962	2220
736.076	1835
736.190	2226
736.303	2302
736.417	2890
736.531	1262
736.644	1151
736.758	974
736.872	1385
736.985	576
737.099	1573
737.212	1494
737.326	1625
737.439	836
737.553	1455
737.666	1792
737.780	1626
737.893	1188
738.007	1806
738.120	1105
738.233	1478
738.347	1486
738.460	1817
738.573	1175
738.687	901
738.800	1269
738.913	1903
739.026	1677
739.140	2099
739.253	999
739.366	1427
739.479	510
739.592	1647
739.705	954
739.818	1391
739.932	1032
740.045	1465
740.158	922
740.271	1606
740.384	544
740.497	1204
740.610	1422
740.723	962
740.836	801
740.949	2292
741.062	1132
741.174	2221
741.287	833
741.400	1252
741.513	1213
741.626	1652
741.739	1497
741.851	826
741.964	682
742.077	1450
742.189	994
742.302	1777
742.415	590
742.527	1239
742.640	818
742.753	1100
742.865	456
742.978	572
743.090	1223
743.203	1476
743.316	486
743.428	1338
743.541	235
743.653	1250
743.766	820
743.878	1302
743.990	1419
744.103	2121
744.215	1084
744.327	549
744.440	1407
744.552	2699
744.664	1477
744.777	1009
744.889	553
745.001	1515
745.113	738
745.226	1176
745.338	1616
745.450	870
745.562	1498
745.674	1256
745.786	291
745.898	901
746.010	716
746.122	826
746.234	539
746.347	1135
746.459	546
746.570	767
746.682	1399
746.794	1794
746.906	665
747.018	655
747.130	837
747.242	1160
747.354	-393
747.466	1376
747.577	592
747.689	953
747.801	1040
747.913	1012
748.024	889
748.136	864
748.248	1252
748.359	239
748.471	1151
748.583	1407
748.694	1501
748.806	2545
748.918	1231
749.029	1280
749.141	1019
749.252	1778
749.364	901
749.475	3500
749.587	1478
749.698	825
749.809	809
749.921	591
750.032	999
750.144	-226
750.255	775
750.366	664
750.478	45
750.589	1646
750.700	281
750.811	1186
750.923	1468
751.034	2907
751.145	2375
751.256	198
751.367	795
751.479	531
751.590	1105
751.701	1543
751.812	428
751.923	1085
752.034	51
752.145	876
752.256	882
752.367	949
752.478	939
752.589	735
752.700	933
752.811	827
752.922	302
753.032	-111
753.143	678
753.254	1053
753.365	1355
753.476	502
753.586	894
753.697	1200
753.808	591
753.919	286
754.029	806
754.140	814
754.251	940
754.361	684
754.472	523
754.582	822
754.693	186
754.804	1592
754.914	354
755.025	-99
755.135	937
755.246	602
755.356	344
755.466	244
755.577	982
755.687	959
755.798	-283
755.908	1090
756.018	1262
756.129	661
756.239	186
756.349	1186
756.460	459
756.570	1011
756.680	533
756.790	710
756.900	514
757.011	768
757.121	591
757.231	843
757.341	1473
757.451	577
757.561	430
757.671	-66
757.781	64
757.891	2011
758.001	1401
758.111	1611
758.221	1576
758.331	1534
758.441	1398
758.551	928
758.661	473
758.771	1004
758.880	1175
758.990	2265
759.100	758
759.210	1035
759.320	1310
759.429	1267
759.539	1306
759.649	951
759.758	936
759.868	2150
759.978	300
760.087	1109
760.197	1538
760.307	1465
760.416	378
760.526	1311
760.635	1434
760.745	1731
760.854	1862
760.964	1434
761.073	1168
761.182	1738
761.292	1636
761.401	2116
761.511	715
761.620	1954
761.729	1860
761.839	1633
761.948	2242
762.057	2335
762.166	1956
762.276	1792
762.385	2710
762.494	1263
762.603	1875
762.712	2795
762.822	2320
762.931	3421
763.040	2520
763.149	2487
763.258	2598
763.367	3354
763.476	3088
763.585	3786
763.694	3353
763.803	4284
763.912	3556
764.021	4802
764.130	4219
764.238	5220
764.347	4711
764.456	6029
764.565	6036
764.674	6414
764.783	6422
764.891	7663
765.000	9906
765.109	10727
765.217	11530
765.326	15044
765.435	18828
765.543	22413
765.652	27930
765.761	39112
765.869	57524
765.978	91456
766.086	157228
766.195	301156
766.303	571467
766.412	623557
766.520	614866
766.629	320806
766.737	154178
766.846	90306
766.954	60289
767.062	45055
767.171	33484
767.279	25671
767.387	19899
767.496	17341
767.604	14386
767.712	13390
767.820	11360
767.928	11529
768.037	9063
768.145	9656
768.253	8792
768.361	8868
768.469	8347
768.577	8850
768.685	9746
768.793	10629
768.901	11315
769.009	14355
769.117	16900
769.225	23518
769.333	35496
769.441	59395
769.549	114047
769.657	255466
769.765	518265
769.873	548253
769.981	294932
770.088	110971
770.196	57386
770.304	37219
770.412	26402
770.519	19626
770.627	14192
770.735	12355
770.842	10394
770.950	9380
771.058	7441
771.165	6994
771.273	5032
771.380	5701
771.488	4974
771.595	5257
771.703	3972
771.810	4799
771.918	3196
772.025	4170
772.133	2503
772.240	2978
772.348	2275
772.455	3520
772.562	2980
772.670	2387
772.777	2240
772.884	2236
772.991	1796
773.099	2221
773.206	893
773.313	2144
773.420	1635
773.528	1004
773.635	1389
773.742	2332
773.849	1533
773.956	1857
774.063	1286
774.170	1855
774.277	2138
774.384	2092
774.491	1007
774.598	2038
774.705	866
774.812	1709
774.919	2537
775.026	1650
775.133	1271
775.239	1880
775.346	1026
775.453	1659
775.560	396
775.667	1594
775.773	479
775.880	2503
775.987	798
776.093	2119
776.200	932
776.307	518
776.413	1833
776.520	488
776.627	998
776.733	1842
776.840	-825
776.946	2076
777.053	1307
777.159	1438
777.266	-74
777.372	2190
777.478	429
777.585	1367
777.691	1121
777.798	290
777.904	2063
778.010	1334
778.117	-27
778.223	-95
778.329	745
778.435	812
778.542	268
778.648	470
778.754	33
778.860	404
778.966	263
779.072	917
779.178	632
779.284	1594
779.391	426
779.497	355
779.603	2975
779.708	2461
779.815	9890
779.920	44025
780.026	36962
780.132	3855
780.238	109
780.344	1033
780.450	1180
780.556	848
780.661	-996
780.767	1453
780.873	456
780.979	995
781.085	42
781.190	868
781.296	278
781.402	-6
781.507	595
781.613	925
781.719	214
781.824	227
781.930	588
782.035	1099
782.141	204
782.246	1168
782.352	170
782.457	135
782.563	-527
782.668	539
782.773	198
782.879	-433
782.984	336
783.090	1069
783.195	1069
783.300	1127
783.405	338
783.511	556
783.616	478
783.721	800
783.826	314
783.932	1135
784.037	351
784.142	892
784.247	896
784.352	653
784.457	142
784.562	116
784.667	598
784.772	-495
784.877	-378
784.982	39
785.087	-954
785.192	558
785.297	-654
785.402	599
785.507	429
785.611	273
785.716	-716
785.821	61
785.926	-354
786.031	316
786.135	-703
786.240	101
786.345	-1260
786.450	886
786.554	-296
786.659	-244
786.763	-1345
786.868	64
786.973	900
787.077	-989
787.182	485
787.286	-205
787.391	-184
787.495	-702
787.600	232
787.704	-441
787.809	-442
787.913	-107
788.017	-118
788.122	736
788.226	-540
788.330	-564
788.435	-651
788.539	325
788.643	-509
788.747	-679
788.852	-584
788.956	-660
789.060	-112
789.164	-250
789.268	-1067
789.372	958
789.476	-570
789.580	-1149
789.684	-708
789.788	469
789.892	-756
789.996	177
790.100	-419
790.204	-533
790.308	-1142
790.412	-2
790.516	-340
790.620	-790
790.724	-290
790.828	-591
790.931	-1498
791.035	1006
791.139	-1080
791.242	-909
791.346	640
791.450	-192
791.554	-952
791.657	-1336
791.761	-493
791.864	1266
791.968	3
792.072	675
792.175	-388
792.279	-825
792.382	-1035
792.486	-587
792.589	-528
792.693	-323
792.796	-1608
792.899	48
793.003	31
793.106	-1435
793.209	-435
793.313	830
793.416	-1972
793.519	707
793.623	431
793.726	140
793.829	396
793.932	320
794.035	-740
794.138	576
794.242	192
794.345	-618
794.448	997
794.551	4062
794.654	20467
794.757	19569
794.860	240
794.963	-166
795.066	-1256
795.169	842
795.272	-1657
795.375	73
795.477	-852
795.580	169
795.683	-1900
795.786	328
795.889	-1872
795.991	-128
796.094	-654
796.197	-1127
796.300	355
796.402	-806
796.505	-641
796.608	-188
796.710	142
796.813	-1056
796.915	-1066
797.018	-536
797.120	-733
797.223	-1779
797.326	40
797.428	80
797.530	-1084
797.633	-289
797.735	491
797.838	-82
797.940	432
798.042	-868
798.145	-984
798.247	308
798.349	-2079
798.452	-13
798.554	-784
798.656	-958
798.758	-153
798.860	-871
798.962	-813
799.065	-1489
799.167	-1719
799.269	210
799.371	42
799.473	295
799.575	-739
799.677	-1235
799.779	682
799.881	-1285
799.983	-500
800.085	-246
800.187	-958
800.289	-1245
800.390	-991
800.492	-324
800.594	-308
800.696	-1673
800.798	-419
800.899	-1109
801.001	-1215
801.103	-357
801.205	-1232
801.306	-702
801.408	-2525
801.509	-1103
801.611	-1236
801.713	-948
801.814	-1436
801.916	-193
802.017	-1212
802.119	-1216
802.220	-798
802.322	-1880
802.423	-18
802.525	-1523
802.626	-988
802.727	-572
802.829	-226
802.930	-1428
803.031	-126
803.133	-423
803.234	-995
803.335	384
803.436	-2350
803.538	-713
803.639	-1567
803.740	-423
803.841	-1723
803.942	-1023
804.043	-740
804.144	-1023
804.245	-1355
804.346	-954
804.447	-1586
804.548	-932
804.649	331
804.750	-261
804.851	-937
804.952	-884
805.053	-868
805.154	-1870
805.255	159
805.355	-127
805.456	-1646
805.557	-172
805.658	-1776
805.758	288
805.859	-1090
805.960	-979
806.061	-1825
806.161	-1392
806.262	-1214
806.362	-1136
806.463	-827
806.564	-392
806.664	-1572
806.765	-1279
806.865	-476
806.966	-1357
807.066	-1366
807.166	-377
807.267	-234
807.367	-1131
807.468	-792
807.568	-1603
807.668	-215
807.769	-35
807.869	-1100
807.969	48
808.069	-1813
808.170	-741
808.270	-1170
808.370	-382
808.470	-1394
808.570	-1659
808.670	-1172
808.770	-796
808.870	-1197
808.970	-10
809.070	-675
809.170	-1803
809.271	-1542
809.370	-1049
809.470	-830
809.570	-749
809.670	-1830
809.770	-549
809.870	-807
809.970	-1135
810.070	-1624
810.169	539
810.269	-2207
810.369	35
810.469	-1073
810.568	-959
810.668	-1614
810.768	-837
810.867	-1459
810.967	-1294
811.066	-1063
811.166	-710
811.265	-1062
811.365	-1356
811.464	-1633
811.564	-602
811.663	-484
811.763	-1751
811.862	-826
811.962	-613
812.061	-1279
812.160	-1547
812.260	-792
812.359	-588
812.458	-995
812.557	-155
812.657	-1163
812.756	-590
812.855	-1086
812.954	-982
813.053	-1523
813.153	-360
813.252	-1673
813.351	-477
813.450	-1619
813.549	-547
813.648	-546
813.747	-682
813.846	-1443
813.945	-842
814.044	-1577
814.143	-507
814.242	-1515
814.341	-1251
814.439	-632
814.538	-93
814.637	-1283
814.736	-1065
814.835	-950
814.933	-1481
815.032	-550
815.131	-871
815.229	-1020
815.328	-1158
815.427	-1692
815.525	-534
815.624	-1276
815.722	-1274
815.821	-608
815.919	-1281
816.018	-1535
816.116	242
816.215	-1134
816.313	-686
816.412	-1146
816.510	-514
816.609	1296
816.707	-404
816.805	-387
816.904	-839
817.002	-452
817.100	1292
817.198	-356
817.296	-1185
817.395	-454
817.493	1460
817.591	652
817.689	3006
817.787	3087
817.885	8772
817.983	18319
818.081	46851
818.179	118192
818.277	225088
818.375	95196
818.473	19547
818.571	8659
818.669	6390
818.767	6047
818.865	6780
818.963	9346
819.061	18201
819.158	38565
819.256	92141
819.354	224652
819.452	331441
819.549	113959
819.647	29162
819.745	12166
819.842	9094
819.940	4764
820.038	3494
820.135	2198
820.233	2486
820.330	391
820.428	491
820.525	880
820.623	79
820.720	-1102
820.818	600
820.915	31
821.012	869
821.110	-1897
821.207	388
821.304	-780
821.402	-591
821.499	-350
821.596	586
821.693	-399
821.791	-466
821.888	-1052
821.985	493
822.082	-1191
822.179	-442
822.276	-1653
822.373	-1014
822.470	-550
822.567	-119
822.664	-1215
822.761	-142
822.858	-2462
822.955	-964
823.052	-811
823.149	-607
823.246	-1186
823.343	-549
823.440	-142
823.536	-1226
823.633	-1519
823.730	-1202
823.827	-1463
823.923	-1136
824.020	171
824.117	-1446
824.213	-2062
824.310	-644
824.407	-1313
824.503	-863
824.600	-931
824.696	-1164
824.793	-820
824.889	-1190
824.986	-1378
825.082	-609
825.179	-1186
825.275	-797
825.371	-1671
825.468	-774
825.564	-1798
825.660	-478
825.757	-1205
825.853	-746
825.949	-2000
826.045	-1061
826.142	-1600
826.238	-1167
826.334	-597
826.430	-1829
826.526	-1358
826.622	-1075
826.718	-572
826.814	-1723
826.910	-868
827.006	-2025
827.102	-1367
827.198	-469
827.294	-1803
827.390	-1413
827.486	-599
827.582	-2336
827.678	-1680
827.774	-627
827.869	-1782
827.965	-680
828.061	-1415
828.157	-1430
828.252	-1693
828.348	-1945
828.444	-223
828.539	-1693
828.635	-1018
828.731	-436
828.826	-2116
828.922	-1425
829.017	-2090
829.113	-607
829.208	-1847
829.304	-1491
829.399	-725
829.495	-1282
829.590	-1093
829.685	-1361
829.781	-1886
829.876	-1588
829.971	-1349
830.066	-538
830.162	-1799
830.257	-1276
830.352	-1390
830.447	-528
830.543	-1010
830.638	-1882
830.733	-882
830.828	-1715
830.923	-682
831.018	-841
831.113	-2053
831.208	-2317
831.303	-1841
831.398	-1077
831.493	-2019
831.588	-545
831.683	-2255
831.778	-1598
831.873	-1623
831.967	-401
832.062	-2071
832.157	-2394
832.252	-870
832.346	-1559
832.441	-1197
832.536	-469
832.631	155
832.725	-168
832.820	-1883
832.914	-1903
833.009	-2059
833.104	-1213
833.198	-1427
833.293	-1657
833.387	-1507
833.482	-1072
833.576	-2289
833.670	-838
833.765	-2451
833.859	-2025
833.954	-1065
834.048	-768
834.142	-1120
834.237	-1521
834.331	-1252
834.425	-766
834.519	-2382
834.613	-253
834.708	-1253
834.802	-1205
834.896	-2341
834.990	-1112
835.084	-1590
835.178	-604
835.272	-2065
835.366	-2034
835.460	-1231
835.554	-1361
835.648	-1509
835.742	-1625
835.836	-1026
835.930	-2262
836.024	-1840
836.117	-1083
836.211	-1390
836.305	-890
836.399	-871
836.493	-1762
836.586	-1112
836.680	-2005
836.774	-1456
836.867	-461
836.961	-2109
837.055	-1659
837.148	-1484
837.242	-1439
837.335	-1836
837.429	-1208
837.522	-1098
837.616	-700
837.709	-366
837.803	-1470
837.896	-1214
837.989	-2123
838.083	-526
838.176	617
838.269	-1301
838.363	-208
838.456	-1807
838.549	264
838.642	-1247
838.735	52
838.829	-1375
838.922	-1777
839.015	-1563
839.108	-2019
839.201	-762
839.294	-1324
839.387	-766
839.480	-1806
839.573	-914
839.666	-606
839.759	-2227
839.852	-1914
839.945	-1257
840.038	-681
840.131	-1429
840.223	-1659
840.316	-1683
840.409	-2490
840.502	-2749
840.594	-1013
840.687	-2314
840.780	-1599
840.873	-1890
840.965	-998
841.058	-1450
841.150	-78
841.243	-1646
841.336	-831
841.428	-1552
841.521	-1478
841.613	-2217
841.706	-1282
841.798	-2044
841.890	-1654
841.983	-2222
842.075	-976
842.167	-1166
842.260	-1596
842.352	-171
842.444	-1125
842.537	-649
842.629	620
842.721	-631
842.813	-1004
842.905	-2594
842.997	-1944
843.090	-1530
843.182	-238
843.274	-337
843.366	2253
843.458	3419
843.550	2038
843.642	-1241
843.734	-1640
843.826	-1697
843.918	-761
844.009	-709
844.101	-2078
844.193	-1737
844.285	-2116
844.377	-1318
844.469	-559
844.560	-2698
844.652	-1631
844.744	-1565
844.835	-1175
844.927	-879
845.019	-1561
845.110	-1465
845.202	-1024
845.293	-1516
845.385	-2367
845.476	-2048
845.568	-477
845.659	-1719
845.751	-1645
845.842	-1680
845.934	-2014
846.025	-2154
846.116	-109
846.208	-2459
846.299	-1249
846.390	-1475
846.482	-1186
846.573	-1739
846.664	-999
846.755	-2205
846.846	-589
846.937	-1899
847.029	-1576
847.120	-1237
847.211	-1477
847.302	-760
847.393	-2190
847.484	-975
847.575	-1927
847.666	-1231
847.757	-1831
847.847	-1964
847.938	-549
848.029	-1894
848.120	-1565
848.211	-2192
848.302	-1685
848.392	-2167
848.483	-1363
848.574	-1591
848.664	-1706
848.755	-2318
848.846	-920
848.936	-2307
849.027	-1135
849.118	-1311
849.208	-1356
849.299	-1699
849.389	-1177
849.480	-393
849.570	399
849.661	1410
849.751	2712
849.841	-1030
849.932	-1456
850.022	-2470
850.112	-1163
850.203	-1610
850.293	-1175
850.383	-1645
850.474	-1567
850.564	-1631
850.654	-1159
850.744	-1428
850.834	-1555
850.924	-1272
851.014	-1455
851.104	-2164
851.194	-1787
851.284	-1827
851.374	-1652
851.464	-2144
851.554	-1316
851.644	-1200
851.734	-1251
851.824	-2000
851.914	-2652
852.004	-1583
852.094	-2381
852.183	-1379
852.273	-1439
852.363	-1737
852.452	-1837
852.542	-1729
852.632	-1756
852.721	-1636
852.811	-1826
852.901	-1864
852.990	-1249
853.080	-1708
853.169	-1705
853.259	-1351
853.348	-1744
853.438	-1594
853.527	-953
853.617	-1941
853.706	675
853.795	591
853.885	6424
853.974	9831
854.063	22773
854.152	25310
854.242	4616
854.331	-1655
854.420	-1362
854.509	-2209
854.598	-1267
854.687	-2270
854.777	-1475
854.866	-1857
854.955	-675
855.044	-2049
855.133	-1625
855.222	-1757
855.311	-968
855.400	-1370
855.488	-1228
855.577	-2372
855.666	-1855
855.755	-1379
855.844	-1577
855.933	-1995
856.021	-756
856.110	-1301
856.199	-1505
856.288	-2437
856.376	-1170
856.465	-2070
856.554	-1800
856.642	-2457
856.731	-1484
856.819	-941
856.908	-2133
856.996	-1333
857.085	-1914
857.173	-2153
857.262	-2381
857.350	-1932
857.438	-1247
857.527	-2549
857.615	-2203
857.703	-1496
857.792	-1005
857.880	-2237
857.968	-1861
858.056	-2341
858.145	-2158
858.233	-1804
858.321	-1483
858.409	-634
858.497	-1891
858.585	-1946
858.673	-1650
858.761	-2364
858.849	-1606
858.937	-1754
859.025	-1869
859.113	-1889
859.201	-1600
859.289	-1621
859.377	-2076
859.465	-1053
859.552	-1223
859.640	-2408
859.728	-1106
859.816	-2283
859.903	-1623
859.991	-2059
860.079	-2303
860.166	-1022
860.254	-1704
860.342	-2007
860.429	-2481
860.517	-2160
860.604	-1226
860.692	-1532
860.779	-1400
860.867	-2361
860.954	-1825
861.042	-2104
861.129	-1882
861.216	-1723
861.304	-1845
861.391	-1284
861.478	-1690
861.565	-1275
861.653	-623
861.740	-2909
861.827	-1889
861.914	-1494
862.001	-2376
862.089	-1432
862.176	-1631
862.263	-1815
862.350	-1063
862.437	-2591
862.524	-2021
862.611	-1506
862.698	-1126
862.785	-2120
862.871	-1185
862.958	-1923
863.045	-1525
863.132	-2153
863.219	-1627
863.306	-2523
863.392	-901
863.479	-1673
863.566	-1351
863.652	-2806
863.739	-2280
863.826	-1356
863.912	-2095
863.999	-2076
864.086	-2169
864.172	-2556
864.259	-1839
864.345	-2511
864.432	-1640
864.518	-2640
864.604	-1517
864.691	-1528
864.777	-1699
864.863	-1040
864.950	-1075
865.036	-3037
865.122	-1032
865.209	-1125
865.295	-1244
865.381	-1947
865.467	-1220
865.553	-1642
865.639	-1755
865.726	-502
865.812	2197
865.898	3449
865.984	5171
866.070	12528
866.156	9207
866.242	-853
866.328	-1266
866.414	-1624
866.499	-984
866.585	-2007
866.671	-1521
866.757	-2234
866.843	-1731
866.928	-1859
867.014	-938
867.100	-1361
867.186	-767
867.271	-1524
867.357	-703
867.442	-1371
867.528	-1830
867.614	-1545
867.699	-1721
867.785	-1365
867.870	-1543
867.956	-1842
868.041	-944
868.127	-1467
868.212	-1362
868.297	-1830
868.383	-1707
868.468	-962
868.553	-671
868.639	-1397
868.724	-636
868.809	-969
868.894	-1182
868.979	-1927
869.065	-1392
869.150	-2683
869.235	-1774
869.320	-2071
869.405	-1014
869.490	-1711
869.575	-1640
869.660	-1748
869.745	-1484
869.830	-2514
869.915	-1793
870.000	-2489
870.085	-1214
870.169	-1221
870.254	-1096
870.339	-2383
870.424	-1985
870.509	-1753
870.593	-1484
870.678	-2113
870.763	-1823
870.847	-2108
870.932	-1519
871.016	-2250
871.101	-2055
871.186	-2244
871.270	-1229
871.355	-1166
871.439	-1671
871.523	-2075
871.608	-1473
871.692	-1379
871.777	-1699
871.861	-1938
871.945	-2740
872.030	-1543
872.114	-2479
872.198	-2544
872.282	-1284
872.367	-1930
872.451	-1881
872.535	-1841
872.619	-1520
872.703	-2003
872.787	-1952
872.871	-2114
872.955	-2033
873.039	-2862
873.123	-1897
873.207	-2042
873.291	-1793
873.375	-1909
873.459	-1575
873.543	-2067
873.627	-1572
873.711	-1630
873.794	-1665
873.878	-2307
873.962	-1237
874.045	-2329
874.129	-1679
874.137	-1721
874.213	-2140
874.245	-2239
874.296	-2415
874.352	-2031
874.380	-1841
874.460	-2179
874.464	-2193
874.547	-2459
874.568	-2160
874.631	-1312
874.676	-1480
874.714	-1611
874.784	-1057
874.798	-945
874.881	-595
874.892	-721
874.965	-1632
874.999	-1895
875.048	-2239
875.107	-2019
875.131	-1942
875.215	-1880
875.215	-1879
875.298	-1736
875.323	-1720
875.381	-1671
875.430	-1391
875.465	-1176
875.538	-2270
875.548	-2436
875.631	-1879
875.646	-1920
875.714	-2003
875.753	-1980
875.798	-1954
875.861	-1279
875.881	-1082
875.964	-1619
875.968	-1590
876.047	-1131
876.076	-1405
876.130	-1793
876.183	-1618
876.213	-1563
876.291	-849
876.296	-800
876.379	-1576
876.398	-1538
876.462	-1556
876.506	-1878
876.545	-2055
876.613	-1695
876.628	-1606
876.711	-1900
876.721	-1789
876.794	-1039
876.828	-1394
876.877	-1908
876.935	-1599
876.960	-1424
877.043	-1430
877.043	-1428
877.125	-955
877.150	-1078
877.208	-1201
877.258	-615
877.291	-293
877.365	-1237
877.374	-1319
877.456	-102
877.472	-300
877.539	-1388
877.579	-1203
877.622	-924
877.687	-954
877.704	-995
877.787	-1395
877.794	-1362
877.869	-828
877.901	-857
877.952	-838
878.008	-879
878.034	-1065
878.115	-1535
878.117	-1533
878.199	-821
878.222	-733
878.282	-512
878.329	-858
878.364	-1126
878.437	-558
878.447	-480
878.529	-1387
878.544	-1354
878.611	-1256
878.651	-1338
878.694	-1335
878.758	-1213
878.776	-1189
878.858	-941
878.865	-956
878.941	-1279
878.972	-1523
879.023	-1713
879.078	-1759
879.105	-1794
879.185	-1083
879.187	-1071
879.269	-984
879.292	-962
879.351	-696
879.399	-854
879.433	-1018
879.506	-994
879.516	-968
879.598	-1237
879.613	-1177
879.680	-938
879.720	-777
879.762	-677
879.827	-939
879.844	-1010
879.926	-798
879.933	-815
880.007	-834
880.040	-874
880.089	-865
880.147	-642
880.171	-619
880.253	-559
880.254	-560
880.335	14
880.360	82
880.417	315
880.467	804
880.499	1069
880.574	1248
880.580	1224
880.662	-482
880.680	-475
880.744	-308
880.787	-883
880.825	-1185
880.893	-573
880.907	-548
880.989	-1412
881.000	-1381
881.070	-743
881.106	-826
881.152	-939
881.213	-837
881.233	-791
881.315	-728
881.319	-728
881.396	-492
881.426	-649
881.478	-1307
881.532	-854
881.559	-530
881.639	-914
881.641	-918
881.722	-578
881.745	-650
881.803	-851
881.852	-874
881.885	-879
881.958	-818
881.966	-824
882.047	-645
882.064	-743
882.129	-699
882.171	-347
882.210	-136
882.277	-169
882.291	-241
882.372	-721
882.383	-769
882.454	-621
882.489	-469
882.535	-364
882.596	-543
882.616	-623
882.697	-894
882.702	-918
882.778	-766
882.808	-421
882.859	-268
882.914	-690
882.940	-676
883.020	-472
883.021	-469
883.102	-728
883.127	-686
883.183	-498
883.233	-664
883.264	-645
883.339	-560
883.345	-562
883.426	-904
883.445	-828
883.507	-462
883.551	-363
883.587	-363
883.657	-516
883.668	-459
883.749	-181
883.763	-48
883.830	-213
883.869	-662
883.910	-632
883.975	-161
883.991	-200
884.072	-896
884.081	-906
884.152	-398
884.187	-429
884.233	-328
884.292	263
884.314	210
884.394	-753
884.398	-793
884.475	-517
884.504	-385
884.555	-422
884.610	-496
884.636	-495
884.716	-318
884.716	-310
884.797	-148
884.821	-143
884.877	-433
884.927	-765
884.958	-783
885.033	-605
885.038	-573
885.118	-180
885.139	-138
885.199	-228
885.244	-149
885.279	3
885.350	96
885.359	99
885.439	355
885.456	338
885.520	82
885.561	-7
885.600	-28
885.667	-289
885.680	-333
885.760	-456
885.773	-473
885.840	145
885.878	540
885.920	227
885.984	-659
886.000	-602
886.080	83
886.089	159
886.160	385
886.195	346
886.240	325
886.300	317
886.320	248
886.400	217
886.406	186
886.480	35
886.511	45
886.560	234
886.616	329
886.640	271
886.720	334
886.722	322
886.800	131
886.827	153
886.879	16
886.932	-344
886.959	-122
887.038	826
887.039	835
887.119	502
887.143	553
887.198	312
887.248	-73
887.278	-8
887.354	102
887.358	125
887.437	461
887.459	558
887.517	804
887.564	931
887.596	870
887.669	854
887.676	813
887.755	112
887.774	-95
887.835	-44
887.880	90
887.914	254
887.985	453
887.994	465
888.073	560
888.090	569
888.153	620
888.195	597
888.232	523
888.300	444
888.311	474
888.391	650
888.405	656
888.470	414
888.510	256
888.549	377
888.615	638
888.628	651
888.708	560
888.720	558
888.787	759
888.825	816
888.866	542
888.930	138
888.945	231
889.024	630
889.035	687
889.103	943
889.140	1056
889.182	756
889.245	313
889.261	390
889.340	715
889.349	750
889.419	188
889.454	-107
889.498	84
889.559	351
889.577	457
889.656	908
889.664	949
889.735	784
889.768	699
889.814	717
889.873	738
889.978	865
890.083	763
890.187	1024
890.292	1057
890.397	369
890.501	673
890.606	1503
890.710	1145
890.815	994
890.919	241
891.024	893
891.128	998
891.233	538
891.337	465
891.442	988
891.546	943
891.650	776
891.755	308
891.859	1554
891.963	300
892.068	898
892.172	428
892.276	-363
892.380	42
892.484	174
892.589	450
892.693	840
892.797	-247
892.901	460
893.005	360
893.109	501
893.213	740
893.317	1034
893.421	526
893.525	443
893.629	-28
893.733	724
893.837	1261
893.941	-75
894.045	290
894.148	167
894.252	286
894.356	292
894.460	518
894.564	183
894.667	398
894.771	840
894.875	-473
894.978	870
895.082	493
895.186	308
895.289	236
895.393	838
895.496	528
895.600	440
895.703	-149
895.807	61
895.910	-226
896.014	654
896.117	718
896.221	907
896.324	494
896.427	-102
896.531	-261
896.634	548
896.737	825
896.840	83
896.944	-226
897.047	56
897.150	32
897.253	560
897.356	525
897.460	-59
897.563	52
897.666	143
897.769	286
897.872	624
897.975	675
898.078	663
898.181	572
898.284	247
898.387	329
898.490	767
898.593	538
898.695	52
898.798	-94
898.901	668
899.004	303
899.107	464
899.209	-26
899.312	589
899.415	253
899.518	360
899.620	-141
899.723	753
899.826	1336
899.928	1130
900.031	-365
900.133	340
900.236	-562
900.338	-129
900.441	320
900.543	196
900.646	268
900.748	103
900.851	-87
900.953	437
901.055	49
901.158	92
901.260	-771
901.362	614
901.465	-8
901.567	-106
901.669	577
901.771	510
901.873	714
901.976	484
902.078	374
902.180	249
902.282	298
902.384	586
902.486	8
902.588	420
902.690	442
902.792	456
902.894	439
902.996	477
903.098	-217
903.200	533
903.302	8
903.404	-163
903.505	84
903.607	415
903.709	780
903.811	-947
903.913	41
904.014	244
904.116	370
904.218	745
904.319	154
904.421	877
904.523	-302
904.624	16
904.726	761
904.827	-232
904.929	-138
905.030	-342
905.132	665
905.233	391
905.335	57
905.436	430
905.537	99
905.639	-296
905.740	147
905.841	417
905.943	415
906.044	23
906.145	-48
906.247	444
906.348	953
906.449	86
906.550	226
906.651	-579
906.752	35
906.854	112
906.955	-186
907.056	526
907.157	-204
907.258	-469
907.359	-141
907.460	99
907.561	-57
907.662	-117
907.762	-1028
907.863	167
907.964	343
908.065	374
908.166	521
908.267	356
908.367	-1101
908.468	703
908.569	-646
908.670	572
908.770	1010
908.871	786
908.971	445
909.072	748
909.173	-521
909.273	671
909.374	-42
909.474	245
909.575	391
909.675	-235
909.776	394
909.876	152
909.977	605
910.077	166
910.177	472
910.278	-256
910.378	184
910.478	157
910.579	-335
910.679	-612
910.779	-826
910.879	183
910.980	-283
911.080	-24
911.180	9
911.280	362
911.380	-761
911.480	238
911.580	204
911.680	426
911.780	-212
911.880	-27
911.980	17
912.080	425
912.180	366
912.280	172
912.380	54
912.480	-321
912.580	-94
912.679	229
912.779	-777
912.879	272
912.979	1035
913.078	930
913.178	-253
913.278	204
913.377	-330
913.477	117
913.577	-79
913.676	335
913.776	86
913.875	283
913.975	8
914.074	21
914.174	153
914.273	-199
914.373	531
914.472	-273
914.572	319
914.671	31
914.770	-144
914.870	77
914.969	-570
915.068	-1096
915.167	-276
915.267	579
915.366	211
915.465	-105
915.564	-836
915.663	292
915.763	-283
915.862	-95
915.961	-129
916.060	-356
916.159	145
916.258	687
916.357	-6
916.456	465
916.555	-466
916.654	482
916.752	-70
916.851	-214
916.950	-189
917.049	-256
917.148	-325
917.247	-86
917.345	-781
917.444	-607
917.543	-449
917.642	-539
917.740	-693
917.839	-269
917.937	262
918.036	51
918.135	97
918.233	-323
918.332	-688
918.430	-512
918.529	-464
918.627	288
918.726	19
918.824	160
918.923	53
919.021	-632
919.119	-549
919.218	68
919.316	-505
919.414	153
919.512	-31
919.611	-400
919.709	-431
919.807	-872
919.905	-174
920.003	-252
920.102	-465
920.200	-84
920.298	-1374
920.396	-69
920.494	219
920.592	-1035
920.690	523
920.788	-610
920.886	-299
920.984	532
921.082	-7
921.180	377
921.277	-683
921.375	85
921.473	459
921.571	-660
921.669	-525
921.766	-1
921.864	392
921.962	-587
922.060	-112
922.157	-267
922.255	189
922.352	444
922.450	398
922.548	874
922.645	-35
922.743	713
922.840	954
922.938	907
923.035	750
923.133	275
923.230	1143
923.327	372
923.425	811
923.522	294
923.619	408
923.717	1121
923.814	1236
923.911	720
924.008	754
924.106	28
924.203	99
924.300	473
924.397	-292
924.494	1018
924.591	511
924.688	223
924.786	105
924.883	245
924.979	480
925.077	246
925.173	863
925.270	789
925.367	462
925.464	96
925.561	304
925.658	673
925.755	362
925.852	716
925.948	182
926.045	278
926.142	177
926.239	764
926.335	-411
926.432	911
926.529	870
926.625	-101
926.722	304
926.818	759
926.915	251
927.011	768
927.108	159
927.204	933
927.301	470
927.397	517
927.494	74
927.590	149
927.687	-165
927.783	-205
927.879	654
927.976	138
928.072	-247
928.168	608
928.264	25
928.361	-472
928.457	1333
928.553	-96
928.649	396
928.745	-542
928.841	745
928.937	691
929.033	-24
929.129	1018
929.225	24
929.321	458
929.417	682
929.513	600
929.609	-283
929.705	559
929.801	754
929.897	19
929.993	-69
930.089	-269
930.184	554
930.280	-572
930.376	659
930.471	-473
930.567	345
930.663	1005
930.758	-302
930.854	-161
930.950	349
931.045	135
931.141	-496
931.236	433
931.332	629
931.427	36
931.523	72
931.618	-132
931.714	97
931.809	431
931.905	-350
932.000	-210
932.095	400
932.191	375
932.286	211
932.381	-45
932.476	-168
932.572	-379
932.667	-37
932.762	-76
932.857	475
932.952	370
933.047	-386
933.142	513
933.237	-323
933.332	504
933.427	526
933.522	-176
933.617	739
933.712	901
933.807	133
933.902	-449
933.997	434
934.092	309
934.187	67
934.282	771
934.376	71
934.471	29
934.566	-51
934.661	90
934.755	-64
934.850	462
934.945	398
935.039	63
935.134	-438
935.228	-334
935.323	933
935.417	502
935.512	-129
935.606	5
935.701	-103
935.795	-885
935.890	-199
935.984	-570
936.079	-311
936.173	-204
936.267	-80
936.362	267
936.456	448
936.550	-228
936.644	74
936.738	-503
936.833	829
936.927	79
937.021	456
937.115	89
937.209	-1186
937.303	936
937.397	-320
937.491	304
937.585	-47
937.679	414
937.773	-877
937.867	322
937.961	188
938.055	-883
938.149	432
938.243	547
938.337	-314
938.430	-558
938.524	132
938.618	192
938.712	979
938.805	567
938.899	-339
938.993	579
939.086	457
939.180	-92
939.274	531
939.367	194
939.461	27
939.554	-518
939.648	-443
939.741	10
939.835	647
939.928	255
940.022	-320
940.115	-266
940.208	100
940.302	-53
940.395	511
940.488	-868
940.582	81
940.675	-628
940.768	-701
940.861	-253
940.954	-673
941.048	-54
941.141	-80
941.234	147
941.327	406
941.420	547
941.513	475
941.606	-35
941.699	73
941.792	-1
941.885	-1237
941.978	-92
942.071	-306
942.164	-199
942.257	169
942.349	-437
942.442	289
942.535	-816
942.628	-550
942.721	-265
942.813	-1365
942.906	110
942.999	-575
943.091	-903
943.184	-1269
943.277	-1286
943.369	60
943.462	-1007
943.554	-106
943.647	-681
943.739	-220
943.832	-104
943.924	-1262
944.017	101
944.109	-491
944.201	468
944.294	785
944.386	-491
944.478	-710
944.571	-197
944.663	343
944.755	636
944.847	107
944.940	-958
945.032	-1054
945.124	58
945.216	379
945.308	-33
945.400	-297
945.492	-38
945.584	298
945.676	-265
945.768	-499
945.860	-198
945.952	-405
946.044	225
946.136	-757
946.228	-10
946.320	-312
946.412	-232
946.503	-422
946.595	-150
946.687	-814
946.779	-610
946.870	-698
946.962	-819
947.054	322
947.145	-211
947.237	-987
947.329	117
947.420	-489
947.512	-427
947.603	-409
947.695	-976
947.786	-785
947.878	-814
947.969	-488
948.061	-758
948.152	-601
948.243	183
948.335	303
948.426	-413
948.517	-1088
948.609	-450
948.700	-644
948.791	-466
948.882	-268
948.973	-379
949.065	-430
949.156	9
949.247	-460
949.338	-827
949.429	-850
949.520	-1028
949.611	-1082
949.702	-531
949.793	-524
949.884	-395
949.975	-876
950.066	-493
950.157	-1107
950.247	-299
950.338	-545
950.429	-234
950.520	-681
950.611	-593
950.701	-343
950.792	-214
950.883	-400
950.973	-1423
951.064	-276
951.155	-799
951.245	-629
951.336	-173
951.427	-1671
951.517	-602
951.608	-797
951.698	-1123
951.788	-440
951.879	-629
951.969	-851
952.060	-751
952.150	-724
952.240	-515
952.331	-2868
952.421	575
952.511	-924
952.602	-432
952.692	-1257
952.782	-551
952.872	-1329
952.962	-1096
953.052	-1014
953.143	-1351
953.233	62
953.323	-585
953.413	-298
953.503	-911
953.593	-228
953.683	-198
953.773	-1788
953.863	-474
953.953	-934
954.042	-745
954.132	-1685
954.222	18
954.312	-1195
954.402	-1101
954.492	-333
954.581	-530
954.671	-878
954.761	-1639
954.850	35
954.940	-1181
955.030	-351
955.119	-1116
955.209	-628
955.298	-861
955.388	-1339
955.477	127
955.567	-1239
955.656	-736
955.746	-277
955.835	-936
955.925	-530
956.014	-1233
956.103	-1329
956.193	-1148
956.282	-1078
956.371	-1018
956.461	-1105
956.550	-319
956.639	-787
956.728	-1022
956.817	-293
956.906	-1647
956.995	-764
957.085	-1019
957.174	-971
957.263	-928
957.352	125
957.441	-601
957.530	-242
957.619	-763
957.708	-264
957.796	-801
957.885	-386
957.974	-768
958.063	-33
958.152	-1280
958.241	-721
958.329	-601
958.418	-719
958.507	-1301
958.596	-195
958.684	-1281
958.773	432
958.861	-878
958.950	-56
959.039	654
959.127	316
959.216	292
959.304	-126
959.393	140
959.481	-1056
959.570	-564
959.658	-1009
959.746	443
959.835	327
959.923	1026
960.011	-376
960.100	414
960.188	-223
960.276	-784
960.365	-219
960.453	-1066
960.541	-992
960.629	78
960.717	173
960.805	-1033
960.893	-845
960.981	-1472
961.069	408
961.158	-1334
961.245	186
961.333	-1134
961.421	-1704
961.509	-544
961.597	-1069
961.685	-685
961.773	-925
961.861	-1127
961.949	-331
962.036	-1171
962.124	-547
962.212	-412
962.299	-1921
962.387	-1383
962.475	-1738
962.562	-1831
962.650	-737
962.738	-1311
962.825	-1285
962.913	-1039
963.000	-869
963.088	-813
963.175	-812
963.263	-1030
963.350	-1242
963.438	-1338
963.525	-821
963.612	-227
963.700	1147
963.787	2770
963.874	-208
963.962	-964
964.049	-686
964.136	-1101
964.223	-1430
964.310	-1754
964.398	-1054
964.485	-1634
964.572	-752
964.659	-1111
964.746	-674
964.833	-1906
964.920	-1130
965.007	-1156
965.094	-1607
965.181	-1463
965.268	-1421
965.355	-934
965.441	-1465
965.528	-2483
965.615	33
965.702	-1159
965.789	-1893
965.875	-1415
965.962	-1216
966.049	-1195
966.136	-1320
966.222	-1686
966.309	-1073
966.395	-1442
966.482	-1184
966.569	-1947
966.655	-1078
966.742	-1490
966.828	-1583
966.915	-1388
967.001	-985
967.087	-1525
967.174	-835
967.260	-1021
967.347	-510
967.433	-420
967.519	233
967.605	-1234
967.692	-2124
967.778	-1038
967.864	-1461
967.950	-82
968.036	-1563
968.123	-1150
968.209	-886
968.295	-2214
968.381	610
968.467	-1126
968.553	-1886
968.639	-24
968.725	-1500
968.811	-32
968.897	-223
968.983	-1018
969.069	-2133
969.154	-1068
969.240	-1567
969.326	-1179
969.412	-1858
969.497	-1600
969.583	-1324
969.669	-507
969.755	-1779
969.840	-1616
969.926	-1071
970.012	-1257
970.097	16
970.183	-911
970.268	-1420
970.354	-326
970.439	-658
970.525	846
970.610	-1476
970.696	-736
970.781	-853
970.866	-2172
970.952	-1403
971.037	-1309
971.122	-1161
971.208	-1366
971.293	-1010
971.378	-2021
971.463	-1427
971.549	-1327
971.634	-1145
971.719	-1362
971.804	-1550
971.889	-1344
971.974	-1676
972.059	-924
972.144	-1295
972.229	-1606
972.314	-2413
972.399	-534
972.484	-1456
972.569	-772
972.654	-2201
972.739	256
972.824	-833
972.908	-1574
972.993	-1209
973.078	-1031
973.163	-1135
973.247	-1276
973.332	-2405
973.417	227
973.501	-2184
973.586	-605
973.671	-1733
973.755	-1729
973.840	-1488
973.924	-404
974.009	-905
974.093	-1180
974.178	-779
974.262	-345
974.346	-1280
974.431	-1409
974.515	-961
974.600	-942
974.684	-1095
974.768	-1671
974.852	-959
974.937	-2182
975.021	-795
975.105	-1545
975.189	-1112
975.273	-798
975.358	-1886
975.442	-1644
975.526	-48
975.610	-2335
975.694	-1515
975.778	-485
975.862	-480
975.946	-3278
976.030	-127
976.114	-1944
976.198	-982
976.281	-1370
976.365	-1172
976.449	-1170
976.533	-1076
976.617	-1552
976.700	-837
976.784	-1555
976.868	-1528
976.951	-414
977.035	-1450
977.119	-1091
977.202	-1423
977.286	-1024
977.369	-1504
977.453	-631
977.536	-957
977.620	-2365
977.703	-1291
977.787	-1253
977.870	-754
977.953	264
978.037	-1406
978.120	-181
978.203	-1460
978.287	-640
978.370	-906
978.453	-1750
978.536	-667
978.620	-347
978.703	-426
978.786	-1383
978.869	-1913
978.952	-1533
979.035	61
979.118	-1464
979.201	-1903
979.284	-1192
979.367	-1869
979.450	-1049
979.533	-1792
979.616	-1486
979.699	-2203
979.782	-1827
979.865	-1325
979.948	-1523
980.030	-1066
980.113	-1754
980.196	-1475
980.279	-324
980.361	-1247
980.444	-1853
980.526	-1446
980.609	-1034
980.692	-1462
980.774	-1125
980.857	-1842
980.939	-619
981.022	-1320
981.104	-1679
981.187	-1727
981.269	-284
981.352	-1302
981.434	-2515
981.516	-1716
981.599	-237
981.681	-1037
981.763	-574
981.846	-1093
981.928	-1553
982.010	-1104
982.092	-1072
982.174	-513
982.256	-1562
982.339	-1438
982.421	-1999
982.503	-1777
982.585	-2771
982.667	-1026
982.749	-853
982.831	-1089
982.913	-2409
982.995	-494
983.077	-1120
983.158	-627
983.240	-2440
983.322	-600
983.404	-997
983.486	-1938
983.568	-1484
983.649	-1052
983.731	-404
983.813	-1710
983.894	-705
983.976	-1524
984.058	-1330
984.139	-1008
984.221	-2090
984.302	-875
984.384	-1283
984.465	-1033
984.547	-1372
984.628	-2108
984.710	-459
984.791	-1555
984.872	-1971
984.954	-1486
985.035	-1224
985.116	-2254
985.198	-1796
985.279	-1620
985.360	-2036
985.441	-1921
985.522	-1640
985.604	-1172
985.685	-2683
985.766	-1064
985.847	-172
985.928	-2095
986.009	-1688
986.090	-1999
986.171	-1283
986.252	-1051
986.333	-1151
986.414	-1309
986.495	-1406
986.576	-1439
986.656	-1207
986.737	-903
986.818	-739
986.899	-2225
986.980	-1616
987.060	-624
987.141	-1730
987.222	-1053
987.302	-1520
987.383	-1762
987.464	-1130
987.544	-1502
987.625	-1326
987.705	-388
987.786	-2134
987.866	-1529
987.947	-1126
988.027	-795
988.108	-2006
988.188	-1148
988.268	-1153
988.349	-1844
988.429	-1298
988.509	-699
988.589	-2090
988.670	-3046
988.750	-1125
988.830	-1531
988.910	-1371
988.990	-1447
989.070	-496
989.151	-2078
989.231	-2531
989.311	-1188
989.391	-1472
989.471	-1364
989.551	-1804
989.631	-1767
989.711	-1242
989.791	-2483
989.870	-1923
989.950	-684
990.030	-1702
990.110	-2274
990.190	-2046
990.269	-1472
990.349	-1812
990.429	-1740
990.509	-406
990.588	-2433
990.668	-1897
990.747	-2442
990.827	-1813
990.907	-981
990.986	-1366
991.066	-1366
991.145	-1788
991.225	-1661
991.304	-1384
991.383	-1343
991.463	-2406
991.542	-1325
991.622	-1878
991.701	-2166
991.780	-1645
991.859	-1537
991.939	-1954
992.018	-1942
992.097	-1698
992.176	-1670
992.256	-1728
992.335	-2271
992.414	-2081
992.493	-2252
992.572	-2630
992.651	-1372
992.730	-2892
992.809	-1431
992.888	-2331
992.967	-2227
993.046	-1328
993.125	-2169
993.203	-2139
993.282	-1693
993.361	-1605
993.440	-1434
993.519	-2774
993.597	-2325
993.676	-1468
993.755	-981
993.834	-1395
993.912	-3356
993.991	-1122
994.069	-2141
994.148	-1335
994.226	-1860
994.305	-1379
994.384	-2375
994.462	-1384
994.540	-2847
994.619	-2489
994.697	-1031
994.776	-1895
994.854	-1706
994.932	-2208
995.011	-1645
995.089	-2914
995.167	-2315
995.245	-2407
995.324	-2480
995.402	-1874
995.480	-2601
995.558	-1980
995.636	-3656
995.714	-2499
995.792	-594
995.870	-2209
995.948	-1612
996.026	-1670
996.104	-3570
996.182	-2068
996.260	-2702
996.338	-2106
996.416	-2761
996.494	-2634
996.572	-1171
996.649	-1887
996.727	-2370
996.805	-2094
996.883	-2273
996.960	-1074
997.038	-2240
997.116	-1869
997.193	-2800
997.271	-1350
997.348	-2772
997.426	-1570
997.504	-2532
997.581	-1465
997.658	-2109
997.736	-2292
997.813	-2533
997.891	-1676
997.968	-2202
998.046	-2334
998.123	-2011
998.200	-2778
998.277	-3023
998.355	-1498
998.432	-3342
998.509	-2073
998.586	-1954
998.663	-1656
998.741	-1952
998.818	-2354
998.895	-2622
998.972	-1242
999.049	-1131
999.126	-3072
999.203	-1650
999.280	-1551
999.357	-2317
999.434	-1948
999.511	-1394
999.587	-1821
999.664	-1926
999.741	-1729
999.818	-1545
999.895	-2868
999.971	-2267
1000.048	-2339
1000.125	-936
1000.202	-2240
1000.278	-2148
1000.355	-1856
1000.431	-1959
1000.508	-2428
1000.584	-2256
1000.661	-1476
1000.738	-3037
1000.814	-2324
1000.890	-1492
1000.967	-2960
1001.043	-1493
1001.120	-3240
1001.196	-2447
1001.272	-2908
1001.349	-1858
1001.425	-1839
1001.501	-2052
1001.577	-2346
1001.654	-1984
1001.730	-2264
1001.806	-2186
1001.882	-2617
1001.958	-1501
1002.034	-1888
1002.110	-1673
1002.186	-2682
1002.262	-3080
1002.338	-2993
1002.414	-1589
1002.490	-1440
1002.566	-2496
1002.642	-2967
1002.718	-1429
1002.794	-2932
1002.870	-1667
1002.945	-2463
1003.021	-2082
1003.097	-2418
1003.173	-1484
1003.248	-2250
1003.324	-1913
1003.400	-2180
1003.475	-2784
1003.551	-2115
1003.626	-2459
1003.702	-2534
1003.777	-2220
1003.853	-2221
1003.928	-2526
1004.004	-2438
1004.079	-2165
1004.155	-1832
1004.230	-3025
1004.305	-596
1004.381	-2615
1004.456	-2320
1004.531	-2682
1004.607	-2984
1004.682	-2440
1004.757	-2379
1004.832	-2133
1004.907	-2480
1004.982	-1611
1005.057	-2176
1005.133	-2908
1005.208	-3092
1005.283	-2127
1005.358	-1422
1005.433	-3091
1005.508	-2546
1005.583	-2912
1005.657	-2598
1005.732	-1968
1005.807	-2450
1005.882	-2561
1005.957	-2019
1006.032	-1983
1006.106	-1705
1006.181	-2014
1006.256	-2317
1006.331	-3214
1006.405	-2807
1006.480	-2573
1006.554	-2726
1006.629	-2616
1006.704	-2227
1006.778	-1834
1006.853	-2081
1006.927	-2979
1007.002	-2256
1007.076	-2411
1007.150	-2841
1007.225	-3016
1007.299	-2219
1007.373	-2350
1007.448	-2370
1007.522	-1717
1007.596	-2557
1007.671	-2673
1007.745	-2156
1007.819	-2747
1007.893	-2182
1007.967	-2151
1008.041	-2997
1008.115	-1866
1008.190	-2106
1008.264	-1621
1008.338	-2852
1008.412	-2522
1008.486	-2083
1008.560	-2806
1008.633	-2820
1008.707	-2568
1008.781	-1544
1008.855	-2436
1008.929	-2164
1009.003	-2519
1009.076	-2646
1009.150	-2330
1009.224	-2295
1009.298	-1251
1009.371	-2231
1009.445	-1624
1009.519	-2419
1009.592	-3649
1009.666	-1982
1009.739	-1490
1009.813	-2777
1009.886	-1408
1009.960	-3186
1010.033	-2050
1010.107	-2198
1010.180	-3034
1010.253	-2148
1010.327	-2875
1010.400	-2286
1010.473	-3324
1010.547	-1614
1010.620	-2735
1010.693	-1802
1010.766	-2310
1010.840	-2454
1010.913	-2113
1010.986	-3037
1011.059	-2071
1011.132	-2616
1011.205	-1430
1011.278	-2242
1011.351	-3111
1011.424	-1700
1011.497	-2552
1011.570	-2378
1011.643	-1841
1011.716	-1786
1011.789	-2468
1011.862	-2118
1011.934	-1925
1012.007	-3160
1012.080	-1766
1012.153	-2441
1012.225	-2095
1012.298	-2332
1012.371	-2686
1012.443	-1981
1012.516	-3381
1012.588	-1843
1012.661	-1669
1012.733	-2617
1012.806	-1517
1012.879	-2729
1012.951	-2191
1013.023	-1912
1013.096	-2636
1013.168	-2113
1013.241	-2203
1013.313	-1826
1013.385	-2946
1013.458	-2087
1013.530	-1039
1013.602	-2256
1013.674	-1516
1013.746	-3538
1013.819	-2575
1013.891	-1710
1013.963	-3201
1014.035	-2118
1014.107	-1717
1014.179	-2021
1014.251	-3098
1014.323	-2100
1014.395	-2440
1014.467	-1988
1014.539	-1518
1014.611	-2829
1014.683	-2603
1014.754	-2122
1014.826	-2661
1014.898	-2738
1014.970	-3015
1015.042	-988
1015.113	-1753
1015.185	-2214
1015.257	-2969
1015.328	-2295
1015.400	-1555
1015.471	-1710
1015.543	-2807
1015.615	-2363
1015.686	-2435
1015.757	-1752
1015.829	-2962
1015.901	-2777
1015.972	-2423
1016.043	-2332
1016.115	-2134
1016.186	-1885
1016.257	-3261
1016.328	-2182
1016.400	-2370
1016.471	-2781
1016.542	-2633
1016.613	-1537
1016.685	-1945
1016.756	-2157
1016.827	-2207
1016.898	-3080
1016.969	-2149
1017.040	-2707
1017.111	-2310
1017.182	-2306
1017.253	-2037
1017.324	-2849
1017.395	-2315
1017.466	-1862
1017.537	-2355
1017.608	-1750
1017.678	-2629
1017.749	-2100
1017.820	-2551
1017.891	-2524
1017.961	-2331
1018.032	-2108
1018.103	-1905
1018.173	-1915
1018.244	-2728
1018.315	-2688
1018.385	-1700
1018.456	-2867
1018.526	-2130
1018.597	-2012
1018.667	-2580
1018.738	-1743
1018.808	-2366
1018.878	-2011
1018.949	-2913
1019.019	-2323
1019.089	-2166
1019.160	-1653
1019.230	-2917
1019.300	-2005
1019.371	-3149
1019.441	-2079
1019.511	-2157
1019.581	-3071
1019.651	-2255
1019.721	-2300
1019.791	-2038
1019.861	-2531
1019.931	-2169
1020.001	-2577
1020.071	-2008
1020.141	-2888
1020.211	-2765
1020.281	-2469
1020.351	-2500
1020.421	-2113
1020.491	-2060
1020.560	-2499
1020.630	-2341
1020.700	-1388
1020.770	-2756
1020.839	-2733
1020.909	-2356
1020.979	-2560
1021.048	-2584
1021.118	-1662
1021.187	-2224
1021.257	-2259
1021.326	-1777
1021.396	-3292
1021.465	-2053
1021.535	-1751
1021.604	-2537
1021.674	-2481
1021.743	-2720
1021.812	-2001
1021.882	-2814
1021.951	-2170
1022.020	-2271
1022.089	-3027
1022.159	-2622
1022.228	-2482
1022.297	-2601
1022.366	-2590
1022.435	-2856
1022.504	-2608
1022.573	-2851
1022.642	-2336
1022.711	-2884
1022.781	-1973
1022.849	-2197
1022.918	-3080
1022.987	-2902
1023.056	-2538
1023.125	-2325
1023.194	-1942
1023.263	-2199
1023.331	-1840
1023.400	-2261
1023.469	-2510
1023.538	-2468
1023.606	-2701
1023.675	-2838
1023.744	-2393
1023.812	-2276
1023.881	-1642
1023.949	-2568
1024.018	-2517
1024.086	-2297
1024.155	-2730
1024.223	-2634
1024.292	-2422
1024.360	-2129
1024.429	-2754
1024.497	-2943
1024.565	-1523
1024.634	-2405
1024.702	-1772
1024.770	-2475
1024.838	-2283
1024.907	-2453
1024.975	-2121
1025.043	-2776
1025.111	-2478
1025.179	-2538
1025.247	-2105
1025.315	-2839
1025.383	-2304
1025.451	-2827
1025.519	-2143
1025.587	-2079
1025.655	-2040
1025.723	-2575
1025.791	-2487
1025.859	-2065
1025.927	-1998
1025.995	-2469
1026.062	-2558
1026.130	-1825
1026.198	-2357
1026.266	-1974
1026.333	-2306
1026.401	-2785
1026.469	-2682
1026.536	-2549
1026.604	-1639
1026.671	-2575
1026.739	-1943
1026.806	-2509
1026.874	-2796
1026.941	-2180
1027.009	-2422
1027.076	-2933
1027.144	-773
1027.211	-2166
1027.278	-1776
1027.345	-2249
1027.413	-2613
1027.480	-2200
1027.547	-1997
1027.614	-2833
1027.682	-2468
1027.749	-2252
1027.816	-2759
1027.883	-3336
1027.950	-1584
1028.017	-2755
1028.084	-2504
1028.151	-2951
1028.218	-2814
1028.285	-2320
1028.352	-2373
1028.419	-2551
1028.486	-1849
1028.553	-2147
1028.619	-3261
1028.686	-1988
1028.753	-2559
1028.820	-2812
1028.886	-2851
1028.953	-2780
1029.020	-1494
1029.086	-3052
1029.153	-2186
1029.220	-2779
1029.286	-2648
1029.353	-2504
1029.419	-2342
1029.486	-2676
1029.552	-2276
1029.619	-2797
1029.685	-2475
1029.751	-2048
1029.818	-1874
1029.884	-2527
1029.951	-1141
1030.017	-2662
1030.083	-1908
1030.149	-1853
1030.216	-2094
1030.282	-2155
1030.348	-2857
1030.414	-3085
1030.480	-3156
1030.546	-2583
1030.612	-1604
1030.678	-2297
1030.744	-2270
1030.810	-2316
1030.876	-1975
1030.942	-2446
1031.008	-2694
1031.074	-2935
1031.140	-2525
1031.206	-1696
1031.272	-2387
1031.337	-1810
1031.403	-1329
1031.469	-2626
1031.534	-2627
1031.600	-1764
1031.666	-2522
1031.731	-2619
1031.797	-2276
1031.863	-3083
1031.928	-2287
1031.994	-3116
1032.059	-2837
1032.125	-2147
1032.190	-2323
1032.256	-2768
1032.321	-2496
1032.386	-2082
1032.452	-1910
1032.517	-2336
1032.582	-2407
1032.647	-2218
1032.713	-2072
1032.778	-2491
1032.843	-2343
1032.908	-2055
1032.974	-2689
1033.039	-2365
1033.104	-2086
1033.169	-2504
1033.234	-1430
1033.299	-1929
1033.364	-1840
1033.429	-3032
1033.494	-1894
1033.559	-3074
1033.624	-2039
1033.688	-2725
1033.753	-2343
1033.818	-2695
1033.883	-2552
1033.948	-2688
1034.013	-1745
1034.077	-2316
1034.142	-1862
1034.207	-2072
1034.271	-2585
1034.336	-1533
1034.400	-1480
1034.465	-1996
1034.530	-2383
1034.594	-1853
1034.658	-3201
1034.723	-2501
1034.787	-2444
1034.852	-2604
1034.916	-2317
1034.981	-2528
1035.045	-2413
1035.109	-2167
1035.173	-1413
1035.238	-2276
1035.302	-1623
1035.366	-2719
1035.430	-2476
1035.495	-2318
1035.559	-2546
1035.623	-1929
1035.687	-2177
1035.751	-2529
1035.815	-2458
1035.879	-2995
1035.943	-2620
1036.007	-1995
1036.071	-2347
1036.135	-2246
1036.198	-2511
1036.262	-2557
1036.326	-2048
1036.390	-2426
1036.454	-2625
1036.517	-2052
1036.581	-2445
1036.645	-2809
1036.709	-2482
1036.772	-2300
1036.836	-1518
1036.900	-1771
1036.963	-2305
1037.026	-2537
1037.090	-2527
1037.154	-2301
1037.217	-1817
1037.280	-2942
1037.344	-2573
1037.407	-2595
1037.471	-1580
1037.534	-2740
1037.597	-2690
1037.661	-1920
1037.724	-2528
1037.787	-2581
1037.850	-2572
1037.913	-2800
1037.977	-2039
1038.040	-2644
1038.103	-2378
1038.166	-2279
1038.229	-2337
1038.292	-3157
1038.355	-2129
1038.418	-2249
1038.481	-1750
1038.544	-1844
1038.607	-1964
1038.670	-2659
1038.732	-2404
1038.795	-2596
1038.858	-2404
1038.921	-2593
1038.984	-2173
1039.046	-2740
1039.109	-2106
1039.172	-2109
1039.234	-3330
1039.297	-1836
1039.360	-2514
1039.422	-2970
1039.485	-2326
1039.547	-3452
1039.610	-2023
1039.672	-2137
1039.734	-2666
1039.797	-2250
1039.859	-1841
1039.922	-2141
1039.984	-2229
1040.046	-2445
1040.109	-1616
1040.171	-3014
1040.233	-2497
1040.295	-2187
1040.358	-2329
1040.420	-3392
1040.482	-2629
1040.544	-3344
1040.606	-2512
1040.668	-2970
1040.730	-2193
1040.792	-2086
1040.854	-2814
1040.916	-2356
1040.978	-2405
1041.040	-1579
1041.102	-2166
1041.164	-2849
1041.225	-2104
1041.287	-2241
1041.349	-1845
1041.411	-2708
1041.472	-2571
1041.534	-2571
1041.596	-2784
1041.657	-2755
1041.719	-2403
1041.781	-2323
1041.842	-2396
1041.904	-2053
1041.965	-2968
1042.027	-2593
1042.088	-2509
1042.150	-2084
1042.211	-2034
1042.272	-2629
1042.334	-1981
1042.395	-2415
1042.456	-2664
1042.518	-2824
1042.579	-1111
1042.640	-2379
1042.701	-1570
1042.763	-2606
1042.824	-2374
1042.885	-2114
1042.946	-3002
1043.007	-2188
1043.068	-2530
1043.129	-2559
1043.190	-2667
1043.251	-2310
1043.312	-2053
1043.373	-2329
1043.434	-2598
1043.495	-2036
1043.556	-1727
1043.616	-2204
1043.677	-2273
1043.738	-2515
1043.799	-1949
1043.859	-1953
1043.920	-3094
1043.981	-2855
1044.041	-1884
1044.102	-2989
1044.162	-2451
1044.223	-2968
1044.284	-2822
1044.344	-3076
1044.405	-2386
1044.465	-1771
1044.525	-2223
1044.586	-2708
1044.646	-2832
1044.707	-1598
1044.767	-2424
1044.827	-1619
1044.887	-3314
1044.948	-2706
1045.008	-2633
1045.068	-2870
1045.128	-1775
1045.188	-1836
1045.249	-1547
1045.309	-2576
1045.369	-2079
1045.429	-2843
1045.489	-2506
1045.549	-1694
1045.609	-2115
1045.669	-2349
1045.729	-2580
1045.789	-2279
1045.848	-2459
1045.908	-2156
1045.968	-1855
1046.028	-2315
1046.088	-2440
1046.147	-1837
1046.207	-2218
1046.267	-2050
1046.326	-1622
1046.386	-2368
1046.446	-2025
1046.505	-2111
1046.565	-1935
1046.624	-1643
1046.684	-2125
1046.743	-778
1046.803	-1082
1046.862	-747
1046.922	0
