'Start Wavelength	183.907
'End Wavelength	1046.922
'Gate Delay	5.000
'Gate Width (ms)	1.050
'Laser Output Level	0.000
'X Position	0.000
'Y Position	0.000
'Z Position	0.000
'Grid Point Number	1.000
'Shot Number	100.000
183.907	731.000
183.977	-268.000
184.047	-366
184.116	144
184.186	184
184.256	-542
184.325	-39
184.395	-1433
184.465	258
184.534	-131
184.604	286
184.674	-79
184.743	-49
184.813	-36
184.883	-106
184.952	-206
185.022	28
185.092	374
185.161	52
185.231	-497
185.301	-27
185.370	76
185.440	-428
185.509	-385
185.579	-175
185.649	472
185.718	391
185.788	-355
185.857	-274
185.927	-118
185.996	-9
186.066	-721
186.136	-460
186.205	-554
186.275	459
186.344	57
186.414	-276
186.483	222
186.553	611
186.622	291
186.692	609
186.761	702
186.831	272
186.900	-175
186.970	542
187.039	391
187.109	694
187.178	361
187.248	127
187.317	505
187.387	-793
187.456	-138
187.526	633
187.595	-48
187.664	205
187.734	-896
187.803	-251
187.873	-228
187.942	7
188.012	10
188.081	-5
188.150	-552
188.220	646
188.289	434
188.358	-438
188.428	355
188.497	161
188.567	396
188.636	-30
188.705	-694
188.775	-539
188.844	-974
188.913	353
188.983	-158
189.052	-791
189.121	-560
189.191	-190
189.260	174
189.329	-168
189.399	-446
189.468	-292
189.537	-686
189.606	360
189.676	164
189.745	573
189.814	-242
189.883	469
189.953	-180
190.022	450
190.091	555
190.161	148
190.230	-160
190.299	-250
190.368	-875
190.437	-690
190.507	70
190.576	-954
190.645	-228
190.714	369
190.783	-70
190.853	587
190.922	325
190.991	-173
191.060	-157
191.129	-561
191.198	169
191.268	102
191.337	-385
191.406	234
191.475	-628
191.544	231
191.613	-121
191.682	601
191.752	393
191.821	-412
191.890	-514
191.959	-171
192.028	-637
192.097	272
192.166	-413
192.235	-480
192.304	263
192.373	-282
192.442	-221
192.511	-8
192.580	-161
192.650	353
192.719	95
192.788	-512
192.857	-143
192.926	-592
192.995	-87
193.064	431
193.133	-120
193.202	-754
193.271	-223
193.340	310
193.409	314
193.478	153
193.547	-82
193.615	-17
193.684	-111
193.753	-388
193.822	-258
193.891	82
193.960	86
194.029	-646
194.098	196
194.167	-65
194.236	692
194.305	118
194.374	-499
194.443	-462
194.512	186
194.580	137
194.649	253
194.718	426
194.787	187
194.856	-651
194.925	-57
194.994	-867
195.062	-169
195.131	-74
195.200	213
195.269	63
195.338	-526
195.407	-88
195.475	-1133
195.544	-269
195.613	-399
195.682	84
195.751	-327
195.819	-543
195.888	-61
195.957	141
196.026	-791
196.094	99
196.163	270
196.232	143
196.301	-271
196.369	-437
196.438	-150
196.507	309
196.576	-285
196.644	-690
196.713	219
196.782	-471
196.850	-335
196.919	-696
196.988	389
197.056	-672
197.125	-22
197.194	-600
197.262	-593
197.331	-289
197.400	-260
197.468	-409
197.537	-325
197.606	-87
197.674	-88
197.743	467
197.812	71
197.880	138
197.949	-52
198.017	707
198.086	-513
198.155	-423
198.223	-377
198.292	251
198.360	-960
198.429	-230
198.497	-499
198.566	-256
198.635	197
198.703	152
198.772	-210
198.840	-96
198.909	-37
198.977	7
199.046	-195
199.114	-426
199.183	-316
199.251	273
199.320	-291
199.388	-75
199.457	-716
199.525	-559
199.594	48
199.662	-392
199.731	343
199.799	-535
199.867	20
199.936	-556
200.004	43
200.073	153
200.141	-268
200.210	-608
200.278	-365
200.346	-66
200.415	282
200.483	352
200.552	90
200.620	152
200.688	-258
200.757	-169
200.825	164
200.893	-204
200.962	-426
201.030	-809
201.098	-862
201.167	159
201.235	719
201.303	-730
201.372	-407
201.440	316
201.508	547
201.577	150
201.645	279
201.713	-670
201.781	-195
201.850	463
201.918	163
201.986	372
202.055	591
202.123	15
202.191	-183
202.259	98
202.327	-107
202.396	135
202.464	262
202.532	506
202.600	2601
202.669	2040
202.737	529
202.805	-1045
202.873	-483
202.941	-88
203.009	-896
203.078	-654
203.146	296
203.214	-88
203.282	-1840
203.350	-351
203.418	64
203.487	16
203.555	233
203.623	-187
203.691	-38
203.759	-426
203.827	-507
203.895	-371
203.963	317
204.031	-326
204.099	-19
204.168	-47
204.236	-274
204.304	435
204.372	-854
204.440	-196
204.508	234
204.576	-542
204.644	-199
204.712	-1315
204.780	-371
204.848	628
204.916	-525
204.984	-1061
205.052	-537
205.120	-140
205.188	-593
205.256	-782
205.324	-205
205.392	-306
205.460	74
205.528	-1030
205.596	-97
205.664	247
205.732	-719
205.799	-383
205.867	802
205.935	-621
206.003	-268
206.071	-557
206.139	-1002
206.207	-472
206.275	-456
206.343	-466
206.411	-223
206.478	-203
206.546	-248
206.614	-1080
206.682	-433
206.750	-304
206.818	890
206.885	490
206.953	-931
207.021	294
207.089	40
207.157	-950
207.225	278
207.292	-233
207.360	-712
207.428	-961
207.496	-744
207.563	0
207.631	-324
207.699	-473
207.767	-722
207.834	-167
207.902	-254
207.970	156
208.038	-349
208.105	362
208.173	-831
208.241	-611
208.309	437
208.376	2
208.444	-312
208.512	-505
208.579	-991
208.647	316
208.715	1089
208.782	-216
208.850	-451
208.918	-552
208.985	-388
209.053	-279
209.120	-266
209.188	-544
209.256	-745
209.323	-1368
209.391	-762
209.459	1355
209.526	-211
209.594	-881
209.661	-156
209.729	185
209.796	-336
209.864	242
209.932	-1156
209.999	817
210.067	-472
210.134	-441
210.202	345
210.269	410
210.337	714
210.404	16
210.472	-307
210.539	-441
210.607	19
210.674	-609
210.742	-353
210.809	-645
210.877	-175
210.944	-599
211.012	-1576
211.079	1308
211.146	-44
211.214	-481
211.281	1218
211.349	835
211.416	-72
211.484	-176
211.551	-1123
211.618	-80
211.686	-35
211.753	-735
211.821	788
211.888	-510
211.955	-66
212.023	-96
212.090	74
212.157	9
212.225	-1215
212.292	371
212.359	545
212.427	3667
212.494	1258
212.561	-98
212.629	348
212.696	-832
212.763	-449
212.831	-666
212.898	-514
212.965	-795
213.032	207
213.100	-69
213.167	-1152
213.234	1029
213.301	-375
213.369	88
213.436	-488
213.503	-803
213.570	-219
213.638	-240
213.705	-1080
213.772	-572
213.839	-153
213.906	315
213.973	-948
214.041	-260
214.108	-216
214.175	-311
214.242	-128
214.309	-523
214.376	-517
214.444	-947
214.511	-330
214.578	74
214.645	40
214.712	191
214.779	-13
214.846	-323
214.913	-130
214.980	-47
215.048	156
215.115	1285
215.182	278
215.249	390
215.316	-478
215.383	290
215.450	437
215.517	150
215.584	-760
215.651	-556
215.718	-29
215.785	-190
215.852	-1275
215.919	-244
215.986	-674
216.053	-128
216.120	-1192
216.187	-370
216.254	212
216.321	-794
216.388	-958
216.455	-811
216.522	-6
216.589	-818
216.656	438
216.722	-577
216.789	300
216.856	-545
216.923	-250
216.990	-157
217.057	-731
217.124	150
217.191	-330
217.258	33
217.324	-778
217.391	-156
217.458	-495
217.525	242
217.592	-781
217.659	-931
217.725	603
217.792	-719
217.859	673
217.926	-482
217.993	-399
218.059	81
218.126	-814
218.193	-484
218.260	-211
218.327	192
218.393	-316
218.460	-1086
218.527	-739
218.594	-557
218.660	-372
218.727	-489
218.794	-547
218.860	-99
218.927	225
218.994	-551
219.061	-276
219.127	-31
219.194	324
219.261	-183
219.327	-1491
219.394	6
219.461	-1401
219.527	-315
219.594	55
219.661	-392
219.727	-1321
219.794	605
219.860	-835
219.927	408
219.994	794
220.060	3440
220.127	2777
220.193	1265
220.260	-513
220.326	836
220.393	799
220.460	99
220.526	-258
220.593	-129
220.659	998
220.726	-4
220.792	1371
220.859	625
220.925	781
220.992	1471
221.058	1726
221.125	2126
221.191	1017
221.258	-439
221.324	-28
221.391	318
221.457	-958
221.524	-144
221.590	770
221.657	2218
221.723	740
221.789	112
221.856	815
221.922	-369
221.989	-101
222.055	-613
222.121	-1632
222.188	1715
222.254	773
222.321	446
222.387	-294
222.453	-29
222.520	-854
222.586	-766
222.652	-585
222.719	-578
222.785	-513
222.851	-392
222.918	-800
222.984	-279
223.050	-1191
223.116	-1649
223.183	1019
223.249	-287
223.315	-198
223.382	-378
223.448	-370
223.514	-1009
223.580	-242
223.647	-1255
223.713	-661
223.779	-147
223.845	-1048
223.911	-143
223.978	-933
224.044	-499
224.110	-1469
224.176	-469
224.242	-680
224.309	-718
224.375	-409
224.441	-325
224.507	-748
224.573	-1008
224.639	381
224.705	-1371
224.772	-426
224.838	-454
224.904	-474
224.970	-558
225.036	-1079
225.102	-1434
225.168	427
225.234	492
225.300	258
225.366	-455
225.432	-297
225.499	-170
225.565	-755
225.631	325
225.697	-56
225.763	284
225.829	-85
225.895	-450
225.961	61
226.027	-260
226.093	-581
226.159	1256
226.225	699
226.291	1346
226.357	2990
226.423	1375
226.489	568
226.554	467
226.620	-430
226.686	266
226.752	261
226.818	993
226.884	4992
226.950	4789
227.016	945
227.082	1421
227.148	405
227.214	226
227.279	-469
227.345	189
227.411	1334
227.477	1778
227.543	7054
227.609	7530
227.674	2618
227.740	572
227.806	11
227.872	167
227.938	225
228.003	32
228.069	-680
228.135	-725
228.201	861
228.267	-974
228.332	-325
228.398	-1619
228.464	-665
228.530	-760
228.595	113
228.661	-1058
228.727	-1205
228.792	687
228.858	-187
228.924	-2286
228.990	952
229.055	-1471
229.121	255
229.187	-437
229.252	-506
229.318	-54
229.384	-864
229.449	178
229.515	-2044
229.581	-1785
229.646	1396
229.712	-399
229.777	-125
229.843	67
229.909	-76
229.974	-224
230.040	61
230.105	-274
230.171	-1210
230.236	-23
230.302	-876
230.368	238
230.433	-1450
230.499	-443
230.564	498
230.630	-372
230.695	-992
230.761	440
230.826	-1512
230.892	697
230.957	-1513
231.023	-1276
231.088	-777
231.154	22
231.219	787
231.284	-132
231.350	-526
231.415	-1374
231.481	-577
231.546	-159
231.612	-569
231.677	-761
231.742	-987
231.808	685
231.873	-820
231.939	-2568
232.004	331
232.069	1169
232.135	-654
232.200	-679
232.265	83
232.331	-568
232.396	-564
232.461	-243
232.527	-163
232.592	-1020
232.657	-326
232.723	-342
232.788	-1101
232.853	26
232.918	66
232.984	-574
233.049	-644
233.114	-557
233.179	-67
233.245	611
233.310	-76
233.375	-450
233.440	-181
233.506	-1006
233.571	-1119
233.636	-1209
233.701	-261
233.766	-1165
233.832	-64
233.897	-175
233.962	-1878
234.027	377
234.092	-550
234.157	-458
234.222	-252
234.288	-19
234.353	359
234.418	1360
234.483	87
234.548	-184
234.613	-792
234.678	282
234.743	-1020
234.808	1030
234.873	-811
234.938	631
235.004	-416
235.069	19
235.134	-342
235.199	-175
235.264	-714
235.329	-1653
235.394	428
235.459	336
235.524	-830
235.589	-209
235.654	-464
235.719	-1410
235.784	488
235.849	-561
235.913	69
235.978	-24
236.043	221
236.108	72
236.173	-1017
236.238	-65
236.303	-650
236.368	-670
236.433	753
236.498	-1257
236.563	270
236.627	1048
236.692	7458
236.757	7260
236.822	1008
236.887	-25
236.952	1222
237.017	-1476
237.081	1031
237.146	-175
237.211	2024
237.276	7406
237.341	16092
237.405	4453
237.470	1357
237.535	790
237.600	46
237.664	299
237.729	-1555
237.794	-570
237.859	801
237.923	124
237.988	-545
238.053	608
238.118	454
238.182	1645
238.247	2651
238.312	76
238.376	581
238.441	-1529
238.506	151
238.570	-482
238.635	869
238.700	88
238.764	-1200
238.829	190
238.893	152
238.958	899
239.023	-820
239.087	-139
239.152	790
239.216	-529
239.281	-271
239.346	-66
239.410	238
239.475	-270
239.539	1213
239.604	343
239.668	888
239.733	1157
239.797	5173
239.862	15513
239.926	10024
239.991	4122
240.055	1263
240.120	386
240.184	1231
240.249	-322
240.313	115
240.378	168
240.442	703
240.507	654
240.571	-86
240.635	-770
240.700	855
240.764	-155
240.829	-352
240.893	-1338
240.957	932
241.022	828
241.086	1655
241.151	-721
241.215	-1945
241.279	734
241.344	108
241.408	78
241.472	-729
241.537	1351
241.601	1204
241.665	-1076
241.730	-574
241.794	522
241.858	-298
241.922	-434
241.987	-347
242.051	-780
242.115	-906
242.179	8
242.244	-693
242.308	670
242.372	-250
242.436	-1101
242.501	318
242.565	-634
242.629	-518
242.693	878
242.757	-504
242.822	-260
242.886	-346
242.950	798
243.014	-159
243.078	-516
243.142	-420
243.206	-1765
243.271	445
243.335	-437
243.399	676
243.463	2657
243.527	11307
243.591	2312
243.655	748
243.719	-231
243.783	715
243.847	441
243.911	207
243.975	-95
244.040	-774
244.104	2171
244.168	327
244.232	-81
244.296	-231
244.360	1187
244.424	-554
244.488	341
244.552	469
244.615	-1301
244.679	812
244.743	-126
244.807	-920
244.871	123
244.935	609
244.999	-669
245.063	-940
245.127	1039
245.191	468
245.255	704
245.319	481
245.383	-731
245.446	572
245.510	-663
245.574	-367
245.638	548
245.702	-2203
245.766	1345
245.829	1708
245.893	-409
245.957	-1185
246.021	834
246.085	-194
246.149	228
246.212	1662
246.276	2850
246.340	314
246.404	520
246.467	1396
246.531	-807
246.595	682
246.659	1771
246.722	-1145
246.786	434
246.850	413
246.913	505
246.977	-907
247.041	365
247.104	-259
247.168	-271
247.232	563
247.295	4295
247.359	1259
247.423	165
247.486	814
247.550	1608
247.614	-81
247.677	909
247.741	721
247.804	47
247.868	2097
247.932	-46
247.995	4101
248.059	450
248.122	-607
248.186	1273
248.249	1251
248.313	6371
248.376	6978
248.440	3625
248.503	343
248.567	1897
248.630	-231
248.694	1465
248.757	2325
248.821	6915
248.884	4102
248.948	2330
249.011	5435
249.075	8128
249.138	8060
249.202	1793
249.265	-15
249.328	980
249.392	-357
249.455	438
249.519	612
249.582	453
249.645	1796
249.709	1235
249.772	84
249.835	653
249.899	671
249.962	364
250.025	-223
250.089	1875
250.152	3381
250.215	913
250.279	284
250.342	1188
250.405	745
250.468	-23
250.532	971
250.595	1829
250.658	9330
250.721	22425
250.785	4619
250.848	3042
250.911	1407
250.974	1847
251.038	1823
251.101	4888
251.164	1102
251.227	1594
251.290	723
251.354	2651
251.417	15993
251.480	18025
251.543	8822
251.606	33187
251.669	24288
251.732	7162
251.795	5855
251.859	6784
251.922	19922
251.985	10639
252.048	4076
252.111	2087
252.174	1169
252.237	3355
252.300	8997
252.363	8281
252.426	28162
252.489	8798
252.552	2698
252.615	1452
252.678	3060
252.741	6082
252.804	8766
252.867	28471
252.930	13244
252.993	4867
253.056	3900
253.119	903
253.182	1201
253.245	1671
253.308	1993
253.371	407
253.434	215
253.497	1676
253.559	3763
253.622	2080
253.685	1345
253.748	883
253.811	90
253.874	1040
253.937	364
254.000	1349
254.062	1573
254.125	3599
254.188	2971
254.251	1208
254.314	329
254.376	1036
254.439	2244
254.502	348
254.565	1439
254.628	4230
254.690	785
254.753	1207
254.816	281
254.878	672
254.941	1711
255.004	2714
255.067	1346
255.129	605
255.192	651
255.255	-564
255.317	-358
255.380	330
255.443	528
255.505	546
255.568	-401
255.631	714
255.693	637
255.756	-604
255.819	1205
255.881	-34
255.944	730
256.006	-275
256.069	136
256.132	-209
256.194	-4
256.257	302
256.319	665
256.382	984
256.444	1883
256.507	1425
256.569	758
256.632	495
256.694	12
256.757	3132
256.819	12193
256.882	3907
256.944	884
257.007	1771
257.069	592
257.132	508
257.194	1044
257.257	260
257.319	-85
257.381	-1257
257.444	2447
257.506	14444
257.569	15848
257.631	5021
257.693	2997
257.756	2177
257.818	310
257.880	829
257.943	1087
258.005	-273
258.067	80
258.130	933
258.192	423
258.254	26
258.317	991
258.379	1063
258.441	1712
258.503	1465
258.566	1162
258.628	2703
258.690	-316
258.753	670
258.815	1046
258.877	340
258.939	398
259.001	629
259.064	684
259.126	-58
259.188	896
259.250	593
259.312	569
259.375	994
259.437	716
259.499	-31
259.561	535
259.623	349
259.685	-233
259.747	759
259.809	1297
259.872	3027
259.934	5686
259.996	6070
260.058	1112
260.120	87
260.182	164
260.244	1191
260.306	-143
260.368	178
260.430	-385
260.492	1011
260.554	2302
260.616	1270
260.678	1968
260.740	3685
260.802	410
260.864	1439
260.926	-30
260.988	1656
261.050	491
261.112	-177
261.174	3885
261.236	2755
261.298	1250
261.359	1258
261.421	2586
261.483	352
261.545	1057
261.607	-392
261.669	325
261.731	271
261.793	1713
261.854	881
261.916	693
261.978	310
262.040	484
262.102	754
262.164	7
262.225	878
262.287	776
262.349	961
262.411	457
262.472	884
262.534	640
262.596	1523
262.658	1376
262.719	446
262.781	1626
262.843	841
262.904	1580
262.966	651
263.028	842
263.090	3649
263.151	12304
263.213	3843
263.275	1559
263.336	1496
263.398	2034
263.459	-308
263.521	376
263.583	1939
263.644	1097
263.706	625
263.767	318
263.829	911
263.891	-286
263.952	-283
264.014	-169
264.075	117
264.137	1268
264.198	1200
264.260	-305
264.321	-452
264.383	804
264.444	3208
264.506	-178
264.567	498
264.629	1051
264.690	1077
264.752	1676
264.813	-102
264.875	-37
264.936	738
264.998	704
265.059	760
265.120	1290
265.182	853
265.243	4160
265.305	5278
265.366	1955
265.427	1394
265.489	1266
265.550	-206
265.611	729
265.673	-479
265.734	673
265.795	946
265.857	-203
265.918	423
265.979	1312
266.040	9296
266.102	8713
266.163	2496
266.224	1617
266.286	1119
266.347	713
266.408	672
266.469	-185
266.530	1292
266.592	1039
266.653	1391
266.714	1811
266.775	2105
266.836	1217
266.898	456
266.959	1358
267.020	1700
267.081	2532
267.142	1224
267.203	661
267.264	507
267.326	2133
267.387	1260
267.448	371
267.509	2163
267.570	666
267.631	611
267.692	732
267.753	1088
267.814	675
267.875	1808
267.936	1472
267.997	77
268.058	1066
268.119	-317
268.180	129
268.241	-166
268.302	-72
268.363	-58
268.424	997
268.485	369
268.546	-140
268.607	48
268.668	62
268.729	84
268.790	455
268.851	-139
268.912	29
268.972	575
269.033	190
269.094	333
269.155	89
269.216	891
269.277	969
269.338	-117
269.398	-479
269.459	448
269.520	65
269.581	705
269.642	1334
269.702	-200
269.763	480
269.824	860
269.885	73
269.945	898
270.006	-100
270.067	175
270.128	-258
270.188	400
270.249	-468
270.310	-511
270.370	840
270.431	-535
270.492	-743
270.553	1192
270.613	175
270.674	1129
270.734	105
270.795	198
270.856	253
270.916	375
270.977	235
271.038	868
271.098	140
271.159	767
271.219	-54
271.280	369
271.340	983
271.401	-309
271.462	633
271.522	1063
271.583	222
271.643	-90
271.704	583
271.764	594
271.825	2357
271.885	6221
271.946	9633
272.006	3781
272.066	3988
272.127	9790
272.187	7753
272.248	2727
272.308	1698
272.369	5438
272.429	3744
272.489	1737
272.550	2371
272.610	2432
272.671	1523
272.731	2132
272.791	1305
272.852	1223
272.912	1600
272.972	2290
273.033	1367
273.093	1405
273.153	3014
273.214	2177
273.274	2874
273.334	5301
273.394	8462
273.455	5820
273.515	4897
273.575	7690
273.635	5799
273.696	6650
273.756	10700
273.816	7116
273.876	5494
273.936	4765
273.997	5473
274.057	2668
274.117	2344
274.177	2521
274.237	7133
274.297	7320
274.358	3601
274.418	4596
274.478	4011
274.538	1547
274.598	446
274.658	2370
274.718	3244
274.778	1213
274.838	939
274.898	1599
274.958	4582
275.018	7670
275.078	3989
275.138	2284
275.198	907
275.258	1238
275.318	1878
275.378	607
275.438	1612
275.498	1719
275.558	1770
275.618	4451
275.678	3723
275.738	2228
275.798	2134
275.858	1387
275.918	631
275.978	874
276.038	1418
276.098	1386
276.157	2160
276.217	3594
276.277	1300
276.337	1400
276.397	945
276.457	1289
276.517	556
276.576	1734
276.636	1101
276.696	1141
276.756	2133
276.815	2216
276.875	2326
276.935	1502
276.995	1671
277.055	2115
277.114	2826
277.174	1545
277.234	2964
277.293	1605
277.353	1502
277.413	1630
277.472	1095
277.532	1555
277.592	4171
277.651	16877
277.711	34758
277.771	12382
277.830	31635
277.890	31702
277.950	21743
278.009	61482
278.069	28642
278.128	25712
278.188	38352
278.248	18530
278.307	38542
278.367	26524
278.426	7977
278.486	4299
278.545	4110
278.605	3524
278.664	2650
278.724	3393
278.783	4985
278.843	9986
278.902	5170
278.962	4195
279.021	4818
279.081	11928
279.140	11579
279.199	6677
279.259	7494
279.318	8898
279.378	13105
279.437	22876
279.496	57487
279.556	173273
279.615	151515
279.675	55127
279.734	28784
279.793	28894
279.853	34723
279.912	16844
279.971	10814
280.031	10704
280.090	13200
280.149	20901
280.208	33500
280.268	122831
280.327	132813
280.386	41773
280.445	20985
280.505	14528
280.564	10089
280.623	7754
280.682	6187
280.742	8041
280.801	3986
280.860	3559
280.919	2684
280.978	4371
281.037	4404
281.097	2868
281.156	4221
281.215	2949
281.274	3355
281.333	4940
281.392	4677
281.451	1980
281.510	2733
281.569	3010
281.628	2705
281.688	3364
281.747	2477
281.806	2124
281.865	2223
281.924	1750
281.983	1606
282.042	2167
282.101	1869
282.160	2029
282.219	1862
282.278	2046
282.337	2892
282.396	3315
282.454	2447
282.513	2044
282.572	4954
282.631	2102
282.690	2189
282.749	1514
282.808	2102
282.867	2404
282.926	2410
282.985	3230
283.043	1436
283.102	3096
283.161	3226
283.220	3526
283.279	4749
283.338	4107
283.396	2510
283.455	3408
283.514	3892
283.573	4328
283.631	3776
283.690	4432
283.749	3374
283.808	3525
283.866	4314
283.925	3710
283.984	4698
284.043	4637
284.101	5237
284.160	6040
284.219	6467
284.277	7613
284.336	7809
284.395	11135
284.453	11677
284.512	11421
284.570	11956
284.629	14192
284.688	18441
284.746	21826
284.805	26232
284.863	33379
284.922	41341
284.981	52487
285.039	72687
285.098	103366
285.156	144119
285.215	127649
285.273	114162
285.332	140338
285.390	115472
285.449	83349
285.507	62315
285.566	46681
285.624	35448
285.683	28825
285.741	23835
285.799	19675
285.858	16048
285.916	12858
285.975	11233
286.033	9563
286.091	9117
286.150	7835
286.208	7544
286.267	6904
286.325	7039
286.383	6120
286.442	5875
286.500	5537
286.558	4285
286.616	4304
286.675	4856
286.733	4444
286.791	4380
286.850	4134
286.908	3682
286.966	3833
287.024	3631
287.083	3272
287.141	2678
287.199	3878
287.257	3651
287.315	2620
287.374	2236
287.432	3699
287.490	2756
287.548	2162
287.606	1561
287.664	3135
287.723	2402
287.781	2475
287.839	2182
287.897	3312
287.955	3356
288.013	4006
288.071	7325
288.129	22537
288.187	72977
288.245	33314
288.303	10106
288.361	6453
288.419	4264
288.477	3790
288.535	3430
288.593	2367
288.651	1801
288.709	1269
288.767	1327
288.825	1573
288.883	1655
288.941	1388
288.999	1057
289.057	1425
289.115	760
289.173	969
289.231	2344
289.289	1665
289.346	1124
289.404	816
289.462	1622
289.520	1370
289.578	1332
289.636	1313
289.694	627
289.751	819
289.809	1472
289.867	2204
289.925	1026
289.983	836
290.040	1911
290.098	751
290.156	1181
290.214	948
290.271	399
290.329	1133
290.387	1805
290.444	701
290.502	752
290.560	1462
290.617	746
290.675	987
290.733	876
290.790	975
290.848	2485
290.906	634
290.963	1012
291.021	650
291.078	972
291.136	1276
291.194	1720
291.251	2751
291.309	1182
291.366	926
291.424	1138
291.481	1378
291.539	1871
291.596	3991
291.654	1358
291.711	1049
291.769	1054
291.826	826
291.884	1568
291.941	-152
291.999	1389
292.056	764
292.114	1451
292.171	1063
292.228	788
292.286	976
292.343	1061
292.401	1333
292.458	1649
292.515	1080
292.573	1023
292.630	947
292.687	1928
292.745	1057
292.802	1088
292.859	3088
292.917	5109
292.974	2653
293.031	2202
293.089	1045
293.146	1340
293.203	1191
293.260	1158
293.318	1197
293.375	1508
293.432	913
293.489	1541
293.546	1842
293.604	1737
293.661	5764
293.718	12638
293.775	6248
293.832	4983
293.889	6717
293.947	5535
294.004	2717
294.061	2226
294.118	2537
294.175	5471
294.232	9636
294.289	6739
294.346	3811
294.403	2930
294.460	1162
294.517	896
294.574	682
294.631	1988
294.688	1352
294.745	2687
294.802	8169
294.859	7989
294.916	3044
294.973	1605
295.030	1214
295.087	598
295.144	1062
295.201	1204
295.258	1369
295.315	1882
295.372	2829
295.429	6193
295.486	3837
295.542	2055
295.599	2797
295.656	4465
295.713	2972
295.770	5320
295.827	1825
295.883	895
295.940	1151
295.997	1432
296.054	1070
296.111	1194
296.167	1018
296.224	605
296.281	514
296.338	23
296.394	732
296.451	527
296.508	1670
296.564	4415
296.621	3988
296.678	6103
296.734	11236
296.791	4449
296.848	1893
296.904	1541
296.961	2724
297.018	6182
297.074	4481
297.131	2074
297.187	1504
297.244	2232
297.301	6592
297.357	14318
297.414	5365
297.470	2290
297.527	1555
297.583	1806
297.640	1820
297.696	1290
297.753	870
297.809	1014
297.866	916
297.922	816
297.979	248
298.035	1028
298.092	2113
298.148	3416
298.204	3832
298.261	2060
298.317	3289
298.374	8925
298.430	5721
298.486	2498
298.543	1811
298.599	1949
298.656	1228
298.712	2411
298.768	4890
298.824	4270
298.881	2083
298.937	1118
298.993	1277
299.050	757
299.106	1397
299.162	1213
299.218	1507
299.275	1163
299.331	1722
299.387	3623
299.443	10675
299.500	21142
299.556	16764
299.612	7162
299.668	6092
299.724	14722
299.780	20049
299.837	8305
299.893	6367
299.949	12135
300.005	21582
300.061	16333
300.117	27491
300.173	12895
300.229	5458
300.285	3601
300.341	4056
300.397	2473
300.453	1805
300.510	2065
300.566	3148
300.622	8031
300.678	22763
300.734	34375
300.790	16784
300.845	14138
300.901	16065
300.957	23197
301.013	11994
301.069	4958
301.125	3782
301.181	2419
301.237	2194
301.293	1697
301.349	2223
301.405	1388
301.461	1212
301.516	1053
301.572	824
301.628	1442
301.684	1191
301.740	872
301.796	3462
301.851	2765
301.907	3263
301.963	4922
302.019	7272
302.074	21988
302.130	23129
302.186	11318
302.242	4379
302.297	2988
302.353	2324
302.409	4042
302.464	4153
302.520	3122
302.576	5379
302.631	8281
302.687	4258
302.743	2269
302.798	851
302.854	687
302.910	-33
302.965	1375
303.021	2021
303.076	1731
303.132	1196
303.187	2341
303.243	1868
303.299	1376
303.354	272
303.410	1043
303.465	1314
303.521	762
303.576	497
303.632	1446
303.687	2044
303.743	7221
303.798	7146
303.853	2777
303.909	2071
303.964	1615
304.020	1547
304.075	1602
304.130	1473
304.186	2263
304.241	3797
304.297	2537
304.352	1980
304.358	1845
304.407	751
304.449	1387
304.463	1605
304.518	1381
304.539	1327
304.573	1226
304.629	992
304.630	1022
304.684	2490
304.720	4114
304.739	4917
304.794	9870
304.811	8381
304.850	4752
304.902	2162
304.905	2001
304.960	1734
304.992	1384
305.015	1119
305.071	1530
305.083	1550
305.126	1639
305.173	636
305.181	471
305.236	1371
305.264	948
305.292	509
305.347	1399
305.354	1383
305.402	1428
305.445	1410
305.457	1330
305.512	1252
305.535	1240
305.567	1420
305.622	1872
305.626	1885
305.678	2362
305.716	5108
305.733	6094
305.788	7479
305.807	6443
305.843	4874
305.897	7287
305.898	7308
305.953	7784
305.988	5411
306.008	4165
306.063	2306
306.078	2070
306.118	1670
306.168	1720
306.173	1717
306.228	1286
306.259	1188
306.283	1176
306.338	1152
306.349	1132
306.393	938
306.440	1121
306.448	1193
306.503	1615
306.530	1703
306.558	1725
306.613	2451
306.620	2548
306.668	3793
306.711	5378
306.723	5462
306.778	4509
306.801	3367
306.833	2221
306.888	1795
306.892	1784
306.943	1701
306.982	1139
306.997	998
307.052	1686
307.072	1454
307.107	1156
307.162	1772
307.163	1778
307.217	2192
307.253	2092
307.272	2111
307.327	1975
307.343	2281
307.381	2788
307.434	2437
307.436	2460
307.491	3646
307.524	4601
307.546	4734
307.600	4842
307.614	4387
307.655	3118
307.704	2607
307.710	2613
307.765	1736
307.795	2340
307.819	2842
307.874	3891
307.885	3989
307.929	4263
307.975	4287
307.984	4451
308.038	6217
308.065	7575
308.093	13035
308.148	26793
308.156	30301
308.202	47207
308.246	60241
308.257	59594
308.312	29717
308.336	19431
308.366	13622
308.421	9142
308.426	8765
308.475	6470
308.517	5555
308.530	5434
308.585	5697
308.607	5721
308.639	5905
308.694	6574
308.697	6594
308.748	7280
308.787	8173
308.803	8242
308.857	8460
308.877	8341
308.912	9109
308.967	11402
308.967	11452
309.021	18310
309.058	23864
309.076	27554
309.130	41835
309.148	46220
309.185	68860
309.238	105647
309.239	105980
309.293	126675
309.328	124751
309.348	112576
309.402	66424
309.418	54475
309.457	42080
309.508	30876
309.511	30886
309.566	36960
309.598	42415
309.620	52973
309.674	84500
309.688	93203
309.729	90784
309.778	75855
309.783	74010
309.837	47750
309.868	34077
309.892	29121
309.946	21088
309.959	19833
310.001	18237
310.049	16535
310.055	16008
310.109	11662
310.139	8973
310.163	7490
310.218	5619
310.229	5193
310.272	4709
310.319	4820
310.326	4740
310.381	3723
310.409	3449
310.435	3491
310.489	3344
310.499	3370
310.543	3178
310.589	3035
310.598	3024
310.652	2900
310.679	2767
310.706	2718
310.760	2579
310.769	2602
310.814	2784
310.859	2825
310.868	2793
310.923	2551
310.948	2524
310.977	2582
311.031	2580
311.038	2590
311.085	2208
311.128	1672
311.139	1715
311.193	2178
311.218	2309
311.247	2417
311.301	2747
311.308	2780
311.356	2682
311.398	2551
311.410	2522
311.464	2418
311.488	2366
311.518	2319
311.572	2174
311.578	2155
311.626	2356
311.668	2616
311.680	2585
311.734	2311
311.758	2215
311.788	2300
311.842	2456
311.847	2470
311.896	2530
311.937	2553
311.950	2587
312.004	2758
312.027	2821
312.058	2608
312.112	2223
312.117	2184
312.165	2267
312.207	2341
312.297	1781
312.386	1679
312.476	1478
312.566	2747
312.656	1964
312.745	2685
312.835	2685
312.925	2038
313.015	2384
313.104	2717
313.194	2735
313.284	2727
313.374	2558
313.463	3647
313.553	3127
313.643	2854
313.732	3416
313.822	2627
313.912	3789
314.001	3291
314.091	3976
314.180	3811
314.270	5388
314.360	3597
314.449	3117
314.539	3319
314.628	3659
314.718	2990
314.808	3808
314.897	4417
314.987	4953
315.076	4879
315.166	4645
315.255	4560
315.345	4557
315.434	3997
315.524	4456
315.613	5257
315.703	7953
315.792	22079
315.881	79229
315.971	22722
316.060	7067
316.150	4679
316.239	4545
316.328	3718
316.418	4540
316.507	4070
316.597	4910
316.686	5150
316.775	4663
316.865	6047
316.954	4555
317.043	3512
317.133	3264
317.222	2592
317.311	2972
317.400	2361
317.490	4846
317.579	5235
317.668	6390
317.757	12158
317.847	38748
317.936	117718
318.025	33456
318.114	30779
318.203	11985
318.293	5948
318.382	6419
318.471	7860
318.560	7902
318.649	10413
318.738	3381
318.828	3680
318.917	2795
319.006	2988
319.095	4107
319.184	10194
319.273	5048
319.362	3480
319.451	2668
319.540	3150
319.629	3061
319.718	4695
319.807	3419
319.896	4955
319.985	12680
320.074	6000
320.163	3157
320.252	3185
320.341	3618
320.430	3162
320.519	3704
320.608	2993
320.697	3863
320.786	4263
320.875	6526
320.964	6186
321.053	6935
321.142	7630
321.230	9092
321.319	8830
321.408	11950
321.497	10447
321.586	9505
321.675	6910
321.764	7205
321.852	7033
321.941	7571
322.030	6314
322.119	8088
322.207	11296
322.296	11002
322.385	12124
322.474	14043
322.562	17588
322.651	12323
322.740	9100
322.829	8613
322.917	7478
323.006	5772
323.095	5583
323.183	4542
323.272	5624
323.361	5792
323.449	11154
323.538	4915
323.626	8079
323.715	5602
323.804	3657
323.892	6725
323.981	4272
324.069	3363
324.158	4616
324.246	5114
324.335	2987
324.424	3673
324.512	3077
324.601	2671
324.689	2808
324.778	3721
324.866	3754
324.954	2910
325.043	2895
325.131	1864
325.220	4085
325.308	3349
325.397	3827
325.485	3019
325.574	2330
325.662	1956
325.750	2071
325.839	2694
325.927	2001
326.015	2734
326.104	2882
326.192	2586
326.280	2579
326.369	2419
326.457	2752
326.545	2718
326.634	1916
326.722	2544
326.810	2950
326.898	3652
326.987	2835
327.075	2684
327.163	3798
327.251	2880
327.340	2482
327.428	5292
327.516	4174
327.604	3171
327.692	2767
327.781	2960
327.869	2722
327.957	2353
328.045	1455
328.133	1751
328.221	1900
328.309	2385
328.397	2723
328.485	2875
328.574	5128
328.662	8900
328.750	4719
328.838	2836
328.926	2658
329.014	1350
329.102	2421
329.190	2991
329.278	2665
329.366	1944
329.454	1939
329.542	2065
329.630	1204
329.718	1580
329.806	1636
329.893	3346
329.981	2014
330.069	1823
330.157	2390
330.245	3432
330.333	2709
330.421	2043
330.509	2788
330.597	4993
330.684	3295
330.772	2944
330.860	2815
330.948	2361
331.036	2474
331.123	1733
331.211	2316
331.299	2197
331.387	1729
331.475	3186
331.562	1581
331.650	1833
331.738	1844
331.825	2452
331.913	1713
332.001	2271
332.089	1977
332.176	2588
332.264	3101
332.352	3577
332.439	1893
332.527	2936
332.614	1767
332.702	2458
332.790	2317
332.877	4886
332.965	11613
333.052	10592
333.140	11820
333.228	29815
333.315	8621
333.403	4638
333.490	6321
333.578	12832
333.665	43987
333.753	17777
333.840	3435
333.928	4747
334.015	5856
334.103	7861
334.190	15955
334.278	12776
334.365	14988
334.452	15285
334.540	8293
334.627	8159
334.715	11688
334.802	17725
334.889	35012
334.977	45781
335.064	24985
335.151	11700
335.239	8038
335.326	6414
335.413	11103
335.501	12543
335.588	7358
335.675	7926
335.762	9438
335.850	12736
335.937	19312
336.024	34358
336.111	61299
336.199	51870
336.286	21732
336.373	11926
336.460	7330
336.547	6473
336.635	4992
336.722	4102
336.809	4062
336.896	4473
336.983	6289
337.070	10074
337.157	14402
337.245	9935
337.332	7156
337.419	3685
337.506	3199
337.593	3179
337.680	4846
337.767	8334
337.854	3601
337.941	3242
338.028	4102
338.115	2804
338.202	3503
338.289	3289
338.376	7165
338.463	4065
338.550	5315
338.637	4950
338.724	2420
338.811	3591
338.898	3112
338.984	2530
339.071	1448
339.158	3102
339.245	3165
339.332	3073
339.419	2689
339.506	2561
339.593	1278
339.679	2817
339.766	1999
339.853	2460
339.940	3077
340.027	2481
340.113	2358
340.200	2547
340.287	1794
340.374	2490
340.460	2897
340.547	1703
340.634	2952
340.720	4888
340.807	2515
340.894	2766
340.980	2792
341.067	2248
341.154	2544
341.240	1815
341.327	3034
341.414	3352
341.500	2540
341.587	2524
341.674	2991
341.760	2530
341.847	3155
341.933	2714
342.020	1355
342.106	2396
342.193	1722
342.279	3504
342.366	1275
342.452	2011
342.539	2461
342.625	2959
342.712	4817
342.798	3416
342.885	2475
342.971	1283
343.058	2345
343.144	1747
343.230	1921
343.317	2884
343.403	1510
343.490	1968
343.576	1880
343.662	2250
343.749	1826
343.835	2079
343.921	4000
344.008	17659
344.094	33133
344.180	7279
344.267	3080
344.353	7421
344.439	7268
344.525	3462
344.612	3533
344.698	2079
344.784	1797
344.870	1884
344.957	1848
345.043	2774
345.129	1605
345.215	2481
345.301	1272
345.387	1413
345.474	1295
345.560	1940
345.646	895
345.732	1937
345.818	2307
345.904	2341
345.990	1723
346.076	2457
346.162	2264
346.249	2716
346.335	2524
346.421	2260
346.507	4515
346.593	10811
346.679	2612
346.765	3529
346.851	5014
346.937	2877
347.023	3032
347.108	2533
347.194	2095
347.280	3166
347.366	3779
347.452	12312
347.538	21197
347.624	12452
347.710	7176
347.796	3390
347.882	2353
347.967	3136
348.053	1982
348.139	3275
348.225	1964
348.311	1528
348.397	2100
348.482	2807
348.568	2507
348.654	4958
348.740	14334
348.825	13507
348.911	6124
348.997	9069
349.083	14039
349.168	3274
349.254	1793
349.340	2743
349.425	2018
349.511	1799
349.597	2863
349.682	2799
349.768	7194
349.854	3724
349.939	2787
350.025	2570
350.110	2507
350.196	2372
350.282	1572
350.367	2415
350.453	2512
350.538	1734
350.624	1908
350.709	2458
350.795	971
350.880	2479
350.966	3463
351.051	2518
351.137	2395
351.222	2508
351.308	3135
351.393	5454
351.479	1931
351.564	1255
351.649	1912
351.735	2715
351.820	2489
351.906	2172
351.991	1756
352.076	4383
352.162	5631
352.247	2738
352.332	2029
352.418	2182
352.503	2470
352.588	8172
352.673	5338
352.759	2755
352.844	1508
352.929	1867
353.014	1665
353.100	2089
353.185	2486
353.270	3049
353.355	2802
353.441	2466
353.526	1413
353.611	3182
353.696	2409
353.781	2988
353.866	1556
353.952	3608
354.037	2080
354.122	5220
354.207	3511
354.292	2683
354.377	2721
354.462	2571
354.547	1963
354.632	2931
354.717	2609
354.802	2225
354.887	2317
354.972	2665
355.057	1806
355.142	2028
355.227	2414
355.312	2914
355.397	3033
355.482	5662
355.567	2682
355.652	4111
355.737	3175
355.822	7915
355.907	5799
355.991	2970
356.076	1220
356.161	2223
356.246	2664
356.331	2364
356.416	3581
356.501	17776
356.585	14813
356.670	2820
356.755	4365
356.840	3656
356.924	13522
357.009	35685
357.094	12590
357.179	3836
357.263	2492
357.348	4190
357.433	3023
357.517	3164
357.602	2072
357.687	2609
357.771	3139
357.856	4963
357.941	5192
358.025	12508
358.110	42325
358.195	17650
358.279	4077
358.364	4006
358.448	6736
358.533	13693
358.617	9328
358.702	9425
358.787	4819
358.871	3608
358.956	3627
359.040	2912
359.125	2430
359.209	2912
359.294	3868
359.378	6476
359.462	5005
359.547	3180
359.631	1654
359.716	1783
359.800	2258
359.885	4533
359.969	2017
360.053	3438
360.138	2384
360.222	2435
360.306	2307
360.391	3376
360.475	3025
360.559	5925
360.644	5169
360.728	3834
360.812	10877
360.896	23523
360.981	7569
361.065	4059
361.149	3747
361.233	3232
361.318	2506
361.402	2630
361.486	4043
361.570	3248
361.654	2327
361.739	4547
361.823	17377
361.907	24548
361.991	6126
362.075	6504
362.159	8618
362.243	16266
362.327	39649
362.411	59794
362.495	22024
362.580	10319
362.664	9019
362.748	10244
362.832	16420
362.916	35390
363.000	105599
363.084	152303
363.168	69632
363.252	19217
363.336	10794
363.420	8574
363.503	12894
363.587	12606
363.671	6280
363.755	5183
363.839	8828
363.923	6453
364.007	9279
364.091	13422
364.175	21378
364.258	55608
364.342	121395
364.426	218166
364.510	109234
364.594	32196
364.677	17548
364.761	26233
364.845	16606
364.929	7149
365.013	5243
365.096	6134
365.180	5076
365.264	7188
365.347	16406
365.431	6868
365.515	2789
365.598	2709
365.682	4485
365.766	3159
365.849	3373
365.933	3376
366.017	4658
366.100	3249
366.184	2512
366.267	4404
366.351	2801
366.435	2479
366.518	3311
366.602	3599
366.685	3529
366.769	2923
366.852	3637
366.936	3672
367.019	3942
367.103	2501
367.186	4061
367.270	3122
367.353	2586
367.436	4371
367.520	3772
367.603	4602
367.687	2743
367.770	4651
367.853	5006
367.937	7794
368.020	10031
368.104	3466
368.187	4265
368.270	4601
368.353	3452
368.437	3844
368.520	5441
368.603	4412
368.687	5705
368.770	10089
368.853	3312
368.936	4168
369.020	3742
369.103	2456
369.186	1256
369.269	1966
369.352	4249
369.436	3610
369.519	3165
369.602	943
369.685	4917
369.768	1711
369.851	3315
369.934	2586
370.018	2430
370.101	2566
370.184	5439
370.267	3297
370.350	4267
370.433	6286
370.516	20430
370.599	47748
370.682	18187
370.765	9713
370.848	9544
370.931	13554
371.014	7005
371.097	1952
371.180	3828
371.263	3642
371.346	2522
371.429	3980
371.511	2972
371.594	4686
371.677	5667
371.760	7117
371.843	6836
371.926	21209
372.009	38496
372.091	17399
372.174	10820
372.257	18847
372.340	9618
372.423	8133
372.505	8700
372.588	5895
372.671	7803
372.754	13525
372.836	8759
372.919	8292
373.002	9955
373.085	5553
373.167	7055
373.250	8866
373.332	14929
373.415	27196
373.498	48108
373.580	26355
373.663	73359
373.746	68154
373.828	12078
373.911	7183
373.993	4812
374.076	9819
374.159	8850
374.241	7021
374.324	11270
374.406	9887
374.489	16109
374.571	36859
374.654	14007
374.736	10147
374.819	24193
374.901	35470
374.983	33796
375.066	8895
375.148	6179
375.231	10717
375.313	13999
375.395	7154
375.478	5482
375.560	6594
375.643	5948
375.725	10622
375.807	28277
375.890	19891
375.972	6782
376.054	5819
376.136	6266
376.219	5157
376.301	10803
376.383	21251
376.465	8527
376.548	5582
376.630	7075
376.712	18129
376.794	8530
376.877	3796
376.959	2378
377.041	3441
377.123	3373
377.205	4219
377.287	1966
377.369	3415
377.452	2699
377.534	3454
377.616	3558
377.698	3807
377.780	2795
377.862	3996
377.944	4000
378.026	2505
378.108	4149
378.190	3083
378.272	3447
378.354	2933
378.436	3137
378.518	2206
378.600	4653
378.682	4621
378.764	7946
378.846	6915
378.928	3734
379.010	4673
379.091	4598
379.173	3386
379.255	2279
379.337	2874
379.419	5198
379.501	11650
379.583	5176
379.664	3938
379.746	4046
379.828	9560
379.910	9252
379.991	10273
380.073	3473
380.155	4186
380.237	3067
380.318	3853
380.400	3309
380.482	4682
380.564	4601
380.645	4754
380.727	4636
380.809	5935
380.890	3876
380.972	3144
381.053	4319
381.135	5632
381.217	6091
381.298	11237
381.380	5955
381.461	7524
381.543	20265
381.624	22078
381.706	8097
381.787	6999
381.869	7802
381.951	15624
382.032	38919
382.113	25576
382.195	8682
382.276	11505
382.358	12829
382.439	23521
382.521	30127
382.602	42122
382.684	30693
382.765	55684
382.846	140011
382.928	288974
383.009	158954
383.090	136676
383.172	364518
383.253	423721
383.334	147129
383.416	71661
383.497	50634
383.578	57788
383.659	115867
383.741	331529
383.822	558861
383.903	291706
383.984	91631
384.066	58032
384.147	33736
384.228	21793
384.309	17161
384.390	15687
384.471	14469
384.553	12693
384.634	12372
384.715	12541
384.796	11339
384.877	11783
384.958	15721
385.039	14361
385.120	10348
385.201	9721
385.282	10120
385.363	13047
385.444	13141
385.525	15173
385.606	21228
385.687	17653
385.768	9553
385.849	10099
385.930	24057
386.011	34780
386.092	13182
386.173	9497
386.254	8141
386.335	8556
386.416	7076
386.496	9342
386.577	10979
386.658	7885
386.739	6481
386.820	8328
386.901	7914
386.981	9668
387.062	10616
387.143	11489
387.224	15617
387.304	15855
387.385	12592
387.466	10008
387.547	12805
387.627	12927
387.708	13943
387.789	21127
387.869	21684
387.950	12338
388.031	8094
388.111	6840
388.192	10586
388.273	12813
388.353	9034
388.434	6399
388.514	7192
388.595	19585
388.676	19300
388.756	9885
388.837	8967
388.917	6969
388.998	2928
389.078	5395
389.159	5536
389.239	3537
389.320	6311
389.400	3233
389.480	6652
389.561	9260
389.641	7028
389.722	5433
389.802	4292
389.883	7298
389.963	12279
390.043	8193
390.124	3725
390.204	6001
390.284	9724
390.365	6311
390.445	8188
390.525	17103
390.605	14823
390.686	5399
390.766	6136
390.846	6234
390.927	4416
391.007	3979
391.087	5853
391.167	4737
391.247	4212
391.328	6609
391.408	6142
391.488	7043
391.568	5341
391.648	6164
391.728	7933
391.808	8423
391.888	7976
391.969	10690
392.049	11916
392.129	10490
392.209	12412
392.289	18451
392.369	14829
392.449	14695
392.529	14224
392.609	17353
392.689	19960
392.769	28439
392.849	31982
392.929	40995
393.009	57796
393.089	84682
393.169	153218
393.248	373391
393.328	705593
393.408	647572
393.488	315365
393.568	135518
393.648	72455
393.728	45615
393.807	31018
393.887	26194
393.967	20759
394.047	17739
394.127	13914
394.206	15873
394.286	32366
394.366	117390
394.446	106858
394.525	23969
394.605	11310
394.685	10017
394.764	13136
394.844	21700
394.924	22968
395.003	10751
395.083	8302
395.163	8376
395.242	7311
395.322	7881
395.402	6142
395.481	9580
395.561	11523
395.640	33395
395.720	54225
395.799	29843
395.879	16095
395.958	14518
396.038	39946
396.117	149030
396.197	139112
396.276	39217
396.356	22491
396.435	25779
396.515	33476
396.594	54926
396.673	119498
396.753	339015
396.832	621131
396.912	433926
396.991	152667
397.070	64193
397.150	35125
397.229	30531
397.308	51335
397.388	79243
397.467	35626
397.546	15292
397.625	9637
397.705	10783
397.784	8392
397.863	8309
397.942	7291
398.022	6939
398.101	7016
398.180	11007
398.259	7538
398.338	6899
398.417	4786
398.497	4787
398.576	4936
398.655	4072
398.734	4791
398.813	4948
398.892	5554
398.971	11050
399.050	6149
399.129	2858
399.208	3428
399.287	4645
399.366	2891
399.445	2469
399.524	3549
399.603	1020
399.682	3375
399.761	4671
399.840	11696
399.919	9094
399.998	3338
400.077	1863
400.156	1418
400.235	4899
400.313	1786
400.392	2494
400.471	5229
400.550	6420
400.629	1435
400.708	2807
400.786	1912
400.865	3466
400.944	2021
401.023	4070
401.102	1788
401.180	3073
401.259	2023
401.338	2277
401.416	1501
401.495	1844
401.574	3057
401.652	1607
401.731	2282
401.810	1737
401.888	1985
401.967	1101
402.046	1478
402.124	2144
402.203	903
402.281	2676
402.360	1656
402.438	3192
402.517	1431
402.596	1791
402.674	1505
402.753	1484
402.831	2291
402.910	2526
402.988	4136
403.066	11767
403.145	7211
403.223	5597
403.302	9683
403.380	7946
403.459	8489
403.537	4354
403.615	3053
403.694	1709
403.772	3568
403.850	2347
403.929	1637
404.007	1538
404.085	3311
404.164	2719
404.242	2016
404.320	4475
404.398	10290
404.477	10521
404.555	23931
404.633	18613
404.711	8369
404.789	4644
404.868	2334
404.946	2005
405.024	2223
405.102	1233
405.180	1387
405.258	637
405.336	2114
405.415	686
405.493	1791
405.571	2390
405.649	1371
405.727	660
405.805	3555
405.883	3442
405.961	2831
406.039	1686
406.117	264
406.195	2733
406.273	3999
406.351	16437
406.429	9239
406.507	2237
406.585	1280
406.663	1926
406.740	1230
406.818	805
406.896	1001
406.974	2474
407.052	1088
407.130	9815
407.208	11257
407.285	2750
407.363	1140
407.441	1481
407.519	658
407.596	1927
407.674	3252
407.752	10443
407.830	7099
407.907	2516
407.985	622
408.063	1623
408.141	1279
408.218	1480
408.296	68
408.373	2189
408.451	1972
408.529	2113
408.606	2344
408.684	2532
408.762	1820
408.839	2022
408.917	2082
408.994	2506
409.072	2586
409.149	4468
409.227	9789
409.304	14275
409.382	14928
409.459	16987
409.537	21523
409.614	18004
409.692	13678
409.769	14716
409.846	23690
409.924	27326
410.001	16682
410.079	12080
410.156	8143
410.233	6679
410.311	4748
410.388	4310
410.465	4158
410.543	3276
410.620	4559
410.697	3966
410.775	3455
410.852	2554
410.929	5518
411.006	5597
411.083	3891
411.161	3370
411.238	3647
411.315	3274
411.392	2920
411.469	3423
411.547	2891
411.624	1336
411.701	817
411.778	3136
411.855	2158
411.932	479
412.009	1385
412.086	1689
412.163	1872
412.240	1972
412.317	1586
412.394	868
412.471	1960
412.548	1229
412.625	2359
412.702	1882
412.779	2370
412.856	1392
412.933	-209
413.010	1677
413.087	1145
413.164	2860
413.241	4078
413.318	1488
413.395	1883
413.471	1723
413.548	1411
413.625	1274
413.702	376
413.779	1263
413.855	836
413.932	963
414.009	-166
414.086	1446
414.162	839
414.239	1545
414.316	2612
414.393	5956
414.469	1736
414.546	733
414.623	708
414.699	893
414.776	790
414.853	459
414.929	1786
415.006	-131
415.082	210
415.159	1057
415.236	1754
415.312	1047
415.389	1412
415.465	922
415.542	859
415.618	509
415.695	1740
415.771	1106
415.848	515
415.924	543
416.000	429
416.077	1465
416.153	-596
416.230	-59
416.306	559
416.383	-205
416.459	912
416.535	1309
416.612	848
416.688	2197
416.764	1186
416.841	1989
416.917	1714
416.993	1481
417.069	1682
417.146	726
417.222	1361
417.298	363
417.374	425
417.451	1111
417.527	739
417.603	517
417.679	834
417.755	498
417.831	94
417.908	1278
417.984	397
418.060	367
418.136	1718
418.212	1170
418.288	728
418.364	1153
418.440	102
418.516	1893
418.592	658
418.668	1833
418.744	1510
418.820	1586
418.896	923
418.972	753
419.048	476
419.124	2458
419.200	157
419.276	1292
419.352	612
419.428	1113
419.504	928
419.579	1422
419.655	1824
419.731	1193
419.807	2495
419.883	2661
419.959	2426
420.034	2363
420.110	2719
420.186	3945
420.262	3372
420.337	2793
420.413	1556
420.489	2252
420.565	3161
420.640	1689
420.716	3093
420.792	1835
420.867	3891
420.943	3128
421.019	3875
421.094	3240
421.170	3359
421.245	4042
421.321	4858
421.397	4779
421.472	7288
421.548	10267
421.623	8022
421.699	7806
421.774	9051
421.850	9409
421.925	12760
422.001	15076
422.076	17434
422.152	22406
422.227	31427
422.302	44907
422.378	68412
422.453	118118
422.529	219117
422.604	309717
422.679	276381
422.755	287259
422.830	206510
422.905	115945
422.981	70073
423.056	48348
423.131	35235
423.207	26767
423.282	20072
423.357	18088
423.432	13373
423.508	12643
423.583	10675
423.658	9525
423.733	9324
423.808	8168
423.883	7614
423.959	9721
424.034	10955
424.109	9449
424.184	6523
424.259	5183
424.334	3984
424.409	3710
424.484	2752
424.559	3416
424.634	3113
424.709	3026
424.784	3079
424.859	2448
424.934	1611
425.009	3759
425.084	5543
425.159	2837
425.234	2358
425.309	1348
425.384	2156
425.459	1261
425.534	1710
425.609	1015
425.683	476
425.758	1931
425.833	2083
425.908	1860
425.983	2000
426.058	4491
426.132	2546
426.207	1214
426.282	2350
426.357	1474
426.431	1612
426.506	1379
426.581	746
426.655	1204
426.730	1090
426.805	586
426.879	1436
426.954	1033
427.029	1208
427.103	4979
427.178	11717
427.253	4895
427.327	1782
427.402	981
427.476	1021
427.551	924
427.625	1516
427.700	1742
427.774	29
427.849	1820
427.923	1124
427.998	1264
428.072	1419
428.147	7633
428.221	40377
428.296	111810
428.370	51692
428.444	7364
428.519	2961
428.593	2229
428.667	2895
428.742	4183
428.816	14903
428.890	72713
428.965	94630
429.039	20170
429.113	4905
429.188	1830
429.262	1732
429.336	1951
429.410	2094
429.485	2110
429.559	2349
429.633	2409
429.707	2848
429.781	12823
429.855	69210
429.930	85189
430.004	20838
430.078	16159
430.152	46852
430.226	152559
430.300	128762
430.374	24260
430.448	7483
430.522	5532
430.596	10026
430.670	24745
430.744	93223
430.818	85042
430.892	14351
430.966	2300
431.040	1749
431.114	148
431.188	453
431.262	457
431.336	909
431.410	1488
431.484	1306
431.557	1877
431.631	1256
431.705	5699
431.779	32004
431.853	107987
431.927	59440
432.000	8662
432.074	1915
432.148	934
432.222	407
432.295	464
432.369	-116
432.443	404
432.516	4677
432.590	11709
432.664	3062
432.737	-103
432.811	-666
432.885	-212
432.958	826
433.032	-1303
433.106	-1000
433.179	-280
433.253	-369
433.326	-903
433.400	-546
433.473	201
433.547	346
433.620	582
433.694	71
433.767	186
433.841	-84
433.914	265
433.988	-613
434.061	121
434.134	-288
434.208	-447
434.281	-189
434.355	-670
434.428	592
434.501	-570
434.575	-596
434.648	-201
434.721	21
434.795	-254
434.868	13
434.941	-353
435.014	1003
435.088	1214
435.161	3110
435.234	3732
435.307	4197
435.381	4548
435.454	6353
435.527	11222
435.600	12420
435.673	8971
435.746	5218
435.819	3456
435.892	2291
435.966	1764
436.039	594
436.112	1431
436.185	925
436.258	-315
436.331	-410
436.404	498
436.477	-327
436.550	144
436.623	828
436.696	23
436.769	-112
436.842	791
436.915	6
436.987	-446
437.060	-538
437.133	-379
437.206	-1193
437.279	712
437.352	-293
437.425	-394
437.498	575
437.570	-418
437.643	-1153
437.716	-334
437.789	-440
437.861	131
437.934	34
438.007	-623
438.080	-733
438.152	-172
438.225	453
438.298	7840
438.370	19011
438.443	5681
438.516	440
438.588	306
438.661	-1014
438.734	519
438.806	-1310
438.879	288
438.951	-911
439.024	-187
439.096	-1328
439.169	-681
439.241	-1212
439.314	-591
439.386	-237
439.459	426
439.531	-501
439.604	-559
439.676	29
439.749	-558
439.821	-695
439.893	293
439.966	-240
440.038	-784
440.110	-53
440.183	-349
440.255	64
440.327	963
440.400	2073
440.472	8620
440.544	4385
440.617	695
440.689	97
440.761	366
440.833	184
440.905	677
440.978	-449
441.050	-74
441.122	13
441.194	-286
441.266	148
441.338	439
441.411	431
441.483	2292
441.555	3019
441.627	751
441.699	387
441.771	-123
441.843	245
441.915	910
441.987	547
442.059	1588
442.131	931
442.203	2580
442.275	2738
442.347	6213
442.419	16966
442.491	87064
442.563	158114
442.635	53006
442.706	10907
442.778	4855
442.850	2365
442.922	2328
442.994	2356
443.066	2814
443.137	3541
443.209	5732
443.281	9696
443.353	25136
443.425	99339
443.496	263053
443.568	242857
443.640	88443
443.711	18884
443.783	7051
443.855	4821
443.926	3608
443.998	2191
444.070	2134
444.141	1888
444.213	1586
444.285	1966
444.356	1185
444.428	1734
444.499	1069
444.571	2168
444.642	899
444.714	1178
444.785	1800
444.857	2155
444.928	3253
445.000	2994
445.071	4999
445.143	6174
445.214	9128
445.285	18934
445.357	53066
445.428	183505
445.500	299782
445.571	220345
445.642	134699
445.714	40257
445.785	13993
445.856	5155
445.928	3629
445.999	2221
446.070	1531
446.141	1386
446.213	1127
446.284	1030
446.355	830
446.426	383
446.497	231
446.569	295
446.640	1274
446.711	542
446.782	-182
446.853	38
446.924	290
446.995	-638
447.066	-650
447.138	154
447.209	568
447.280	-748
447.351	-528
447.422	-927
447.493	-498
447.564	-941
447.635	-722
447.706	-512
447.777	-564
447.847	-452
447.918	-942
447.989	-513
448.060	-109
448.131	4
448.202	-277
448.273	-404
448.344	-457
448.414	-271
448.485	-216
448.556	1
448.627	-1002
448.698	-17
448.768	-1214
448.839	-1181
448.910	-584
448.981	-630
449.051	-306
449.122	-628
449.193	-439
449.263	-297
449.334	-375
449.405	275
449.475	540
449.546	-118
449.616	307
449.687	195
449.758	-352
449.828	-1030
449.899	-1051
449.969	-1167
450.040	-154
450.110	-409
450.181	-311
450.251	-220
450.322	-957
450.392	-144
450.463	-557
450.533	-831
450.604	-299
450.674	-245
450.744	187
450.815	-448
450.885	-25
450.955	391
451.026	641
451.096	-730
451.166	-658
451.237	836
451.307	1864
451.377	112
451.447	-246
451.518	-56
451.588	-988
451.658	-329
451.728	-762
451.799	389
451.869	22
451.939	-938
452.009	-569
452.079	-545
452.149	283
452.219	-811
452.289	884
452.360	472
452.430	602
452.500	-65
452.570	3015
452.640	9374
452.710	24129
452.780	23166
452.850	10734
452.920	3701
452.990	1368
453.060	1465
453.129	506
453.199	-1100
453.269	1946
453.339	2875
453.409	3819
453.479	4201
453.549	5876
453.619	5608
453.688	859
453.758	131
453.828	-487
453.898	-38
453.968	-821
454.037	-44
454.087	-815
454.107	-1146
454.168	-1204
454.177	-1232
454.247	-131
454.249	-134
454.316	-584
454.330	-542
454.386	-441
454.411	-558
454.456	-876
454.492	-422
454.525	-3
454.574	-38
454.595	-93
454.655	-471
454.665	-532
454.734	-217
454.736	-191
454.804	-201
454.817	78
454.873	1277
454.898	1040
454.943	440
454.979	31
455.013	-290
455.060	-279
455.082	-303
455.141	-121
455.152	-104
455.221	1713
455.222	1731
455.291	1717
455.303	1937
455.360	2729
455.384	4051
455.430	6005
455.465	3989
455.499	2147
455.546	1249
455.569	807
455.627	1011
455.638	1048
455.707	-384
455.708	-366
455.777	20
455.789	42
455.846	46
455.869	143
455.916	287
455.950	493
455.985	661
456.031	-200
456.054	-582
456.112	258
456.124	405
456.193	322
456.193	303
456.262	109
456.274	208
456.332	865
456.355	663
456.401	112
456.436	128
456.470	91
456.516	-155
456.540	-249
456.597	576
456.609	730
456.678	1214
456.678	1197
456.747	968
456.759	860
456.817	716
456.840	832
456.886	744
456.920	590
456.955	694
457.001	724
457.024	622
457.082	1537
457.093	1696
457.162	1689
457.163	1708
457.232	1397
457.243	1407
457.301	1832
457.324	1839
457.370	1628
457.405	1804
457.439	2193
457.485	2437
457.508	2463
457.566	2966
457.577	3258
457.646	5662
457.647	5715
457.715	15801
457.727	18280
457.784	35307
457.808	47081
457.853	60038
457.889	66303
457.922	60723
457.969	37732
457.991	39317
458.050	54691
458.060	57697
458.129	101991
458.130	103139
458.198	91511
458.211	81310
458.267	37671
458.292	23665
458.336	16293
458.372	15838
458.405	25270
458.453	41675
458.474	54656
458.533	102644
458.543	106276
458.611	158462
458.614	158976
458.680	81319
458.694	61712
458.749	25195
458.775	16360
458.818	10353
458.855	7870
458.887	6355
458.936	4958
458.955	4653
459.016	3437
459.024	3341
459.093	4074
459.097	4072
459.162	3045
459.177	2920
459.230	2941
459.257	3131
459.299	3246
459.338	3124
459.368	3100
459.418	3051
459.437	2922
459.499	2615
459.505	2660
459.574	2935
459.579	2983
459.643	2425
459.659	2292
459.711	2659
459.740	3041
459.780	3219
459.820	3116
459.849	2943
459.900	2694
459.917	2707
459.981	2898
459.986	2867
460.054	2416
460.061	2339
460.123	1997
460.141	2100
460.191	2547
460.222	2740
460.260	2715
460.302	2518
460.328	2692
460.382	3354
460.397	3391
460.462	3242
460.465	3259
460.534	4140
460.543	4197
460.602	8897
460.623	11002
460.671	16793
460.703	21798
460.739	19877
460.783	14765
460.808	11921
460.864	3959
460.876	3498
460.944	3145
460.945	3135
461.013	2694
461.024	2693
461.081	3013
461.104	3166
461.150	3181
461.184	3051
461.218	2916
461.264	2946
461.286	3048
461.345	2739
461.355	2622
461.423	2681
461.425	2671
461.491	2859
461.505	2953
461.559	3110
461.585	3147
461.628	3608
461.665	4311
461.696	4688
461.745	5043
461.764	4788
461.825	3404
461.832	3345
461.901	3087
461.905	3091
461.969	3048
461.985	2953
462.037	3345
462.065	3810
462.105	3749
462.145	3253
462.173	3200
462.225	3429
462.241	3535
462.305	4274
462.310	4249
462.378	3350
462.385	3231
462.446	3288
462.465	3378
462.514	3491
462.545	3682
462.582	3405
462.625	2900
462.650	2881
462.705	2611
462.718	2630
462.785	3251
462.786	3253
462.854	2849
462.865	2837
462.922	3218
462.945	3351
462.990	3503
463.025	3359
463.058	2996
463.104	3029
463.126	3081
463.184	2948
463.194	3064
463.262	3523
463.264	3543
463.330	3016
463.344	2929
463.398	4009
463.424	4432
463.466	3370
463.504	2582
463.533	3063
463.583	3571
463.601	3344
463.663	2712
463.669	2783
463.737	3713
463.743	3767
463.805	4181
463.823	4362
463.873	4870
463.903	5087
463.940	4946
463.982	4845
464.008	4461
464.062	3541
464.076	3568
464.142	3794
464.144	3802
464.211	3822
464.221	3787
464.279	3556
464.301	3598
464.347	4014
464.381	4212
464.414	3818
464.461	3246
464.482	3521
464.540	4314
464.550	4253
464.617	3724
464.620	3700
464.685	4031
464.699	4075
464.753	4148
464.779	4248
464.820	4209
464.859	4031
464.888	3809
464.938	3524
464.956	3881
465.018	5030
465.023	4979
465.091	4269
465.098	4192
465.158	4063
465.177	4030
465.226	4387
465.257	4520
465.293	4593
465.336	4770
465.361	4629
465.416	4119
465.428	4177
465.495	4550
465.496	4566
465.563	5593
465.575	5781
465.631	6675
465.654	7082
465.698	5538
465.734	4083
465.765	4316
465.813	4795
465.833	4627
465.893	3909
465.900	3968
465.968	4552
465.972	4585
466.035	4394
466.052	4292
466.102	4833
466.131	5214
466.170	4660
466.210	3944
466.237	4185
466.290	4690
466.304	4465
466.369	3309
466.372	3345
466.439	4282
466.449	4391
466.506	4393
466.528	4405
466.573	5313
466.607	5952
466.641	6481
466.687	7230
466.708	7610
466.766	8528
466.775	8166
466.842	5423
466.845	5277
466.909	4877
466.925	4778
466.977	4978
467.004	5084
467.044	5357
467.083	5589
467.111	5416
467.163	5062
467.178	5296
467.242	6240
467.245	6204
467.312	5210
467.321	5071
467.379	6159
467.400	6536
467.446	6712
467.480	6816
467.559	6579
467.638	5101
467.717	5659
467.796	6949
467.875	6522
467.955	6693
468.034	8707
468.113	11005
468.192	15761
468.271	14718
468.350	20416
468.429	31107
468.508	34343
468.588	20252
468.667	12698
468.746	7942
468.825	8716
468.904	6673
468.983	6349
469.062	6393
469.141	7692
469.220	5596
469.299	6733
469.378	5033
469.456	7084
469.535	6188
469.614	6572
469.693	5438
469.772	7721
469.851	6667
469.930	8475
470.009	7673
470.088	10996
470.166	15622
470.245	30450
470.324	40702
470.403	25736
470.482	12567
470.560	9311
470.639	6669
470.718	7088
470.797	6377
470.875	6182
470.954	5697
471.033	7273
471.111	5215
471.190	5791
471.269	5835
471.347	5530
471.426	5166
471.505	5612
471.583	5539
471.662	6334
471.740	5226
471.819	6556
471.898	4805
471.976	5846
472.055	4980
472.133	6183
472.212	6093
472.290	5080
472.369	4685
472.447	5306
472.526	4756
472.604	6188
472.683	5107
472.761	5969
472.839	5777
472.918	6409
472.996	5034
473.075	6832
473.153	6005
473.231	5676
473.310	5947
473.388	6257
473.466	5036
473.545	6236
473.623	5941
473.701	6605
473.780	6962
473.858	6169
473.936	6677
474.014	6393
474.093	6104
474.171	6800
474.249	7546
474.327	6082
474.405	4769
474.484	5950
474.562	5331
474.640	5253
474.718	5773
474.796	6000
474.874	5248
474.952	6065
475.030	4875
475.108	5707
475.187	5196
475.265	5640
475.343	6558
475.421	6452
475.499	5398
475.577	5599
475.655	5996
475.733	7170
475.811	7937
475.889	7200
475.966	6267
476.044	5597
476.122	5099
476.200	5757
476.278	4669
476.356	5087
476.434	5343
476.512	5784
476.590	4653
476.667	6043
476.745	4421
476.823	5942
476.901	5137
476.979	6008
477.056	5173
477.134	5987
477.212	4936
477.290	6416
477.367	4136
477.445	5563
477.523	4786
477.601	5405
477.678	4763
477.756	4729
477.834	5221
477.911	6137
477.989	4840
478.066	5007
478.144	4782
478.222	5560
478.299	5620
478.377	5463
478.454	4903
478.532	4722
478.609	3710
478.687	5694
478.764	4465
478.842	5715
478.919	4256
478.997	5532
479.074	4583
479.152	5132
479.229	5754
479.307	5100
479.384	4298
479.461	4720
479.539	4588
479.616	4945
479.694	4523
479.771	5975
479.848	4211
479.926	4267
480.003	5797
480.080	5944
480.157	5231
480.235	4323
480.312	4891
480.389	5932
480.467	4867
480.544	6640
480.621	6326
480.698	6806
480.775	5928
480.853	6031
480.930	4812
481.007	5674
481.084	4526
481.161	5975
481.238	5328
481.315	4954
481.392	5467
481.470	5796
481.547	5266
481.624	5967
481.701	5660
481.778	6250
481.855	5848
481.932	7457
482.009	9013
482.086	8474
482.163	9206
482.240	12200
482.317	11608
482.393	10726
482.470	8232
482.547	8398
482.624	6956
482.701	7369
482.778	6865
482.855	6438
482.932	6778
483.009	7393
483.085	8546
483.162	9533
483.239	11502
483.316	11285
483.393	11740
483.469	9665
483.546	8179
483.623	8760
483.699	6405
483.776	6159
483.853	6907
483.930	7436
484.006	7410
484.083	11195
484.160	8986
484.236	11457
484.313	9504
484.389	8562
484.466	11273
484.543	12309
484.619	15839
484.696	20549
484.772	12464
484.849	10036
484.925	8177
485.002	9162
485.078	7761
485.155	7708
485.231	6792
485.308	5899
485.384	7122
485.461	7817
485.537	6963
485.614	9610
485.690	6877
485.766	6559
485.843	6492
485.919	6496
485.995	6923
486.072	7027
486.148	5830
486.224	6890
486.301	7153
486.377	6369
486.453	6015
486.530	7566
486.606	8752
486.682	8673
486.758	7933
486.835	9152
486.911	7704
486.987	11015
487.063	12040
487.139	12782
487.215	12916
487.292	15743
487.368	17208
487.444	21599
487.520	29142
487.596	44532
487.672	104026
487.748	355192
487.824	552318
487.900	183850
487.976	46306
488.052	22676
488.128	17191
488.204	12444
488.280	11463
488.356	10709
488.432	10299
488.508	11995
488.584	8287
488.660	7997
488.736	6994
488.812	6423
488.888	6769
488.964	7578
489.039	9674
489.115	12674
489.191	9861
489.267	7203
489.343	5783
489.418	6781
489.494	5460
489.570	5255
489.646	6956
489.722	7133
489.797	6197
489.873	8145
489.949	8855
490.024	9289
490.100	6119
490.176	7461
490.251	6884
490.327	7595
490.403	7057
490.478	7113
490.554	5744
490.629	6257
490.705	6047
490.781	6874
490.856	5837
490.932	6540
491.007	5709
491.083	6069
491.158	5411
491.234	7409
491.309	8761
491.385	7612
491.460	5248
491.536	7244
491.611	4136
491.686	6593
491.762	5592
491.837	7195
491.913	9887
491.988	12451
492.063	12750
492.139	8042
492.214	5743
492.289	6617
492.365	4478
492.440	5667
492.515	5096
492.590	6762
492.666	4435
492.741	5999
492.816	6385
492.891	4797
492.967	6046
493.042	5846
493.117	5169
493.192	6308
493.267	7726
493.342	15938
493.418	20770
493.493	8140
493.568	5506
493.643	5516
493.718	4827
493.793	6292
493.868	5842
493.943	6266
494.018	5534
494.093	5823
494.168	5255
494.243	5585
494.318	5382
494.393	6132
494.468	5609
494.543	6401
494.618	6109
494.693	5968
494.768	5592
494.842	6385
494.917	6144
494.992	6526
495.067	5808
495.142	5969
495.217	4860
495.292	5877
495.366	5241
495.441	6071
495.516	6998
495.591	7396
495.665	12342
495.740	21974
495.815	11537
495.890	6216
495.964	4327
496.039	8596
496.114	6370
496.188	7678
496.263	7371
496.338	6738
496.412	5797
496.487	6755
496.561	6486
496.636	7039
496.710	5793
496.785	5922
496.860	6630
496.934	5290
497.009	5952
497.083	6776
497.158	6107
497.232	7362
497.307	6865
497.381	9467
497.455	8409
497.530	7639
497.604	6095
497.679	5626
497.753	6370
497.827	7922
497.902	6335
497.976	8421
498.050	13201
498.125	40795
498.199	43410
498.273	10643
498.348	8312
498.422	8787
498.496	9535
498.570	11032
498.645	6306
498.719	4577
498.793	6263
498.867	7513
498.941	7227
499.016	17747
499.090	41905
499.164	19101
499.238	6940
499.312	7554
499.386	7121
499.460	9124
499.534	9191
499.609	12132
499.683	9311
499.757	6757
499.831	8503
499.905	26375
499.979	26051
500.053	7714
500.127	6312
500.201	7333
500.275	6291
500.349	7977
500.422	8435
500.496	9398
500.570	12802
500.644	24043
500.718	32728
500.792	9777
500.866	5853
500.940	4888
501.013	5222
501.087	5257
501.161	6167
501.235	5278
501.309	10509
501.382	21073
501.456	20075
501.530	7059
501.603	8172
501.677	6278
501.751	2937
501.825	6969
501.898	5597
501.972	10178
502.046	7278
502.119	4682
502.193	5971
502.266	9955
502.340	6244
502.413	5862
502.487	9614
502.561	6141
502.634	5353
502.708	5611
502.781	3209
502.855	6253
502.928	2722
503.002	5063
503.075	3439
503.149	4533
503.222	5079
503.295	4602
503.369	5412
503.442	6192
503.516	10067
503.589	19274
503.662	15623
503.736	13074
503.809	19403
503.882	24666
503.956	35262
504.029	66246
504.102	193525
504.175	298532
504.249	111847
504.322	37446
504.395	19166
504.468	12545
504.542	7959
504.615	6209
504.688	6670
504.761	4726
504.834	6504
504.907	4838
504.980	5019
505.053	5006
505.127	1897
505.200	6527
505.273	3841
505.346	3526
505.419	2701
505.492	4234
505.565	3068
505.638	4262
505.711	2361
505.784	2113
505.857	2821
505.930	5154
506.003	1424
506.076	5697
506.149	2581
506.221	2360
506.294	4097
506.367	3916
506.440	10593
506.513	8503
506.586	3703
506.659	2341
506.731	3371
506.804	3579
506.877	2513
506.950	3652
507.022	3758
507.095	1856
507.168	3232
507.241	4120
507.313	1903
507.386	1720
507.459	4199
507.531	3244
507.604	1901
507.677	4061
507.749	1081
507.822	4035
507.894	3152
507.967	5602
508.040	2453
508.112	4653
508.185	2771
508.257	1965
508.330	4316
508.402	2255
508.475	2530
508.547	3294
508.620	2027
508.692	2756
508.765	3024
508.837	3131
508.909	3515
508.982	3041
509.054	3035
509.127	2586
509.199	2527
509.271	1893
509.344	2731
509.416	3219
509.488	2305
509.560	3364
509.633	2418
509.705	3342
509.777	3283
509.849	3793
509.922	2451
509.994	3163
510.066	3989
510.138	1513
510.210	5068
510.283	3181
510.355	3528
510.427	4165
510.499	3323
510.571	3298
510.643	2094
510.715	4924
510.787	1586
510.859	4137
510.931	3375
511.003	3657
511.076	4298
511.148	3522
511.219	2807
511.291	4340
511.363	4399
511.435	2684
511.507	1841
511.579	3821
511.651	4196
511.723	2965
511.795	2729
511.867	2609
511.939	3237
512.010	3426
512.082	4002
512.154	1905
512.226	2643
512.298	4698
512.369	3852
512.441	4200
512.513	4019
512.585	2842
512.656	3411
512.728	3322
512.800	1960
512.871	4031
512.943	3457
513.015	2028
513.086	4007
513.158	3863
513.230	2446
513.301	3113
513.373	4652
513.444	3616
513.516	2514
513.588	3262
513.659	4483
513.731	3585
513.802	2561
513.874	5331
513.945	5765
514.016	3680
514.088	3411
514.159	2259
514.231	4061
514.302	4500
514.374	3228
514.445	2715
514.516	6779
514.588	3837
514.659	2932
514.730	3893
514.802	5148
514.873	1997
514.944	5477
515.016	4545
515.087	2443
515.158	4371
515.229	6147
515.301	3650
515.372	4547
515.443	4411
515.514	2932
515.585	3692
515.656	4018
515.728	5577
515.799	4287
515.870	5744
515.941	4769
516.012	5423
516.083	9347
516.154	7828
516.225	10539
516.296	15957
516.367	16623
516.438	21820
516.509	27848
516.580	41978
516.651	159618
516.722	575461
516.793	236894
516.864	42156
516.935	37126
517.006	46757
517.077	59588
517.148	128340
517.219	625627
517.289	967488
517.360	170015
517.431	41433
517.502	20920
517.573	18701
517.643	14989
517.714	15030
517.785	18218
517.856	20939
517.926	30295
517.997	37828
518.068	49795
518.138	70738
518.209	108528
518.280	397742
518.350	1326056
518.421	591607
518.492	99389
518.562	55494
518.633	52562
518.703	65619
518.774	136540
518.845	376201
518.915	361737
518.986	100673
519.056	39972
519.127	26669
519.197	20014
519.268	21543
519.338	16981
519.408	9501
519.479	8785
519.549	7035
519.620	7694
519.690	6080
519.760	6384
519.831	5504
519.901	4596
519.971	5632
520.042	4433
520.112	4205
520.182	4773
520.253	5299
520.323	4234
520.393	3512
520.463	6130
520.534	2858
520.604	7415
520.674	5467
520.744	3577
520.814	5124
520.885	6734
520.955	7162
521.025	14354
521.095	8069
521.165	4563
521.235	3952
521.305	2769
521.375	3673
521.445	4136
521.515	3411
521.585	4897
521.655	2938
521.725	4167
521.795	4835
521.865	979
521.935	6442
522.005	3545
522.075	3285
522.145	4313
522.215	3180
522.285	4119
522.355	4194
522.424	5665
522.494	4788
522.564	4222
522.634	5458
522.704	10733
522.774	5067
522.843	4364
522.913	4725
522.983	2982
523.053	3111
523.122	4952
523.192	3881
523.262	6896
523.331	6537
523.401	4491
523.471	3234
523.540	4812
523.610	3487
523.680	4297
523.749	4208
523.819	4420
523.888	4026
523.958	4313
524.027	4104
524.097	4368
524.166	3990
524.236	2843
524.305	5530
524.375	3448
524.444	3325
524.514	6301
524.583	3958
524.653	3425
524.722	4946
524.791	2983
524.861	5942
524.930	3306
524.999	4023
525.069	6023
525.138	4951
525.207	4521
525.277	7193
525.346	6113
525.415	8222
525.484	8147
525.554	8335
525.623	12910
525.692	16240
525.761	19857
525.830	28617
525.900	37794
525.969	59495
526.038	110569
526.107	233097
526.176	694156
526.245	560626
526.314	157857
526.383	331476
526.452	459330
526.522	639021
526.591	614643
526.660	105844
526.729	59024
526.797	62013
526.867	83576
526.935	247586
527.004	937554
527.073	636541
527.142	85728
527.211	32260
527.280	19912
527.349	15074
527.418	9480
527.487	9887
527.555	6754
527.624	6480
527.693	4701
527.762	7028
527.831	4180
527.899	5557
527.968	4902
528.037	3541
528.106	3757
528.174	6341
528.243	4599
528.312	6015
528.380	5982
528.449	3911
528.518	5955
528.586	2876
528.655	4098
528.723	4463
528.792	3305
528.861	3455
528.929	2890
528.998	5350
529.066	3534
529.135	3821
529.203	3938
529.272	3011
529.340	4920
529.409	6177
529.477	3722
529.545	3316
529.614	6168
529.682	3346
529.751	4994
529.819	7969
529.887	6009
529.956	5619
530.024	6510
530.092	4537
530.161	6143
530.229	6413
530.297	5165
530.365	6608
530.434	6447
530.502	4858
530.570	5229
530.638	4776
530.707	5114
530.775	6486
530.843	5087
530.911	5320
530.979	5625
531.047	5825
531.115	5679
531.183	5267
531.252	5652
531.320	4678
531.388	3919
531.456	6202
531.524	3869
531.592	7019
531.660	7218
531.728	6612
531.796	4906
531.864	6800
531.932	5146
532.000	5790
532.067	5261
532.135	7656
532.203	8434
532.271	6846
532.339	8449
532.407	10609
532.475	8423
532.542	8413
532.610	7393
532.678	7429
532.746	13701
532.814	24348
532.881	10130
532.949	7933
533.017	7069
533.084	7615
533.152	6266
533.220	6100
533.287	5499
533.355	7215
533.423	8078
533.490	5847
533.558	7195
533.625	7707
533.693	7250
533.761	8194
533.828	8037
533.896	6666
533.963	9381
534.031	10425
534.098	11994
534.166	12465
534.233	10936
534.300	14516
534.368	13829
534.435	13423
534.503	14977
534.570	18090
534.637	20267
534.705	25504
534.772	29328
534.840	57448
534.907	286614
534.974	382175
535.041	48662
535.109	19336
535.176	13033
535.243	11716
535.310	11612
535.378	10185
535.445	10129
535.512	11127
535.579	10780
535.646	10543
535.714	10403
535.781	12177
535.848	11716
535.915	12330
535.982	9917
536.049	10894
536.116	11520
536.183	10766
536.250	9102
536.317	9364
536.384	10754
536.451	11782
536.518	11364
536.585	9959
536.652	12780
536.719	11893
536.786	9528
536.853	11239
536.920	11501
536.987	11348
537.053	10237
537.120	19257
537.187	17910
537.254	11332
537.321	10761
537.388	13306
537.454	10998
537.521	11881
537.588	10870
537.654	12628
537.721	12812
537.788	13857
537.855	10538
537.921	12353
537.988	11042
538.055	12062
538.121	9518
538.188	9998
538.254	10033
538.321	11612
538.388	11090
538.454	13405
538.521	12480
538.587	12867
538.654	11322
538.720	11456
538.787	11876
538.853	12371
538.920	11724
538.986	10501
539.053	9670
539.119	11499
539.185	10613
539.252	12756
539.318	12258
539.385	14846
539.451	11533
539.517	13019
539.583	11749
539.650	13201
539.716	15509
539.782	11799
539.849	9962
539.915	12641
539.981	9738
540.047	11062
540.114	10635
540.180	12467
540.246	11785
540.312	13688
540.378	12716
540.444	14762
540.510	14501
540.576	18382
540.643	12200
540.709	11699
540.775	11299
540.841	10884
540.907	11199
540.973	13374
541.039	10865
541.105	13605
541.171	12268
541.237	12769
541.303	12909
541.369	14733
541.435	12799
541.500	12495
541.566	11258
541.632	10822
541.698	10641
541.764	13504
541.830	11163
541.896	10752
541.961	11621
542.027	10681
542.093	12594
542.159	13079
542.224	10859
542.290	13095
542.356	12100
542.421	12680
542.487	10997
542.553	11023
542.618	12118
542.684	11775
542.750	10688
542.815	12634
542.881	11628
542.947	17325
543.012	16591
543.078	11714
543.143	10058
543.209	12339
543.274	10119
543.340	11696
543.405	12669
543.471	13179
543.536	11430
543.602	11933
543.667	10850
543.732	12886
543.798	10833
543.863	11658
543.928	11418
543.994	10998
544.059	12870
544.124	13353
544.190	11791
544.255	14277
544.320	12909
544.386	12556
544.451	13735
544.516	13791
544.581	13275
544.646	16243
544.712	18731
544.777	13481
544.842	13522
544.907	14119
544.972	13620
545.037	14139
545.102	14153
545.168	15333
545.233	14754
545.298	16639
545.363	14666
545.428	16858
545.493	18600
545.558	19866
545.623	16169
545.688	16472
545.753	17340
545.818	17722
545.883	19822
545.947	18225
546.012	20211
546.077	20323
546.142	21880
546.207	22067
546.272	23729
546.337	23853
546.401	25139
546.466	27094
546.531	26636
546.596	29930
546.661	30821
546.725	33055
546.790	34375
546.855	39779
546.919	40959
546.984	46835
547.049	49855
547.113	58075
547.178	63200
547.243	73778
547.307	85136
547.372	93410
547.436	93945
547.501	99750
547.565	107613
547.630	98315
547.695	93992
547.759	95534
547.823	96046
547.888	98018
547.952	101255
548.017	105080
548.081	105355
548.146	105004
548.210	108569
548.274	118311
548.339	115450
548.403	105413
548.468	97154
548.532	97933
548.596	99645
548.660	100552
548.725	108885
548.789	119489
548.853	115619
548.917	110283
548.982	106105
549.046	94939
549.110	84952
549.174	89906
549.238	105019
549.303	115625
549.367	118065
549.431	111053
549.495	103807
549.559	105888
549.623	122289
549.687	134827
549.751	131074
549.815	157801
549.879	156829
549.943	152988
550.007	158608
550.071	157541
550.135	140654
550.199	133561
550.263	133161
550.327	123651
550.391	125708
550.455	140641
550.519	148437
550.582	158968
550.646	180024
550.710	183020
550.774	179213
550.838	183111
550.901	189216
550.965	199458
551.029	209310
551.093	225189
551.156	247802
551.220	286215
551.284	323816
551.347	249389
551.411	204895
551.475	190147
551.538	195380
551.602	182406
551.666	170922
551.729	163390
551.793	154829
551.856	154389
551.920	152812
551.983	148939
552.047	148345
552.110	150102
552.174	150709
552.237	153094
552.301	142116
552.364	137160
552.428	133319
552.491	138530
552.554	142020
552.618	141196
552.681	146963
552.745	143832
552.808	170282
552.871	203164
552.934	166577
552.998	146420
553.061	139535
553.124	133153
553.187	131605
553.251	135766
553.314	135142
553.377	136633
553.440	146462
553.503	153867
553.567	158108
553.630	146890
553.693	144922
553.756	143386
553.819	140511
553.882	135177
553.945	134622
554.008	136564
554.071	137319
554.134	138657
554.197	129522
554.260	126956
554.323	126935
554.386	132049
554.449	135311
554.512	137581
554.575	128841
554.638	128398
554.701	126725
554.764	127969
554.827	123134
554.889	119228
554.952	111339
555.015	108249
555.078	111167
555.141	113553
555.203	108609
555.266	108688
555.329	108930
555.391	104950
555.454	103252
555.517	98974
555.580	97454
555.642	92360
555.705	89340
555.768	90106
555.830	87999
555.893	83303
555.955	80104
556.018	78726
556.080	80598
556.143	83173
556.206	80976
556.268	79798
556.330	75616
556.393	74722
556.455	74273
556.518	72119
556.580	69392
556.643	67156
556.705	64291
556.767	64212
556.830	62788
556.892	62909
556.955	61598
557.017	60623
557.079	58876
557.142	58523
557.204	57395
557.266	59786
557.328	55136
557.391	49270
557.453	49711
557.515	49760
557.577	50404
557.639	50785
557.701	51977
557.764	52533
557.826	54081
557.888	57332
557.950	59512
558.012	64626
558.074	82254
558.136	189909
558.198	464062
558.260	170173
558.322	64518
558.384	64506
558.446	68293
558.508	74354
558.570	85702
558.632	98515
558.694	121167
558.756	193388
558.818	549961
558.880	1186585
558.942	512404
559.003	498455
559.065	247719
559.127	93912
559.189	85042
559.251	90730
559.312	125259
559.374	295600
559.436	897064
559.498	479046
559.559	111356
559.621	88182
559.683	93915
559.744	149435
559.806	477656
559.868	711885
559.929	165770
559.991	95851
560.052	150079
560.114	443217
560.176	282064
560.237	249231
560.299	410960
560.360	92313
560.422	35074
560.483	28503
560.545	25171
560.606	23864
560.667	22233
560.729	22259
560.790	19682
560.852	19942
560.913	18660
560.974	18289
561.036	17787
561.097	19150
561.158	18284
561.220	18117
561.281	16659
561.342	16392
561.403	16796
561.465	16758
561.526	18131
561.587	20081
561.648	13833
561.709	15400
561.771	14967
561.832	15114
561.893	13892
561.954	13989
562.015	13602
562.076	14249
562.137	13628
562.198	13912
562.259	14367
562.320	12818
562.381	13643
562.442	14233
562.503	13213
562.564	12981
562.625	12361
562.686	12601
562.747	11677
562.808	11804
562.869	11869
562.930	12890
562.991	11955
563.051	11256
563.112	11574
563.173	12032
563.234	10972
563.294	11391
563.355	10244
563.416	11188
563.477	11091
563.537	10839
563.598	10334
563.659	11309
563.720	10165
563.780	11181
563.841	10785
563.901	11005
563.962	9806
564.023	9985
564.083	10636
564.144	9808
564.204	10108
564.265	10150
564.325	10783
564.386	11174
564.446	9694
564.507	10090
564.567	8720
564.628	10672
564.688	9126
564.749	9055
564.809	9638
564.869	10494
564.930	8944
564.990	10613
565.050	9090
565.111	10146
565.171	8294
565.231	9431
565.292	8725
565.352	8425
565.412	8969
565.472	8777
565.532	8617
565.593	8923
565.653	8213
565.713	9463
565.773	8612
565.833	10166
565.893	9936
565.953	8933
566.013	8062
566.074	8580
566.134	8534
566.194	9055
566.254	9515
566.314	8058
566.374	7272
566.434	8907
566.494	8289
566.554	7982
566.614	8535
566.673	9800
566.733	9398
566.793	9741
566.853	8976
566.913	9025
566.973	8714
567.033	9597
567.092	9127
567.152	8412
567.212	8875
567.272	9526
567.331	10128
567.391	10621
567.451	10017
567.511	11112
567.570	10163
567.630	10545
567.690	8659
567.749	9549
567.809	8705
567.868	9413
567.928	8798
567.988	9392
568.047	9216
568.107	9559
568.166	9830
568.226	9820
568.285	9917
568.345	10550
568.404	10134
568.464	9589
568.523	8672
568.582	9532
568.642	9406
568.701	9545
568.761	8729
568.820	9663
568.879	8504
568.939	10097
568.998	9071
569.057	9265
569.116	9522
569.176	9377
569.235	9001
569.294	8800
569.353	8267
569.413	8668
569.472	8208
569.531	9097
569.590	8224
569.649	9211
569.708	7704
569.767	9249
569.827	8462
569.886	8613
569.945	7789
570.004	8726
570.063	8609
570.122	9656
570.181	8893
570.240	9087
570.299	9238
570.358	9196
570.417	9635
570.475	9747
570.534	10252
570.593	9693
570.652	9056
570.711	9972
570.770	9428
570.829	9371
570.887	9274
570.946	10714
571.005	10395
571.064	11396
571.122	12311
571.181	11756
571.240	8812
571.299	9723
571.357	9020
571.416	8714
571.475	8719
571.533	9231
571.592	9256
571.650	10462
571.709	9868
571.768	12334
571.826	12426
571.885	11861
571.943	9735
572.002	9743
572.060	9789
572.119	9686
572.177	8666
572.236	9515
572.294	8832
572.352	10435
572.411	9489
572.469	9288
572.528	8114
572.586	9327
572.644	8334
572.703	9479
572.761	7828
572.819	8398
572.877	8250
572.936	8216
572.994	7899
573.052	7887
573.110	7726
573.169	10070
573.227	8631
573.285	8844
573.343	8242
573.401	8916
573.459	8947
573.517	8153
573.576	9146
573.634	9264
573.692	9004
573.750	9273
573.808	7677
573.866	8953
573.924	8506
573.982	8884
574.040	7911
574.098	7841
574.155	8515
574.213	8051
574.271	8029
574.329	9950
574.387	7742
574.445	7322
574.503	8012
574.560	8179
574.618	6856
574.676	7692
574.734	7437
574.792	7634
574.849	6758
574.907	6374
574.965	5895
575.022	5778
575.080	6113
575.138	6794
575.195	5377
575.253	6372
575.311	5870
575.368	6298
575.426	5863
575.483	6881
575.541	6502
575.598	5902
575.656	5549
575.713	6524
575.771	7858
575.828	6860
575.886	5564
575.943	6107
576.001	5472
576.058	4335
576.115	5446
576.173	6568
576.230	5949
576.287	7085
576.345	6463
576.402	7036
576.459	6625
576.517	6362
576.574	5266
576.631	5622
576.688	4947
576.746	5536
576.803	4672
576.860	5430
576.917	5658
576.974	6131
577.031	5452
577.089	5798
577.146	3862
577.203	5242
577.260	5348
577.317	5576
577.374	4617
577.431	6181
577.488	4658
577.545	4392
577.602	5159
577.659	5288
577.716	5038
577.773	5696
577.830	4976
577.886	5996
577.943	4201
578.000	4869
578.057	4174
578.114	6186
578.171	5282
578.227	5920
578.284	5952
578.341	6205
578.398	5055
578.454	5949
578.511	4360
578.568	5917
578.625	5269
578.681	5274
578.738	4600
578.794	4944
578.851	4690
578.908	4583
578.964	5282
579.021	5462
579.077	4796
579.134	5257
579.190	5293
579.247	4712
579.303	4356
579.360	5496
579.416	4645
579.473	5027
579.529	4600
579.586	5392
579.642	4867
579.698	5934
579.755	5629
579.811	6171
579.867	5792
579.924	5633
579.980	5853
580.036	6072
580.093	6262
580.149	8824
580.205	7074
580.261	7093
580.317	6225
580.374	6236
580.430	6369
580.486	6641
580.542	6225
580.598	6016
580.619	6191
580.654	6500
580.692	6492
580.710	6500
580.765	4940
580.767	4895
580.823	6489
580.838	6498
580.879	6526
580.911	6806
580.935	7016
580.984	6349
580.991	6269
581.047	6870
581.057	6790
581.103	6450
581.130	6686
581.159	6911
581.203	6054
581.215	5842
581.270	6450
581.276	6353
581.326	5457
581.349	5813
581.382	6324
581.422	6286
581.438	6300
581.494	5279
581.494	5280
581.550	5421
581.567	5531
581.606	5817
581.640	5466
581.661	5253
581.713	6819
581.717	6948
581.773	6015
581.786	6076
581.829	6271
581.859	6179
581.885	6098
581.932	6381
581.940	6438
581.996	6636
582.004	6733
582.052	7238
582.077	6256
582.107	5134
582.150	6463
582.163	6847
582.219	5777
582.223	5861
582.274	6983
582.296	6530
582.330	5726
582.368	6039
582.386	6260
582.441	6061
582.441	6060
582.497	6646
582.514	6421
582.552	6133
582.587	6852
582.608	7187
582.659	5848
582.663	5743
582.719	6707
582.732	6705
582.774	6765
582.805	6391
582.830	6098
582.877	6594
582.885	6672
582.941	7038
582.950	7077
582.996	7269
583.023	7440
583.052	7791
583.095	7909
583.107	7868
583.162	8203
583.168	8253
583.218	8630
583.240	7965
583.273	6941
583.313	6781
583.328	6850
583.384	6914
583.385	6895
583.439	5999
583.458	6271
583.494	6759
583.531	6631
583.549	6709
583.603	6074
583.605	6040
583.660	6715
583.676	6592
583.715	6343
583.748	6617
583.770	6880
583.820	6789
583.825	6768
583.881	7225
583.893	7069
583.936	6881
583.965	7056
583.991	6805
584.038	6759
584.046	6841
584.101	6321
584.110	6437
584.156	6757
584.183	6506
584.211	6387
584.255	7394
584.266	7657
584.321	6937
584.328	7014
584.376	7563
584.400	7515
584.431	7548
584.472	8028
584.486	8089
584.541	8210
584.545	8233
584.596	8714
584.617	8459
584.651	8317
584.689	8937
584.706	9084
584.761	9376
584.762	9373
584.816	9406
584.834	9663
584.871	9995
584.906	10118
584.926	10262
584.978	10993
584.980	11027
585.035	12918
585.051	13391
585.090	15020
585.123	16272
585.145	16988
585.195	19231
585.200	19516
585.254	23912
585.267	24984
585.309	28404
585.340	31386
585.364	34083
585.412	39081
585.419	39880
585.473	48725
585.484	51126
585.528	66331
585.556	82977
585.583	115580
585.628	194909
585.637	223015
585.692	475690
585.700	517319
585.747	648508
585.772	545798
585.801	342009
585.845	118056
585.856	89654
585.910	44476
585.917	40404
585.965	29295
585.989	25627
586.019	22745
586.061	20221
586.074	19576
586.128	18058
586.133	17864
586.183	16422
586.205	16331
586.237	16150
586.277	15526
586.292	15267
586.346	14610
586.349	14603
586.401	15414
586.421	15471
586.455	15081
586.493	14942
586.509	15294
586.564	16146
586.565	16170
586.618	17980
586.637	18992
586.672	21612
586.709	24536
586.727	25645
586.781	28146
586.781	28148
586.835	20713
586.853	19064
586.889	17052
586.925	15567
586.944	15287
586.996	15040
586.998	15049
587.052	15063
587.068	15038
587.106	15048
587.140	14849
587.161	14814
587.212	15451
587.215	15494
587.269	15713
587.284	15838
587.323	15985
587.356	15983
587.377	16174
587.427	17173
587.431	17256
587.485	17190
587.499	17356
587.539	17596
587.571	17761
587.593	18353
587.643	19893
587.648	19995
587.702	20270
587.715	20382
587.755	20442
587.786	20166
587.810	20082
587.858	20438
587.864	20482
587.917	20620
587.930	20609
587.971	20839
588.001	21084
588.025	21224
588.073	21173
588.079	21284
588.133	22055
588.145	22379
588.187	22661
588.217	22374
588.241	22726
588.288	23928
588.295	24047
588.348	24843
588.360	25055
588.402	26635
588.431	27236
588.456	27459
588.503	28689
588.510	29071
588.564	32073
588.575	32734
588.617	35122
588.646	36479
588.671	37905
588.718	41456
588.725	42637
588.778	53574
588.789	56380
588.832	88557
588.861	114644
588.886	168685
588.932	288007
588.939	297931
588.993	362598
589.004	359088
589.047	193439
589.075	97098
589.100	72708
589.147	43747
589.154	42892
589.207	38692
589.218	37935
589.261	38209
589.290	38422
589.314	39778
589.361	44176
589.368	46113
589.421	62823
589.433	67466
589.475	123147
589.504	167035
589.528	220645
589.576	332187
589.582	321045
589.635	159504
589.647	126644
589.689	68060
589.718	36124
589.742	33216
589.790	28256
589.795	28112
589.849	27008
589.861	26810
589.902	26231
589.932	25431
589.955	25000
590.004	24447
590.009	24392
590.062	23599
590.075	23328
590.115	23188
590.146	23048
590.168	23351
590.218	23973
590.222	24014
590.275	24202
590.289	24263
590.328	24807
590.360	24854
590.381	24942
590.431	25467
590.435	25501
590.488	25320
590.503	25302
590.541	26044
590.574	26316
590.594	26554
590.645	27516
590.647	27594
590.700	28261
590.716	28480
590.753	29047
590.787	29511
590.806	30069
590.859	31790
590.859	31839
590.912	31672
590.930	31723
590.965	31822
591.001	31712
591.018	31442
591.071	30454
591.072	30402
591.124	30162
591.143	30127
591.177	30036
591.214	29845
591.230	30386
591.283	32176
591.285	32190
591.336	31544
591.356	31309
591.389	31607
591.427	31717
591.442	31508
591.495	30611
591.498	30503
591.547	30927
591.569	31135
591.600	31877
591.640	32502
591.653	32574
591.706	32885
591.711	32868
591.759	33772
591.782	34162
591.811	35177
591.853	36509
591.864	36420
591.917	35636
591.924	35482
591.969	36219
591.995	36518
592.022	36531
592.066	36401
592.075	36729
592.127	38509
592.137	38770
592.180	39691
592.208	40183
592.233	40439
592.279	40779
592.285	40919
592.338	41553
592.350	41634
592.390	41258
592.421	40883
592.443	41420
592.491	42406
592.495	42525
592.548	43299
592.562	43444
592.600	42802
592.633	42153
592.653	42617
592.704	43438
592.705	43689
592.775	43788
592.846	46615
592.916	45613
592.987	47051
593.058	46605
593.128	46833
593.199	47369
593.270	48303
593.341	49131
593.411	50932
593.482	52793
593.553	54435
593.623	54291
593.694	56703
593.764	56042
593.835	56014
593.906	56815
593.976	58318
594.047	58653
594.117	63497
594.188	63146
594.258	63547
594.329	64275
594.399	64980
594.470	67465
594.540	71490
594.611	70615
594.681	72035
594.751	70045
594.822	73563
594.892	77175
594.963	78818
595.033	81143
595.103	83785
595.174	82374
595.244	86983
595.314	89118
595.384	90512
595.455	92753
595.525	97597
595.595	100396
595.665	100549
595.736	96861
595.806	99687
595.876	100883
595.946	101453
596.016	104861
596.087	110770
596.157	110122
596.227	111583
596.297	117088
596.367	125773
596.437	131477
596.507	131264
596.577	131069
596.647	135987
596.717	143299
596.787	145371
596.857	144474
596.927	145721
596.997	146963
597.067	149256
597.137	150177
597.207	151365
597.277	151107
597.347	145670
597.417	141705
597.487	142173
597.557	143863
597.626	149536
597.696	151136
597.766	148771
597.836	140005
597.906	133170
597.975	129431
598.045	133455
598.115	141329
598.185	151573
598.254	169174
598.324	184039
598.394	188044
598.464	179969
598.533	175789
598.603	164311
598.672	157735
598.742	165193
598.812	163914
598.881	169692
598.951	166225
599.020	171191
599.090	177892
599.159	177954
599.229	172398
599.299	169109
599.368	172558
599.437	170353
599.507	156409
599.576	150589
599.646	148590
599.715	146175
599.785	144048
599.854	141427
599.924	136620
599.993	138990
600.062	140243
600.132	145080
600.201	155591
600.270	178949
600.340	189370
600.409	185024
600.478	182597
600.547	191358
600.617	168705
600.686	132858
600.755	120082
600.824	114810
600.894	110425
600.963	113768
601.032	110633
601.101	107272
601.170	101560
601.239	97625
601.308	97774
601.378	98090
601.447	99134
601.516	99605
601.585	102595
601.654	101613
601.723	103486
601.792	106341
601.861	108873
601.930	113306
601.999	114387
602.068	113873
602.137	115312
602.206	118292
602.275	119409
602.343	120838
602.412	121990
602.481	123843
602.550	122912
602.619	127228
602.688	129775
602.756	130241
602.825	132657
602.894	134921
602.963	138374
603.032	140998
603.100	140232
603.169	140786
603.238	143158
603.307	143619
603.375	146569
603.444	148965
603.513	149811
603.581	151539
603.650	154639
603.719	151968
603.787	154511
603.856	161029
603.924	163127
603.993	170591
604.061	177809
604.130	185649
604.198	188037
604.267	191628
604.335	192554
604.404	196391
604.472	200324
604.541	203828
604.609	204616
604.678	206203
604.746	205077
604.815	214122
604.883	214336
604.951	215754
605.020	220165
605.088	223811
605.156	228503
605.225	231740
605.293	231673
605.361	232339
605.429	236548
605.498	242935
605.566	248403
605.634	259003
605.702	268905
605.771	274988
605.839	275282
605.907	270567
605.975	261909
606.043	256967
606.111	251984
606.180	255794
606.248	252706
606.316	249073
606.384	248442
606.452	250454
606.520	257658
606.588	266764
606.656	268884
606.724	262898
606.792	248053
606.860	222061
606.928	202605
606.996	194237
607.064	191601
607.132	197486
607.200	209971
607.267	214800
607.335	221422
607.403	225579
607.471	216520
607.539	210076
607.607	210576
607.674	186724
607.742	186090
607.810	183912
607.878	184031
607.946	190385
608.013	197832
608.081	201537
608.149	203859
608.216	214213
608.284	218312
608.352	219384
608.419	214888
608.487	210499
608.555	207909
608.622	213470
608.690	229103
608.757	254074
608.825	256819
608.893	248479
608.960	232637
609.028	223027
609.095	225044
609.163	222153
609.230	197071
609.298	182401
609.365	193960
609.432	211202
609.500	229325
609.567	261957
609.635	298317
609.702	311478
609.769	295428
609.837	226952
609.904	198076
609.971	206760
610.039	229188
610.106	285535
610.173	495183
610.241	987436
610.308	529208
610.375	247331
610.442	213526
610.509	205387
610.577	205844
610.644	209791
610.711	218063
610.778	223734
610.845	234216
610.912	248980
610.980	255233
611.047	257692
611.114	250480
611.181	241988
611.248	240980
611.315	256848
611.382	262073
611.449	275249
611.516	278025
611.583	270920
611.650	273738
611.717	277373
611.784	284490
611.851	294301
611.918	313079
611.984	355356
612.051	460402
612.118	788096
612.185	1520061
612.252	952601
612.319	407668
612.386	355342
612.452	327646
612.519	310429
612.586	304623
612.653	312268
612.719	323613
612.786	308219
612.853	285344
612.919	281380
612.986	284334
613.053	267916
613.120	251362
613.186	243647
613.253	245569
613.319	245574
613.386	244637
613.453	252185
613.519	251814
613.586	248908
613.652	253826
613.719	248662
613.785	254335
613.852	256034
613.918	253620
613.985	257232
614.051	267842
614.118	267199
614.184	255185
614.250	254213
614.317	259255
614.383	257772
614.449	260490
614.516	257523
614.582	260225
614.648	254434
614.715	251890
614.781	246057
614.847	243651
614.914	244877
614.980	237927
615.046	239696
615.112	247746
615.179	248415
615.245	251084
615.311	247623
615.377	249475
615.443	252630
615.509	256087
615.575	266046
615.642	259888
615.708	268884
615.774	279753
615.840	294404
615.906	311248
615.972	366713
616.038	505472
616.104	918207
616.170	1672130
616.236	1302245
616.302	534326
616.368	442666
616.434	331901
616.500	311498
616.565	349092
616.631	429587
616.697	351485
616.763	367782
616.829	539687
616.895	902069
616.961	786631
617.026	359062
617.092	273505
617.158	260658
617.224	256456
617.289	234721
617.355	225615
617.421	221557
617.487	222247
617.552	210848
617.618	210160
617.684	209624
617.749	213786
617.815	202897
617.880	197975
617.946	199647
618.012	203729
618.077	207447
618.143	197376
618.208	200713
618.274	214469
618.339	213833
618.405	176904
618.470	176892
618.536	177187
618.601	171924
618.667	158037
618.732	153371
618.798	149464
618.863	149976
618.928	148113
618.994	150186
619.059	150232
619.124	150868
619.190	148403
619.255	145852
619.320	147418
619.386	149264
619.451	147585
619.516	142377
619.581	144544
619.647	149289
619.712	147975
619.777	141858
619.842	144736
619.907	146154
619.972	148247
620.038	146623
620.103	141734
620.168	143613
620.233	145355
620.298	145302
620.363	148985
620.428	152025
620.493	157751
620.558	160370
620.623	159226
620.688	160993
620.753	157219
620.818	162716
620.883	162966
620.948	160462
621.013	157579
621.078	156681
621.143	156705
621.207	158997
621.272	154848
621.337	150612
621.402	150098
621.467	148528
621.532	146673
621.596	149097
621.661	143163
621.726	143395
621.791	144047
621.855	145219
621.920	141420
621.985	146548
622.049	148638
622.114	149135
622.179	150856
622.243	154651
622.308	159788
622.373	165654
622.437	160470
622.502	151280
622.566	151320
622.631	148763
622.695	153278
622.760	151976
622.824	152358
622.889	152135
622.953	153652
623.018	164888
623.082	164338
623.147	162387
623.211	157377
623.276	157727
623.340	151840
623.404	147944
623.469	147034
623.533	150060
623.597	144177
623.662	145080
623.726	131304
623.790	124885
623.854	121178
623.919	124813
623.983	125893
624.047	128946
624.111	128621
624.176	132637
624.240	133866
624.304	139932
624.368	131931
624.432	133971
624.496	135546
624.560	145150
624.625	144216
624.689	144430
624.753	152496
624.817	143284
624.881	140190
624.945	125039
625.009	121362
625.073	125015
625.137	127163
625.201	135147
625.265	135229
625.329	128766
625.393	130157
625.456	133273
625.520	136345
625.584	138211
625.648	140623
625.712	146060
625.776	146237
625.839	137192
625.903	113839
625.967	106794
626.031	116636
626.095	138741
626.158	123815
626.222	96989
626.286	92049
626.349	87068
626.413	80331
626.477	81398
626.540	82333
626.604	81704
626.668	80425
626.731	79114
626.795	79049
626.858	79855
626.922	77898
626.986	78083
627.049	77463
627.113	82392
627.176	79167
627.240	76046
627.303	76348
627.366	76154
627.430	78077
627.493	76569
627.557	73860
627.620	78306
627.684	80889
627.747	81030
627.810	71615
627.874	67562
627.937	62334
628.000	67730
628.064	65204
628.127	56548
628.190	56634
628.253	55693
628.317	51487
628.380	50621
628.443	48853
628.506	48077
628.569	46851
628.632	43658
628.696	43535
628.759	44048
628.822	41848
628.885	41042
628.948	41651
629.011	40442
629.074	38935
629.137	37231
629.200	35210
629.263	37780
629.326	35603
629.389	36128
629.452	36377
629.515	34625
629.578	34557
629.641	35790
629.704	34154
629.767	34570
629.830	34251
629.892	32613
629.955	33027
630.018	35836
630.081	32657
630.144	34226
630.207	31261
630.269	35334
630.332	32134
630.395	32471
630.458	30948
630.520	29341
630.583	31641
630.646	32912
630.708	30337
630.771	31651
630.834	35414
630.896	33657
630.959	32494
631.021	30878
631.084	31878
631.146	32498
631.209	33442
631.272	32236
631.334	32770
631.397	34238
631.459	33409
631.522	35882
631.584	37460
631.646	40418
631.709	42309
631.771	40903
631.834	38853
631.896	37340
631.958	33177
632.021	34931
632.083	31875
632.145	32217
632.208	31229
632.270	32773
632.332	29942
632.395	29639
632.457	31704
632.519	30423
632.581	31483
632.643	29489
632.706	29915
632.768	28341
632.830	30664
632.892	31597
632.954	30627
633.016	31842
633.078	31168
633.141	31434
633.203	29890
633.265	31930
633.327	30365
633.389	31241
633.451	31442
633.513	30871
633.575	31771
633.637	31935
633.698	32072
633.760	34741
633.822	36460
633.884	36096
633.946	35769
634.008	37616
634.070	40429
634.132	42949
634.193	45580
634.255	50669
634.317	49653
634.379	50925
634.441	42694
634.502	39452
634.564	35949
634.626	33485
634.687	31144
634.749	29930
634.811	30513
634.873	30187
634.934	30583
634.996	30644
635.057	29896
635.119	30285
635.181	30710
635.242	32123
635.304	30113
635.365	33025
635.427	30272
635.488	30959
635.550	28889
635.611	31947
635.673	29857
635.734	35032
635.796	35106
635.857	39786
635.918	41857
635.980	48712
636.041	47919
636.102	55036
636.164	54303
636.225	52996
636.286	42522
636.348	38268
636.409	33900
636.470	31273
636.531	30531
636.593	28788
636.654	28683
636.715	27742
636.776	27720
636.838	26263
636.899	26105
636.960	25726
637.021	25643
637.082	24742
637.143	24338
637.204	24012
637.265	23644
637.326	25373
637.387	24806
637.448	23262
637.509	25298
637.570	24652
637.631	25123
637.692	22292
637.753	21761
637.814	23418
637.875	22980
637.936	23615
637.997	22083
638.058	20986
638.119	22829
638.179	23105
638.240	21060
638.301	22847
638.362	20961
638.423	21468
638.483	21553
638.544	19694
638.605	21873
638.666	20612
638.726	20559
638.787	21731
638.848	21046
638.908	21693
638.969	19806
639.030	20049
639.090	18800
639.151	18416
639.211	20835
639.272	20973
639.332	20474
639.393	21465
639.453	21729
639.514	23963
639.574	20317
639.635	17329
639.695	19181
639.756	17345
639.816	19083
639.877	17828
639.937	19822
639.997	19900
640.058	17102
640.118	17053
640.178	18705
640.239	17937
640.299	17258
640.359	19116
640.420	20810
640.480	24027
640.540	27757
640.600	26264
640.661	22301
640.721	21023
640.781	20401
640.841	17296
640.901	18475
640.961	18353
641.021	20127
641.082	21187
641.142	18883
641.202	18478
641.262	15600
641.322	18178
641.382	16421
641.442	17726
641.502	17268
641.562	18238
641.622	17376
641.682	20870
641.742	23092
641.802	20598
641.861	17442
641.921	15589
641.981	16573
642.041	16975
642.101	15386
642.161	14254
642.221	15637
642.280	16387
642.340	15710
642.400	15639
642.460	17457
642.519	16004
642.579	16708
642.639	17158
642.698	14438
642.758	20055
642.818	17557
642.877	16016
642.937	16919
642.997	17189
643.056	16625
643.116	16165
643.175	17883
643.235	18620
643.294	18748
643.354	20304
643.414	22696
643.473	25908
643.532	31055
643.592	43886
643.651	66519
643.711	112119
643.770	212593
643.830	499931
643.889	866254
643.948	228780
644.008	56263
644.067	34418
644.126	26762
644.186	22441
644.245	20635
644.304	17653
644.363	19394
644.423	17445
644.482	18203
644.541	20150
644.600	19076
644.659	27008
644.719	33091
644.778	51591
644.837	88002
644.896	185529
644.955	382900
645.014	112883
645.073	28950
645.132	21631
645.191	19888
645.250	18880
645.309	22355
645.368	23447
645.427	33081
645.486	60193
645.545	98638
645.604	27544
645.663	19318
645.722	18395
645.781	20853
645.840	23587
645.898	29752
645.957	42950
646.016	62150
646.075	108392
646.134	205879
646.192	534039
646.251	659018
646.310	118376
646.369	40860
646.427	33604
646.486	24674
646.545	19493
646.603	17899
646.662	16922
646.721	16732
646.779	15731
646.838	17158
646.896	24742
646.955	31994
647.014	53050
647.072	104486
647.131	275084
647.189	113266
647.248	20416
647.306	16132
647.365	14577
647.423	11872
647.481	14100
647.540	10897
647.598	12548
647.657	11708
647.715	13079
647.773	10971
647.832	13114
647.890	9154
647.948	10055
648.007	10700
648.065	9351
648.123	9785
648.181	11589
648.240	9634
648.298	8877
648.356	9369
648.414	9945
648.472	9121
648.531	9467
648.589	8921
648.647	9294
648.705	9461
648.763	10735
648.821	10535
648.879	10785
648.937	12683
648.995	16659
649.053	21102
649.111	32855
649.169	53184
649.227	93849
649.285	197933
649.343	515194
649.401	215979
649.459	33806
649.516	21476
649.574	16101
649.632	18597
649.690	21110
649.748	25467
649.806	37969
649.863	72133
649.921	201438
649.979	114153
650.037	16803
650.094	8768
650.152	9867
650.210	7529
650.268	8735
650.325	8128
650.383	7095
650.440	6172
650.498	8086
650.556	6063
650.613	6155
650.671	6651
650.728	7934
650.786	7627
650.843	12285
650.901	7366
650.958	7365
651.016	6155
651.073	5933
651.131	5560
651.188	4726
651.246	6227
651.303	5131
651.360	5749
651.418	5501
651.475	5295
651.532	5934
651.590	5610
651.647	4485
651.704	5030
651.762	4287
651.819	4633
651.876	4798
651.933	4428
651.990	5802
652.048	3423
652.105	4061
652.162	4805
652.219	4557
652.276	5009
652.333	5236
652.390	3298
652.448	3942
652.505	4419
652.562	5184
652.619	4412
652.676	5117
652.733	4763
652.790	3756
652.847	2870
652.904	5231
652.961	2555
653.017	3624
653.074	5061
653.131	4905
653.188	3122
653.245	4842
653.302	2912
653.359	4008
653.415	4354
653.472	4241
653.529	4601
653.586	4276
653.642	3428
653.699	4696
653.756	3226
653.813	3803
653.869	3999
653.926	4469
653.983	2974
654.039	4843
654.096	3558
654.152	4875
654.209	2612
654.266	4177
654.322	3393
654.379	2893
654.435	3967
654.492	3788
654.548	3900
654.605	3661
654.661	4137
654.717	3506
654.774	4166
654.830	3789
654.887	3440
654.943	4158
655.000	4017
655.056	3574
655.112	3590
655.168	3734
655.225	3528
655.281	4413
655.337	3430
655.394	3342
655.450	3004
655.506	3716
655.562	3353
655.618	4858
655.675	2533
655.731	3580
655.787	2914
655.843	5281
655.899	2600
655.955	4835
656.011	3162
656.067	4209
656.123	4629
656.179	4021
656.235	4643
656.291	3095
656.347	5667
656.403	4166
656.459	3683
656.515	3564
656.571	3809
656.627	3451
656.683	3516
656.739	3441
656.795	3598
656.850	3321
656.906	3788
656.962	3850
657.018	3111
657.074	5733
657.129	7877
657.185	13412
657.241	31588
657.297	14288
657.352	4377
657.408	2636
657.464	3861
657.519	3025
657.575	1913
657.630	2690
657.686	3103
657.742	2488
657.797	2690
657.853	2225
657.908	3369
657.964	2881
658.019	2568
658.075	2144
658.130	3172
658.186	2267
658.241	3293
658.297	2130
658.352	2866
658.407	2750
658.463	2416
658.518	3314
658.573	2450
658.629	2027
658.684	2046
658.739	2765
658.795	1980
658.850	2514
658.905	2237
658.960	3264
659.016	1963
659.071	1667
659.126	1386
659.181	2288
659.236	3456
659.291	2936
659.346	2400
659.401	2812
659.457	2462
659.512	2689
659.567	2906
659.622	2230
659.677	1819
659.732	2163
659.787	2481
659.842	1214
659.897	2895
659.952	2172
660.007	1986
660.061	2271
660.116	1803
660.171	1297
660.226	2670
660.281	2667
660.336	551
660.391	3114
660.445	720
660.500	2867
660.555	1739
660.610	1481
660.664	1945
660.719	2088
660.774	1695
660.828	2421
660.883	1941
660.938	3658
660.992	722
661.047	2238
661.101	2187
661.156	1846
661.211	559
661.265	1657
661.320	2502
661.374	1982
661.429	1782
661.483	3373
661.538	439
661.592	2055
661.647	1508
661.701	2989
661.755	2154
661.810	2062
661.864	731
661.919	1810
661.973	1763
662.027	1561
662.081	916
662.136	1492
662.190	1970
662.244	2610
662.299	1936
662.353	2281
662.407	1656
662.461	1605
662.515	2049
662.569	1966
662.624	1530
662.678	1236
662.732	1660
662.786	1870
662.840	1300
662.894	1773
662.948	1764
663.002	1567
663.056	1857
663.110	1511
663.164	1896
663.218	1961
663.272	2317
663.326	1918
663.380	1522
663.434	1853
663.488	1085
663.542	2894
663.595	1265
663.649	1832
663.703	1981
663.757	1791
663.811	1352
663.864	1922
663.918	1663
663.972	1711
664.026	2029
664.079	1532
664.133	2333
664.187	2430
664.240	1445
664.294	1186
664.348	1666
664.401	1983
664.455	2173
664.508	1443
664.562	550
664.615	2729
664.669	1840
664.722	2819
664.776	1397
664.829	2222
664.883	1442
664.936	2245
664.990	1289
665.043	2406
665.097	1479
665.150	3066
665.203	1342
665.257	2144
665.310	2681
665.363	2302
665.417	1730
665.470	1870
665.523	2327
665.576	2883
665.630	2070
665.683	1542
665.736	2064
665.789	2707
665.842	690
665.895	1986
665.949	1817
666.002	1863
666.055	2132
666.108	3037
666.161	1478
666.214	1799
666.267	1475
666.320	2200
666.373	2423
666.426	1586
666.479	1906
666.532	2097
666.585	2735
666.638	2956
666.691	2212
666.744	2436
666.796	1895
666.849	2364
666.902	2120
666.955	2156
667.008	1623
667.060	1887
667.113	2133
667.166	2206
667.219	1855
667.271	2919
667.324	2262
667.377	2668
667.430	1801
667.482	2401
667.535	2037
667.587	3098
667.640	2383
667.693	2341
667.745	1650
667.798	2983
667.850	1902
667.903	3062
667.955	1746
668.008	2385
668.060	1585
668.113	2660
668.165	1958
668.218	1492
668.270	1924
668.322	2862
668.375	1695
668.427	2429
668.479	1481
668.532	2266
668.584	1705
668.636	1938
668.689	2218
668.741	2316
668.793	1661
668.845	2349
668.898	1395
668.950	1581
669.002	2576
669.054	1655
669.106	1008
669.158	2122
669.211	1554
669.263	1863
669.315	1370
669.367	1624
669.419	967
669.471	2553
669.523	1614
669.575	2186
669.627	1260
669.679	2090
669.731	2295
669.783	2232
669.835	2091
669.886	1508
669.938	1350
669.990	2090
670.042	1378
670.094	2439
670.146	1600
670.197	2453
670.249	1750
670.301	2045
670.353	2760
670.404	3416
670.456	3723
670.508	7949
670.560	9969
670.611	16558
670.663	28953
670.715	73454
670.766	102350
670.818	24783
670.869	5556
670.921	3701
670.972	3728
671.024	3072
671.075	1795
671.127	3354
671.178	2145
671.230	3036
671.281	2895
671.333	3756
671.384	4688
671.436	7280
671.487	11302
671.538	17207
671.590	26585
671.641	45698
671.692	86434
671.744	159172
671.795	94383
671.846	27770
671.897	12971
671.949	7777
672.000	5901
672.051	3758
672.102	3910
672.153	2963
672.204	2243
672.256	2759
672.307	2136
672.358	2084
672.409	1582
672.460	1878
672.511	585
672.562	1010
672.613	649
672.664	1480
672.715	1520
672.766	983
672.817	602
672.868	1238
672.919	314
672.970	1347
673.021	892
673.071	543
673.122	1172
673.173	1236
673.224	762
673.275	825
673.326	540
673.376	1042
673.427	836
673.478	1002
673.528	1344
673.579	687
673.630	1422
673.680	1283
673.731	504
673.782	684
673.832	631
673.883	2077
673.934	143
673.984	1787
674.035	798
674.085	814
674.136	565
674.186	1704
674.237	738
674.287	1455
674.338	660
674.388	1390
674.438	833
674.489	1351
674.539	1288
674.589	1867
674.640	1425
674.690	1806
674.740	1585
674.791	1204
674.841	992
674.891	943
674.942	257
674.992	378
675.042	602
675.092	599
675.142	-156
675.193	418
675.243	365
675.293	917
675.343	447
675.393	979
675.443	269
675.493	1175
675.543	119
675.593	978
675.643	-265
675.693	1171
675.743	883
675.793	1239
675.843	307
675.893	1408
675.943	755
675.993	1561
676.043	502
676.093	551
676.142	46
676.192	1053
676.242	371
676.292	1027
676.341	325
676.391	280
676.441	324
676.491	279
676.540	-109
676.590	987
676.640	-559
676.689	514
676.739	-701
676.789	105
676.838	-788
676.888	695
676.937	-151
676.987	74
677.037	-27
677.086	159
677.136	-545
677.185	-119
677.235	-582
677.284	702
677.333	-401
677.383	220
677.432	-675
677.482	-68
677.531	190
677.580	-403
677.630	530
677.679	512
677.728	-111
677.778	-56
677.827	-897
677.876	129
677.925	-381
677.975	41
678.024	-477
678.073	607
678.122	607
678.171	443
678.220	-436
678.269	1235
678.319	1728
678.368	2124
678.417	-25
678.466	1067
678.515	106
678.564	226
678.613	-75
678.662	-61
678.711	-555
678.760	-171
678.809	675
678.857	197
678.906	-172
678.955	373
679.004	16
679.053	183
679.102	-837
679.151	305
679.199	-881
679.248	-181
679.297	-568
679.346	-319
679.394	-808
679.443	893
679.492	-715
679.540	-412
679.589	245
679.638	280
679.686	371
679.735	1430
679.784	554
679.832	1477
679.881	-389
679.929	259
679.978	-1026
680.026	391
680.075	-352
680.123	250
680.172	-929
680.220	314
680.268	-677
680.317	-765
680.365	326
680.414	-491
680.462	-6
680.510	590
680.559	-427
680.607	-35
680.655	-405
680.703	-96
680.752	-404
680.800	-290
680.848	-855
680.896	833
680.945	-158
680.993	-708
681.041	-424
681.089	543
681.137	-116
681.185	481
681.233	-1075
681.258	-742
681.281	-450
681.329	-509
681.377	475
681.380	461
681.425	-261
681.473	-104
681.502	-164
681.521	-254
681.569	577
681.617	-190
681.624	-18
681.665	902
681.713	151
681.745	585
681.761	764
681.809	-235
681.857	685
681.867	598
681.904	187
681.952	1317
681.989	432
682.000	137
682.048	872
682.096	423
682.111	467
682.143	474
682.191	465
682.233	1124
682.239	1199
682.286	453
682.334	1131
682.354	1061
682.382	908
682.430	943
682.476	609
682.477	581
682.525	768
682.572	408
682.598	772
682.620	1057
682.667	798
682.715	1573
682.720	1543
682.763	1048
682.810	879
682.841	902
682.857	872
682.905	1993
682.952	1464
682.963	1626
683.000	2131
683.047	1223
683.085	2144
683.095	2378
683.142	1520
683.190	1792
683.206	1675
683.237	1408
683.284	2617
683.328	1954
683.332	1874
683.379	1999
683.426	1480
683.449	1732
683.473	2043
683.521	1965
683.568	2725
683.571	2684
683.615	1747
683.662	2635
683.693	1947
683.709	1544
683.757	1961
683.804	1944
683.814	1937
683.851	1867
683.898	2361
683.936	2266
683.945	2243
683.992	2583
684.039	2507
684.057	2720
684.086	2980
684.133	2154
684.179	2306
684.180	2295
684.227	3230
684.274	2877
684.300	2904
684.321	2894
684.368	2116
684.415	3227
684.422	3136
684.462	2653
684.509	2685
684.543	2922
684.556	2961
684.603	3164
684.649	3242
684.665	3378
684.696	3634
684.743	3262
684.786	3784
684.790	3808
684.837	2613
684.883	3670
684.908	3456
684.930	3310
684.977	3732
685.023	3680
685.029	3754
685.070	4087
685.117	3570
685.150	3630
685.164	3643
685.210	3751
685.257	3942
685.272	3933
685.303	3962
685.350	3840
685.393	3685
685.396	3651
685.443	3729
685.490	3881
685.514	3602
685.536	3413
685.583	3389
685.629	4216
685.636	4117
685.675	3496
685.722	4045
685.757	4136
685.768	4113
685.815	3895
685.861	3784
685.878	3663
685.908	3634
685.954	4340
686.000	4704
686.000	4700
686.047	4471
686.093	4463
686.121	4442
686.139	4461
686.185	4858
686.232	4438
686.242	4466
686.278	4434
686.324	4821
686.363	4571
686.370	4558
686.416	3808
686.463	5049
686.484	4876
686.509	4557
686.555	5040
686.601	4939
686.606	4925
686.647	4885
686.693	5061
686.727	5002
686.739	4958
686.785	4332
686.831	5168
686.848	4900
686.877	4438
686.923	4943
686.969	4559
686.969	4557
687.015	5363
687.061	5472
687.090	5950
687.107	6086
687.153	5555
687.199	5343
687.211	5313
687.245	5371
687.291	5448
687.332	5469
687.336	5467
687.382	5404
687.428	5017
687.453	5486
687.474	5854
687.520	5517
687.565	6227
687.574	6013
687.611	5336
687.657	6310
687.695	5932
687.702	5825
687.748	6223
687.794	6004
687.816	5944
687.839	6028
687.885	6291
687.931	6540
687.937	6618
687.976	6774
688.022	6481
688.058	6375
688.067	6379
688.113	6709
688.158	5878
688.179	6029
688.204	6279
688.249	6054
688.295	7141
688.300	7051
688.340	6368
688.386	6650
688.421	6378
688.431	6312
688.477	6633
688.522	6439
688.542	6579
688.567	6936
688.613	7415
688.658	7602
688.663	7602
688.703	7327
688.749	7269
688.784	7447
688.794	7473
688.839	7190
688.884	7127
688.905	6982
688.930	6903
688.975	6702
689.020	6944
689.026	6954
689.065	7237
689.110	7462
689.146	7234
689.155	7149
689.201	7074
689.246	7507
689.267	7411
689.291	7367
689.336	7140
689.381	7456
689.388	7330
689.426	6766
689.471	7574
689.509	7739
689.516	7758
689.561	7660
689.606	7197
689.630	7341
689.651	7594
689.696	7316
689.741	7827
689.750	7864
689.785	7978
689.830	8515
689.871	8055
689.875	7998
689.920	7789
689.965	7565
689.992	7323
690.010	7302
690.054	7682
690.099	8033
690.112	8019
690.144	7845
690.189	7493
690.233	7396
690.233	7410
690.278	7850
690.323	8243
690.354	8356
690.367	8340
690.412	8517
690.457	7922
690.474	7998
690.501	8130
690.546	7792
690.590	7982
690.595	7981
690.635	8258
690.680	7876
690.716	7843
690.724	7918
690.769	8497
690.813	9234
690.836	9430
690.857	9872
690.902	10991
690.946	11655
690.957	11913
690.991	13968
691.035	16692
691.077	19537
691.080	19482
691.124	16742
691.168	14173
691.198	12189
691.213	11594
691.257	10958
691.301	9677
691.318	9318
691.346	9446
691.390	8757
691.434	8852
691.439	8789
691.478	8506
691.522	9208
691.559	8703
691.567	8651
691.611	9319
691.655	8968
691.680	9118
691.699	9230
691.743	9429
691.787	9372
691.800	9204
691.831	8883
691.875	9458
691.919	9244
691.921	9228
691.964	9337
692.008	9404
692.041	9515
692.052	9590
692.096	9567
692.139	9866
692.162	9763
692.183	9553
692.227	9588
692.271	8931
692.282	8970
692.315	9407
692.359	9351
692.402	9892
692.403	9916
692.447	9747
692.490	10172
692.523	9715
692.534	9524
692.578	9752
692.622	9310
692.643	9473
692.666	9833
692.709	9669
692.753	10122
692.763	10105
692.797	10100
692.840	10094
692.884	9917
692.884	9938
692.928	10100
692.971	9824
693.004	9855
693.015	9973
693.059	9812
693.102	10170
693.124	9987
693.146	9933
693.189	10553
693.233	10570
693.245	10666
693.276	10677
693.320	10501
693.363	10317
693.365	10276
693.407	10428
693.450	11139
693.485	11408
693.493	11551
693.537	12534
693.580	12703
693.605	13214
693.624	14170
693.667	16039
693.710	18172
693.725	18765
693.753	22510
693.797	28942
693.840	35137
693.845	35752
693.883	30336
693.926	23823
693.966	18206
693.970	17986
694.013	15453
694.056	13062
694.086	11124
694.099	11064
694.142	11272
694.185	11080
694.206	11081
694.229	11194
694.272	10970
694.315	11230
694.326	11166
694.358	11132
694.401	11371
694.444	11518
694.446	11498
694.487	11256
694.530	10689
694.566	10629
694.573	10759
694.616	10866
694.659	11340
694.686	11511
694.702	11455
694.745	11354
694.787	11141
694.806	11096
694.830	11202
694.873	11014
694.916	10909
694.926	10874
694.959	11237
695.002	11906
695.044	12247
695.046	12237
695.087	12487
695.130	12622
695.166	12681
695.172	12694
695.215	12643
695.258	12697
695.286	12551
695.301	12662
695.343	13194
695.386	13409
695.406	13496
695.428	13751
695.471	14314
695.514	14956
695.526	15049
695.556	15785
695.599	17104
695.641	17819
695.646	17910
695.684	17029
695.726	15834
695.766	14549
695.769	14583
695.811	14539
695.854	14785
695.886	14729
695.896	14780
695.938	14793
695.981	14956
696.005	15020
696.023	15462
696.065	16424
696.108	17557
696.125	17801
696.150	17880
696.192	18291
696.235	18556
696.245	18627
696.277	18798
696.319	18727
696.361	18662
696.365	18606
696.404	18693
696.446	18930
696.485	18949
696.488	18984
696.530	18905
696.572	18686
696.604	18552
696.614	18533
696.656	18190
696.698	17929
696.724	17623
696.740	17696
696.783	17756
696.825	18018
696.844	18107
696.867	18191
696.909	18069
696.951	17928
696.964	17860
696.992	18310
697.034	18955
697.076	19506
697.083	19556
697.118	19685
697.160	19824
697.202	19883
697.203	19833
697.244	19832
697.286	19810
697.323	19699
697.327	19738
697.369	19732
697.411	19577
697.442	19550
697.453	19740
697.494	20054
697.536	20536
697.562	20775
697.578	20650
697.620	20199
697.661	19659
697.682	19409
697.703	20025
697.744	20940
697.786	22132
697.801	22424
697.828	22419
697.869	22316
697.911	22308
697.921	22254
697.952	21975
697.994	21419
698.035	20982
698.040	20860
698.077	20962
698.118	21124
698.160	21184
698.160	21127
698.201	21911
698.243	22564
698.279	23142
698.284	23252
698.325	23694
698.367	24126
698.399	24366
698.408	24463
698.449	24667
698.491	24816
698.518	24872
698.532	24992
698.573	25139
698.614	25309
698.638	25324
698.656	25385
698.697	25397
698.738	25380
698.757	25311
698.779	25393
698.820	25418
698.862	25445
698.877	25388
698.903	25486
698.944	25536
698.985	25582
698.996	25529
699.026	25384
699.067	25091
699.116	24677
699.235	24357
699.354	24425
699.474	22634
699.593	23177
699.713	23525
699.832	23815
699.951	25500
700.070	24617
700.190	22571
700.309	22098
700.428	21910
700.547	21194
700.667	21927
700.786	21770
700.905	20116
701.024	19965
701.143	20408
701.262	21130
701.381	23259
701.500	22350
701.619	22485
701.738	21582
701.857	21304
701.976	19536
702.095	20790
702.214	21898
702.333	21187
702.452	21411
702.571	22008
702.690	21526
702.809	21309
702.928	20016
703.047	19726
703.165	19487
703.284	19138
703.403	19212
703.522	18265
703.640	19226
703.759	18375
703.878	17806
703.997	18733
704.115	17958
704.234	18566
704.353	18381
704.471	16441
704.590	17425
704.708	16903
704.827	18172
704.946	16802
705.064	18245
705.183	17233
705.301	17769
705.420	16857
705.538	17252
705.656	15417
705.775	16392
705.893	16609
706.012	16568
706.130	15903
706.249	17382
706.367	15506
706.485	15279
706.604	14354
706.722	14993
706.840	16049
706.958	16120
707.077	15654
707.195	15147
707.313	14629
707.431	14305
707.549	14256
707.668	13566
707.786	15224
707.904	14355
708.022	14887
708.140	13781
708.258	14747
708.376	15007
708.494	13284
708.612	15015
708.730	14640
708.848	13653
708.966	14175
709.084	15114
709.202	13693
709.320	12823
709.438	13495
709.556	13698
709.674	12634
709.791	12726
709.909	12320
710.027	12477
710.145	12610
710.263	12807
710.380	13098
710.498	12155
710.616	12922
710.733	11133
710.851	12341
710.969	12104
711.086	11666
711.204	12036
711.322	11964
711.439	11405
711.557	11333
711.674	11148
711.792	11551
711.909	11572
712.027	10768
712.144	11107
712.262	12082
712.379	11009
712.497	11897
712.614	11053
712.732	12061
712.849	11051
712.966	11010
713.084	11265
713.201	10248
713.318	11491
713.436	11889
713.553	10474
713.670	11734
713.787	11481
713.905	10367
714.022	11659
714.139	11068
714.256	13682
714.373	19241
714.490	34117
714.608	96027
714.725	369304
714.842	219383
714.959	22979
715.076	14039
715.193	12509
715.310	11431
715.427	9982
715.544	10582
715.661	10490
715.778	10426
715.895	9689
716.011	10235
716.128	9194
716.245	9458
716.362	9810
716.479	8808
716.596	9615
716.713	9062
716.829	8811
716.946	9139
717.063	9711
717.180	8402
717.296	9077
717.413	8945
717.530	8496
717.646	7368
717.763	8836
717.880	8311
717.996	8071
718.113	7908
718.229	8289
718.346	7291
718.462	8001
718.579	8198
718.695	8390
718.812	8836
718.928	8417
719.045	7497
719.161	7861
719.277	8525
719.394	8715
719.510	9459
719.626	8263
719.743	11194
719.859	16500
719.975	35769
720.092	144034
720.208	201274
720.324	20965
720.440	11618
720.557	8551
720.673	8721
720.789	7648
720.905	8365
721.021	8665
721.137	7896
721.253	7705
721.369	7532
721.486	6897
721.602	7114
721.718	7617
721.834	7133
721.950	7280
722.066	6903
722.181	6614
722.297	6642
722.413	7437
722.529	7483
722.645	6910
722.761	6683
722.877	6444
722.993	6607
723.108	8243
723.224	7379
723.340	6344
723.456	6277
723.571	6114
723.687	6185
723.803	6782
723.918	6578
724.034	5937
724.150	6438
724.265	6763
724.381	6215
724.497	6088
724.612	6557
724.728	6497
724.843	6189
724.959	6008
725.074	6400
725.190	5936
725.305	5999
725.421	5305
725.536	6324
725.651	6890
725.767	6290
725.882	7021
725.997	6211
726.113	6147
726.228	5646
726.343	6985
726.459	5961
726.574	5498
726.689	6471
726.804	5697
726.920	5993
727.035	5600
727.150	6435
727.265	5444
727.380	6530
727.495	5973
727.610	6154
727.725	4779
727.841	6284
727.956	5953
728.071	6725
728.186	5409
728.301	4826
728.416	5611
728.531	5990
728.645	5149
728.760	5748
728.875	4910
728.990	5281
729.105	4994
729.220	6057
729.335	5032
729.449	5624
729.564	6103
729.679	5245
729.794	5833
729.908	5967
730.023	5284
730.138	6759
730.253	5193
730.367	5364
730.482	6005
730.596	5623
730.711	6507
730.826	9024
730.940	7002
731.055	7214
731.169	6811
731.284	7188
731.398	6678
731.513	7727
731.627	7966
731.742	10702
731.856	11617
731.970	11063
732.085	12398
732.199	17630
732.313	27875
732.428	75809
732.542	207745
732.656	82281
732.771	19498
732.885	14803
732.999	15094
733.113	16387
733.227	15693
733.342	16418
733.456	14803
733.570	15430
733.684	13799
733.798	12999
733.912	13552
734.026	14737
734.140	12794
734.254	13691
734.368	14346
734.482	13752
734.596	12986
734.710	12970
734.824	12674
734.938	12352
735.052	12763
735.166	12933
735.280	12817
735.393	12705
735.507	13153
735.621	12664
735.735	12002
735.849	12619
735.962	11370
736.076	12352
736.190	11061
736.303	12239
736.417	11248
736.531	11579
736.644	11509
736.758	10872
736.872	10699
736.985	11167
737.099	10923
737.212	10915
737.326	10420
737.439	12335
737.553	9375
737.666	11070
737.780	9837
737.893	10947
738.007	10142
738.120	10870
738.233	9091
738.347	10311
738.460	9928
738.573	11217
738.687	9702
738.800	9266
738.913	10390
739.026	10895
739.140	9062
739.253	10195
739.366	8918
739.479	8921
739.592	9529
739.705	8419
739.818	10335
739.932	8833
740.045	9480
740.158	9745
740.271	10834
740.384	8707
740.497	8054
740.610	9040
740.723	7730
740.836	7726
740.949	8984
741.062	9515
741.174	8129
741.287	9327
741.400	8919
741.513	8164
741.626	8962
741.739	7662
741.851	8005
741.964	9630
742.077	7632
742.189	8526
742.302	9278
742.415	8215
742.527	8001
742.640	7271
742.753	7269
742.865	7940
742.978	7723
743.090	7619
743.203	8483
743.316	7093
743.428	6982
743.541	7864
743.653	7037
743.766	8194
743.878	7338
743.990	7064
744.103	9491
744.215	8754
744.327	6615
744.440	8823
744.552	6870
744.664	7108
744.777	8066
744.889	6820
745.001	6771
745.113	7600
745.226	6796
745.338	5956
745.450	7576
745.562	6823
745.674	6391
745.786	6845
745.898	6975
746.010	6714
746.122	6982
746.234	7347
746.347	6280
746.459	6770
746.570	6057
746.682	8789
746.794	9829
746.906	5697
747.018	6038
747.130	7064
747.242	5987
747.354	6489
747.466	7535
747.577	5653
747.689	7494
747.801	5476
747.913	5902
748.024	5676
748.136	6849
748.248	5112
748.359	6108
748.471	6556
748.583	5295
748.694	5701
748.806	6972
748.918	6879
749.029	5194
749.141	5988
749.252	6567
749.364	4641
749.475	4953
749.587	4756
749.698	4748
749.809	6666
749.921	5853
750.032	5593
750.144	4447
750.255	5090
750.366	5307
750.478	5081
750.589	4773
750.700	4459
750.811	6012
750.923	5972
751.034	4165
751.145	6222
751.256	5246
751.367	4935
751.479	5677
751.590	5101
751.701	5122
751.812	4238
751.923	5097
752.034	5706
752.145	5141
752.256	5696
752.367	5441
752.478	4120
752.589	5089
752.700	4918
752.811	4956
752.922	5801
753.032	4751
753.143	5157
753.254	4127
753.365	5398
753.476	5792
753.586	5053
753.697	4734
753.808	5101
753.919	4197
754.029	4710
754.140	5265
754.251	4530
754.361	4366
754.472	5869
754.582	4665
754.693	5278
754.804	6165
754.914	4052
755.025	3611
755.135	4266
755.246	4458
755.356	3973
755.466	4581
755.577	4534
755.687	4662
755.798	3592
755.908	4445
756.018	4705
756.129	4820
756.239	4310
756.349	5080
756.460	4237
756.570	5042
756.680	4846
756.790	3774
756.900	5035
757.011	3963
757.121	4655
757.231	4104
757.341	4780
757.451	3753
757.561	3890
757.671	4890
757.781	4005
757.891	5027
758.001	4163
758.111	4831
758.221	5010
758.331	4299
758.441	3950
758.551	3982
758.661	5034
758.771	4917
758.880	4568
758.990	4434
759.100	4153
759.210	4145
759.320	4938
759.429	4709
759.539	6014
759.649	4551
759.758	6152
759.868	6044
759.978	5215
760.087	6132
760.197	6223
760.307	5079
760.416	5102
760.526	4916
760.635	5622
760.745	6182
760.854	5772
760.964	6278
761.073	6608
761.182	6781
761.292	4947
761.401	5064
761.511	4327
761.620	4491
761.729	4759
761.839	4106
761.948	5426
762.057	4735
762.166	4790
762.276	3444
762.385	5693
762.494	4512
762.603	4196
762.712	4496
762.822	5009
762.931	4615
763.040	5072
763.149	4728
763.258	4527
763.367	4960
763.476	5587
763.585	5421
763.694	5226
763.803	5486
763.912	5687
764.021	6208
764.130	5728
764.238	6847
764.347	6730
764.456	6370
764.565	6791
764.674	6656
764.783	8111
764.891	7188
765.000	9937
765.109	10007
765.217	10148
765.326	12513
765.435	14857
765.543	17865
765.652	20901
765.761	26502
765.869	39734
765.978	59190
766.086	98375
766.195	178165
766.303	341247
766.412	426620
766.520	351533
766.629	251696
766.737	128695
766.846	76098
766.954	50937
767.062	37326
767.171	28404
767.279	22761
767.387	18620
767.496	17048
767.604	14171
767.712	12764
767.820	11799
767.928	10423
768.037	9299
768.145	9747
768.253	9380
768.361	9181
768.469	8218
768.577	8673
768.685	10638
768.793	10143
768.901	10907
769.009	12777
769.117	14224
769.225	17333
769.333	26320
769.441	39829
769.549	72169
769.657	150218
769.765	329489
769.873	340006
769.981	231735
770.088	103254
770.196	53830
770.304	34958
770.412	24912
770.519	18950
770.627	17064
770.735	13654
770.842	12282
770.950	10391
771.058	9926
771.165	11921
771.273	10793
771.380	10635
771.488	12760
771.595	13258
771.703	11620
771.810	9579
771.918	10953
772.025	11358
772.133	13847
772.240	11765
772.348	15146
772.455	13973
772.562	11531
772.670	11161
772.777	12415
772.884	12166
772.991	10447
773.099	11574
773.206	10413
773.313	10817
773.420	11263
773.528	9991
773.635	9863
773.742	10841
773.849	10310
773.956	11213
774.063	10334
774.170	9373
774.277	9958
774.384	9414
774.491	9965
774.598	9942
774.705	9515
774.812	9150
774.919	9991
775.026	8111
775.133	9001
775.239	9203
775.346	9677
775.453	9515
775.560	8518
775.667	8564
775.773	8154
775.880	8956
775.987	8295
776.093	9722
776.200	9144
776.307	6916
776.413	7946
776.520	9099
776.627	8024
776.733	6480
776.840	6929
776.946	11918
777.053	11308
777.159	11725
777.266	8376
777.372	10948
777.478	11070
777.585	9192
777.691	7263
777.798	8674
777.904	7286
778.010	6357
778.117	8520
778.223	7152
778.329	6862
778.435	6086
778.542	7863
778.648	6697
778.754	6443
778.860	6057
778.966	7227
779.072	6318
779.178	7683
779.284	5674
779.391	6579
779.497	6522
779.603	8359
779.708	5620
779.815	8992
779.920	17786
780.026	25512
780.132	7682
780.238	5905
780.344	6180
780.450	8713
780.556	4630
780.661	5426
780.767	6022
780.873	4516
780.979	5719
781.085	6418
781.190	5426
781.296	4789
781.402	6713
781.507	5991
781.613	4143
781.719	5396
781.824	6595
781.930	5994
782.035	5165
782.141	6503
782.246	3991
782.352	4547
782.457	4798
782.563	5746
782.668	5162
782.773	4018
782.879	4263
782.984	5451
783.090	4131
783.195	5673
783.300	5485
783.405	3781
783.511	3642
783.616	4615
783.721	4619
783.826	4410
783.932	3606
784.037	5034
784.142	4794
784.247	3766
784.352	4335
784.457	3697
784.562	4093
784.667	5049
784.772	4239
784.877	3194
784.982	5081
785.087	4651
785.192	4365
785.297	4520
785.402	4679
785.507	4385
785.611	4002
785.716	3999
785.821	4227
785.926	4131
786.031	4422
786.135	4457
786.240	3917
786.345	2404
786.450	4252
786.554	4339
786.659	3033
786.763	3658
786.868	4259
786.973	4713
787.077	3226
787.182	3508
787.286	4038
787.391	4841
787.495	3089
787.600	3668
787.704	3346
787.809	4155
787.913	3234
788.017	4433
788.122	4440
788.226	3688
788.330	2515
788.435	3519
788.539	3586
788.643	2789
788.747	3147
788.852	2869
788.956	3289
789.060	4573
789.164	3254
789.268	3215
789.372	4696
789.476	2960
789.580	2233
789.684	1766
789.788	4377
789.892	3319
789.996	2819
790.100	2417
790.204	3050
790.308	3384
790.412	2047
790.516	1791
790.620	2848
790.724	4374
790.828	3368
790.931	1971
791.035	3366
791.139	2222
791.242	2178
791.346	3579
791.450	3373
791.554	2813
791.657	905
791.761	5035
791.864	3756
791.968	3697
792.072	3437
792.175	1943
792.279	2239
792.382	2975
792.486	1431
792.589	2172
792.693	3258
792.796	1544
792.899	3222
793.003	3024
793.106	1607
793.209	2548
793.313	3532
793.416	545
793.519	3113
793.623	4158
793.726	2729
793.829	1786
793.932	2544
794.035	1541
794.138	3215
794.242	3415
794.345	1922
794.448	1506
794.551	2588
794.654	8681
794.757	13548
794.860	3254
794.963	2287
795.066	1186
795.169	3704
795.272	1205
795.375	3127
795.477	1271
795.580	2640
795.683	1481
795.786	2687
795.889	945
795.991	3504
796.094	2924
796.197	932
796.300	2945
796.402	2321
796.505	1322
796.608	1637
796.710	2368
796.813	3261
796.915	2504
797.018	2662
797.120	2571
797.223	1276
797.326	3345
797.428	1710
797.530	1473
797.633	1941
797.735	2716
797.838	2067
797.940	3261
798.042	1390
798.145	998
798.247	2607
798.349	808
798.452	2879
798.554	2810
798.656	2009
798.758	3139
798.860	1916
798.962	1310
799.065	1547
799.167	1436
799.269	2510
799.371	2155
799.473	3336
799.575	1278
799.677	927
799.779	2808
799.881	-318
799.983	2999
800.085	2230
800.187	2737
800.289	618
800.390	1890
800.492	2706
800.594	2273
800.696	933
800.798	2946
800.899	1345
801.001	1795
801.103	934
801.205	1502
801.306	1436
801.408	1239
801.509	1494
801.611	2197
801.713	1742
801.814	579
801.916	882
802.017	861
802.119	1148
802.220	2133
802.322	-410
802.423	3078
802.525	157
802.626	1577
802.727	2265
802.829	2648
802.930	-637
803.031	2973
803.133	1482
803.234	1657
803.335	2176
803.436	558
803.538	1833
803.639	388
803.740	2258
803.841	1488
803.942	2237
804.043	2162
804.144	747
804.245	1624
804.346	1473
804.447	1230
804.548	1203
804.649	2013
804.750	766
804.851	1868
804.952	887
805.053	1494
805.154	382
805.255	2793
805.355	1584
805.456	1451
805.557	737
805.658	503
805.758	1046
805.859	845
805.960	1468
806.061	572
806.161	1357
806.262	851
806.362	1239
806.463	902
806.564	2135
806.664	1488
806.765	1213
806.865	1551
806.966	432
807.066	598
807.166	2020
807.267	1763
807.367	720
807.468	1301
807.568	-276
807.668	2174
807.769	1616
807.869	1318
807.969	1071
808.069	1129
808.170	1191
808.270	85
808.370	1596
808.470	2048
808.570	341
808.670	1006
808.770	1182
808.870	1096
808.970	1587
809.070	1377
809.170	538
809.271	1556
809.370	1857
809.470	1162
809.570	260
809.670	736
809.770	1179
809.870	1657
809.970	911
810.070	1739
810.169	953
810.269	-718
810.369	1569
810.469	1691
810.568	711
810.668	270
810.768	340
810.867	1245
810.967	780
811.066	722
811.166	581
811.265	1898
811.365	874
811.464	990
811.564	1394
811.663	819
811.763	-410
811.862	1406
811.962	1997
812.061	1008
812.160	1091
812.260	1143
812.359	1268
812.458	284
812.557	2224
812.657	767
812.756	1493
812.855	1396
812.954	141
813.053	1643
813.153	670
813.252	553
813.351	1082
813.450	1557
813.549	760
813.648	1550
813.747	158
813.846	1850
813.945	1038
814.044	1363
814.143	1674
814.242	1707
814.341	631
814.439	2087
814.538	1130
814.637	1036
814.736	1715
814.835	2830
814.933	677
815.032	2561
815.131	2418
815.229	6619
815.328	8812
815.427	6377
815.525	5663
815.624	4892
815.722	5077
815.821	6059
815.919	4977
816.018	6079
816.116	5880
816.215	6166
816.313	6210
816.412	7654
816.510	6860
816.609	9026
816.707	8583
816.805	6896
816.904	7150
817.002	7521
817.100	7765
817.198	8385
817.296	5818
817.395	7299
817.493	7357
817.591	6574
817.689	7134
817.787	6185
817.885	6360
817.983	5791
818.081	7689
818.179	8211
818.277	12849
818.375	9780
818.473	6729
818.571	6657
818.669	6736
818.767	7865
818.865	6035
818.963	6021
819.061	6490
819.158	6661
819.256	9817
819.354	9378
819.452	16957
819.549	8505
819.647	7862
819.745	6695
819.842	5723
819.940	6413
820.038	5562
820.135	4132
820.233	7002
820.330	4270
820.428	4296
820.525	6722
820.623	4692
820.720	4439
820.818	5674
820.915	5891
821.012	6270
821.110	4528
821.207	5541
821.304	5045
821.402	6000
821.499	7145
821.596	6158
821.693	5673
821.791	5602
821.888	4629
821.985	6356
822.082	4206
822.179	5367
822.276	5596
822.373	4855
822.470	4501
822.567	4466
822.664	4511
822.761	5592
822.858	4510
822.955	4406
823.052	4024
823.149	4415
823.246	4803
823.343	3106
823.440	4590
823.536	5258
823.633	4903
823.730	3659
823.827	4742
823.923	4955
824.020	4914
824.117	5579
824.213	4157
824.310	3838
824.407	3709
824.503	4959
824.600	4565
824.696	3700
824.793	5239
824.889	5151
824.986	3283
825.082	3345
825.179	3945
825.275	4853
825.371	4200
825.468	3464
825.564	2500
825.660	4027
825.757	5846
825.853	3219
825.949	3011
826.045	3364
826.142	3550
826.238	3005
826.334	4097
826.430	3238
826.526	3345
826.622	1786
826.718	4742
826.814	4091
826.910	3881
827.006	1372
827.102	2082
827.198	3850
827.294	3729
827.390	4180
827.486	3312
827.582	1521
827.678	2126
827.774	5355
827.869	1939
827.965	3303
828.061	2545
828.157	4118
828.252	3164
828.348	1722
828.444	3320
828.539	1662
828.635	3819
828.731	3549
828.826	2255
828.922	3066
829.017	4372
829.113	3276
829.208	2276
829.304	2175
829.399	4592
829.495	2308
829.590	2537
829.685	2372
829.781	3681
829.876	2997
829.971	1521
830.066	1713
830.162	2843
830.257	4243
830.352	2630
830.447	3107
830.543	2427
830.638	1416
830.733	3456
830.828	1789
830.923	2698
831.018	2345
831.113	3214
831.208	1197
831.303	2083
831.398	2167
831.493	2313
831.588	4690
831.683	1599
831.778	1202
831.873	1884
831.967	3006
832.062	2806
832.157	978
832.252	2539
832.346	1662
832.441	2060
832.536	2532
832.631	2503
832.725	1712
832.820	2124
832.914	1794
833.009	2015
833.104	1633
833.198	1848
833.293	1553
833.387	2839
833.482	1755
833.576	2303
833.670	2115
833.765	2409
833.859	3021
833.954	2831
834.048	2233
834.142	1841
834.237	684
834.331	1826
834.425	2822
834.519	1215
834.613	1581
834.708	1560
834.802	1806
834.896	2239
834.990	1437
835.084	1762
835.178	915
835.272	2339
835.366	2760
835.460	2613
835.554	1831
835.648	945
835.742	-72
835.836	1499
835.930	752
836.024	3253
836.117	2468
836.211	1637
836.305	1831
836.399	1680
836.493	559
836.586	2928
836.680	1161
836.774	1129
836.867	1955
836.961	1699
837.055	617
837.148	569
837.242	1376
837.335	1599
837.429	1176
837.522	1091
837.616	1138
837.709	1406
837.803	1763
837.896	2661
837.989	1585
838.083	1974
838.176	837
838.269	1262
838.363	1924
838.456	991
838.549	2028
838.642	812
838.735	1507
838.829	2587
838.922	655
839.015	1233
839.108	582
839.201	1783
839.294	1511
839.387	1723
839.480	-127
839.573	1144
839.666	931
839.759	749
839.852	1872
839.945	1684
840.038	95
840.131	-66
840.223	992
840.316	1692
840.409	1792
840.502	1365
840.594	2500
840.687	809
840.780	296
840.873	468
840.965	509
841.058	1171
841.150	1889
841.243	151
841.336	1038
841.428	742
841.521	540
841.613	840
841.706	416
841.798	1297
841.890	762
841.983	288
842.075	1116
842.167	1169
842.260	1260
842.352	2138
842.444	1230
842.537	220
842.629	758
842.721	492
842.813	1253
842.905	483
842.997	630
843.090	362
843.182	585
843.274	-85
843.366	1249
843.458	1132
843.550	1949
843.642	937
843.734	1412
843.826	814
843.918	350
844.009	1307
844.101	491
844.193	962
844.285	1388
844.377	1159
844.469	1919
844.560	497
844.652	366
844.744	977
844.835	811
844.927	1492
845.019	976
845.110	1604
845.202	1222
845.293	530
845.385	59
845.476	650
845.568	1478
845.659	907
845.751	700
845.842	596
845.934	609
846.025	536
846.116	1201
846.208	939
846.299	-125
846.390	487
846.482	911
846.573	1352
846.664	1145
846.755	651
846.846	986
846.937	-827
847.029	713
847.120	546
847.211	504
847.302	1451
847.393	77
847.484	597
847.575	-512
847.666	-321
847.757	294
847.847	279
847.938	788
848.029	1517
848.120	1037
848.211	1353
848.302	-529
848.392	53
848.483	328
848.574	754
848.664	726
848.755	585
848.846	2
848.936	229
849.027	774
849.118	-95
849.208	705
849.299	1677
849.389	3721
849.480	7212
849.570	10921
849.661	24897
849.751	28765
849.841	6354
849.932	1917
850.022	522
850.112	914
850.203	494
850.293	1156
850.383	399
850.474	801
850.564	88
850.654	319
850.744	250
850.834	422
850.924	1256
851.014	705
851.104	610
851.194	750
851.284	1010
851.374	544
851.464	-514
851.554	414
851.644	763
851.734	1099
851.824	-120
851.914	494
852.004	488
852.094	-586
852.183	42
852.273	650
852.363	244
852.452	349
852.542	953
852.632	-296
852.721	710
852.811	110
852.901	1342
852.990	1053
853.080	1581
853.169	888
853.259	804
853.348	500
853.438	1173
853.527	1596
853.617	3978
853.706	7333
853.795	13435
853.885	29005
853.974	49540
854.063	93840
854.152	99885
854.242	27018
854.331	5931
854.420	3113
854.509	3158
854.598	2028
854.687	1820
854.777	1879
854.866	763
854.955	1039
855.044	-58
855.133	776
855.222	430
855.311	31
855.400	734
855.488	964
855.577	313
855.666	282
855.755	1304
855.844	815
855.933	594
856.021	935
856.110	521
856.199	290
856.288	670
856.376	-38
856.465	-129
856.554	-239
856.642	264
856.731	451
856.819	272
856.908	721
856.996	-228
857.085	109
857.173	254
857.262	-369
857.350	865
857.438	96
857.527	283
857.615	-802
857.703	865
857.792	-146
857.880	357
857.968	275
858.056	237
858.145	798
858.233	228
858.321	-133
858.409	1382
858.497	-43
858.585	-145
858.673	-252
858.761	-262
858.849	-607
858.937	-616
859.025	471
859.113	496
859.201	141
859.289	1421
859.377	700
859.465	749
859.552	295
859.640	-106
859.728	177
859.816	266
859.903	158
859.991	116
860.079	1065
860.166	440
860.254	304
860.342	1189
860.429	-173
860.517	-245
860.604	-4
860.692	988
860.779	-580
860.867	-93
860.954	-247
861.042	1266
861.129	341
861.216	1045
861.304	358
861.391	725
861.478	262
861.565	459
861.653	822
861.740	-544
861.827	300
861.914	1122
862.001	-1
862.089	665
862.176	960
862.263	215
862.350	613
862.437	-156
862.524	-583
862.611	474
862.698	657
862.785	1156
862.871	1801
862.958	915
863.045	672
863.132	725
863.219	310
863.306	-505
863.392	497
863.479	-580
863.566	-503
863.652	689
863.739	579
863.826	1683
863.912	1271
863.999	292
864.086	584
864.172	1089
864.259	894
864.345	1673
864.432	1594
864.518	1570
864.604	1357
864.691	1804
864.777	1457
864.863	2331
864.950	3606
865.036	5399
865.122	9125
865.209	9946
865.295	7000
865.381	6945
865.467	6392
865.553	7431
865.639	9211
865.726	12241
865.812	20574
865.898	31224
865.984	42853
866.070	79143
866.156	56302
866.242	16138
866.328	9245
866.414	6813
866.499	7194
866.585	6077
866.671	4327
866.757	6699
866.843	6148
866.928	5695
867.014	4754
867.100	5683
867.186	4867
867.271	5857
867.357	6174
867.442	4700
867.528	5058
867.614	5608
867.699	5321
867.785	5996
867.870	5816
867.956	6150
868.041	6090
868.127	5460
868.212	4900
868.297	5194
868.383	4676
868.468	4957
868.553	5366
868.639	5088
868.724	4595
868.809	5165
868.894	4653
868.979	4600
869.065	4814
869.150	3908
869.235	4167
869.320	5102
869.405	4309
869.490	5635
869.575	5257
869.660	3603
869.745	5194
869.830	5200
869.915	4230
870.000	3941
870.085	4220
870.169	5789
870.254	6062
870.339	3418
870.424	3046
870.509	4393
870.593	5072
870.678	4224
870.763	4707
870.847	3778
870.932	4495
871.016	5018
871.101	3289
871.186	4095
871.270	5483
871.355	2521
871.439	4007
871.523	4159
871.608	3117
871.692	3618
871.777	5903
871.861	5008
871.945	4612
872.030	4390
872.114	3125
872.198	3441
872.282	2603
872.367	3362
872.451	2382
872.535	4679
872.619	3050
872.703	2907
872.787	4029
872.871	3726
872.955	2477
873.039	2419
873.123	4003
873.207	3829
873.291	2378
873.375	2635
873.459	4784
873.543	3432
873.627	2876
873.711	2996
873.794	3944
873.878	3864
873.962	2199
874.045	2748
874.129	3001
874.137	3054
874.213	3590
874.245	3196
874.296	2564
874.352	1984
874.380	1696
874.460	2640
874.464	2679
874.547	2772
874.568	2992
874.631	3629
874.676	3559
874.714	3504
874.784	3431
874.798	3417
874.881	3078
874.892	2850
874.965	1324
874.999	2270
875.048	3523
875.107	3106
875.131	2952
875.215	2092
875.215	2092
875.298	2500
875.323	2773
875.381	3454
875.430	3606
875.465	3662
875.538	2740
875.548	2621
875.631	2489
875.646	2417
875.714	2033
875.753	1758
875.798	1535
875.861	3098
875.881	3530
875.964	2266
875.968	2265
876.047	2392
876.076	2363
876.130	2316
876.183	2768
876.213	3035
876.291	2788
876.296	2761
876.379	2444
876.398	2290
876.462	1776
876.506	1764
876.545	1821
876.613	1610
876.628	1566
876.711	3076
876.721	3155
876.794	3686
876.828	3170
876.877	2324
876.935	1754
876.960	1622
877.043	1319
877.043	1323
877.125	2219
877.150	2504
877.208	3246
877.258	2513
877.291	2008
877.365	1577
877.374	1509
877.456	2127
877.472	1921
877.539	1283
877.579	1897
877.622	2457
877.687	2447
877.704	2465
877.787	2151
877.794	2195
877.869	2678
877.901	2799
877.952	2839
878.008	2242
878.034	1991
878.115	1675
878.117	1674
878.199	1627
878.222	1762
878.282	1969
878.329	2570
878.364	3040
878.437	2528
878.447	2413
878.529	1248
878.544	1208
878.611	1291
878.651	1786
878.694	2459
878.758	2546
878.776	2506
878.858	2175
878.865	2214
878.941	2496
878.972	1944
879.023	1125
879.078	1711
879.105	2044
879.185	2089
879.187	2094
879.269	2546
879.292	2491
879.351	1980
879.399	1683
879.433	1523
879.506	1764
879.516	1819
879.598	2210
879.613	2083
879.680	1577
879.720	1907
879.762	2071
879.827	1667
879.844	1636
879.926	1749
879.933	1840
880.007	2590
880.040	2381
880.089	1998
880.147	2446
880.171	2792
880.253	3936
880.254	3941
880.335	5080
880.360	5620
880.417	8107
880.467	11225
880.499	13082
880.574	14204
880.580	13737
880.662	6035
880.680	4648
880.744	2690
880.787	1867
880.825	1703
880.893	1517
880.907	1452
880.989	1450
881.000	1482
881.070	1836
881.106	1732
881.152	1795
881.213	1884
881.233	1727
881.315	1233
881.319	1212
881.396	1933
881.426	2300
881.478	2351
881.532	2257
881.559	2278
881.639	1600
881.641	1579
881.722	1291
881.745	1358
881.803	2220
881.852	2300
881.885	1929
881.958	1682
881.966	1673
882.047	1524
882.064	1441
882.129	1425
882.171	1331
882.210	1067
882.277	906
882.291	981
882.372	1601
882.383	1731
882.454	2648
882.489	2712
882.535	2317
882.596	1996
882.616	2035
882.697	2021
882.702	2003
882.778	1087
882.808	824
882.859	905
882.914	1286
882.940	1383
883.020	1930
883.021	1936
883.102	1718
883.127	1858
883.183	2554
883.233	2594
883.264	2161
883.339	1285
883.345	1253
883.426	832
883.445	821
883.507	1059
883.551	1316
883.587	1650
883.657	2029
883.668	2087
883.749	2666
883.763	2583
883.830	1170
883.869	950
883.910	1277
883.975	1464
883.991	1502
884.072	1879
884.081	1897
884.152	2176
884.187	2303
884.233	2371
884.292	2149
884.314	1985
884.394	1541
884.398	1527
884.475	1241
884.504	1109
884.555	1085
884.610	1128
884.636	1380
884.716	2099
884.716	2106
884.797	2689
884.821	2738
884.877	2183
884.927	1605
884.958	1475
885.033	1813
885.038	1803
885.118	850
885.139	754
885.199	1123
885.244	1378
885.279	1524
885.350	1912
885.359	2053
885.439	2870
885.456	3028
885.520	2332
885.561	1980
885.600	1578
885.667	901
885.680	1026
885.760	1655
885.773	1716
885.840	1351
885.878	1399
885.920	1400
885.984	1201
886.000	1287
886.080	1757
886.089	1793
886.160	1405
886.195	1142
886.240	1131
886.300	1350
886.320	1479
886.400	1892
886.406	1902
886.480	1617
886.511	1588
886.560	1811
886.616	2025
886.640	1879
886.720	1449
886.722	1432
886.800	1168
886.827	1128
886.879	1414
886.932	1729
886.959	2149
887.038	3000
887.039	2995
887.119	2174
887.143	1855
887.198	1132
887.248	656
887.278	1104
887.354	1948
887.358	1941
887.437	1821
887.459	1827
887.517	2604
887.564	3097
887.596	2492
887.669	1059
887.676	1043
887.755	927
887.774	890
887.835	1020
887.880	1245
887.914	1477
887.985	1742
887.994	1821
888.073	2681
888.090	2806
888.153	2931
888.195	2959
888.232	2198
888.300	1024
888.311	1092
888.391	1441
888.405	1511
888.470	1020
888.510	683
888.549	1069
888.615	1801
888.628	1832
888.708	2043
888.720	2040
888.787	1955
888.825	1939
888.866	1612
888.930	1113
888.945	1173
889.024	1587
889.035	1623
889.103	1380
889.140	1245
889.182	1316
889.245	1504
889.261	1460
889.340	1155
889.349	1124
889.419	1822
889.454	2173
889.498	1789
889.559	1262
889.577	1369
889.656	1833
889.664	1881
889.735	1314
889.768	1043
889.814	1375
889.873	1815
889.978	1008
890.083	1903
890.187	2323
890.292	2134
890.397	1147
890.501	1838
890.606	1695
890.710	1822
890.815	2693
890.919	1807
891.024	1421
891.128	1454
891.233	661
891.337	1774
891.442	2034
891.546	1797
891.650	1353
891.755	921
891.859	1911
891.963	1893
892.068	2081
892.172	1458
892.276	544
892.380	724
892.484	1908
892.589	2316
892.693	1700
892.797	1591
892.901	1527
893.005	1663
893.109	2383
893.213	2280
893.317	1329
893.421	1109
893.525	-122
893.629	1093
893.733	1676
893.837	1144
893.941	1295
894.045	1713
894.148	774
894.252	990
894.356	1642
894.460	3013
894.564	729
894.667	1543
894.771	392
894.875	956
894.978	1028
895.082	1029
895.186	1667
895.289	1461
895.393	976
895.496	2487
895.600	1300
895.703	692
895.807	1140
895.910	1814
896.014	1303
896.117	800
896.221	874
896.324	1727
896.427	1302
896.531	383
896.634	1511
896.737	1545
896.840	1463
896.944	2315
897.047	1259
897.150	2301
897.253	45
897.356	1279
897.460	349
897.563	793
897.666	825
897.769	1828
897.872	921
897.975	1056
898.078	879
898.181	1254
898.284	1105
898.387	2372
898.490	1760
898.593	1920
898.695	672
898.798	835
898.901	222
899.004	1851
899.107	-34
899.209	1226
899.312	1838
899.415	608
899.518	708
899.620	878
899.723	10
899.826	1328
899.928	766
900.031	771
900.133	918
900.236	759
900.338	181
900.441	725
900.543	1019
900.646	1401
900.748	-18
900.851	1451
900.953	880
901.055	569
901.158	610
901.260	1479
901.362	-199
901.465	1040
901.567	1359
901.669	826
901.771	212
901.873	54
901.976	1008
902.078	1696
902.180	-96
902.282	-57
902.384	426
902.486	1483
902.588	1018
902.690	605
902.792	948
902.894	668
902.996	1005
903.098	528
903.200	121
903.302	497
903.404	175
903.505	737
903.607	236
903.709	2286
903.811	1186
903.913	1529
904.014	144
904.116	713
904.218	506
904.319	1164
904.421	1666
904.523	1953
904.624	898
904.726	1233
904.827	809
904.929	445
905.030	289
905.132	1162
905.233	360
905.335	1056
905.436	17
905.537	648
905.639	-133
905.740	612
905.841	789
905.943	1099
906.044	1047
906.145	691
906.247	464
906.348	1487
906.449	1303
906.550	1148
906.651	419
906.752	439
906.854	-162
906.955	185
907.056	776
907.157	1769
907.258	892
907.359	337
907.460	467
907.561	83
907.662	-399
907.762	676
907.863	581
907.964	719
908.065	349
908.166	366
908.267	807
908.367	-214
908.468	193
908.569	984
908.670	536
908.770	994
908.871	1560
908.971	404
909.072	306
909.173	518
909.273	291
909.374	1087
909.474	463
909.575	455
909.675	622
909.776	1195
909.876	-256
909.977	1157
910.077	790
910.177	1086
910.278	437
910.378	405
910.478	90
910.579	1113
910.679	263
910.779	509
910.879	1104
910.980	275
911.080	1130
911.180	300
911.280	272
911.380	-300
911.480	9
911.580	-215
911.680	969
911.780	718
911.880	739
911.980	916
912.080	857
912.180	1089
912.280	127
912.380	632
912.480	-68
912.580	165
912.679	262
912.779	1112
912.879	460
912.979	1313
913.078	-683
913.178	542
913.278	-275
913.377	454
913.477	169
913.577	630
913.676	1721
913.776	929
913.875	961
913.975	757
914.074	584
914.174	1121
914.273	-197
914.373	902
914.472	561
914.572	-363
914.671	387
914.770	884
914.870	658
914.969	382
915.068	103
915.167	601
915.267	731
915.366	634
915.465	-188
915.564	461
915.663	401
915.763	931
915.862	559
915.961	1236
916.060	-227
916.159	788
916.258	-317
916.357	368
916.456	594
916.555	1574
916.654	584
916.752	1152
916.851	781
916.950	905
917.049	59
917.148	607
917.247	259
917.345	207
917.444	387
917.543	957
917.642	901
917.740	480
917.839	2231
917.937	2319
918.036	1570
918.135	835
918.233	722
918.332	333
918.430	103
918.529	747
918.627	424
918.726	1527
918.824	516
918.923	1058
919.021	-1
919.119	1119
919.218	277
919.316	1648
919.414	1118
919.512	972
919.611	822
919.709	1150
919.807	1522
919.905	2325
920.003	966
920.102	804
920.200	40
920.298	1862
920.396	1725
920.494	2043
920.592	942
920.690	1449
920.788	1473
920.886	1654
920.984	1681
921.082	1700
921.180	2012
921.277	2391
921.375	1793
921.473	3579
921.571	2629
921.669	3103
921.766	2422
921.864	3482
921.962	3100
922.060	2621
922.157	3080
922.255	3042
922.352	2849
922.450	4024
922.548	3385
922.645	4459
922.743	5024
922.840	8132
922.938	9312
923.035	8098
923.133	7130
923.230	9241
923.327	11014
923.425	9044
923.522	9577
923.619	9037
923.717	8212
923.814	7826
923.911	7853
924.008	8487
924.106	7431
924.203	7633
924.300	7866
924.397	7640
924.494	8654
924.591	8094
924.688	6733
924.786	7562
924.883	7498
924.979	7885
925.077	7511
925.173	8122
925.270	7816
925.367	7583
925.464	7666
925.561	8984
925.658	8742
925.755	7399
925.852	8272
925.948	8667
926.045	7246
926.142	8981
926.239	8229
926.335	7652
926.432	7997
926.529	8223
926.625	9245
926.722	6746
926.818	6763
926.915	8702
927.011	6282
927.108	7572
927.204	6927
927.301	5762
927.397	7323
927.494	8944
927.590	6076
927.687	6030
927.783	7937
927.879	7083
927.976	5818
928.072	5833
928.168	7055
928.264	7189
928.361	6380
928.457	7224
928.553	5678
928.649	6486
928.745	6483
928.841	6135
928.937	6286
929.033	6253
929.129	6132
929.225	7665
929.321	5923
929.417	5838
929.513	6087
929.609	5579
929.705	5408
929.801	6325
929.897	5165
929.993	6037
930.089	6126
930.184	5498
930.280	5588
930.376	7405
930.471	5195
930.567	5289
930.663	5065
930.758	4600
930.854	4997
930.950	5171
931.045	5102
931.141	5752
931.236	7085
931.332	4585
931.427	3962
931.523	6326
931.618	5362
931.714	4538
931.809	4820
931.905	7102
932.000	3766
932.095	4267
932.191	5017
932.286	7175
932.381	5277
932.476	4015
932.572	4677
932.667	5247
932.762	3942
932.857	5443
932.952	5962
933.047	4712
933.142	4266
933.237	4613
933.332	4910
933.427	6507
933.522	4308
933.617	4015
933.712	4139
933.807	6242
933.902	6140
933.997	6766
934.092	3896
934.187	5223
934.282	4893
934.376	5307
934.471	5642
934.566	3612
934.661	4236
934.755	5368
934.850	5435
934.945	4120
935.039	3409
935.134	4080
935.228	4929
935.323	6881
935.417	4140
935.512	2783
935.606	3601
935.701	5785
935.795	4670
935.890	4732
935.984	4143
936.079	3459
936.173	3720
936.267	4269
936.362	3031
936.456	4641
936.550	6001
936.644	4765
936.738	2753
936.833	3666
936.927	2899
937.021	3440
937.115	4133
937.209	4777
937.303	4713
937.397	2926
937.491	3988
937.585	4136
937.679	4592
937.773	3793
937.867	3113
937.961	3419
938.055	4464
938.149	4919
938.243	2764
938.337	3382
938.430	3206
938.524	5907
938.618	4544
938.712	3234
938.805	3702
938.899	4531
938.993	5588
939.086	3259
939.180	3611
939.274	4296
939.367	3805
939.461	4859
939.554	3379
939.648	3685
939.741	3026
939.835	4195
939.928	5801
940.022	4283
940.115	3203
940.208	3842
940.302	4969
940.395	5208
940.488	2747
940.582	3247
940.675	980
940.768	3160
940.861	3973
940.954	4427
941.048	2010
941.141	2683
941.234	2238
941.327	3080
941.420	3390
941.513	4028
941.606	2845
941.699	3350
941.792	3597
941.885	3526
941.978	3600
942.071	3383
942.164	1248
942.257	1995
942.349	2658
942.442	3467
942.535	1695
942.628	1924
942.721	2680
942.813	2531
942.906	3326
942.999	2811
943.091	1842
943.184	2772
943.277	1887
943.369	2116
943.462	1867
943.554	3036
943.647	1595
943.739	4002
943.832	3677
943.924	1567
944.017	2604
944.109	1466
944.201	1714
944.294	2695
944.386	2727
944.478	1895
944.571	2194
944.663	2310
944.755	2287
944.847	3460
944.940	2494
945.032	779
945.124	989
945.216	3826
945.308	2508
945.400	2910
945.492	3141
945.584	3517
945.676	2979
945.768	3189
945.860	3573
945.952	3786
946.044	2186
946.136	3169
946.228	1415
946.320	2003
946.412	2391
946.503	3797
946.595	3095
946.687	1879
946.779	1138
946.870	1870
946.962	1428
947.054	1492
947.145	3081
947.237	2094
947.329	1665
947.420	1919
947.512	1427
947.603	1713
947.695	1589
947.786	1986
947.878	1220
947.969	2809
948.061	2287
948.152	1624
948.243	1385
948.335	1751
948.426	1168
948.517	2132
948.609	2524
948.700	2616
948.791	1073
948.882	1323
948.973	833
949.065	2296
949.156	1967
949.247	780
949.338	2187
949.429	704
949.520	1377
949.611	1314
949.702	2916
949.793	1235
949.884	2027
949.975	1932
950.066	447
950.157	1822
950.247	1016
950.338	1620
950.429	1030
950.520	2765
950.611	775
950.701	1384
950.792	2581
950.883	2355
950.973	1987
951.064	2347
951.155	1688
951.245	2419
951.336	1633
951.427	1815
951.517	3443
951.608	1849
951.698	1824
951.788	1290
951.879	931
951.969	1318
952.060	1802
952.150	2221
952.240	2168
952.331	1359
952.421	2338
952.511	1639
952.602	943
952.692	688
952.782	746
952.872	1652
952.962	1239
953.052	1994
953.143	777
953.233	2748
953.323	1740
953.413	1815
953.503	1810
953.593	2080
953.683	1067
953.773	627
953.863	4
953.953	416
954.042	2098
954.132	1884
954.222	1360
954.312	1239
954.402	1029
954.492	1307
954.581	1618
954.671	1608
954.761	679
954.850	1859
954.940	899
955.030	1044
955.119	299
955.209	1159
955.298	1230
955.388	1752
955.477	1644
955.567	554
955.656	1376
955.746	1711
955.835	154
955.925	525
956.014	1695
956.103	2158
956.193	2056
956.282	2123
956.371	807
956.461	1507
956.550	1385
956.639	2457
956.728	1068
956.817	1917
956.906	401
956.995	2113
957.085	412
957.174	1454
957.263	802
957.352	1271
957.441	915
957.530	1210
957.619	1532
957.708	1223
957.796	576
957.885	1427
957.974	896
958.063	1188
958.152	45
958.241	1000
958.329	209
958.418	1887
958.507	0
958.596	2292
958.684	253
958.773	1898
958.861	850
958.950	509
959.039	1197
959.127	1951
959.216	1381
959.304	1055
959.393	805
959.481	1306
959.570	609
959.658	1256
959.746	156
959.835	1119
959.923	479
960.011	794
960.100	1410
960.188	1574
960.276	1045
960.365	940
960.453	214
960.541	515
960.629	506
960.717	1118
960.805	-1140
960.893	1584
960.981	699
961.069	2255
961.158	1804
961.245	2436
961.333	814
961.421	1073
961.509	678
961.597	2641
961.685	52
961.773	760
961.861	629
961.949	2072
962.036	893
962.124	1557
962.212	19
962.299	980
962.387	222
962.475	720
962.562	-706
962.650	1506
962.738	927
962.825	126
962.913	707
963.000	1211
963.088	1286
963.175	743
963.263	599
963.350	733
963.438	806
963.525	201
963.612	567
963.700	938
963.787	1800
963.874	642
963.962	159
964.049	1002
964.136	-87
964.223	55
964.310	531
964.398	235
964.485	488
964.572	1582
964.659	477
964.746	330
964.833	915
964.920	1220
965.007	162
965.094	-180
965.181	-50
965.268	1101
965.355	21
965.441	274
965.528	424
965.615	1698
965.702	297
965.789	257
965.875	1873
965.962	1076
966.049	-233
966.136	1302
966.222	1387
966.309	1322
966.395	715
966.482	1833
966.569	674
966.655	1592
966.742	169
966.828	821
966.915	232
967.001	531
967.087	-382
967.174	337
967.260	259
967.347	1470
967.433	603
967.519	1285
967.605	489
967.692	791
967.778	449
967.864	339
967.950	160
968.036	-137
968.123	1247
968.209	971
968.295	-81
968.381	1948
968.467	332
968.553	-721
968.639	746
968.725	867
968.811	1340
968.897	1888
968.983	611
969.069	239
969.154	448
969.240	1382
969.326	-944
969.412	208
969.497	637
969.583	-404
969.669	1294
969.755	990
969.840	293
969.926	2210
970.012	2446
970.097	3851
970.183	1294
970.268	1253
970.354	633
970.439	-108
970.525	1408
970.610	-383
970.696	789
970.781	1118
970.866	-170
970.952	941
971.037	134
971.122	449
971.208	383
971.293	456
971.378	-1009
971.463	974
971.549	520
971.634	1423
971.719	101
971.804	-124
971.889	-80
971.974	-360
972.059	218
972.144	1513
972.229	332
972.314	502
972.399	47
972.484	-106
972.569	39
972.654	28
972.739	1019
972.824	746
972.908	430
972.993	-231
973.078	-238
973.163	-194
973.247	422
973.332	-1191
973.417	1272
973.501	134
973.586	869
973.671	322
973.755	-527
973.840	557
973.924	686
974.009	409
974.093	-194
974.178	2260
974.262	908
974.346	864
974.431	559
974.515	285
974.600	283
974.684	675
974.768	-354
974.852	756
974.937	-264
975.021	1156
975.105	91
975.189	417
975.273	-50
975.358	106
975.442	-1074
975.526	994
975.610	19
975.694	6
975.778	742
975.862	532
975.946	-1267
976.030	2534
976.114	-85
976.198	64
976.281	-245
976.365	1087
976.449	-631
976.533	1220
976.617	-123
976.700	651
976.784	-441
976.868	782
976.951	219
977.035	509
977.119	164
977.202	237
977.286	171
977.369	1770
977.453	3139
977.536	1278
977.620	38
977.703	835
977.787	115
977.870	1282
977.953	1015
978.037	-209
978.120	1077
978.203	446
978.287	299
978.370	823
978.453	-402
978.536	732
978.620	-101
978.703	545
978.786	-502
978.869	-284
978.952	314
979.035	1994
979.118	656
979.201	64
979.284	214
979.367	-409
979.450	382
979.533	870
979.616	329
979.699	530
979.782	88
979.865	252
979.948	303
980.030	17
980.113	-88
980.196	-502
980.279	858
980.361	347
980.444	1056
980.526	1843
980.609	1516
980.692	2005
980.774	1585
980.857	-124
980.939	1012
981.022	324
981.104	-64
981.187	219
981.269	1146
981.352	1220
981.434	152
981.516	84
981.599	1644
981.681	1471
981.763	39
981.846	795
981.928	548
982.010	-65
982.092	-273
982.174	665
982.256	528
982.339	591
982.421	-437
982.503	585
982.585	-282
982.667	896
982.749	1523
982.831	169
982.913	-300
982.995	1453
983.077	298
983.158	2220
983.240	-553
983.322	946
983.404	2132
983.486	1207
983.568	1623
983.649	1429
983.731	1029
983.813	880
983.894	572
983.976	411
984.058	255
984.139	2370
984.221	-290
984.302	2167
984.384	869
984.465	497
984.547	948
984.628	445
984.710	1608
984.791	1336
984.872	369
984.954	1256
985.035	1000
985.116	910
985.198	224
985.279	2028
985.360	849
985.441	855
985.522	668
985.604	1429
985.685	-797
985.766	1862
985.847	2653
985.928	852
986.009	637
986.090	1426
986.171	1349
986.252	1601
986.333	1277
986.414	590
986.495	1081
986.576	992
986.656	932
986.737	1248
986.818	1416
986.899	1195
986.980	878
987.060	1636
987.141	1589
987.222	2371
987.302	1786
987.383	2828
987.464	1700
987.544	2954
987.625	1834
987.705	2873
987.786	2373
987.866	1465
987.947	1717
988.027	1742
988.108	2183
988.188	1937
988.268	1282
988.349	1661
988.429	1152
988.509	2007
988.589	932
988.670	719
988.750	1982
988.830	1444
988.910	1766
988.990	2313
989.070	644
989.151	1587
989.231	763
989.311	2174
989.391	1226
989.471	2127
989.551	451
989.631	1403
989.711	2266
989.791	1467
989.870	688
989.950	2476
990.030	918
990.110	1612
990.190	1221
990.269	1495
990.349	1011
990.429	1415
990.509	1321
990.588	706
990.668	1061
990.747	1423
990.827	-240
990.907	2817
990.986	532
991.066	1940
991.145	343
991.225	1944
991.304	599
991.383	1525
991.463	599
991.542	1604
991.622	547
991.701	910
991.780	-195
991.859	220
991.939	245
992.018	1471
992.097	1185
992.176	1362
992.256	144
992.335	653
992.414	1782
992.493	538
992.572	316
992.651	2016
992.730	1239
992.809	1590
992.888	506
992.967	1042
993.046	1685
993.125	-40
993.203	803
993.282	-15
993.361	1522
993.440	623
993.519	413
993.597	573
993.676	445
993.755	1798
993.834	755
993.912	9
993.991	735
994.069	380
994.148	496
994.226	702
994.305	-1
994.384	722
994.462	1409
994.540	30
994.619	354
994.697	667
994.776	1
994.854	856
994.932	-549
995.011	978
995.089	72
995.167	1232
995.245	-98
995.324	-103
995.402	990
995.480	55
995.558	838
995.636	306
995.714	51
995.792	1955
995.870	-649
995.948	515
996.026	1125
996.104	-232
996.182	695
996.260	-359
996.338	-384
996.416	462
996.494	125
996.572	2060
996.649	322
996.727	-133
996.805	1096
996.883	335
996.960	-94
997.038	647
997.116	532
997.193	65
997.271	-249
997.348	190
997.426	290
997.504	213
997.581	831
997.658	1024
997.736	-1692
997.813	-561
997.891	928
997.968	286
998.046	190
998.123	291
998.200	-440
998.277	-290
998.355	594
998.432	-1816
998.509	-444
998.586	153
998.663	843
998.741	-111
998.818	-925
998.895	-759
998.972	-28
999.049	66
999.126	-359
999.203	1096
999.280	295
999.357	-646
999.434	-85
999.511	312
999.587	560
999.664	-288
999.741	-741
999.818	705
999.895	130
999.971	-218
1000.048	-785
1000.125	1418
1000.202	-428
1000.278	-95
1000.355	43
1000.431	-945
1000.508	-148
1000.584	872
1000.661	-163
1000.738	-835
1000.814	-1216
1000.890	1092
1000.967	-611
1001.043	39
1001.120	-1041
1001.196	999
1001.272	-866
1001.349	-33
1001.425	181
1001.501	-309
1001.577	-1212
1001.654	563
1001.730	-868
1001.806	728
1001.882	-834
1001.958	186
1002.034	-133
1002.110	-239
1002.186	-1117
1002.262	-1673
1002.338	-946
1002.414	-119
1002.490	-38
1002.566	-329
1002.642	-900
1002.718	407
1002.794	-699
1002.870	-670
1002.945	-529
1003.021	212
1003.097	-884
1003.173	-329
1003.248	-1477
1003.324	-82
1003.400	-583
1003.475	-204
1003.551	-2115
1003.626	-246
1003.702	-1649
1003.777	-567
1003.853	-1123
1003.928	-742
1004.004	-613
1004.079	562
1004.155	-897
1004.230	-983
1004.305	1025
1004.381	-963
1004.456	-1104
1004.531	-672
1004.607	-638
1004.682	-161
1004.757	-862
1004.832	0
1004.907	-819
1004.982	-304
1005.057	-284
1005.133	-583
1005.208	-705
1005.283	-699
1005.358	165
1005.433	-960
1005.508	-1269
1005.583	-1565
1005.657	-180
1005.732	-177
1005.807	-1593
1005.882	-240
1005.957	-1635
1006.032	-220
1006.106	-1579
1006.181	-549
1006.256	-701
1006.331	-1151
1006.405	-1800
1006.480	-692
1006.554	-888
1006.629	328
1006.704	-564
1006.778	-476
1006.853	-611
1006.927	-1169
1007.002	-1126
1007.076	-603
1007.150	-1906
1007.225	-30
1007.299	-1620
1007.373	-1130
1007.448	-572
1007.522	-128
1007.596	-1200
1007.671	-821
1007.745	-1249
1007.819	-1238
1007.893	-1333
1007.967	-56
1008.041	-1829
1008.115	-265
1008.190	-1193
1008.264	-928
1008.338	-2384
1008.412	-1274
1008.486	-1679
1008.560	-195
1008.633	-1256
1008.707	-1000
1008.781	-341
1008.855	-984
1008.929	-1293
1009.003	-1252
1009.076	-1182
1009.150	-504
1009.224	-1250
1009.298	-943
1009.371	-821
1009.445	-516
1009.519	-872
1009.592	-1683
1009.666	-919
1009.739	-944
1009.813	-2317
1009.886	-83
1009.960	-2141
1010.033	-485
1010.107	-973
1010.180	-1501
1010.253	-1192
1010.327	-1867
1010.400	-1562
1010.473	-1658
1010.547	-395
1010.620	-1431
1010.693	-1068
1010.766	-1663
1010.840	-1388
1010.913	-893
1010.986	-1719
1011.059	-660
1011.132	-1739
1011.205	-152
1011.278	-779
1011.351	-744
1011.424	-1522
1011.497	-1786
1011.570	-1045
1011.643	-788
1011.716	-2526
1011.789	-2102
1011.862	-1615
1011.934	-52
1012.007	-2669
1012.080	-144
1012.153	-1334
1012.225	141
1012.298	-1384
1012.371	-1102
1012.443	-1031
1012.516	-2259
1012.588	-1216
1012.661	-486
1012.733	-1702
1012.806	-633
1012.879	-1693
1012.951	-929
1013.023	-1148
1013.096	-1217
1013.168	-2093
1013.241	-240
1013.313	-1462
1013.385	-2385
1013.458	-903
1013.530	-866
1013.602	-1815
1013.674	-809
1013.746	-2328
1013.819	-1746
1013.891	-1420
1013.963	-2280
1014.035	-1438
1014.107	-1233
1014.179	-1372
1014.251	-829
1014.323	-1051
1014.395	-1161
1014.467	-939
1014.539	-431
1014.611	-2355
1014.683	-1436
1014.754	-1738
1014.826	-2018
1014.898	-645
1014.970	-1686
1015.042	-447
1015.113	-1810
1015.185	-1860
1015.257	-1468
1015.328	-1674
1015.400	-839
1015.471	-1547
1015.543	-2270
1015.615	-1754
1015.686	-819
1015.757	-1542
1015.829	-791
1015.901	-1222
1015.972	-1567
1016.043	-1842
1016.115	-1224
1016.186	-1342
1016.257	-2249
1016.328	-1775
1016.400	-1189
1016.471	-2447
1016.542	-1046
1016.613	-1859
1016.685	-1195
1016.756	-668
1016.827	-1893
1016.898	-2270
1016.969	-1159
1017.040	-2215
1017.111	-1844
1017.182	-1593
1017.253	-1206
1017.324	-1980
1017.395	-1661
1017.466	-1129
1017.537	-1383
1017.608	-1137
1017.678	-1340
1017.749	-2315
1017.820	-2085
1017.891	-2639
1017.961	-1457
1018.032	-2158
1018.103	-1823
1018.173	-1398
1018.244	-2010
1018.315	-1788
1018.385	-1226
1018.456	-1901
1018.526	-1139
1018.597	-2042
1018.667	-688
1018.738	-1828
1018.808	-903
1018.878	-1850
1018.949	-1794
1019.019	-2649
1019.089	-1851
1019.160	-1606
1019.230	-1427
1019.300	-1480
1019.371	-1656
1019.441	-1247
1019.511	-1440
1019.581	-2413
1019.651	-738
1019.721	-901
1019.791	-1500
1019.861	-2087
1019.931	-1466
1020.001	-2069
1020.071	-1167
1020.141	-1600
1020.211	-1623
1020.281	-1633
1020.351	-1877
1020.421	-1722
1020.491	-1302
1020.560	-2660
1020.630	-1211
1020.700	-1834
1020.770	-2392
1020.839	-2077
1020.909	-1630
1020.979	-2058
1021.048	-1680
1021.118	-2421
1021.187	-823
1021.257	-2233
1021.326	-757
1021.396	-2853
1021.465	-1007
1021.535	-1723
1021.604	-2278
1021.674	-1774
1021.743	-1766
1021.812	-1876
1021.882	-1319
1021.951	-1839
1022.020	-1305
1022.089	-665
1022.159	-1165
1022.228	-976
1022.297	-1420
1022.366	-1716
1022.435	-1238
1022.504	-2068
1022.573	-1625
1022.642	-1265
1022.711	-1643
1022.781	-1655
1022.849	-1662
1022.918	-2342
1022.987	-1418
1023.056	-1746
1023.125	-1995
1023.194	-1389
1023.263	-1091
1023.331	-1264
1023.400	-1529
1023.469	-2487
1023.538	-1273
1023.606	-2478
1023.675	-1446
1023.744	-2393
1023.812	-2485
1023.881	-1891
1023.949	-1390
1024.018	-1522
1024.086	-2601
1024.155	-1829
1024.223	-1499
1024.292	-1402
1024.360	-945
1024.429	-1413
1024.497	-2211
1024.565	-1624
1024.634	-1387
1024.702	-1527
1024.770	-1345
1024.838	-1585
1024.907	-1504
1024.975	-1698
1025.043	-1153
1025.111	-2283
1025.179	-2125
1025.247	-1358
1025.315	-749
1025.383	-1773
1025.451	-1585
1025.519	-1743
1025.587	-794
1025.655	-1483
1025.723	-1905
1025.791	-1757
1025.859	-924
1025.927	-1600
1025.995	-1935
1026.062	-1409
1026.130	-1628
1026.198	-2556
1026.266	-1833
1026.333	-1438
1026.401	-1329
1026.469	-1383
1026.536	-1648
1026.604	-2123
1026.671	-1791
1026.739	-2071
1026.806	-1686
1026.874	-2186
1026.941	-1875
1027.009	-2150
1027.076	-1963
1027.144	-1386
1027.211	-2204
1027.278	-1977
1027.345	-1339
1027.413	-1643
1027.480	-930
1027.547	-1619
1027.614	-676
1027.682	-1575
1027.749	-1432
1027.816	-1790
1027.883	-1477
1027.950	-1356
1028.017	-1946
1028.084	-1560
1028.151	-1266
1028.218	-2517
1028.285	-1873
1028.352	-2061
1028.419	-1502
1028.486	-1260
1028.553	-903
1028.619	-1345
1028.686	-1268
1028.753	-1946
1028.820	-1653
1028.886	-1421
1028.953	-1239
1029.020	-1448
1029.086	-2489
1029.153	-2635
1029.220	-2509
1029.286	-1466
1029.353	-1376
1029.419	-2022
1029.486	-1424
1029.552	-1687
1029.619	-1516
1029.685	-1967
1029.751	-1407
1029.818	-1297
1029.884	-1451
1029.951	-1469
1030.017	-2108
1030.083	-2001
1030.149	-1970
1030.216	-2171
1030.282	-1568
1030.348	-2171
1030.414	-1653
1030.480	-2481
1030.546	-1564
1030.612	-1528
1030.678	-1805
1030.744	-2407
1030.810	-1235
1030.876	-1835
1030.942	-1588
1031.008	-1521
1031.074	-1750
1031.140	-2113
1031.206	-1238
1031.272	-2927
1031.337	-1654
1031.403	-1094
1031.469	-1143
1031.534	-2242
1031.600	-1331
1031.666	-2085
1031.731	-1465
1031.797	-1533
1031.863	-2352
1031.928	-2591
1031.994	-2077
1032.059	-1693
1032.125	-1792
1032.190	-2307
1032.256	-1047
1032.321	-2124
1032.386	-1415
1032.452	-1756
1032.517	-1879
1032.582	-2085
1032.647	-1561
1032.713	-2311
1032.778	-1691
1032.843	-2684
1032.908	-1946
1032.974	-1370
1033.039	-1739
1033.104	-2126
1033.169	-2397
1033.234	-1978
1033.299	-1369
1033.364	-1890
1033.429	-1234
1033.494	-2061
1033.559	-1971
1033.624	-1824
1033.688	-916
1033.753	-2426
1033.818	-876
1033.883	-1497
1033.948	-505
1034.013	-1166
1034.077	-1029
1034.142	-526
1034.207	492
1034.271	1239
1034.336	2523
1034.400	627
1034.465	-1057
1034.530	-1518
1034.594	-1433
1034.658	-2381
1034.723	-1741
1034.787	-1577
1034.852	-2118
1034.916	-1830
1034.981	-1365
1035.045	-1946
1035.109	-2427
1035.173	-1315
1035.238	-1258
1035.302	-1731
1035.366	-1707
1035.430	-2518
1035.495	-1748
1035.559	-1341
1035.623	-1314
1035.687	-2676
1035.751	-1297
1035.815	-1715
1035.879	-1618
1035.943	-1773
1036.007	-2196
1036.071	-1612
1036.135	-1503
1036.198	-2030
1036.262	-1335
1036.326	-1309
1036.390	-1810
1036.454	-1816
1036.517	-1345
1036.581	-820
1036.645	-788
1036.709	-876
1036.772	-1724
1036.836	-2038
1036.900	-1671
1036.963	-2612
1037.026	-1636
1037.090	-2450
1037.154	-1292
1037.217	-2681
1037.280	-2204
1037.344	-1884
1037.407	-2009
1037.471	-1574
1037.534	-1282
1037.597	-1894
1037.661	-955
1037.724	-1476
1037.787	-2456
1037.850	-1459
1037.913	-1980
1037.977	-1734
1038.040	-2204
1038.103	-2183
1038.166	-1976
1038.229	-2390
1038.292	-1205
1038.355	-2536
1038.418	-1886
1038.481	-1543
1038.544	-1592
1038.607	-1921
1038.670	-2430
1038.732	-1590
1038.795	-1636
1038.858	-2692
1038.921	-496
1038.984	-1943
1039.046	-2187
1039.109	-3180
1039.172	-1396
1039.234	-1600
1039.297	-1724
1039.360	-1978
1039.422	-2195
1039.485	-1147
1039.547	-2816
1039.610	-1924
1039.672	-1884
1039.734	-1656
1039.797	-1888
1039.859	-1852
1039.922	-1974
1039.984	-1867
1040.046	-2125
1040.109	-2044
1040.171	-1535
1040.233	-2626
1040.295	-1972
1040.358	-2233
1040.420	-1497
1040.482	-2104
1040.544	-1195
1040.606	-1495
1040.668	-2020
1040.730	-1624
1040.792	-1837
1040.854	-1389
1040.916	-1298
1040.978	-2519
1041.040	-1165
1041.102	-1634
1041.164	-2088
1041.225	-1462
1041.287	-1442
1041.349	-2313
1041.411	-1309
1041.472	-2244
1041.534	-1578
1041.596	-2927
1041.657	-1818
1041.719	-2322
1041.781	-1073
1041.842	-2378
1041.904	-1978
1041.965	-1556
1042.027	-2406
1042.088	-2709
1042.150	-1830
1042.211	-1959
1042.272	-1596
1042.334	-2606
1042.395	-2674
1042.456	-1974
1042.518	-1593
1042.579	-1545
1042.640	-1714
1042.701	-2321
1042.763	-1681
1042.824	-2420
1042.885	-1797
1042.946	-2324
1043.007	-1396
1043.068	-2034
1043.129	-1138
1043.190	-2156
1043.251	-1266
1043.312	-2037
1043.373	-1252
1043.434	-2203
1043.495	-1872
1043.556	-1347
1043.616	-1705
1043.677	-2348
1043.738	-1619
1043.799	-2380
1043.859	-1211
1043.920	-1217
1043.981	-1946
1044.041	-1628
1044.102	-1964
1044.162	-1568
1044.223	-1366
1044.284	-1637
1044.344	-1040
1044.405	-1473
1044.465	-1262
1044.525	-1858
1044.586	-1612
1044.646	-1913
1044.707	-538
1044.767	-1937
1044.827	-1715
1044.887	-1981
1044.948	-710
1045.008	-1792
1045.068	-1440
1045.128	-1737
1045.188	-1151
1045.249	-1470
1045.309	-1450
1045.369	-1413
1045.429	-1239
1045.489	-2036
1045.549	-568
1045.609	-1829
1045.669	-1048
1045.729	-1483
1045.789	-1583
1045.848	-2324
1045.908	-897
1045.968	-1711
1046.028	-1494
1046.088	-1833
1046.147	-1122
1046.207	-803
1046.267	-1055
1046.326	-311
1046.386	-1123
1046.446	-1177
1046.505	-675
1046.565	-990
1046.624	-457
1046.684	-350
1046.743	-529
1046.803	-868
1046.862	169
1046.922	0
