'Start Wavelength	183.907
'End Wavelength	1046.922
'Gate Delay	5.000
'Gate Width (ms)	1.050
'Laser Output Level	0.000
'X Position	0.000
'Y Position	0.000
'Z Position	0.000
'Grid Point Number	1.000
'Shot Number	100.000
183.907	118.000
183.977	29.000
184.047	-403
184.116	516
184.186	152
184.256	734
184.325	632
184.395	-182
184.465	-93
184.534	233
184.604	-278
184.674	-232
184.743	-683
184.813	-156
184.883	-156
184.952	174
185.022	-490
185.092	305
185.161	-156
185.231	545
185.301	-513
185.370	387
185.440	-71
185.509	-110
185.579	318
185.649	223
185.718	-183
185.788	226
185.857	-784
185.927	-223
185.996	-65
186.066	-14
186.136	-620
186.205	-486
186.275	104
186.344	-13
186.414	-152
186.483	-510
186.553	1082
186.622	106
186.692	310
186.761	334
186.831	324
186.900	-8
186.970	-62
187.039	462
187.109	-7
187.178	419
187.248	169
187.317	-275
187.387	75
187.456	683
187.526	405
187.595	247
187.664	367
187.734	102
187.803	258
187.873	916
187.942	528
188.012	-23
188.081	175
188.150	129
188.220	-6
188.289	531
188.358	702
188.428	843
188.497	254
188.567	749
188.636	-213
188.705	538
188.775	-653
188.844	-549
188.913	114
188.983	-623
189.052	-364
189.121	491
189.191	462
189.260	974
189.329	507
189.399	222
189.468	320
189.537	-334
189.606	401
189.676	384
189.745	769
189.814	785
189.883	557
189.953	-66
190.022	653
190.091	1192
190.161	2506
190.230	905
190.299	606
190.368	-199
190.437	144
190.507	741
190.576	171
190.645	324
190.714	-827
190.783	293
190.853	728
190.922	581
190.991	662
191.060	1060
191.129	-323
191.198	795
191.268	433
191.337	419
191.406	1061
191.475	834
191.544	-332
191.613	392
191.682	528
191.752	721
191.821	196
191.890	796
191.959	759
192.028	-264
192.097	776
192.166	889
192.235	286
192.304	383
192.373	-216
192.442	287
192.511	-87
192.580	183
192.650	366
192.719	-40
192.788	345
192.857	651
192.926	112
192.995	822
193.064	847
193.133	1312
193.202	2190
193.271	1660
193.340	1492
193.409	1469
193.478	2440
193.547	2629
193.615	3110
193.684	3001
193.753	2218
193.822	2182
193.891	439
193.960	612
194.029	930
194.098	946
194.167	5
194.236	1380
194.305	472
194.374	564
194.443	458
194.512	590
194.580	938
194.649	1629
194.718	1554
194.787	1626
194.856	-72
194.925	1642
194.994	880
195.062	612
195.131	1123
195.200	1298
195.269	1075
195.338	853
195.407	594
195.475	807
195.544	640
195.613	1104
195.682	437
195.751	1745
195.819	472
195.888	1498
195.957	1766
196.026	2163
196.094	770
196.163	1718
196.232	1480
196.301	1447
196.369	1033
196.438	1195
196.507	898
196.576	683
196.644	-301
196.713	1271
196.782	1195
196.850	1045
196.919	1006
196.988	1429
197.056	629
197.125	1375
197.194	626
197.262	56
197.331	858
197.400	1054
197.468	1079
197.537	870
197.606	1400
197.674	1957
197.743	3029
197.812	2010
197.880	2947
197.949	2414
198.017	3233
198.086	1833
198.155	1328
198.223	2096
198.292	3664
198.360	2145
198.429	913
198.497	1415
198.566	1498
198.635	3716
198.703	1675
198.772	2116
198.840	4249
198.909	4423
198.977	1437
199.046	2189
199.114	1568
199.183	2005
199.251	1289
199.320	847
199.388	856
199.457	1200
199.525	1147
199.594	1805
199.662	728
199.731	1164
199.799	1487
199.867	1248
199.936	797
200.004	1980
200.073	1571
200.141	546
200.210	904
200.278	1143
200.346	1239
200.415	1179
200.483	1209
200.552	1643
200.620	1041
200.688	797
200.757	964
200.825	1894
200.893	1217
200.962	694
201.030	1418
201.098	802
201.167	1150
201.235	866
201.303	1728
201.372	1339
201.440	1503
201.508	612
201.577	1011
201.645	1434
201.713	546
201.781	1839
201.850	1647
201.918	1048
201.986	1536
202.055	1839
202.123	1246
202.191	481
202.259	1727
202.327	1354
202.396	1694
202.464	865
202.532	1518
202.600	3312
202.669	2586
202.737	1093
202.805	708
202.873	594
202.941	1653
203.009	2115
203.078	1512
203.146	1414
203.214	1452
203.282	875
203.350	1861
203.418	1977
203.487	1331
203.555	1515
203.623	2202
203.691	2240
203.759	1416
203.827	1421
203.895	947
203.963	2661
204.031	1216
204.099	637
204.168	1349
204.236	1750
204.304	1434
204.372	2041
204.440	1676
204.508	1298
204.576	1390
204.644	1764
204.712	1399
204.780	1632
204.848	1093
204.916	1902
204.984	2274
205.052	2601
205.120	1653
205.188	1964
205.256	1515
205.324	1436
205.392	1609
205.460	2178
205.528	1909
205.596	1867
205.664	2190
205.732	2653
205.799	5397
205.867	7999
205.935	2724
206.003	2457
206.071	1925
206.139	1563
206.207	1599
206.275	1537
206.343	1655
206.411	2230
206.478	1646
206.546	1735
206.614	1757
206.682	1691
206.750	1448
206.818	2252
206.885	1881
206.953	1582
207.021	3173
207.089	2189
207.157	1134
207.225	2491
207.292	1172
207.360	1984
207.428	2329
207.496	1915
207.563	2252
207.631	2496
207.699	1152
207.767	2327
207.834	1344
207.902	2402
207.970	1903
208.038	2301
208.105	1975
208.173	1746
208.241	2583
208.309	3214
208.376	2612
208.444	4067
208.512	2607
208.579	1221
208.647	2332
208.715	2891
208.782	1999
208.850	1841
208.918	1870
208.985	2486
209.053	1988
209.120	1794
209.188	2505
209.256	2584
209.323	2566
209.391	3573
209.459	3270
209.526	3022
209.594	2069
209.661	2764
209.729	3284
209.796	2962
209.864	1810
209.932	1789
209.999	4027
210.067	2672
210.134	3039
210.202	3231
210.269	3222
210.337	3294
210.404	2147
210.472	2528
210.539	2723
210.607	2823
210.674	3357
210.742	2611
210.809	3008
210.877	3157
210.944	4028
211.012	2823
211.079	3430
211.146	3249
211.214	3660
211.281	2630
211.349	2906
211.416	3276
211.484	2827
211.551	3027
211.618	3196
211.686	3349
211.753	2828
211.821	3662
211.888	3004
211.955	3011
212.023	3821
212.090	3221
212.157	4265
212.225	4195
212.292	5487
212.359	10643
212.427	21383
212.494	11224
212.561	5343
212.629	4192
212.696	3277
212.763	4005
212.831	3439
212.898	4269
212.965	2911
213.032	2780
213.100	4376
213.167	3109
213.234	3833
213.301	3495
213.369	3599
213.436	4110
213.503	3353
213.570	4632
213.638	3910
213.705	2485
213.772	2978
213.839	4121
213.906	4546
213.973	4224
214.041	3100
214.108	3446
214.175	3815
214.242	3701
214.309	3495
214.376	4413
214.444	3296
214.511	4366
214.578	3765
214.645	4061
214.712	4123
214.779	4156
214.846	3282
214.913	5280
214.980	5550
215.048	5164
215.115	5332
215.182	5105
215.249	3824
215.316	2796
215.383	4151
215.450	3797
215.517	3759
215.584	3275
215.651	3467
215.718	3316
215.785	4539
215.852	4395
215.919	4963
215.986	4550
216.053	3390
216.120	2994
216.187	3987
216.254	4314
216.321	4069
216.388	4524
216.455	4836
216.522	4069
216.589	5082
216.656	7294
216.722	6618
216.789	7137
216.856	7408
216.923	5338
216.990	5217
217.057	4961
217.124	5908
217.191	5686
217.258	7298
217.324	8557
217.391	9437
217.458	6684
217.525	5221
217.592	4988
217.659	3445
217.725	4833
217.792	6775
217.859	5644
217.926	3776
217.993	3467
218.059	3628
218.126	3257
218.193	2793
218.260	3488
218.327	3052
218.393	2711
218.460	2690
218.527	2968
218.594	3748
218.660	5640
218.727	5867
218.794	2214
218.860	2773
218.927	2891
218.994	2546
219.061	3168
219.127	4281
219.194	5153
219.261	2639
219.327	2304
219.394	2727
219.461	1915
219.527	3118
219.594	4442
219.661	3544
219.727	2341
219.794	2581
219.860	2655
219.927	3634
219.994	5055
220.060	6075
220.127	5777
220.193	4151
220.260	5597
220.326	7349
220.393	12099
220.460	15012
220.526	10040
220.593	6512
220.659	7688
220.726	7401
220.792	13992
220.859	13812
220.925	17933
220.992	22818
221.058	21530
221.125	17677
221.191	13150
221.258	6813
221.324	5740
221.391	5007
221.457	3445
221.524	4308
221.590	5964
221.657	15990
221.723	11231
221.789	10148
221.856	9273
221.922	5875
221.989	5418
222.055	4569
222.121	3189
222.188	5473
222.254	4019
222.321	3630
222.387	3143
222.453	3210
222.520	3749
222.586	3178
222.652	3979
222.719	3503
222.785	3676
222.851	2175
222.918	2689
222.984	3442
223.050	4088
223.116	2637
223.183	3616
223.249	2536
223.315	2992
223.382	2906
223.448	2401
223.514	2178
223.580	1955
223.647	2363
223.713	2341
223.779	2729
223.845	2913
223.911	3649
223.978	2012
224.044	2671
224.110	2442
224.176	3206
224.242	2817
224.309	1890
224.375	2509
224.441	2938
224.507	1996
224.573	1770
224.639	2931
224.705	1872
224.772	2246
224.838	2772
224.904	4154
224.970	2614
225.036	2724
225.102	2236
225.168	2760
225.234	2322
225.300	2937
225.366	2466
225.432	2664
225.499	2536
225.565	2598
225.631	2922
225.697	3255
225.763	4114
225.829	5462
225.895	6115
225.961	7675
226.027	6229
226.093	6254
226.159	8232
226.225	10769
226.291	21849
226.357	32655
226.423	19110
226.489	11045
226.554	8350
226.620	8915
226.686	8662
226.752	14108
226.818	20710
226.884	39063
226.950	33671
227.016	15759
227.082	9368
227.148	7492
227.214	7104
227.279	7479
227.345	6320
227.411	5166
227.477	4681
227.543	4498
227.609	6267
227.674	7213
227.740	4061
227.806	4904
227.872	3669
227.938	4123
228.003	7927
228.069	4976
228.135	3507
228.201	4023
228.267	2911
228.332	3450
228.398	4011
228.464	4516
228.530	3061
228.595	3334
228.661	3451
228.727	5494
228.792	5080
228.858	2821
228.924	3478
228.990	5527
229.055	3249
229.121	5087
229.187	3327
229.252	3552
229.318	2656
229.384	4341
229.449	4269
229.515	1838
229.581	1418
229.646	4321
229.712	3951
229.777	7340
229.843	6810
229.909	7094
229.974	8185
230.040	7058
230.105	5059
230.171	5090
230.236	6744
230.302	12039
230.368	8282
230.433	5362
230.499	5962
230.564	8232
230.630	5066
230.695	4992
230.761	4707
230.826	2105
230.892	7431
230.957	4651
231.023	3305
231.088	3513
231.154	4291
231.219	4171
231.284	4495
231.350	5906
231.415	3571
231.481	4285
231.546	2909
231.612	3464
231.677	2136
231.742	2805
231.808	5168
231.873	2965
231.939	1977
232.004	6547
232.069	5628
232.135	3631
232.200	4317
232.265	3556
232.331	2341
232.396	3363
232.461	2736
232.527	2843
232.592	2276
232.657	3067
232.723	4914
232.788	3616
232.853	3932
232.918	3211
232.984	2409
233.049	2518
233.114	3695
233.179	4433
233.245	6224
233.310	8258
233.375	2820
233.440	3740
233.506	3437
233.571	3321
233.636	2894
233.701	3305
233.766	6400
233.832	6245
233.897	3392
233.962	2603
234.027	4997
234.092	4338
234.157	4019
234.222	3541
234.288	5731
234.353	15654
234.418	12593
234.483	8171
234.548	7318
234.613	6189
234.678	5366
234.743	6312
234.808	17261
234.873	11105
234.938	6809
235.004	5018
235.069	5528
235.134	5205
235.199	4891
235.264	4888
235.329	3495
235.394	4870
235.459	6586
235.524	4805
235.589	5186
235.654	3955
235.719	3603
235.784	4880
235.849	5114
235.913	8711
235.978	10038
236.043	10247
236.108	5325
236.173	4741
236.238	6040
236.303	4788
236.368	5161
236.433	8016
236.498	10663
236.563	10091
236.627	18945
236.692	53015
236.757	41624
236.822	18756
236.887	14246
236.952	12821
237.017	9992
237.081	11666
237.146	14540
237.211	28897
237.276	53185
237.341	72861
237.405	37492
237.470	19090
237.535	12932
237.600	8644
237.664	8263
237.729	6636
237.794	10638
237.859	18907
237.923	11439
237.988	7871
238.053	10203
238.118	9785
238.182	21113
238.247	18622
238.312	9511
238.376	7190
238.441	6212
238.506	6593
238.570	4189
238.635	5142
238.700	4799
238.764	4532
238.829	10443
238.893	11846
238.958	7667
239.023	6289
239.087	5159
239.152	5977
239.216	3876
239.281	4583
239.346	4849
239.410	4346
239.475	4976
239.539	19999
239.604	13918
239.668	5854
239.733	4584
239.797	3776
239.862	6332
239.926	13525
239.991	6257
240.055	4983
240.120	5208
240.184	5334
240.249	3969
240.313	4756
240.378	3923
240.442	12973
240.507	18211
240.571	6129
240.635	8973
240.700	10595
240.764	5164
240.829	3901
240.893	3209
240.957	3859
241.022	11290
241.086	17999
241.151	8301
241.215	4153
241.279	6988
241.344	10290
241.408	7035
241.472	6132
241.537	7651
241.601	6410
241.665	5632
241.730	5693
241.794	7503
241.858	6547
241.922	6271
241.987	6893
242.051	5886
242.115	5683
242.179	6111
242.244	4927
242.308	5918
242.372	6100
242.436	7983
242.501	5513
242.565	4682
242.629	5602
242.693	5001
242.757	4336
242.822	4966
242.886	5933
242.950	6849
243.014	5300
243.078	6546
243.142	5645
243.206	5705
243.271	6664
243.335	7356
243.399	10841
243.463	31859
243.527	73479
243.591	23608
243.655	11350
243.719	6633
243.783	8486
243.847	12306
243.911	15654
243.975	16660
244.040	10224
244.104	8568
244.168	6467
244.232	8698
244.296	11631
244.360	13529
244.424	7473
244.488	5447
244.552	5703
244.615	3745
244.679	5529
244.743	5551
244.807	6455
244.871	3869
244.935	3914
244.999	4307
245.063	4602
245.127	5758
245.191	10781
245.255	8818
245.319	7558
245.383	4934
245.446	6031
245.510	3792
245.574	5278
245.638	5572
245.702	4812
245.766	12792
245.829	7716
245.893	5666
245.957	5417
246.021	6562
246.085	6781
246.149	7548
246.212	17417
246.276	21902
246.340	10128
246.404	8076
246.467	8754
246.531	11548
246.595	8795
246.659	7866
246.722	6719
246.786	9089
246.850	9988
246.913	11954
246.977	5311
247.041	6401
247.104	6833
247.168	6448
247.232	15803
247.295	30716
247.359	14282
247.423	7834
247.486	13246
247.550	9233
247.614	6878
247.677	8765
247.741	6585
247.804	5849
247.868	7733
247.932	13654
247.995	27262
248.059	10902
248.122	6106
248.186	8816
248.249	14761
248.313	47317
248.376	44969
248.440	29613
248.503	11610
248.567	10731
248.630	14587
248.694	20417
248.757	26123
248.821	50793
248.884	29085
248.948	28673
249.011	38043
249.075	57955
249.138	47197
249.202	20125
249.265	14565
249.328	16469
249.392	12504
249.455	12029
249.519	10193
249.582	11132
249.645	18230
249.709	14229
249.772	12166
249.835	10580
249.899	10440
249.962	10658
250.025	8553
250.089	20043
250.152	26055
250.215	13918
250.279	11239
250.342	11140
250.405	11787
250.468	10998
250.532	14445
250.595	22376
250.658	78655
250.721	110994
250.785	41104
250.848	21876
250.911	14299
250.974	13750
251.038	17494
251.101	31884
251.164	17453
251.227	20086
251.290	18486
251.354	28892
251.417	106962
251.480	94701
251.543	75072
251.606	178785
251.669	126109
251.732	53305
251.795	50946
251.859	52865
251.922	114910
251.985	63157
252.048	29774
252.111	21781
252.174	18765
252.237	32349
252.300	61668
252.363	73854
252.426	136941
252.489	56805
252.552	33938
252.615	22580
252.678	23239
252.741	49943
252.804	72957
252.867	144717
252.930	80883
252.993	44523
253.056	27227
253.119	21609
253.182	17760
253.245	29966
253.308	20534
253.371	17753
253.434	17050
253.497	17689
253.559	29637
253.622	20639
253.685	24228
253.748	24011
253.811	12255
253.874	15341
253.937	14751
254.000	11561
254.062	20643
254.125	29417
254.188	31794
254.251	23890
254.314	11605
254.376	21054
254.439	21499
254.502	17658
254.565	20942
254.628	32771
254.690	19696
254.753	11217
254.816	9917
254.878	10873
254.941	21269
255.004	20399
255.067	10342
255.129	9724
255.192	6861
255.255	5775
255.317	7255
255.380	5474
255.443	4983
255.505	4702
255.568	5926
255.631	5777
255.693	7005
255.756	4052
255.819	5558
255.881	4847
255.944	4881
256.006	4708
256.069	4595
256.132	5319
256.194	6093
256.257	16547
256.319	11829
256.382	11000
256.444	8946
256.507	6809
256.569	7103
256.632	7985
256.694	12412
256.757	34567
256.819	83553
256.882	34181
256.944	15573
257.007	12350
257.069	12414
257.132	10988
257.194	9362
257.257	8846
257.319	9106
257.381	10946
257.444	26137
257.506	101138
257.569	98430
257.631	45976
257.693	25801
257.756	14101
257.818	11412
257.880	8434
257.943	8326
258.005	6463
258.067	8188
258.130	8292
258.192	8677
258.254	15405
258.317	10151
258.379	7815
258.441	18306
258.503	15621
258.566	21587
258.628	25006
258.690	8163
258.753	8458
258.815	14700
258.877	8658
258.939	7669
259.001	7091
259.064	7048
259.126	7877
259.188	10325
259.250	7837
259.312	9388
259.375	22177
259.437	13205
259.499	6900
259.561	6939
259.623	8291
259.685	9618
259.747	8438
259.809	21720
259.872	32960
259.934	55641
259.996	52860
260.058	18153
260.120	7205
260.182	6295
260.244	6325
260.306	5988
260.368	6797
260.430	6979
260.492	18610
260.554	29283
260.616	15933
260.678	29942
260.740	33596
260.802	10889
260.864	8292
260.926	7155
260.988	8658
261.050	9049
261.112	27151
261.174	53328
261.236	29008
261.298	11214
261.359	17118
261.421	22320
261.483	7114
261.545	8122
261.607	4460
261.669	7008
261.731	11364
261.793	23811
261.854	11304
261.916	8667
261.978	10996
262.040	11277
262.102	6673
262.164	10367
262.225	7426
262.287	6364
262.349	16019
262.411	11838
262.472	6772
262.534	11315
262.596	20991
262.658	8258
262.719	4986
262.781	8235
262.843	21140
262.904	10189
262.966	8790
263.028	12081
263.090	50540
263.151	115364
263.213	39120
263.275	25184
263.336	10051
263.398	7226
263.459	5106
263.521	5652
263.583	14827
263.644	9818
263.706	5506
263.767	3627
263.829	4736
263.891	3703
263.952	3831
264.014	4951
264.075	14107
264.137	32589
264.198	12306
264.260	5832
264.321	5981
264.383	18282
264.444	45523
264.506	14289
264.567	9331
264.629	19747
264.690	40073
264.752	13663
264.813	8374
264.875	5942
264.936	8097
264.998	6809
265.059	4876
265.120	6667
265.182	11142
265.243	51810
265.305	45136
265.366	12164
265.427	7002
265.489	6927
265.550	4487
265.611	6930
265.673	6602
265.734	6881
265.795	5339
265.857	4259
265.918	6137
265.979	15279
266.040	78642
266.102	55589
266.163	18483
266.224	15004
266.286	8148
266.347	5136
266.408	5808
266.469	5747
266.530	5207
266.592	4123
266.653	8917
266.714	14891
266.775	5604
266.836	4296
266.898	4645
266.959	12809
267.020	7767
267.081	6081
267.142	4021
267.203	5686
267.264	3926
267.326	6161
267.387	3973
267.448	3821
267.509	3668
267.570	4051
267.631	3497
267.692	3668
267.753	4284
267.814	3348
267.875	9987
267.936	18502
267.997	15526
268.058	10619
268.119	6001
268.180	5536
268.241	3662
268.302	4296
268.363	3907
268.424	4439
268.485	5596
268.546	4318
268.607	3055
268.668	3675
268.729	3403
268.790	5120
268.851	5063
268.912	14903
268.972	14070
269.033	6293
269.094	5013
269.155	4226
269.216	3673
269.277	4961
269.338	4076
269.398	4025
269.459	4831
269.520	7249
269.581	9519
269.642	10234
269.702	6801
269.763	6400
269.824	5190
269.885	6252
269.945	9492
270.006	5878
270.067	3455
270.128	4068
270.188	3758
270.249	4189
270.310	3956
270.370	4285
270.431	3846
270.492	4445
270.553	4752
270.613	9463
270.674	18172
270.734	8769
270.795	4660
270.856	7842
270.916	5278
270.977	4340
271.038	5572
271.098	5772
271.159	9786
271.219	8834
271.280	4898
271.340	3689
271.401	6355
271.462	11955
271.522	7364
271.583	5421
271.643	5416
271.704	5338
271.764	6613
271.825	15336
271.885	45015
271.946	53990
272.006	18439
272.066	27912
272.127	42179
272.187	12783
272.248	8877
272.308	9527
272.369	31468
272.429	17129
272.489	15668
272.550	16011
272.610	14352
272.671	10564
272.731	12517
272.791	16348
272.852	8895
272.912	8153
272.972	5363
273.033	5671
273.093	9040
273.153	10675
273.214	8159
273.274	9064
273.334	33683
273.394	45726
273.455	18029
273.515	21049
273.575	42775
273.635	15773
273.696	21319
273.756	40137
273.816	15315
273.876	9646
273.936	22161
273.997	36339
274.057	11892
274.117	8753
274.177	13287
274.237	61071
274.297	44031
274.358	28695
274.418	34723
274.478	25227
274.538	11032
274.598	8883
274.658	28316
274.718	33882
274.778	13327
274.838	7853
274.898	18741
274.958	47847
275.018	41924
275.078	26223
275.138	10760
275.198	8110
275.258	6148
275.318	7883
275.378	13876
275.438	13585
275.498	9932
275.558	24376
275.618	45558
275.678	28887
275.738	20806
275.798	18945
275.858	12797
275.918	5653
275.978	6793
276.038	6831
276.098	5738
276.157	12344
276.217	30655
276.277	12901
276.337	9529
276.397	6469
276.457	7947
276.517	4727
276.576	4343
276.636	4274
276.696	7744
276.756	19412
276.815	12347
276.875	6151
276.935	6995
276.995	6676
277.055	4788
277.114	4706
277.174	8206
277.234	24616
277.293	9512
277.353	6017
277.413	4553
277.472	4946
277.532	4832
277.592	6290
277.651	19093
277.711	27483
277.771	10976
277.830	40717
277.890	27850
277.950	23778
278.009	61107
278.069	20210
278.128	22923
278.188	27108
278.248	13623
278.307	32534
278.367	18863
278.426	8136
278.486	5710
278.545	5201
278.605	5488
278.664	4988
278.724	6461
278.783	18299
278.843	41393
278.902	12078
278.962	7459
279.021	8780
279.081	9714
279.140	8797
279.199	8673
279.259	8907
279.318	9096
279.378	11439
279.437	19427
279.496	65098
279.556	173959
279.615	115716
279.675	31379
279.734	19640
279.793	32082
279.853	47911
279.912	18398
279.971	11029
280.031	10958
280.090	23170
280.149	35923
280.208	28064
280.268	134168
280.327	106888
280.386	26586
280.445	23813
280.505	21575
280.564	12504
280.623	10789
280.682	15517
280.742	21088
280.801	7467
280.860	6336
280.919	6466
280.978	5845
281.037	6024
281.097	4998
281.156	4665
281.215	3968
281.274	6814
281.333	29029
281.392	18123
281.451	5768
281.510	5375
281.569	4736
281.628	4130
281.688	3846
281.747	6120
281.806	5533
281.865	4607
281.924	4536
281.983	3771
282.042	3568
282.101	3471
282.160	4275
282.219	3919
282.278	4034
282.337	15893
282.396	9744
282.454	5617
282.513	6498
282.572	24235
282.631	12862
282.690	5186
282.749	3762
282.808	6233
282.867	6653
282.926	5641
282.985	4431
283.043	3357
283.102	4019
283.161	5172
283.220	14286
283.279	26585
283.338	8381
283.396	4846
283.455	5242
283.514	5650
283.573	9397
283.631	7255
283.690	5169
283.749	4838
283.808	10965
283.866	11706
283.925	4593
283.984	4735
284.043	7949
284.101	6730
284.160	5039
284.219	10282
284.277	7386
284.336	9899
284.395	32288
284.453	23008
284.512	8089
284.570	12247
284.629	9507
284.688	8397
284.746	8841
284.805	9808
284.863	12473
284.922	15404
284.981	17293
285.039	24586
285.098	42858
285.156	107032
285.215	218357
285.273	194543
285.332	100437
285.390	51786
285.449	31428
285.507	22246
285.566	16566
285.624	12935
285.683	10614
285.741	8665
285.799	7890
285.858	8758
285.916	8237
285.975	5993
286.033	5494
286.091	4946
286.150	4746
286.208	6320
286.267	6847
286.325	6088
286.383	9522
286.442	7920
286.500	4425
286.558	4002
286.616	3653
286.675	5970
286.733	5669
286.791	5204
286.850	6236
286.908	8018
286.966	12818
287.024	6260
287.083	4233
287.141	3775
287.199	4666
287.257	7024
287.315	5024
287.374	5690
287.432	15403
287.490	10147
287.548	6211
287.606	6459
287.664	5910
287.723	8996
287.781	12727
287.839	7531
287.897	9623
287.955	12456
288.013	18459
288.071	39802
288.129	151844
288.187	322816
288.245	146968
288.303	52593
288.361	29753
288.419	23226
288.477	16064
288.535	11616
288.593	9619
288.651	8081
288.709	6547
288.767	6170
288.825	5121
288.883	5845
288.941	5369
288.999	5112
289.057	4660
289.115	3880
289.173	5159
289.231	4872
289.289	4702
289.346	4756
289.404	5302
289.462	8656
289.520	8322
289.578	4734
289.636	2335
289.694	3563
289.751	3443
289.809	3656
289.867	3883
289.925	5354
289.983	6007
290.040	3464
290.098	2774
290.156	4649
290.214	5489
290.271	3138
290.329	3463
290.387	3194
290.444	2607
290.502	2611
290.560	3738
290.617	5032
290.675	3164
290.733	3623
290.790	4566
290.848	3637
290.906	3629
290.963	4220
291.021	4447
291.078	3926
291.136	4980
291.194	22148
291.251	40447
291.309	11528
291.366	5598
291.424	4311
291.481	3781
291.539	3893
291.596	3494
291.654	2498
291.711	2875
291.769	3305
291.826	8560
291.884	6282
291.941	3315
291.999	3248
292.056	4840
292.114	4512
292.171	3138
292.228	3541
292.286	4816
292.343	8520
292.401	10778
292.458	6604
292.515	5099
292.573	5877
292.630	6470
292.687	6187
292.745	5179
292.802	9862
292.859	29891
292.917	32468
292.974	15914
293.031	6106
293.089	5288
293.146	4536
293.203	3808
293.260	4393
293.318	7362
293.375	16212
293.432	8144
293.489	5584
293.546	4814
293.604	7181
293.661	18931
293.718	47551
293.775	26395
293.832	12674
293.889	8896
293.947	9159
294.004	7046
294.061	7985
294.118	16392
294.175	37798
294.232	54338
294.289	20476
294.346	10554
294.403	10535
294.460	7604
294.517	6412
294.574	5262
294.631	6697
294.688	8193
294.745	17757
294.802	63698
294.859	74316
294.916	28035
294.973	14606
295.030	12166
295.087	9384
295.144	6863
295.201	7131
295.258	5670
295.315	7362
295.372	21869
295.429	36211
295.486	16745
295.542	12999
295.599	41792
295.656	64850
295.713	41850
295.770	38149
295.827	16085
295.883	9242
295.940	9533
295.997	14524
296.054	13215
296.111	8194
296.167	6496
296.224	5657
296.281	6068
296.338	5894
296.394	5901
296.451	7334
296.508	21562
296.564	36392
296.621	26442
296.678	46520
296.734	61035
296.791	24751
296.848	14417
296.904	14930
296.961	27613
297.018	43988
297.074	33269
297.131	14699
297.187	11058
297.244	14082
297.301	43263
297.357	64362
297.414	22886
297.470	12179
297.527	9446
297.583	7597
297.640	7780
297.696	7281
297.753	6016
297.809	5802
297.866	4880
297.922	5213
297.979	5375
298.035	5596
298.092	9093
298.148	25742
298.204	21988
298.261	12482
298.317	25309
298.374	54993
298.430	28798
298.486	14652
298.543	11876
298.599	10439
298.656	12194
298.712	20253
298.768	50412
298.824	34188
298.881	12275
298.937	8108
298.993	7383
299.050	9137
299.106	8037
299.162	6964
299.218	7467
299.275	5855
299.331	6456
299.387	12364
299.443	43292
299.500	37822
299.556	14565
299.612	8986
299.668	8152
299.724	7614
299.780	6629
299.837	6650
299.893	11478
299.949	36234
300.005	35967
300.061	36591
300.117	61376
300.173	27843
300.229	14053
300.285	17343
300.341	17881
300.397	10480
300.453	6616
300.510	7021
300.566	6822
300.622	6492
300.678	10739
300.734	26671
300.790	31877
300.845	39229
300.901	22190
300.957	31336
301.013	24507
301.069	11021
301.125	8434
301.181	10338
301.237	7365
301.293	5774
301.349	5970
301.405	5597
301.461	6954
301.516	9070
301.572	8264
301.628	13448
301.684	12303
301.740	19213
301.796	27134
301.851	18743
301.907	29422
301.963	27784
302.019	44971
302.074	115101
302.130	106237
302.186	47794
302.242	21572
302.297	15054
302.353	15514
302.409	27382
302.464	22478
302.520	20431
302.576	45130
302.631	47155
302.687	27202
302.743	12911
302.798	10043
302.854	8325
302.910	8893
302.965	12174
303.021	17858
303.076	16025
303.132	19135
303.187	20735
303.243	11244
303.299	8308
303.354	7249
303.410	7558
303.465	6021
303.521	6678
303.576	6406
303.632	7739
303.687	15158
303.743	38942
303.798	30056
303.853	13800
303.909	9799
303.964	9140
304.020	11672
304.075	16516
304.130	14314
304.186	26202
304.241	26315
304.297	20881
304.352	12877
304.358	12528
304.407	9698
304.449	9209
304.463	9050
304.518	8896
304.539	8337
304.573	7463
304.629	8643
304.630	8735
304.684	13294
304.720	26123
304.739	32389
304.794	42313
304.811	36261
304.850	21924
304.902	11818
304.905	11191
304.960	8811
304.992	9214
305.015	9394
305.071	9340
305.083	8979
305.126	7754
305.173	6774
305.181	6632
305.236	5730
305.264	6045
305.292	6377
305.347	8169
305.354	8253
305.402	8873
305.445	10166
305.457	10487
305.512	12106
305.535	11864
305.567	11801
305.622	12101
305.626	12526
305.678	23104
305.716	42146
305.733	48208
305.788	48769
305.807	42601
305.843	32800
305.897	42474
305.898	42564
305.953	38480
305.988	26458
306.008	20154
306.063	13863
306.078	12499
306.118	9661
306.168	7492
306.173	7308
306.228	6681
306.259	6051
306.283	5805
306.338	7337
306.349	7630
306.393	8649
306.440	9750
306.448	10133
306.503	12192
306.530	14257
306.558	22495
306.613	50478
306.620	53603
306.668	55485
306.711	50976
306.723	49664
306.778	32655
306.801	24427
306.833	17067
306.888	10229
306.892	10025
306.943	8651
306.982	7626
306.997	7557
307.052	9571
307.072	10077
307.107	14461
307.162	24462
307.163	24564
307.217	39444
307.253	49635
307.272	49242
307.327	43033
307.343	38122
307.381	30167
307.434	23581
307.436	24390
307.491	53308
307.524	75216
307.546	73750
307.600	49069
307.614	40194
307.655	25042
307.704	16159
307.710	16801
307.765	27948
307.795	38269
307.819	47338
307.874	74223
307.885	75027
307.929	52022
307.975	28023
307.984	27917
308.038	35651
308.065	42826
308.093	73662
308.148	152280
308.156	168997
308.202	234902
308.246	260295
308.257	249966
308.312	137764
308.336	94657
308.366	71966
308.421	44134
308.426	41802
308.475	28372
308.517	21543
308.530	20358
308.585	18210
308.607	17771
308.639	20217
308.694	25734
308.697	26292
308.748	65903
308.787	102520
308.803	97893
308.857	62019
308.877	47197
308.912	38897
308.967	33082
308.967	33013
309.021	38014
309.058	42425
309.076	53515
309.130	94517
309.148	111073
309.185	199185
309.238	347573
309.239	348106
309.293	335619
309.328	292993
309.348	252162
309.402	122982
309.418	90432
309.457	63652
309.508	39350
309.511	38664
309.566	33174
309.598	31302
309.620	34096
309.674	44461
309.688	47212
309.729	43022
309.778	33620
309.783	32909
309.837	25181
309.868	21712
309.892	27500
309.946	43610
309.959	48687
310.001	61181
310.049	69901
310.055	67524
310.109	40340
310.139	25173
310.163	20783
310.218	14469
310.229	13445
310.272	14703
310.319	16693
310.326	16851
310.381	18039
310.409	18407
310.435	18193
310.489	18249
310.499	18222
310.543	22263
310.589	26304
310.598	25982
310.652	23998
310.679	22520
310.706	18637
310.760	10373
310.769	9131
310.814	8202
310.859	7341
310.868	7496
310.923	8578
310.948	9139
310.977	10836
311.031	14129
311.038	14561
311.085	13251
311.128	11665
311.139	11568
311.193	11170
311.218	10960
311.247	10074
311.301	8282
311.308	8062
311.356	9583
311.398	11041
311.410	10718
311.464	8964
311.488	8137
311.518	7871
311.572	7422
311.578	7385
311.626	10415
311.668	13077
311.680	14924
311.734	23058
311.758	26621
311.788	24628
311.842	20820
311.847	20369
311.896	30657
311.937	39672
311.950	38144
312.004	30812
312.027	27470
312.058	21852
312.112	11818
312.117	10807
312.165	11436
312.207	11964
312.297	25756
312.386	16883
312.476	12462
312.566	18558
312.656	9332
312.745	10520
312.835	14483
312.925	15094
313.015	19106
313.104	23108
313.194	8806
313.284	8581
313.374	9853
313.463	8561
313.553	8395
313.643	6777
313.732	7113
313.822	8230
313.912	11420
314.001	10853
314.091	17965
314.180	25860
314.270	15782
314.360	26113
314.449	13017
314.539	8880
314.628	9272
314.718	15834
314.808	27008
314.897	8716
314.987	6919
315.076	9505
315.166	20935
315.255	24015
315.345	17218
315.434	25681
315.524	21671
315.613	18198
315.703	13769
315.792	13365
315.881	15050
315.971	14644
316.060	44676
316.150	110918
316.239	110566
316.328	28808
316.418	9710
316.507	9742
316.597	13576
316.686	13221
316.775	46595
316.865	107542
316.954	13470
317.043	6533
317.133	6616
317.222	6854
317.311	7444
317.400	5620
317.490	9771
317.579	9050
317.668	7059
317.757	9066
317.847	12525
317.936	23181
318.025	19552
318.114	11828
318.203	12231
318.293	19568
318.382	27053
318.471	22484
318.560	53843
318.649	126611
318.738	21418
318.828	15060
318.917	16326
319.006	37012
319.095	114179
319.184	159024
319.273	57102
319.362	21042
319.451	12982
319.540	13276
319.629	21894
319.718	29951
319.807	20318
319.896	57294
319.985	178981
320.074	46207
320.163	30509
320.252	72872
320.341	44788
320.430	28313
320.519	21676
320.608	14558
320.697	14485
320.786	12275
320.875	12392
320.964	15780
321.053	21096
321.142	30518
321.230	30697
321.319	37917
321.408	78631
321.497	38400
321.586	33703
321.675	96181
321.764	70377
321.852	47078
321.941	41811
322.030	23639
322.119	41020
322.207	89827
322.296	130410
322.385	59550
322.474	41031
322.562	77944
322.651	49343
322.740	36737
322.829	86395
322.917	155215
323.006	44210
323.095	31204
323.183	46642
323.272	50043
323.361	95054
323.449	289287
323.538	90379
323.626	246098
323.715	110820
323.804	59819
323.892	227847
323.981	93418
324.069	33301
324.158	147138
324.246	101400
324.335	23194
324.424	21201
324.512	10454
324.601	11412
324.689	15540
324.778	41520
324.866	102774
324.954	20452
325.043	16255
325.131	62840
325.220	127153
325.308	134891
325.397	94589
325.485	39807
325.574	9594
325.662	8198
325.750	8068
325.839	8360
325.927	8856
326.015	17371
326.104	62903
326.192	75723
326.280	11899
326.369	12952
326.457	11912
326.545	17291
326.634	7757
326.722	7423
326.810	6798
326.898	7657
326.987	10321
327.075	24257
327.163	56613
327.251	31115
327.340	17323
327.428	11621
327.516	8047
327.604	10764
327.692	16745
327.781	33019
327.869	67536
327.957	30222
328.045	12075
328.133	10046
328.221	30382
328.309	11918
328.397	8471
328.485	11229
328.574	11989
328.662	37286
328.750	59227
328.838	30435
328.926	11676
329.014	7896
329.102	13852
329.190	52923
329.278	19618
329.366	6833
329.454	8722
329.542	8854
329.630	7274
329.718	7709
329.806	8504
329.893	13880
329.981	10418
330.069	6441
330.157	20412
330.245	42046
330.333	17475
330.421	6498
330.509	15795
330.597	44270
330.684	35256
330.772	23595
330.860	56470
330.948	64668
331.036	18151
331.123	6884
331.211	11208
331.299	16568
331.387	52785
331.475	78507
331.562	26273
331.650	9880
331.738	21810
331.825	37757
331.913	10273
332.001	9636
332.089	22642
332.176	63519
332.264	158400
332.352	91971
332.439	20375
332.527	15218
332.614	21274
332.702	32075
332.790	14284
332.877	66435
332.965	128966
333.052	17023
333.140	24522
333.228	50976
333.315	11761
333.403	19786
333.490	101491
333.578	54510
333.665	21673
333.753	15399
333.840	10385
333.928	20465
334.015	96913
334.103	102495
334.190	242570
334.278	50420
334.365	35462
334.452	15935
334.540	10503
334.627	28327
334.715	35848
334.802	71484
334.889	435111
334.977	288812
335.064	26463
335.151	14763
335.239	17566
335.326	24013
335.413	109223
335.501	110946
335.588	16381
335.675	12397
335.762	25143
335.850	40887
335.937	18366
336.024	81401
336.111	349625
336.199	104294
336.286	16013
336.373	9580
336.460	7129
336.547	9954
336.635	15985
336.722	10284
336.809	11174
336.896	17303
336.983	69415
337.070	156767
337.157	200506
337.245	252575
337.332	146610
337.419	21099
337.506	13790
337.593	16373
337.680	68835
337.767	165387
337.854	44469
337.941	68779
338.028	115092
338.115	28511
338.202	33890
338.289	78188
338.376	249969
338.463	61256
338.550	113747
338.637	90192
338.724	68712
338.811	106825
338.898	17999
338.984	11910
339.071	17605
339.158	24233
339.245	39987
339.332	23426
339.419	80123
339.506	62280
339.593	7046
339.679	6886
339.766	6310
339.853	12337
339.940	15249
340.027	7903
340.113	6701
340.200	11747
340.287	11060
340.374	11283
340.460	14471
340.547	8594
340.634	12060
340.720	41773
340.807	19069
340.894	6547
340.980	11148
341.067	6705
341.154	8411
341.240	11062
341.327	16638
341.414	6558
341.500	7022
341.587	7658
341.674	7684
341.760	13824
341.847	13109
341.933	5328
342.020	2776
342.106	3113
342.193	6393
342.279	10079
342.366	8042
342.452	12219
342.539	7469
342.625	17913
342.712	36251
342.798	14456
342.885	6859
342.971	3701
343.058	5602
343.144	4495
343.230	4423
343.317	4312
343.403	3298
343.490	4057
343.576	3776
343.662	4679
343.749	10355
343.835	20021
343.921	17436
344.008	90195
344.094	157559
344.180	30508
344.267	16133
344.353	66845
344.439	91390
344.525	26326
344.612	11136
344.698	10828
344.784	6594
344.870	4849
344.957	5608
345.043	7961
345.129	6910
345.215	14119
345.301	8719
345.387	6249
345.474	5352
345.560	9080
345.646	19588
345.732	10684
345.818	8027
345.904	7699
345.990	8936
346.076	21911
346.162	51896
346.249	12285
346.335	5536
346.421	6216
346.507	26063
346.593	63871
346.679	15550
346.765	8856
346.851	5040
346.937	5640
347.023	5161
347.108	5586
347.194	3964
347.280	5654
347.366	5965
347.452	22474
347.538	80307
347.624	61643
347.710	72877
347.796	17836
347.882	11418
347.967	11509
348.053	21317
348.139	13020
348.225	5735
348.311	6213
348.397	4978
348.482	6080
348.568	8024
348.654	3048
348.740	2749
348.825	2843
348.911	11031
348.997	50287
349.083	89986
349.168	22258
349.254	6293
349.340	6529
349.425	4571
349.511	9825
349.597	19559
349.682	20504
349.768	42997
349.854	19795
349.939	10095
350.025	7107
350.110	5772
350.196	3943
350.282	3234
350.367	7730
350.453	38879
350.538	35097
350.624	12637
350.709	11144
350.795	5751
350.880	6213
350.966	11653
351.051	32156
351.137	23726
351.222	6666
351.308	16291
351.393	33075
351.479	8628
351.564	4054
351.649	5002
351.735	5121
351.820	3441
351.906	7993
351.991	18989
352.076	33255
352.162	31449
352.247	7253
352.332	5254
352.418	9500
352.503	15903
352.588	51852
352.673	33922
352.759	8765
352.844	5249
352.929	6618
353.014	7815
353.100	6294
353.185	9395
353.270	14926
353.355	14066
353.441	7706
353.526	19833
353.611	18552
353.696	14305
353.781	9158
353.866	3482
353.952	6383
354.037	12866
354.122	27065
354.207	24237
354.292	10068
354.377	5424
354.462	4563
354.547	6254
354.632	9205
354.717	18737
354.802	14327
354.887	5380
354.972	5848
355.057	5071
355.142	4794
355.227	7832
355.312	8912
355.397	19855
355.482	43187
355.567	19693
355.652	20740
355.737	20034
355.822	54691
355.907	36002
355.991	6606
356.076	4608
356.161	6529
356.246	4491
356.331	5645
356.416	16486
356.501	98206
356.585	85680
356.670	12026
356.755	8369
356.840	13716
356.924	72956
357.009	207259
357.094	66588
357.179	18420
357.263	18091
357.348	17688
357.433	17537
357.517	11520
357.602	11889
357.687	10349
357.771	14576
357.856	31621
357.941	18673
358.025	59760
358.110	198299
358.195	76436
358.279	10987
358.364	9512
358.448	39873
358.533	91221
358.617	64715
358.702	66271
358.787	24126
358.871	13725
358.956	10754
359.040	4217
359.125	3472
359.209	5423
359.294	16735
359.378	22264
359.462	10471
359.547	13813
359.631	16260
359.716	4979
359.800	8870
359.885	17549
359.969	7326
360.053	11082
360.138	14303
360.222	9868
360.306	13929
360.391	12473
360.475	23879
360.559	38469
360.644	38539
360.728	28109
360.812	59347
360.896	130704
360.981	68917
361.065	41130
361.149	10454
361.233	9715
361.318	10414
361.402	11029
361.486	8722
361.570	4787
361.654	7493
361.739	21406
361.823	93515
361.907	122445
361.991	19314
362.075	13541
362.159	25881
362.243	16463
362.327	13699
362.411	16011
362.495	18206
362.580	8195
362.664	4250
362.748	4026
362.832	3834
362.916	4076
363.000	16360
363.084	83873
363.168	136624
363.252	30242
363.336	15805
363.420	29192
363.503	135950
363.587	134859
363.671	18606
363.755	12619
363.839	16454
363.923	6621
364.007	15740
364.091	27882
364.175	63998
364.258	184939
364.342	75655
364.426	18977
364.510	13993
364.594	23129
364.677	36409
364.761	118787
364.845	71650
364.929	21656
365.013	18352
365.096	16257
365.180	21270
365.264	64067
365.347	194934
365.431	87393
365.515	23712
365.598	6592
365.682	9019
365.766	32170
365.849	37121
365.933	16117
366.017	26801
366.100	21178
366.184	11781
366.267	11902
366.351	7356
366.435	6199
366.518	4104
366.602	3775
366.685	4283
366.769	6940
366.852	24113
366.936	32320
367.019	11638
367.103	22756
367.186	42069
367.270	9346
367.353	3087
367.436	6043
367.520	3638
367.603	5369
367.687	9133
367.770	14939
367.853	10923
367.937	36804
368.020	47460
368.104	11338
368.187	12992
368.270	16309
368.353	16222
368.437	67440
368.520	199624
368.603	81387
368.687	47464
368.770	65296
368.853	16918
368.936	29026
369.020	34231
369.103	8189
369.186	5107
369.269	6499
369.352	13748
369.436	22151
369.519	13078
369.602	4324
369.685	8518
369.768	10278
369.851	9719
369.934	5890
370.018	9542
370.101	14344
370.184	15720
370.267	14897
370.350	17473
370.433	32086
370.516	61220
370.599	62095
370.682	23283
370.765	39125
370.848	51657
370.931	91312
371.014	47779
371.097	10323
371.180	5437
371.263	4821
371.346	3439
371.429	4945
371.511	5809
371.594	11723
371.677	28185
371.760	40425
371.843	18698
371.926	77672
372.009	144278
372.091	47166
372.174	50937
372.257	88999
372.340	35923
372.423	54231
372.505	71231
372.588	23882
372.671	32244
372.754	82452
372.836	42340
372.919	70221
373.002	123567
373.085	27593
373.167	14814
373.250	37303
373.332	78550
373.415	119539
373.498	208852
373.580	74509
373.663	97275
373.746	114456
373.828	27073
373.911	18159
373.993	32651
374.076	130538
374.159	128021
374.241	44737
374.324	72794
374.406	45518
374.489	73827
374.571	168360
374.654	61860
374.736	44326
374.819	121025
374.901	165592
374.983	148409
375.066	24277
375.148	20483
375.231	106970
375.313	179739
375.395	67064
375.478	11984
375.560	7201
375.643	12468
375.725	54371
375.807	170715
375.890	209244
375.972	157828
376.054	80473
376.136	165898
376.219	62586
376.301	54236
376.383	119639
376.465	43434
376.548	26924
376.630	42827
376.712	100499
376.794	40435
376.877	5505
376.959	4431
377.041	9892
377.123	37404
377.205	40282
377.287	6690
377.369	5501
377.452	7808
377.534	5308
377.616	5496
377.698	4311
377.780	3403
377.862	4309
377.944	4818
378.026	4311
378.108	4629
378.190	4952
378.272	3566
378.354	3129
378.436	4174
378.518	20764
378.600	65877
378.682	41803
378.764	48512
378.846	37684
378.928	19163
379.010	15886
379.091	9534
379.173	6454
379.255	3688
379.337	7849
379.419	28309
379.501	67862
379.583	28491
379.664	10904
379.746	20925
379.828	50197
379.910	62936
379.991	49519
380.073	10597
380.155	8233
380.237	5348
380.318	4589
380.400	4416
380.482	12562
380.564	18512
380.645	17928
380.727	14692
380.809	9233
380.890	6030
380.972	4694
381.053	5234
381.135	7470
381.217	20073
381.298	46885
381.380	26294
381.461	32738
381.543	111741
381.624	116687
381.706	21872
381.787	16955
381.869	16262
381.951	57262
382.032	165255
382.113	96679
382.195	24005
382.276	17623
382.358	35553
382.439	86305
382.521	106490
382.602	149872
382.684	74486
382.765	133253
382.846	123475
382.928	113215
383.009	61461
383.090	55136
383.172	189988
383.253	253058
383.334	115036
383.416	139834
383.497	65010
383.578	30507
383.659	60317
383.741	191395
383.822	397160
383.903	192078
383.984	91523
384.066	158221
384.147	91804
384.228	19997
384.309	14953
384.390	10298
384.471	8531
384.553	12194
384.634	18771
384.715	16000
384.796	8394
384.877	14348
384.958	44343
385.039	46308
385.120	14384
385.201	11061
385.282	23352
385.363	29268
385.444	15709
385.525	23938
385.606	69445
385.687	56216
385.768	25098
385.849	33964
385.930	83416
386.011	119905
386.092	31608
386.173	11187
386.254	13956
386.335	17286
386.416	16603
386.496	35900
386.577	52066
386.658	35502
386.739	23917
386.820	28771
386.901	25284
386.981	16729
387.062	7812
387.143	16021
387.224	47896
387.304	48029
387.385	23037
387.466	20558
387.547	27910
387.627	12168
387.708	25982
387.789	88996
387.869	94094
387.950	24100
388.031	7613
388.111	17323
388.192	60440
388.273	87233
388.353	41430
388.434	12788
388.514	26461
388.595	88052
388.676	95576
388.756	45685
388.837	42261
388.917	25334
388.998	9629
389.078	11336
389.159	7820
389.239	4769
389.320	10057
389.400	11188
389.480	32158
389.561	57857
389.641	24136
389.722	11049
389.802	17155
389.883	30976
389.963	69996
390.043	75095
390.124	40257
390.204	23481
390.284	51714
390.365	43005
390.445	111980
390.525	229439
390.605	156639
390.686	31365
390.766	10048
390.846	6346
390.927	4636
391.007	5803
391.087	11423
391.167	11211
391.247	12277
391.328	40463
391.408	50694
391.488	27032
391.568	6046
391.648	8019
391.728	9355
391.808	10361
391.888	11909
391.969	29322
392.049	42607
392.129	30427
392.209	32831
392.289	53060
392.369	41996
392.449	62984
392.529	32575
392.609	16278
392.689	22617
392.769	51660
392.849	42835
392.929	54854
393.009	102956
393.089	47999
393.169	19417
393.248	62398
393.328	257001
393.408	258184
393.488	48851
393.568	13044
393.648	7728
393.728	7640
393.807	6750
393.887	7461
393.967	7731
394.047	10676
394.127	15507
394.206	32812
394.286	145599
394.366	480089
394.446	460577
394.525	109886
394.605	27783
394.685	33496
394.764	91296
394.844	140559
394.924	85411
395.003	17393
395.083	10934
395.163	9092
395.242	9023
395.322	9036
395.402	6356
395.481	14170
395.561	60634
395.640	133238
395.720	91143
395.799	149427
395.879	114196
395.958	59494
396.038	211901
396.117	624477
396.197	624617
396.276	216380
396.356	83610
396.435	64574
396.515	30300
396.594	18303
396.673	24389
396.753	80250
396.832	235631
396.912	182580
396.991	45998
397.070	12105
397.150	6708
397.229	6542
397.308	5886
397.388	6199
397.467	5117
397.546	5502
397.625	2658
397.705	8472
397.784	7740
397.863	4038
397.942	3623
398.022	9292
398.101	57977
398.180	144034
398.259	80914
398.338	18794
398.417	8261
398.497	8031
398.576	9368
398.655	4224
398.734	4700
398.813	9939
398.892	54464
398.971	145327
399.050	69857
399.129	8368
399.208	4135
399.287	4913
399.366	3579
399.445	5414
399.524	6032
399.603	4313
399.682	10881
399.761	47687
399.840	150267
399.919	113770
399.998	16398
400.077	4104
400.156	2835
400.235	8948
400.313	8164
400.392	11866
400.471	28535
400.550	37342
400.629	12052
400.708	8836
400.786	16348
400.865	47349
400.944	46472
401.023	15493
401.102	2717
401.180	5204
401.259	8683
401.338	11791
401.416	10327
401.495	9942
401.574	10692
401.652	8318
401.731	11713
401.810	10128
401.888	4851
401.967	2195
402.046	3988
402.124	11548
402.203	14375
402.281	7405
402.360	16784
402.438	56206
402.517	40370
402.596	15250
402.674	15174
402.753	9114
402.831	6070
402.910	8605
402.988	27526
403.066	61421
403.145	31511
403.223	22796
403.302	40389
403.380	30620
403.459	26891
403.537	13427
403.615	7817
403.694	2465
403.772	2470
403.850	2542
403.929	2158
404.007	4138
404.085	7762
404.164	6334
404.242	4681
404.320	16711
404.398	38388
404.477	53833
404.555	132856
404.633	111046
404.711	31782
404.789	12612
404.868	5196
404.946	2947
405.024	2712
405.102	2134
405.180	677
405.258	983
405.336	3783
405.415	6553
405.493	17101
405.571	11974
405.649	2649
405.727	5095
405.805	10768
405.883	10397
405.961	14053
406.039	19188
406.117	6604
406.195	7939
406.273	38765
406.351	110233
406.429	71637
406.507	22407
406.585	8348
406.663	4136
406.740	4664
406.818	5239
406.896	4544
406.974	5142
407.052	13895
407.130	68353
407.208	81922
407.285	18770
407.363	4206
407.441	3779
407.519	3534
407.596	4293
407.674	13016
407.752	33933
407.830	50919
407.907	30533
407.985	8583
408.063	4902
408.141	6644
408.218	15051
408.296	12843
408.373	4612
408.451	3763
408.529	2852
408.606	1674
408.684	1831
408.762	1236
408.839	458
408.917	736
408.994	1152
409.072	989
409.149	1234
409.227	1662
409.304	2302
409.382	959
409.459	818
409.537	1796
409.614	2608
409.692	272
409.769	738
409.846	3003
409.924	6089
410.001	2467
410.079	3897
410.156	3976
410.233	5266
410.311	3364
410.388	1515
410.465	1480
410.543	1771
410.620	1757
410.697	2655
410.775	3159
410.852	521
410.929	3680
411.006	4588
411.083	2437
411.161	6893
411.238	14192
411.315	10620
411.392	2342
411.469	4201
411.547	3653
411.624	866
411.701	1161
411.778	3985
411.855	7165
411.932	4204
412.009	3489
412.086	3374
412.163	6588
412.240	9468
412.317	12938
412.394	11992
412.471	2924
412.548	2201
412.625	2101
412.702	7388
412.779	14570
412.856	8870
412.933	3214
413.010	3150
413.087	7657
413.164	24850
413.241	28951
413.318	7441
413.395	5534
413.471	6241
413.548	3341
413.625	3808
413.702	8036
413.779	7466
413.855	1218
413.932	1296
414.009	1452
414.086	2275
414.162	2256
414.239	9522
414.316	31243
414.393	47991
414.469	14595
414.546	2040
414.623	1350
414.699	1737
414.776	2285
414.853	2763
414.929	4429
415.006	5481
415.082	10516
415.159	7625
415.236	4330
415.312	3771
415.389	5165
415.465	7452
415.542	3880
415.618	2325
415.695	4800
415.771	3826
415.848	3776
415.924	6085
416.000	5492
416.077	3580
416.153	1311
416.230	260
416.306	2709
416.383	7079
416.459	4169
416.535	1296
416.612	2798
416.688	3597
416.764	1897
416.841	1701
416.917	2877
416.993	2904
417.069	4832
417.146	8859
417.222	8191
417.298	4555
417.374	2442
417.451	4279
417.527	3057
417.603	2360
417.679	2750
417.755	2605
417.831	336
417.908	1099
417.984	727
418.060	1903
418.136	6493
418.212	7830
418.288	2887
418.364	3615
418.440	1715
418.516	6576
418.592	17880
418.668	21326
418.744	16221
418.820	11219
418.896	3583
418.972	664
419.048	2545
419.124	6883
419.200	4128
419.276	881
419.352	-239
419.428	1411
419.504	2154
419.579	2318
419.655	1762
419.731	2084
419.807	10862
419.883	17162
419.959	11440
420.034	4753
420.110	11197
420.186	29776
420.262	21087
420.337	5926
420.413	3721
420.489	1440
420.565	1529
420.640	1388
420.716	1216
420.792	-607
420.867	2014
420.943	1989
421.019	3778
421.094	2800
421.170	2369
421.245	1184
421.321	1149
421.397	1771
421.472	4346
421.548	9757
421.623	7094
421.699	1810
421.774	1547
421.850	1657
421.925	3666
422.001	2376
422.076	1177
422.152	1742
422.227	4481
422.302	3080
422.378	3060
422.453	6811
422.529	17918
422.604	74240
422.679	144139
422.755	69425
422.830	14618
422.905	3423
422.981	1773
423.056	973
423.131	1338
423.207	263
423.282	1995
423.357	7083
423.432	3684
423.508	6080
423.583	12994
423.658	9772
423.733	5544
423.808	8419
423.883	7017
423.959	5470
424.034	2728
424.109	3803
424.184	2020
424.259	1539
424.334	1468
424.409	180
424.484	220
424.559	1735
424.634	1664
424.709	3098
424.784	3729
424.859	2581
424.934	6988
425.009	22106
425.084	32909
425.159	11480
425.234	3355
425.309	1465
425.384	7564
425.459	9746
425.534	4995
425.609	5841
425.683	3697
425.758	1987
425.833	3214
425.908	5116
425.983	15571
426.058	34239
426.132	16505
426.207	8900
426.282	18660
426.357	17883
426.431	3840
426.506	3384
426.581	4604
426.655	4314
426.730	1434
426.805	1825
426.879	2683
426.954	3441
427.029	10346
427.103	42900
427.178	85898
427.253	38640
427.327	7451
427.402	16775
427.476	32877
427.551	13312
427.625	7866
427.700	8252
427.774	4907
427.849	8218
427.923	3557
427.998	2353
428.072	5418
428.147	11573
428.221	21881
428.296	29035
428.370	8948
428.444	8218
428.519	24065
428.593	46406
428.667	40379
428.742	47438
428.816	36477
428.890	55735
428.965	56735
429.039	42884
429.113	53515
429.188	17408
429.262	3373
429.336	9324
429.410	22621
429.485	20755
429.559	38397
429.633	28703
429.707	6402
429.781	21417
429.855	82022
429.930	98824
430.004	115073
430.078	190056
430.152	120032
430.226	34645
430.300	19755
430.374	4572
430.448	11063
430.522	61593
430.596	151413
430.670	75300
430.744	61504
430.818	84558
430.892	19459
430.966	3766
431.040	2495
431.114	1333
431.188	2507
431.262	4565
431.336	5851
431.410	22521
431.484	54505
431.557	26831
431.631	1638
431.705	2307
431.779	5938
431.853	21097
431.927	14503
432.000	3317
432.074	2686
432.148	10639
432.222	8179
432.295	2830
432.369	2235
432.443	9450
432.516	51399
432.590	94625
432.664	35983
432.737	4503
432.811	893
432.885	383
432.958	482
433.032	1403
433.106	142
433.179	97
433.253	195
433.326	431
433.400	937
433.473	1262
433.547	756
433.620	1246
433.694	3359
433.767	8195
433.841	6064
433.914	2373
433.988	448
434.061	1386
434.134	1191
434.208	-195
434.281	-259
434.355	1109
434.428	2686
434.501	1659
434.575	1889
434.648	3437
434.721	345
434.795	1600
434.868	854
434.941	-20
435.014	-256
435.088	210
435.161	1469
435.234	3248
435.307	2955
435.381	2568
435.454	1432
435.527	693
435.600	-315
435.673	529
435.746	48
435.819	842
435.892	363
435.966	1319
436.039	2951
436.112	2515
436.185	388
436.258	350
436.331	-1158
436.404	784
436.477	-299
436.550	-806
436.623	796
436.696	755
436.769	1157
436.842	1157
436.915	4373
436.987	4902
437.060	1864
437.133	1073
437.206	1419
437.279	2538
437.352	427
437.425	546
437.498	2284
437.570	5364
437.643	2197
437.716	819
437.789	173
437.861	3758
437.934	7689
438.007	3075
438.080	-397
438.152	1781
438.225	7820
438.298	56865
438.370	121249
438.443	43452
438.516	6460
438.588	1268
438.661	-123
438.734	1501
438.806	1961
438.879	3239
438.951	2454
439.024	3472
439.096	786
439.169	1604
439.241	681
439.314	2572
439.386	9955
439.459	18538
439.531	24062
439.604	7191
439.676	1109
439.749	201
439.821	213
439.893	1267
439.966	3182
440.038	3489
440.110	2149
440.183	676
440.255	669
440.327	5114
440.400	32035
440.472	85423
440.544	45217
440.617	4560
440.689	3493
440.761	4787
440.833	6139
440.905	3687
440.978	491
441.050	886
441.122	556
441.194	939
441.266	441
441.338	706
441.411	4392
441.483	23411
441.555	29217
441.627	8291
441.699	13076
441.771	15713
441.843	4274
441.915	894
441.987	129
442.059	1515
442.131	4751
442.203	8418
442.275	9350
442.347	5711
442.419	2493
442.491	4797
442.563	10900
442.635	21340
442.706	45661
442.778	29871
442.850	3027
442.922	789
442.994	4171
443.066	8201
443.137	4687
443.209	2110
443.281	3251
443.353	8475
443.425	16517
443.496	15333
443.568	10756
443.640	6558
443.711	3689
443.783	1700
443.855	2051
443.926	1141
443.998	3521
444.070	7952
444.141	4233
444.213	3966
444.285	5980
444.356	13726
444.428	14739
444.499	3511
444.571	324
444.642	1145
444.714	1838
444.785	3508
444.857	15454
444.928	42853
445.000	23117
445.071	28049
445.143	27223
445.214	7086
445.285	20516
445.357	54513
445.428	40387
445.500	50337
445.571	53711
445.642	17728
445.714	39014
445.785	56540
445.856	11622
445.928	5098
445.999	3205
446.070	3370
446.141	3196
446.213	4257
446.284	3475
446.355	9025
446.426	4661
446.497	4552
446.569	13045
446.640	14054
446.711	4138
446.782	4352
446.853	15697
446.924	10735
446.995	2653
447.066	6612
447.138	15872
447.209	7766
447.280	1031
447.351	310
447.422	1246
447.493	6201
447.564	4511
447.635	3537
447.706	1458
447.777	281
447.847	-309
447.918	2136
447.989	6910
448.060	11856
448.131	29918
448.202	19386
448.273	7822
448.344	3786
448.414	619
448.485	962
448.556	955
448.627	418
448.698	865
448.768	752
448.839	4441
448.910	13759
448.981	9682
449.051	1749
449.122	-83
449.193	596
449.263	1119
449.334	1043
449.405	2112
449.475	6253
449.546	6691
449.616	16524
449.687	11702
449.758	2745
449.828	1394
449.899	1193
449.969	277
450.040	2775
450.110	9591
450.181	10350
450.251	1729
450.322	1312
450.392	2765
450.463	1841
450.533	940
450.604	1477
450.674	1964
450.744	2215
450.815	2184
450.885	1667
450.955	1402
451.026	735
451.096	2884
451.166	5957
451.237	20055
451.307	43581
451.377	12998
451.447	1450
451.518	1104
451.588	2078
451.658	1850
451.728	10284
451.799	48422
451.869	46942
451.939	8559
452.009	2077
452.079	1746
452.149	3099
452.219	13861
452.289	54498
452.360	33615
452.430	5226
452.500	2541
452.570	3510
452.640	6135
452.710	27722
452.780	41172
452.850	14910
452.920	8567
452.990	3418
453.060	3127
453.129	5187
453.199	9010
453.269	57133
453.339	101206
453.409	145331
453.479	164403
453.549	235202
453.619	248530
453.688	83013
453.758	12538
453.828	4451
453.898	3342
453.968	3408
454.037	2923
454.087	2599
454.107	2435
454.168	2296
454.177	2243
454.247	2283
454.249	2332
454.316	2231
454.330	3313
454.386	6680
454.411	14556
454.456	27089
454.492	31646
454.525	35922
454.574	16540
454.595	8204
454.655	3803
454.665	3168
454.734	6226
454.736	6653
454.804	15645
454.817	22699
454.873	49262
454.898	51552
454.943	55620
454.979	39618
455.013	26035
455.060	14155
455.082	9079
455.141	12335
455.152	12610
455.221	38502
455.222	39080
455.291	62108
455.303	57824
455.360	39319
455.384	45484
455.430	53502
455.465	43914
455.499	35085
455.546	42315
455.569	44628
455.627	25947
455.638	23002
455.707	3916
455.708	3948
455.777	3314
455.789	3483
455.846	4095
455.869	3746
455.916	3168
455.950	3363
455.985	3139
456.031	3597
456.054	3920
456.112	3244
456.124	3185
456.193	3762
456.193	3717
456.262	5803
456.274	6508
456.332	9077
456.355	10900
456.401	13291
456.436	9581
456.470	6347
456.516	3912
456.540	2789
456.597	2265
456.609	2181
456.678	2037
456.678	2012
456.747	2121
456.759	2073
456.817	1694
456.840	1986
456.886	2662
456.920	2667
456.955	2860
457.001	3392
457.024	3916
457.082	6539
457.093	6968
457.162	13494
457.163	13565
457.232	19138
457.243	17204
457.301	8342
457.324	6356
457.370	3524
457.405	3527
457.439	3650
457.485	3493
457.508	3305
457.566	4355
457.577	4487
457.646	4216
457.647	4237
457.715	4009
457.727	3892
457.784	3562
457.808	3777
457.853	3997
457.889	4081
457.922	4087
457.969	4307
457.991	4370
458.050	4945
458.060	5037
458.129	5334
458.130	5354
458.198	4482
458.211	4277
458.267	3574
458.292	3623
458.336	4005
458.372	4133
458.405	4461
458.453	5345
458.474	5528
458.533	6355
458.543	6525
458.611	8258
458.614	8324
458.680	6668
458.694	5994
458.749	4764
458.775	4681
458.818	4588
458.855	4450
458.887	4554
458.936	5410
458.955	5513
459.016	5970
459.024	6092
459.093	6760
459.097	6795
459.162	6471
459.177	6479
459.230	6920
459.257	7259
459.299	7425
459.338	7476
459.368	7563
459.418	7658
459.437	7234
459.499	6018
459.505	6048
459.574	6321
459.579	6371
459.643	6366
459.659	6230
459.711	6177
459.740	6575
459.780	7148
459.820	7638
459.849	8183
459.900	9483
459.917	9271
459.981	8190
459.986	8153
460.054	7294
460.061	7114
460.123	6736
460.141	7221
460.191	8587
460.222	9349
460.260	9762
460.302	10353
460.328	9914
460.382	7980
460.397	7836
460.462	7770
460.465	7915
460.534	11788
460.543	12264
460.602	19451
460.623	22471
460.671	32193
460.703	40397
460.739	33523
460.783	21244
460.808	18277
460.864	9128
460.876	8438
460.944	8385
460.945	8365
461.013	7518
461.024	7410
461.081	7785
461.104	8000
461.150	7920
461.184	7636
461.218	7368
461.264	6985
461.286	7168
461.345	7990
461.355	8088
461.423	8843
461.425	8857
461.491	12583
461.505	13451
461.559	28872
461.585	36231
461.628	51107
461.665	67300
461.696	68577
461.745	76112
461.764	68111
461.825	19404
461.832	18110
461.901	10056
461.905	10046
461.969	9080
461.985	8844
462.037	10157
462.065	10791
462.105	15195
462.145	19938
462.173	25790
462.225	37165
462.241	40454
462.305	58682
462.310	56922
462.378	25098
462.385	20486
462.446	11331
462.465	10168
462.514	9548
462.545	9900
462.582	10583
462.625	11361
462.650	11235
462.705	10772
462.718	11669
462.785	16769
462.786	16879
462.854	22658
462.865	23862
462.922	27995
462.945	29696
462.990	21728
463.025	13021
463.058	11352
463.104	10430
463.126	10088
463.184	9917
463.194	10152
463.262	11448
463.264	11508
463.330	13734
463.344	14183
463.398	15500
463.424	16057
463.466	15033
463.504	14276
463.533	14440
463.583	14169
463.601	14674
463.663	16400
463.669	17146
463.737	26217
463.743	27049
463.805	46089
463.823	51584
463.873	74971
463.903	90541
463.940	87877
463.982	86231
464.008	69284
464.062	24126
464.076	22055
464.142	12762
464.144	12647
464.211	12235
464.221	12239
464.279	12949
464.301	13292
464.347	15499
464.381	17172
464.414	20030
464.461	23971
464.482	23817
464.540	24099
464.550	23238
464.617	15080
464.620	14784
464.685	15504
464.699	15793
464.753	18051
464.779	19211
464.820	21844
464.859	24173
464.888	24711
464.938	25531
464.956	25565
465.018	25980
465.023	25539
465.091	18576
465.098	17800
465.158	17265
465.177	17238
465.226	17686
465.257	17938
465.293	18557
465.336	19250
465.361	21501
465.416	26384
465.428	30176
465.495	50429
465.496	50704
465.563	80638
465.575	85932
465.631	93697
465.654	97250
465.698	58305
465.734	22945
465.765	19977
465.813	16624
465.833	16272
465.893	16458
465.900	16514
465.968	16744
465.972	16736
466.035	15739
466.052	15394
466.102	16422
466.131	17038
466.170	17062
466.210	16973
466.237	17168
466.290	17512
466.304	17734
466.369	18447
466.372	18480
466.439	18544
466.449	18486
466.506	23318
466.528	25157
466.573	44818
466.607	59478
466.641	79752
466.687	107801
466.708	114311
466.766	132588
466.775	121245
466.842	33176
466.845	28937
466.909	22325
466.925	20972
466.977	20907
467.004	20927
467.044	22023
467.083	23035
467.111	24649
467.163	27570
467.178	27946
467.242	29200
467.245	29235
467.312	28739
467.321	28616
467.379	30362
467.400	30904
467.446	35543
467.480	38775
467.559	28996
467.638	25644
467.717	26161
467.796	26413
467.875	28794
467.955	33114
468.034	70970
468.113	133001
468.192	173039
468.271	32035
468.350	24529
468.429	25183
468.508	22848
468.588	25514
468.667	33692
468.746	44306
468.825	35243
468.904	24277
468.983	35936
469.062	54041
469.141	59672
469.220	23089
469.299	24984
469.378	26488
469.456	28238
469.535	25352
469.614	26308
469.693	32088
469.772	43319
469.851	61430
469.930	31799
470.009	22588
470.088	22258
470.166	22387
470.245	26797
470.324	25184
470.403	23933
470.482	22077
470.560	21887
470.639	22062
470.718	25616
470.797	25469
470.875	38425
470.954	54784
471.033	52443
471.111	20241
471.190	20959
471.269	19697
471.347	19696
471.426	23127
471.505	27843
471.583	25341
471.662	22521
471.740	23126
471.819	22676
471.898	22001
471.976	22023
472.055	21323
472.133	28042
472.212	38411
472.290	38177
472.369	23266
472.447	21015
472.526	18813
472.604	20947
472.683	19965
472.761	21502
472.839	20381
472.918	20147
472.996	22697
473.075	28343
473.153	25561
473.231	24160
473.310	25872
473.388	24120
473.466	22762
473.545	22795
473.623	24951
473.701	24991
473.780	22800
473.858	26143
473.936	32919
474.014	22104
474.093	27899
474.171	46532
474.249	64481
474.327	31411
474.405	17273
474.484	17331
474.562	18203
474.640	19934
474.718	21474
474.796	20162
474.874	17545
474.952	17181
475.030	17214
475.108	17667
475.187	18651
475.265	21017
475.343	23848
475.421	25609
475.499	19072
475.577	24096
475.655	41825
475.733	85740
475.811	146995
475.889	122781
475.966	60802
476.044	22536
476.122	26380
476.200	29072
476.278	25493
476.356	21985
476.434	24622
476.512	26727
476.590	30578
476.667	27073
476.745	20623
476.823	24208
476.901	24147
476.979	26089
477.056	25338
477.134	28602
477.212	30440
477.290	22550
477.367	21407
477.445	21602
477.523	20978
477.601	20610
477.678	23947
477.756	31045
477.834	32312
477.911	21106
477.989	21740
478.066	23269
478.144	27461
478.222	24942
478.299	29564
478.377	26083
478.454	21441
478.532	20042
478.609	19195
478.687	20824
478.764	19667
478.842	22693
478.919	21702
478.997	20500
479.074	21024
479.152	28932
479.229	37259
479.307	21261
479.384	17928
479.461	18947
479.539	22431
479.616	27179
479.694	20724
479.771	26179
479.848	29834
479.926	41680
480.003	37332
480.080	19462
480.157	19808
480.235	18860
480.312	20449
480.389	31193
480.467	51548
480.544	58924
480.621	27203
480.698	25443
480.775	30806
480.853	30722
480.930	25710
481.007	25839
481.084	31357
481.161	30144
481.238	27855
481.315	21825
481.392	23112
481.470	28404
481.547	29918
481.624	23690
481.701	21556
481.778	25136
481.855	29677
481.932	49774
482.009	80206
482.086	41465
482.163	22047
482.240	27241
482.317	34059
482.393	29361
482.470	23463
482.547	24637
482.624	21298
482.701	22619
482.778	22132
482.855	19394
482.932	17765
483.009	17516
483.085	20583
483.162	22069
483.239	21326
483.316	18244
483.393	18619
483.469	20248
483.546	26398
483.623	28476
483.699	21809
483.776	22644
483.853	28808
483.930	55277
484.006	125293
484.083	188270
484.160	64429
484.236	76710
484.313	56584
484.389	47556
484.466	43358
484.543	41420
484.619	42207
484.696	46986
484.772	54014
484.849	57218
484.925	41405
485.002	42899
485.078	45799
485.155	45226
485.231	41065
485.308	40761
485.384	45494
485.461	70278
485.537	117127
485.614	123270
485.690	41060
485.766	37872
485.843	40599
485.919	46613
485.995	44583
486.072	35135
486.148	35015
486.224	36776
486.301	39772
486.377	47438
486.453	42839
486.530	43747
486.606	54858
486.682	64861
486.758	93160
486.835	106891
486.911	86825
486.987	139242
487.063	89197
487.139	80473
487.215	58921
487.292	39658
487.368	37657
487.444	40679
487.520	44138
487.596	34857
487.672	38008
487.748	46482
487.824	48553
487.900	37957
487.976	38114
488.052	44109
488.128	46672
488.204	42021
488.280	41929
488.356	69846
488.432	144482
488.508	194839
488.584	44933
488.660	32156
488.736	32937
488.812	34126
488.888	40796
488.964	52017
489.039	87341
489.115	110136
489.191	66715
489.267	38278
489.343	36770
489.418	30432
489.494	30515
489.570	28825
489.646	32005
489.722	31648
489.797	39366
489.873	83935
489.949	167063
490.024	106106
490.100	31112
490.176	32144
490.251	33374
490.327	38352
490.403	27997
490.478	27991
490.554	24599
490.629	25638
490.705	25600
490.781	28736
490.856	28989
490.932	31323
491.007	28715
491.083	31363
491.158	33180
491.234	62881
491.309	127496
491.385	107759
491.460	32276
491.536	32968
491.611	25180
491.686	27262
491.762	35346
491.837	60783
491.913	104057
491.988	137622
492.063	137304
492.139	75633
492.214	45842
492.289	22439
492.365	24130
492.440	31143
492.515	33242
492.590	30771
492.666	26410
492.741	44374
492.816	68678
492.891	30364
492.967	22446
493.042	21993
493.117	22272
493.192	25084
493.267	53778
493.342	130386
493.418	142051
493.493	28111
493.568	20260
493.643	23568
493.718	35188
493.793	52186
493.868	38289
493.943	23005
494.018	22686
494.093	23151
494.168	22660
494.243	18813
494.318	18460
494.393	18094
494.468	18852
494.543	18674
494.618	20761
494.693	20537
494.768	22381
494.842	21878
494.917	18178
494.992	19264
495.067	16462
495.142	17421
495.217	18469
495.292	19399
495.366	23396
495.441	30694
495.516	36906
495.591	50915
495.665	126573
495.740	220960
495.815	82824
495.890	34605
495.964	29370
496.039	30544
496.114	28256
496.188	29158
496.263	29582
496.338	30803
496.412	37220
496.487	39793
496.561	34620
496.636	34463
496.710	31167
496.785	39519
496.860	43618
496.934	29265
497.009	28768
497.083	29407
497.158	32548
497.232	40759
497.307	47144
497.381	35582
497.455	52902
497.530	67428
497.604	37923
497.679	45780
497.753	75858
497.827	80410
497.902	54977
497.976	87041
498.050	284717
498.125	796733
498.199	606972
498.273	69949
498.348	48255
498.422	43467
498.496	41784
498.570	38898
498.645	37422
498.719	40373
498.793	56842
498.867	97217
498.941	151650
499.016	420504
499.090	831386
499.164	205258
499.238	35416
499.312	33600
499.386	38033
499.460	38103
499.534	37294
499.609	50685
499.683	78524
499.757	80592
499.831	225060
499.905	646630
499.979	462879
500.053	100953
500.127	84920
500.201	44205
500.275	36380
500.349	36481
500.422	39919
500.496	59763
500.570	136412
500.644	394136
500.718	601040
500.792	96858
500.866	45431
500.940	59436
501.013	44356
501.087	43253
501.161	62123
501.235	113952
501.309	315978
501.382	670994
501.456	431350
501.530	136280
501.603	224350
501.677	65177
501.751	33679
501.825	50002
501.898	122640
501.972	288341
502.046	131979
502.119	54035
502.193	145264
502.266	296595
502.340	123008
502.413	164116
502.487	266694
502.561	138018
502.634	38089
502.708	28852
502.781	25200
502.855	24240
502.928	23736
503.002	24073
503.075	25339
503.149	27640
503.222	27821
503.295	30905
503.369	39604
503.442	77944
503.516	267786
503.589	541452
503.662	284526
503.736	115431
503.809	256212
503.882	186948
503.956	275936
504.029	177264
504.102	43004
504.175	34602
504.249	24940
504.322	37182
504.395	33367
504.468	25389
504.542	28333
504.615	21005
504.688	18586
504.761	19196
504.834	25559
504.907	25756
504.980	32137
505.053	24805
505.127	24852
505.200	37680
505.273	48371
505.346	25951
505.419	21071
505.492	19500
505.565	17242
505.638	17650
505.711	18393
505.784	17822
505.857	17525
505.930	21202
506.003	18840
506.076	23609
506.149	34926
506.221	40220
506.294	42918
506.367	144537
506.440	352187
506.513	134902
506.586	41618
506.659	22664
506.731	19489
506.804	25019
506.877	30637
506.950	24137
507.022	21640
507.095	33877
507.168	33702
507.241	18157
507.313	16098
507.386	17886
507.459	21424
507.531	15889
507.604	15671
507.677	16372
507.749	15563
507.822	22656
507.894	33910
507.967	34645
508.040	21962
508.112	21034
508.185	20672
508.257	18783
508.330	25648
508.402	22135
508.475	24100
508.547	24910
508.620	31360
508.692	48490
508.765	23460
508.837	17509
508.909	17052
508.982	18290
509.054	20278
509.127	16617
509.199	17100
509.271	16296
509.344	15923
509.416	16809
509.488	17293
509.560	17936
509.633	16667
509.705	20084
509.777	20096
509.849	24767
509.922	19683
509.994	17673
510.066	19132
510.138	20778
510.210	34102
510.283	30004
510.355	24127
510.427	22003
510.499	21351
510.571	20956
510.643	22018
510.715	28221
510.787	24381
510.859	24116
510.931	28833
511.003	28819
511.076	25840
511.148	21005
511.219	26309
511.291	51299
511.363	50491
511.435	20918
511.507	18786
511.579	19387
511.651	19620
511.723	18925
511.795	17904
511.867	21110
511.939	35508
512.010	76237
512.082	44594
512.154	19109
512.226	20790
512.298	29846
512.369	33482
512.441	26872
512.513	25879
512.585	22252
512.656	24587
512.728	26316
512.800	20219
512.871	21615
512.943	20937
513.015	18373
513.086	18958
513.158	21104
513.230	23395
513.301	29443
513.373	27028
513.444	19536
513.516	17682
513.588	18215
513.659	19039
513.731	22449
513.802	21112
513.874	37508
513.945	49590
514.016	22726
514.088	19024
514.159	20342
514.231	27484
514.302	31151
514.374	25762
514.445	36922
514.516	80424
514.588	46302
514.659	37570
514.730	70287
514.802	32889
514.873	19693
514.944	23187
515.016	22321
515.087	27330
515.158	49523
515.229	57416
515.301	21077
515.372	22698
515.443	18955
515.514	19114
515.585	17322
515.656	18181
515.728	18260
515.799	18085
515.870	19283
515.941	19693
516.012	20110
516.083	25134
516.154	26416
516.225	27867
516.296	25629
516.367	21668
516.438	23995
516.509	28729
516.580	44484
516.651	127622
516.722	303164
516.793	118072
516.864	45661
516.935	46720
517.006	49045
517.077	65438
517.148	137128
517.219	384369
517.289	504274
517.360	353396
517.431	97788
517.502	33088
517.573	31763
517.643	31738
517.714	36663
517.785	33528
517.856	33631
517.926	36461
517.997	38430
518.068	40615
518.138	50196
518.209	84652
518.280	301003
518.350	733157
518.421	218373
518.492	42285
518.562	37897
518.633	38480
518.703	30272
518.774	35191
518.845	46616
518.915	40303
518.986	34741
519.056	41625
519.127	69663
519.197	144589
519.268	377131
519.338	176054
519.408	48159
519.479	39449
519.549	31046
519.620	27791
519.690	23039
519.760	25747
519.831	23976
519.901	24160
519.971	25199
520.042	29925
520.112	35826
520.182	29106
520.253	30027
520.323	26613
520.393	34424
520.463	39732
520.534	40092
520.604	62036
520.674	35250
520.744	41101
520.814	67502
520.885	67254
520.955	171148
521.025	433739
521.095	114848
521.165	31351
521.235	30604
521.305	23422
521.375	21223
521.445	23880
521.515	24970
521.585	28726
521.655	24438
521.725	26488
521.795	26532
521.865	24826
521.935	48020
522.005	32720
522.075	21465
522.145	24629
522.215	34254
522.285	49906
522.355	80340
522.424	144907
522.494	96223
522.564	37408
522.634	61998
522.704	109708
522.774	39047
522.843	23205
522.913	21830
522.983	23445
523.053	19966
523.122	22120
523.192	29148
523.262	70641
523.331	53590
523.401	19909
523.471	17056
523.540	17829
523.610	14879
523.680	17454
523.749	20460
523.819	31040
523.888	26831
523.958	17054
524.027	21423
524.097	21381
524.166	19325
524.236	19424
524.305	21651
524.375	18176
524.444	18326
524.514	22083
524.583	25583
524.653	31679
524.722	33341
524.791	20016
524.861	20320
524.930	18014
524.999	19017
525.069	25016
525.138	28350
525.207	33817
525.277	21233
525.346	19626
525.415	18879
525.484	20091
525.554	28297
525.623	23259
525.692	18257
525.761	18502
525.830	16924
525.900	18646
525.969	26668
526.038	23469
526.107	21119
526.176	31492
526.245	27738
526.314	34652
526.383	36817
526.452	28584
526.522	54827
526.591	80499
526.660	54540
526.729	26245
526.797	34823
526.867	90573
526.935	273424
527.004	163595
527.073	56081
527.142	20563
527.211	18002
527.280	19406
527.349	19175
527.418	14066
527.487	16656
527.555	15556
527.624	14427
527.693	13985
527.762	16733
527.831	13350
527.899	15445
527.968	16041
528.037	16213
528.106	19601
528.174	30046
528.243	33393
528.312	51048
528.380	44156
528.449	19303
528.518	15409
528.586	12440
528.655	14578
528.723	13891
528.792	14510
528.861	17470
528.929	15121
528.998	15124
529.066	13790
529.135	13891
529.203	12960
529.272	12565
529.340	13494
529.409	15756
529.477	16325
529.545	24897
529.614	24703
529.682	33045
529.751	32129
529.819	32351
529.887	18107
529.956	15198
530.024	15950
530.092	11970
530.161	16124
530.229	20660
530.297	13739
530.365	13786
530.434	12221
530.502	10854
530.570	11605
530.638	10786
530.707	13969
530.775	15421
530.843	12496
530.911	13124
530.979	11527
531.047	13059
531.115	14672
531.183	14782
531.252	13503
531.320	15486
531.388	13231
531.456	13137
531.524	10208
531.592	13697
531.660	15093
531.728	13420
531.796	12684
531.864	12520
531.932	14594
532.000	14145
532.067	13666
532.135	14599
532.203	16092
532.271	17592
532.339	29893
532.407	53067
532.475	27515
532.542	18559
532.610	20373
532.678	31901
532.746	115347
532.814	181048
532.881	39044
532.949	16102
533.017	14947
533.084	13918
533.152	13845
533.220	14234
533.287	13524
533.355	12907
533.423	13813
533.490	11997
533.558	14629
533.625	15593
533.693	16214
533.761	16636
533.828	16257
533.896	16241
533.963	27436
534.031	30852
534.098	35197
534.166	20260
534.233	14731
534.300	17021
534.368	16726
534.435	15069
534.503	15796
534.570	14624
534.637	12496
534.705	12587
534.772	13917
534.840	13700
534.907	19666
534.974	19421
535.041	19613
535.109	26448
535.176	14098
535.243	12971
535.310	13303
535.378	11993
535.445	11467
535.512	11427
535.579	12773
535.646	13712
535.714	14126
535.781	17406
535.848	17235
535.915	20638
535.982	18204
536.049	18050
536.116	18192
536.183	16309
536.250	16798
536.317	15608
536.384	18064
536.451	22170
536.518	22022
536.585	18112
536.652	23666
536.719	27766
536.786	20434
536.853	19833
536.920	32917
536.987	41328
537.053	39341
537.120	118539
537.187	66466
537.254	16931
537.321	15446
537.388	15116
537.454	13343
537.521	12787
537.588	13161
537.654	16697
537.721	17027
537.788	16556
537.855	13716
537.921	14534
537.988	13431
538.055	16072
538.121	15499
538.188	16980
538.254	24485
538.321	36595
538.388	22016
538.454	16726
538.521	16499
538.587	13776
538.654	13099
538.720	13258
538.787	13250
538.853	16980
538.920	22639
538.986	24323
539.053	18400
539.119	17722
539.185	16081
539.252	19807
539.318	22584
539.385	21033
539.451	17432
539.517	17884
539.583	23542
539.650	52511
539.716	80630
539.782	23314
539.849	15219
539.915	16589
539.981	16047
540.047	19040
540.114	16488
540.180	17457
540.246	15927
540.312	22505
540.378	39412
540.444	34609
540.510	47541
540.576	84901
540.643	25251
540.709	14709
540.775	15617
540.841	18588
540.907	30692
540.973	39086
541.039	25536
541.105	23527
541.171	16771
541.237	15792
541.303	16945
541.369	18833
541.435	23284
541.500	32323
541.566	19496
541.632	14546
541.698	13192
541.764	15231
541.830	14260
541.896	15236
541.961	14999
542.027	15459
542.093	14635
542.159	16918
542.224	18935
542.290	26119
542.356	34270
542.421	33117
542.487	19953
542.553	18665
542.618	21326
542.684	16742
542.750	16239
542.815	21916
542.881	41509
542.947	89780
543.012	43894
543.078	14632
543.143	14108
543.209	16819
543.274	16497
543.340	21072
543.405	39445
543.471	41871
543.536	16148
543.602	17415
543.667	15753
543.732	16050
543.798	15903
543.863	16148
543.928	14733
543.994	13049
544.059	14432
544.124	14223
544.190	14437
544.255	15780
544.320	14354
544.386	14837
544.451	20101
544.516	22483
544.581	25717
544.646	66577
544.712	66304
544.777	23832
544.842	26855
544.907	28740
544.972	21599
545.037	22184
545.102	23745
545.168	23994
545.233	24423
545.298	27003
545.363	31192
545.428	29330
545.493	46187
545.558	68590
545.623	32589
545.688	24502
545.753	22630
545.818	23052
545.883	23578
545.947	22569
546.012	27691
546.077	26926
546.142	23694
546.207	21953
546.272	26861
546.337	26816
546.401	23082
546.466	22727
546.531	22202
546.596	25819
546.661	23374
546.725	22234
546.790	19161
546.855	21591
546.919	19377
546.984	23016
547.049	24376
547.113	30367
547.178	22971
547.243	26289
547.307	27297
547.372	34957
547.436	36796
547.501	21604
547.565	21994
547.630	26634
547.695	31228
547.759	44156
547.823	28744
547.888	20936
547.952	20873
548.017	23713
548.081	32278
548.146	49336
548.210	33259
548.274	20519
548.339	17726
548.403	19579
548.468	18512
548.532	19222
548.596	19866
548.660	21029
548.725	23913
548.789	31706
548.853	30744
548.917	27395
548.982	50000
549.046	39516
549.110	21855
549.174	21290
549.238	18099
549.303	16986
549.367	21274
549.431	18747
549.495	18693
549.559	19517
549.623	19015
549.687	23625
549.751	28663
549.815	22754
549.879	21274
549.943	20068
550.007	23916
550.071	23719
550.135	27692
550.199	24400
550.263	22712
550.327	33792
550.391	43809
550.455	24170
550.519	22113
550.582	24194
550.646	27334
550.710	26017
550.774	21355
550.838	23162
550.901	22628
550.965	24083
551.029	24721
551.093	32512
551.156	52465
551.220	124637
551.284	91306
551.347	59143
551.411	174297
551.475	126971
551.538	25003
551.602	21212
551.666	19718
551.729	19000
551.793	20974
551.856	20840
551.920	20622
551.983	20691
552.047	18881
552.110	18042
552.174	19444
552.237	18878
552.301	18742
552.364	19182
552.428	18904
552.491	18482
552.554	19729
552.618	21306
552.681	21949
552.745	24214
552.808	33575
552.871	34107
552.934	23387
552.998	23331
553.061	25202
553.124	21641
553.187	20059
553.251	23000
553.314	24223
553.377	24527
553.440	40178
553.503	110690
553.567	107856
553.630	25321
553.693	20459
553.756	20406
553.819	18427
553.882	19228
553.945	18236
554.008	17608
554.071	17798
554.134	18633
554.197	16954
554.260	16276
554.323	19654
554.386	19422
554.449	18236
554.512	19608
554.575	17645
554.638	20058
554.701	17807
554.764	17314
554.827	16997
554.889	16299
554.952	15794
555.015	16531
555.078	17096
555.141	16678
555.203	16697
555.266	16701
555.329	17659
555.391	15525
555.454	16755
555.517	18547
555.580	17097
555.642	16868
555.705	17440
555.768	18266
555.830	17769
555.893	16422
555.955	16742
556.018	17194
556.080	17730
556.143	15717
556.206	16608
556.268	19806
556.330	19839
556.393	18788
556.455	24570
556.518	44902
556.580	34497
556.643	16749
556.705	17198
556.767	16548
556.830	18243
556.892	21360
556.955	25205
557.017	20253
557.079	17840
557.142	17069
557.204	19680
557.266	35822
557.328	26875
557.391	17675
557.453	15921
557.515	18197
557.577	22181
557.639	20104
557.701	16191
557.764	16142
557.826	17907
557.888	19343
557.950	16574
558.012	16235
558.074	16973
558.136	21823
558.198	24501
558.260	21542
558.322	18084
558.384	18404
558.446	18597
558.508	21784
558.570	25100
558.632	40412
558.694	43501
558.756	26325
558.818	48168
558.880	70876
558.942	26309
559.003	23561
559.065	17645
559.127	16793
559.189	16532
559.251	16694
559.312	17943
559.374	29406
559.436	48603
559.498	26753
559.559	16635
559.621	18111
559.683	22438
559.744	37837
559.806	53702
559.868	44964
559.929	25613
559.991	25547
560.052	25984
560.114	30733
560.176	24589
560.237	28915
560.299	30455
560.360	22201
560.422	23274
560.483	22566
560.545	23058
560.606	23261
560.667	22713
560.729	23396
560.790	21906
560.852	22044
560.913	22038
560.974	20954
561.036	21588
561.097	21970
561.158	22588
561.220	21320
561.281	21597
561.342	21679
561.403	24723
561.465	30928
561.526	57135
561.587	54427
561.648	24275
561.709	22624
561.771	22782
561.832	22639
561.893	21180
561.954	21663
562.015	21892
562.076	21750
562.137	21366
562.198	21439
562.259	20985
562.320	21284
562.381	23743
562.442	27866
562.503	23003
562.564	21526
562.625	20954
562.686	21163
562.747	22266
562.808	21803
562.869	25903
562.930	33210
562.991	29436
563.051	27161
563.112	25274
563.173	23680
563.234	22029
563.294	21517
563.355	22442
563.416	22988
563.477	22550
563.537	25129
563.598	25322
563.659	24298
563.720	24173
563.780	25073
563.841	24638
563.901	23363
563.962	23183
564.023	23774
564.083	23729
564.144	24579
564.204	23891
564.265	26736
564.325	38644
564.386	78658
564.446	49195
564.507	23078
564.567	21581
564.628	22683
564.688	22877
564.749	23663
564.809	31564
564.869	34143
564.930	21963
564.990	20718
565.050	19857
565.111	21291
565.171	20303
565.231	20202
565.292	20485
565.352	19776
565.412	21981
565.472	22070
565.532	21832
565.593	20317
565.653	19306
565.713	21403
565.773	22192
565.833	23736
565.893	27228
565.953	21416
566.013	20928
566.074	26286
566.134	39292
566.194	65958
566.254	51879
566.314	32122
566.374	23831
566.434	23112
566.494	22924
566.554	21091
566.614	21357
566.673	21073
566.733	22580
566.793	23167
566.853	23847
566.913	23472
566.973	23957
567.033	24869
567.092	23512
567.152	23860
567.212	24752
567.272	25488
567.331	26923
567.391	25842
567.451	29915
567.511	47834
567.570	36796
567.630	21936
567.690	21332
567.749	21881
567.809	22333
567.868	23306
567.928	26206
567.988	29235
568.047	25520
568.107	26436
568.166	28367
568.226	37724
568.285	44041
568.345	39006
568.404	31433
568.464	31091
568.523	28742
568.582	29292
568.642	31096
568.701	38068
568.761	49240
568.820	65811
568.879	65087
568.939	61765
568.998	39827
569.057	31341
569.116	27698
569.176	25410
569.235	22714
569.294	22928
569.353	20463
569.413	22446
569.472	21879
569.531	20104
569.590	20176
569.649	19955
569.708	18322
569.767	19122
569.827	21523
569.886	19579
569.945	18802
570.004	20034
570.063	19643
570.122	20245
570.181	23214
570.240	28731
570.299	23985
570.358	21202
570.417	18038
570.475	17409
570.534	19012
570.593	19582
570.652	19812
570.711	20096
570.770	21240
570.829	24345
570.887	18665
570.946	20042
571.005	17823
571.064	18742
571.122	21347
571.181	25713
571.240	18259
571.299	18721
571.357	23331
571.416	23603
571.475	29017
571.533	26080
571.592	21117
571.650	22438
571.709	17682
571.768	17744
571.826	16797
571.885	17138
571.943	15884
572.002	19936
572.060	19905
572.119	16165
572.177	15682
572.236	15226
572.294	15171
572.352	16057
572.411	15220
572.469	15102
572.528	15446
572.586	15782
572.644	17607
572.703	19418
572.761	16585
572.819	16847
572.877	16145
572.936	14947
572.994	15467
573.052	15127
573.110	15972
573.169	14856
573.227	14399
573.285	14471
573.343	14134
573.401	16079
573.459	15291
573.517	15685
573.576	15173
573.634	15707
573.692	15637
573.750	15031
573.808	16124
573.866	20880
573.924	28502
573.982	23800
574.040	16332
574.098	15466
574.155	14286
574.213	14434
574.271	13405
574.329	13650
574.387	13822
574.445	14455
574.503	12675
574.560	13001
574.618	12445
574.676	12842
574.734	12955
574.792	13137
574.849	13059
574.907	12484
574.965	12407
575.022	12962
575.080	12748
575.138	13541
575.195	13952
575.253	14104
575.311	14169
575.368	13142
575.426	12921
575.483	12342
575.541	12974
575.598	14470
575.656	15457
575.713	14068
575.771	12558
575.828	13027
575.886	13521
575.943	16363
576.001	16251
576.058	16366
576.115	18866
576.173	22925
576.230	22745
576.287	21065
576.345	17193
576.402	16666
576.459	16527
576.517	18316
576.574	21501
576.631	21708
576.688	17258
576.746	16793
576.803	16223
576.860	16209
576.917	15904
576.974	16492
577.031	15247
577.089	16688
577.146	15936
577.203	16625
577.260	18315
577.317	20763
577.374	24182
577.431	19858
577.488	15762
577.545	15663
577.602	14779
577.659	15855
577.716	16103
577.773	16031
577.830	14076
577.886	14713
577.943	14711
578.000	15496
578.057	17168
578.114	16099
578.171	18072
578.227	19831
578.284	18989
578.341	18688
578.398	17993
578.454	18836
578.511	22614
578.568	25285
578.625	18214
578.681	15259
578.738	14090
578.794	14845
578.851	14252
578.908	14743
578.964	13673
579.021	14810
579.077	14268
579.134	14498
579.190	13181
579.247	13504
579.303	13150
579.360	13120
579.416	12633
579.473	13197
579.529	11841
579.586	12268
579.642	13015
579.698	15425
579.755	15863
579.811	14612
579.867	13427
579.924	13529
579.980	13748
580.036	17579
580.093	19802
580.149	24885
580.205	24603
580.261	21060
580.317	19326
580.374	21069
580.430	22788
580.486	20302
580.542	16253
580.598	15797
580.619	15768
580.654	15732
580.692	15170
580.710	14919
580.765	14190
580.767	14179
580.823	13959
580.838	13796
580.879	13399
580.911	13271
580.935	13200
580.984	13082
580.991	13081
581.047	14167
581.057	14514
581.103	16126
581.130	16905
581.159	17769
581.203	17994
581.215	18067
581.270	17795
581.276	17614
581.326	15933
581.349	15834
581.382	15734
581.422	15239
581.438	15048
581.494	16643
581.494	16614
581.550	14444
581.567	15011
581.606	16178
581.640	15187
581.661	14630
581.713	15982
581.717	16100
581.773	14894
581.786	15025
581.829	15441
581.859	14975
581.885	14659
581.932	14770
581.940	14775
581.996	15201
582.004	15218
582.052	15339
582.077	14923
582.107	14518
582.150	15821
582.163	16202
582.219	14789
582.223	14804
582.274	15105
582.296	15818
582.330	16937
582.368	16731
582.386	16609
582.441	14743
582.441	14744
582.497	14133
582.514	14511
582.552	15462
582.587	15666
582.608	15738
582.659	14444
582.663	14354
582.719	15239
582.732	15079
582.774	14548
582.805	14988
582.830	15428
582.877	15046
582.885	14945
582.941	14879
582.950	15013
582.996	15681
583.023	15357
583.052	15209
583.095	16858
583.107	17338
583.162	20009
583.168	20081
583.218	20228
583.240	19003
583.273	17093
583.313	15824
583.328	15482
583.384	15923
583.385	15927
583.439	15865
583.458	15566
583.494	14855
583.531	14784
583.549	14879
583.603	14726
583.605	14717
583.660	14296
583.676	14418
583.715	14896
583.748	15525
583.770	15985
583.820	16619
583.825	16605
583.881	14952
583.893	14774
583.936	14712
583.965	14886
583.991	14856
584.038	15454
584.046	15657
584.101	15998
584.110	15973
584.156	15225
584.183	15117
584.211	15038
584.255	14491
584.266	14347
584.321	13534
584.328	13626
584.376	14733
584.400	14749
584.431	14708
584.472	14486
584.486	14269
584.541	13941
584.545	13912
584.596	14245
584.617	14721
584.651	15683
584.689	16532
584.706	16622
584.761	16080
584.762	16071
584.816	15400
584.834	15481
584.871	15704
584.906	15836
584.926	15947
584.978	15784
584.980	15781
585.035	16920
585.051	16887
585.090	17096
585.123	17719
585.145	17874
585.195	17270
585.200	17272
585.254	18241
585.267	18780
585.309	20860
585.340	21770
585.364	21996
585.412	19378
585.419	18909
585.473	18216
585.484	18150
585.528	19202
585.556	19911
585.583	20467
585.628	20645
585.637	20937
585.692	26738
585.700	27263
585.747	28628
585.772	26290
585.801	22296
585.845	18926
585.856	18491
585.910	18159
585.917	18087
585.965	18352
585.989	18342
586.019	18360
586.061	19010
586.074	19146
586.128	19947
586.133	19971
586.183	21094
586.205	21966
586.237	23180
586.277	23444
586.292	23264
586.346	23295
586.349	23279
586.401	23509
586.421	24177
586.455	26804
586.493	31578
586.509	36693
586.564	56066
586.565	56770
586.618	99445
586.637	100087
586.672	66836
586.709	39341
586.727	32462
586.781	22834
586.781	22841
586.835	21523
586.853	21426
586.889	21294
586.925	20935
586.944	20891
586.996	21838
586.998	21880
587.052	22290
587.068	22368
587.106	22291
587.140	22369
587.161	22432
587.212	23000
587.215	23090
587.269	24285
587.284	24617
587.323	24290
587.356	23866
587.377	23911
587.427	24420
587.431	24472
587.485	24569
587.499	24747
587.539	25261
587.571	25896
587.593	26550
587.643	27042
587.648	27104
587.702	28806
587.715	29269
587.755	31008
587.786	31275
587.810	30876
587.858	30583
587.864	30706
587.917	33777
587.930	34189
587.971	37644
588.001	40259
588.025	40194
588.073	38999
588.079	39010
588.133	39675
588.145	40047
588.187	42771
588.217	44949
588.241	47181
588.288	51802
588.295	52473
588.348	58693
588.360	60005
588.402	66490
588.431	71692
588.456	76057
588.503	85580
588.510	87132
588.564	101665
588.575	105465
588.617	122598
588.646	136956
588.671	152259
588.718	190462
588.725	199539
588.778	287372
588.789	311640
588.832	480957
588.861	617478
588.886	811013
588.932	1168611
588.939	1192686
588.993	1260310
589.004	1257330
589.047	868979
589.075	598709
589.100	456631
589.147	248494
589.154	237455
589.207	180836
589.218	171422
589.261	162354
589.290	160920
589.314	167909
589.361	192592
589.368	201858
589.421	296877
589.433	323295
589.475	537499
589.504	705650
589.528	874016
589.576	1134322
589.582	1102123
589.635	700308
589.647	614492
589.689	344260
589.718	183244
589.742	151610
589.790	103126
589.795	102066
589.849	98506
589.861	98759
589.902	105338
589.932	105490
589.955	88104
590.004	54174
590.009	53264
590.062	45667
590.075	43761
590.115	41013
590.146	39254
590.168	38562
590.218	37101
590.222	37173
590.275	38219
590.289	38456
590.328	37809
590.360	36878
590.381	35831
590.431	33685
590.435	33648
590.488	32774
590.503	32477
590.541	32295
590.574	32258
590.594	32209
590.645	31709
590.647	31679
590.700	30361
590.716	29845
590.753	29442
590.787	29136
590.806	28885
590.859	28239
590.859	28255
590.912	27669
590.930	27480
590.965	27381
591.001	27286
591.018	27264
591.071	27096
591.072	27070
591.124	27200
591.143	27240
591.177	27631
591.214	27995
591.230	28164
591.283	28813
591.285	28798
591.336	29625
591.356	29935
591.389	29674
591.427	29251
591.442	28979
591.495	27809
591.498	27684
591.547	27181
591.569	26988
591.600	26988
591.640	26864
591.653	27238
591.706	28764
591.711	28889
591.759	33177
591.782	35486
591.811	39055
591.853	43660
591.864	41771
591.917	31657
591.924	30185
591.969	29306
591.995	28761
592.022	29351
592.066	30232
592.075	31836
592.127	41540
592.137	43329
592.180	53045
592.208	58813
592.233	49917
592.279	32760
592.285	32378
592.338	28948
592.350	28117
592.390	27436
592.421	26898
592.443	27156
592.491	27580
592.495	27606
592.548	27486
592.562	27425
592.600	27675
592.633	27817
592.653	27607
592.704	26832
592.705	26992
592.775	27319
592.846	27098
592.916	27290
592.987	29301
593.058	29322
593.128	28003
593.199	26351
593.270	25045
593.341	24229
593.411	25512
593.482	25891
593.553	25708
593.623	25039
593.694	27836
593.764	34001
593.835	27465
593.906	25385
593.976	26791
594.047	31554
594.117	42035
594.188	44619
594.258	25070
594.329	23495
594.399	24808
594.470	24320
594.540	23433
594.611	23166
594.681	23456
594.751	25018
594.822	27818
594.892	28334
594.963	28836
595.033	29472
595.103	29448
595.174	36813
595.244	70204
595.314	100373
595.384	35131
595.455	26227
595.525	28205
595.595	27785
595.665	27831
595.736	27912
595.806	27145
595.876	26032
595.946	25422
596.016	23380
596.087	25689
596.157	25710
596.227	25479
596.297	26711
596.367	29299
596.437	35660
596.507	61473
596.577	90428
596.647	35995
596.717	25473
596.787	25587
596.857	24799
596.927	25861
596.997	24709
597.067	24795
597.137	27572
597.207	26449
597.277	25607
597.347	25647
597.417	25625
597.487	25039
597.557	26585
597.626	27918
597.696	33344
597.766	52072
597.836	83796
597.906	40412
597.975	25203
598.045	25373
598.115	24843
598.185	24646
598.254	26602
598.324	26474
598.394	24482
598.464	26483
598.533	23502
598.603	22563
598.672	25145
598.742	25945
598.812	25394
598.881	24790
598.951	23188
599.020	23001
599.090	22514
599.159	23164
599.229	21765
599.299	21720
599.368	22844
599.437	21957
599.507	25013
599.576	27526
599.646	24373
599.715	24330
599.785	25091
599.854	31762
599.924	39924
599.993	34224
600.062	24742
600.132	23970
600.201	24860
600.270	25804
600.340	24025
600.409	21756
600.478	22481
600.547	22806
600.617	24022
600.686	23157
600.755	23550
600.824	23653
600.894	23410
600.963	22259
601.032	21805
601.101	22415
601.170	22384
601.239	23936
601.308	26091
601.378	23178
601.447	22848
601.516	21240
601.585	22348
601.654	23469
601.723	23652
601.792	23577
601.861	23813
601.930	24579
601.999	23327
602.068	20652
602.137	22008
602.206	22615
602.275	21278
602.343	23958
602.412	23637
602.481	20368
602.550	20338
602.619	20326
602.688	20729
602.756	21086
602.825	20482
602.894	19463
602.963	20888
603.032	22028
603.100	19794
603.169	21036
603.238	20720
603.307	20272
603.375	18986
603.444	18888
603.513	18748
603.581	18710
603.650	20077
603.719	18963
603.787	19460
603.856	19699
603.924	18876
603.993	19665
604.061	17984
604.130	18516
604.198	20379
604.267	18829
604.335	18518
604.404	18439
604.472	17270
604.541	18793
604.609	17483
604.678	18217
604.746	17710
604.815	18605
604.883	18216
604.951	19109
605.020	16962
605.088	18661
605.156	20065
605.225	17644
605.293	17838
605.361	18927
605.429	17917
605.498	18704
605.566	18633
605.634	18411
605.702	18388
605.771	18362
605.839	18116
605.907	18579
605.975	18021
606.043	18848
606.111	17702
606.180	18794
606.248	20691
606.316	22557
606.384	22925
606.452	33222
606.520	25163
606.588	18944
606.656	16064
606.724	16649
606.792	16841
606.860	16547
606.928	16065
606.996	16721
607.064	16424
607.132	15807
607.200	16902
607.267	17034
607.335	15695
607.403	16002
607.471	16441
607.539	16957
607.607	15797
607.674	16124
607.742	18319
607.810	18216
607.878	15843
607.946	16232
608.013	15902
608.081	16582
608.149	15388
608.216	16087
608.284	16577
608.352	17114
608.419	22302
608.487	44595
608.555	28063
608.622	16057
608.690	15285
608.757	14929
608.825	16450
608.893	17349
608.960	19687
609.028	31295
609.095	53075
609.163	25942
609.230	20618
609.298	20230
609.365	15325
609.432	14738
609.500	15606
609.567	16132
609.635	16608
609.702	17528
609.769	19483
609.837	28691
609.904	21775
609.971	15817
610.039	18333
610.106	20840
610.173	28562
610.241	50669
610.308	72835
610.375	55187
610.442	22168
610.509	16846
610.577	16096
610.644	16494
610.711	14951
610.778	15160
610.845	14659
610.912	15791
610.980	16108
611.047	19898
611.114	17568
611.181	14961
611.248	12811
611.315	16394
611.382	13859
611.449	14513
611.516	14852
611.583	16230
611.650	15637
611.717	17091
611.784	14745
611.851	15136
611.918	16201
611.984	16908
612.051	23751
612.118	30779
612.185	51777
612.252	36759
612.319	17441
612.386	15569
612.452	17728
612.519	25390
612.586	51077
612.653	31144
612.719	17469
612.786	14957
612.853	14100
612.919	14085
612.986	14672
613.053	13760
613.120	13640
613.186	13794
613.253	16169
613.319	13956
613.386	13944
613.453	15876
613.519	15275
613.586	16905
613.652	24181
613.719	20171
613.785	19200
613.852	16149
613.918	14409
613.985	18178
614.051	25394
614.118	53175
614.184	51827
614.250	17223
614.317	15072
614.383	12917
614.449	12839
614.516	14341
614.582	17805
614.648	14733
614.715	12615
614.781	14277
614.847	16084
614.914	19160
614.980	17655
615.046	14878
615.112	13503
615.179	14007
615.245	13131
615.311	15045
615.377	19134
615.443	19575
615.509	17819
615.575	17329
615.642	16333
615.708	19048
615.774	18253
615.840	21605
615.906	24136
615.972	25486
616.038	32792
616.104	46637
616.170	76968
616.236	67473
616.302	27993
616.368	23360
616.434	22212
616.500	22565
616.565	22287
616.631	21929
616.697	20489
616.763	19969
616.829	23309
616.895	27797
616.961	27382
617.026	22100
617.092	19404
617.158	19884
617.224	18650
617.289	19555
617.355	20882
617.421	22806
617.487	23079
617.552	20520
617.618	18970
617.684	19288
617.749	20514
617.815	19107
617.880	19027
617.946	19229
618.012	18497
618.077	18326
618.143	17876
618.208	19571
618.274	19404
618.339	20781
618.405	20575
618.470	22620
618.536	23227
618.601	30253
618.667	25540
618.732	23046
618.798	22452
618.863	22525
618.928	21924
618.994	24595
619.059	25686
619.124	29796
619.190	25186
619.255	23950
619.320	25001
619.386	23164
619.451	21026
619.516	22924
619.581	22105
619.647	23065
619.712	21722
619.777	21566
619.842	21610
619.907	22247
619.972	22200
620.038	22777
620.103	22428
620.168	20786
620.233	21673
620.298	21504
620.363	20810
620.428	20992
620.493	21577
620.558	20913
620.623	19993
620.688	20207
620.753	19725
620.818	20551
620.883	20982
620.948	20548
621.013	20659
621.078	21994
621.143	23056
621.207	28534
621.272	25775
621.337	27716
621.402	34474
621.467	53838
621.532	56393
621.596	34491
621.661	29192
621.726	27719
621.791	27998
621.855	28454
621.920	32489
621.985	40354
622.049	53473
622.114	47077
622.179	35108
622.243	34189
622.308	31129
622.373	31930
622.437	31390
622.502	29317
622.566	29834
622.631	30182
622.695	29967
622.760	30215
622.824	28524
622.889	28820
622.953	30901
623.018	35830
623.082	35480
623.147	29157
623.211	26897
623.276	28123
623.340	26422
623.404	26391
623.469	26277
623.533	27831
623.597	25978
623.662	26153
623.726	26010
623.790	26675
623.854	26231
623.919	27085
623.983	26448
624.047	28311
624.111	24856
624.176	25978
624.240	27136
624.304	28788
624.368	26986
624.432	27975
624.496	26732
624.560	26377
624.625	28281
624.689	26224
624.753	23853
624.817	25689
624.881	24560
624.945	24206
625.009	24285
625.073	24837
625.137	26035
625.201	28098
625.265	27930
625.329	26020
625.393	26317
625.456	28455
625.520	30151
625.584	36849
625.648	52035
625.712	100343
625.776	267124
625.839	310148
625.903	107548
625.967	47746
626.031	92272
626.095	166967
626.158	46276
626.222	24873
626.286	23662
626.349	22350
626.413	21874
626.477	25742
626.540	22797
626.604	22578
626.668	22723
626.731	21886
626.795	26131
626.858	25524
626.922	21801
626.986	21951
627.049	20058
627.113	20987
627.176	21483
627.240	21864
627.303	21195
627.366	21849
627.430	20292
627.493	21554
627.557	23398
627.620	24036
627.684	21001
627.747	22947
627.810	20531
627.874	21119
627.937	19177
628.000	22263
628.064	22385
628.127	19394
628.190	20295
628.253	21334
628.317	19833
628.380	21787
628.443	19340
628.506	19999
628.569	19034
628.632	19075
628.696	18988
628.759	18563
628.822	17434
628.885	18842
628.948	18271
629.011	19227
629.074	19455
629.137	17480
629.200	18383
629.263	21491
629.326	17314
629.389	17159
629.452	19566
629.515	20868
629.578	19476
629.641	21052
629.704	18777
629.767	18989
629.830	18192
629.892	18967
629.955	17651
630.018	19056
630.081	17289
630.144	21608
630.207	18267
630.269	22293
630.332	27514
630.395	22912
630.458	16617
630.520	16408
630.583	18304
630.646	16223
630.708	15572
630.771	16039
630.834	16369
630.896	16171
630.959	15123
631.021	16765
631.084	17305
631.146	21836
631.209	29208
631.272	18175
631.334	15260
631.397	15825
631.459	13456
631.522	14938
631.584	15497
631.646	16477
631.709	15956
631.771	21344
631.834	17516
631.896	15085
631.958	12706
632.021	15151
632.083	13852
632.145	16828
632.208	13628
632.270	15110
632.332	14392
632.395	13485
632.457	16152
632.519	14666
632.581	14829
632.643	14189
632.706	14858
632.768	13208
632.830	14723
632.892	13709
632.954	13258
633.016	15254
633.078	13488
633.141	13464
633.203	14135
633.265	14402
633.327	13688
633.389	13026
633.451	15877
633.513	17201
633.575	22057
633.637	17999
633.698	13726
633.760	13642
633.822	12978
633.884	13173
633.946	13422
634.008	12600
634.070	12612
634.132	13658
634.193	13312
634.255	11928
634.317	12240
634.379	12946
634.441	12899
634.502	13851
634.564	13233
634.626	13683
634.687	14298
634.749	13124
634.811	12999
634.873	12292
634.934	11937
634.996	12761
635.057	12025
635.119	11698
635.181	12517
635.242	12348
635.304	10898
635.365	14277
635.427	12025
635.488	12259
635.550	11146
635.611	12081
635.673	9444
635.734	14451
635.796	12671
635.857	14702
635.918	11335
635.980	13071
636.041	11639
636.102	12258
636.164	11648
636.225	12017
636.286	11313
636.348	12095
636.409	11253
636.470	11162
636.531	12208
636.593	18534
636.654	16652
636.715	11591
636.776	10723
636.838	10190
636.899	13065
636.960	12003
637.021	10219
637.082	12780
637.143	13666
637.204	10047
637.265	8400
637.326	10381
637.387	10513
637.448	9146
637.509	9889
637.570	10125
637.631	10465
637.692	9530
637.753	8150
637.814	10668
637.875	10039
637.936	10576
637.997	10056
638.058	11406
638.119	13447
638.179	11023
638.240	10794
638.301	10995
638.362	8835
638.423	10620
638.483	11125
638.544	8609
638.605	10378
638.666	9964
638.726	9968
638.787	11199
638.848	9516
638.908	9103
638.969	9301
639.030	10432
639.090	8825
639.151	9628
639.211	10449
639.272	11013
639.332	15142
639.393	11832
639.453	10163
639.514	9778
639.574	9622
639.635	8705
639.695	10048
639.756	8481
639.816	10466
639.877	9977
639.937	13954
639.997	16814
640.058	8825
640.118	8664
640.178	9010
640.239	8624
640.299	8256
640.359	8429
640.420	8790
640.480	8318
640.540	8115
640.600	8211
640.661	9504
640.721	8072
640.781	10474
640.841	7525
640.901	9984
640.961	10405
641.021	9652
641.082	8690
641.142	11799
641.202	10256
641.262	7585
641.322	9173
641.382	8130
641.442	9105
641.502	8784
641.562	9644
641.622	8220
641.682	8898
641.742	8760
641.802	9289
641.861	10878
641.921	9904
641.981	11322
642.041	10178
642.101	11109
642.161	7384
642.221	8628
642.280	8342
642.340	7711
642.400	7417
642.460	8646
642.519	8083
642.579	8387
642.639	9519
642.698	6116
642.758	10133
642.818	8253
642.877	7725
642.937	8507
642.997	10055
643.056	10836
643.116	7916
643.175	9566
643.235	8017
643.294	7961
643.354	7963
643.414	8667
643.473	9761
643.532	8352
643.592	8130
643.651	9143
643.711	12302
643.770	15166
643.830	26025
643.889	51028
643.948	17514
644.008	8143
644.067	7897
644.126	6746
644.186	7438
644.245	7986
644.304	6243
644.363	8579
644.423	7060
644.482	6857
644.541	7794
644.600	5545
644.659	8380
644.719	7166
644.778	9675
644.837	8635
644.896	10714
644.955	14000
645.014	9673
645.073	9082
645.132	8531
645.191	8540
645.250	6155
645.309	8942
645.368	7022
645.427	8180
645.486	6522
645.545	9041
645.604	7272
645.663	7169
645.722	6741
645.781	6992
645.840	7288
645.898	7139
645.957	9260
646.016	6912
646.075	9811
646.134	12073
646.192	24299
646.251	34207
646.310	9563
646.369	6788
646.427	7228
646.486	5237
646.545	6594
646.603	6845
646.662	7595
646.721	6899
646.779	5723
646.838	5169
646.896	7543
646.955	7585
647.014	8129
647.072	6418
647.131	9860
647.189	7010
647.248	6227
647.306	6988
647.365	7583
647.423	4933
647.481	7592
647.540	5312
647.598	6773
647.657	5923
647.715	6452
647.773	5382
647.832	7515
647.890	6189
647.948	6427
648.007	7789
648.065	5627
648.123	5946
648.181	7873
648.240	7916
648.298	7205
648.356	6617
648.414	8044
648.472	7847
648.531	7816
648.589	7278
648.647	7058
648.705	6864
648.763	7283
648.821	6583
648.879	7169
648.937	8179
648.995	6591
649.053	6797
649.111	8787
649.169	9835
649.227	9076
649.285	9920
649.343	21035
649.401	16673
649.459	17145
649.516	14679
649.574	11862
649.632	23322
649.690	29781
649.748	13360
649.806	9642
649.863	12542
649.921	9866
649.979	6448
650.037	6862
650.094	5221
650.152	6648
650.210	5350
650.268	7249
650.325	6252
650.383	5627
650.440	4968
650.498	6782
650.556	6345
650.613	5207
650.671	6515
650.728	6826
650.786	8556
650.843	7584
650.901	3947
650.958	6373
651.016	5872
651.073	5637
651.131	4709
651.188	5603
651.246	6610
651.303	5591
651.360	6343
651.418	6723
651.475	5786
651.532	5487
651.590	6068
651.647	4844
651.704	6419
651.762	5751
651.819	5596
651.876	5574
651.933	6127
651.990	6500
652.048	3977
652.105	6186
652.162	6057
652.219	4864
652.276	4960
652.333	5285
652.390	3710
652.448	5480
652.505	5061
652.562	6077
652.619	5596
652.676	7172
652.733	7787
652.790	4809
652.847	4075
652.904	5321
652.961	3910
653.017	4488
653.074	5346
653.131	4872
653.188	3314
653.245	5637
653.302	5153
653.359	4964
653.415	5279
653.472	4474
653.529	5198
653.586	5183
653.642	5342
653.699	4999
653.756	3930
653.813	4218
653.869	4790
653.926	3860
653.983	5030
654.039	5382
654.096	5089
654.152	6191
654.209	4717
654.266	7636
654.322	6489
654.379	7589
654.435	8730
654.492	9032
654.548	12211
654.605	21519
654.661	9036
654.717	6446
654.774	6884
654.830	6712
654.887	6578
654.943	6744
655.000	5481
655.056	7199
655.112	6739
655.168	6379
655.225	7566
655.281	9529
655.337	13355
655.394	28662
655.450	18603
655.506	15084
655.562	28196
655.618	22739
655.675	7000
655.731	6846
655.787	6490
655.843	7228
655.899	5436
655.955	8248
656.011	7585
656.067	7326
656.123	8440
656.179	9857
656.235	10888
656.291	8424
656.347	11231
656.403	9349
656.459	8995
656.515	11279
656.571	11540
656.627	8209
656.683	7100
656.739	7788
656.795	6088
656.850	6247
656.906	7302
656.962	6387
657.018	4437
657.074	5371
657.129	5874
657.185	6453
657.241	5219
657.297	6347
657.352	6120
657.408	4899
657.464	8028
657.519	6451
657.575	4650
657.630	5666
657.686	5549
657.742	5099
657.797	5623
657.853	5263
657.908	6537
657.964	4645
658.019	5133
658.075	5634
658.130	5570
658.186	4240
658.241	5102
658.297	4058
658.352	5279
658.407	5253
658.463	4506
658.518	5746
658.573	4745
658.629	4765
658.684	4019
658.739	5688
658.795	2961
658.850	5349
658.905	4880
658.960	5616
659.016	3373
659.071	4381
659.126	5068
659.181	5279
659.236	7060
659.291	8340
659.346	5643
659.401	6220
659.457	6182
659.512	6051
659.567	7037
659.622	4840
659.677	5114
659.732	4640
659.787	6684
659.842	8144
659.897	12253
659.952	7154
660.007	4760
660.061	5571
660.116	5314
660.171	5028
660.226	4728
660.281	6618
660.336	4344
660.391	5937
660.445	4299
660.500	5267
660.555	5880
660.610	5119
660.664	5220
660.719	3877
660.774	5489
660.828	5573
660.883	4771
660.938	5180
660.992	3896
661.047	5713
661.101	4627
661.156	4591
661.211	3112
661.265	4669
661.320	4950
661.374	5193
661.429	4219
661.483	5095
661.538	4576
661.592	5200
661.647	5247
661.701	4594
661.755	5543
661.810	5983
661.864	5045
661.919	4826
661.973	5562
662.027	5114
662.081	4248
662.136	4956
662.190	5895
662.244	6079
662.299	4229
662.353	4812
662.407	4293
662.461	5477
662.515	4661
662.569	6254
662.624	6108
662.678	5576
662.732	5403
662.786	5892
662.840	5800
662.894	6681
662.948	4621
663.002	5295
663.056	5471
663.110	4470
663.164	5469
663.218	4704
663.272	4962
663.326	5771
663.380	5811
663.434	6616
663.488	5201
663.542	5916
663.595	5504
663.649	5585
663.703	5067
663.757	5976
663.811	4577
663.864	4640
663.918	5463
663.972	5349
664.026	4624
664.079	4865
664.133	5761
664.187	4178
664.240	4770
664.294	5378
664.348	5810
664.401	4944
664.455	5300
664.508	4229
664.562	5445
664.615	5293
664.669	4254
664.722	5846
664.776	6062
664.829	5943
664.883	5501
664.936	5581
664.990	5478
665.043	6724
665.097	6561
665.150	8135
665.203	6684
665.257	7417
665.310	6400
665.363	6041
665.417	6509
665.470	6558
665.523	6182
665.576	6595
665.630	6138
665.683	5858
665.736	5217
665.789	7166
665.842	5773
665.895	6670
665.949	6229
666.002	6382
666.055	6287
666.108	7316
666.161	6795
666.214	7172
666.267	6178
666.320	7002
666.373	6118
666.426	7327
666.479	6679
666.532	7854
666.585	11084
666.638	12253
666.691	9889
666.744	11373
666.796	11056
666.849	10569
666.902	7400
666.955	5953
667.008	6247
667.060	6038
667.113	4451
667.166	5556
667.219	4801
667.271	5934
667.324	4989
667.377	6762
667.430	5568
667.482	6394
667.535	5786
667.587	7108
667.640	6337
667.693	7939
667.745	8469
667.798	9639
667.850	7561
667.903	6614
667.955	6385
668.008	6051
668.060	7455
668.113	8030
668.165	6972
668.218	7745
668.270	7216
668.322	6792
668.375	6293
668.427	7876
668.479	6347
668.532	7226
668.584	7704
668.636	7220
668.689	6856
668.741	6587
668.793	7957
668.845	6116
668.898	7117
668.950	7159
669.002	7332
669.054	6516
669.106	6840
669.158	8419
669.211	7347
669.263	7062
669.315	8127
669.367	9099
669.419	7176
669.471	8835
669.523	8242
669.575	10393
669.627	8803
669.679	8350
669.731	7792
669.783	8372
669.835	8558
669.886	7976
669.938	8019
669.990	8067
670.042	7078
670.094	6995
670.146	7836
670.197	8782
670.249	9959
670.301	10414
670.353	12275
670.404	16737
670.456	22470
670.508	31757
670.560	46254
670.611	72679
670.663	121027
670.715	270732
670.766	477356
670.818	186297
670.869	34441
670.921	18536
670.972	13802
671.024	11677
671.075	10193
671.127	8964
671.178	7868
671.230	7525
671.281	7301
671.333	7727
671.384	8192
671.436	8377
671.487	9145
671.538	8839
671.590	9298
671.641	10721
671.692	10271
671.744	11014
671.795	10880
671.846	8393
671.897	8013
671.949	8875
672.000	7615
672.051	7785
672.102	7693
672.153	7243
672.204	7957
672.256	6861
672.307	8089
672.358	8241
672.409	8217
672.460	7914
672.511	6209
672.562	7235
672.613	6974
672.664	7576
672.715	6823
672.766	7549
672.817	6906
672.868	6935
672.919	6677
672.970	6859
673.021	7957
673.071	6884
673.122	7636
673.173	6841
673.224	6940
673.275	6569
673.326	6450
673.376	7131
673.427	6514
673.478	6447
673.528	5788
673.579	6854
673.630	6830
673.680	6885
673.731	6084
673.782	6638
673.832	7030
673.883	7706
673.934	6520
673.984	6627
674.035	7274
674.085	7308
674.136	7736
674.186	8560
674.237	10443
674.287	19383
674.338	10672
674.388	7224
674.438	6297
674.489	7188
674.539	8131
674.589	7444
674.640	6535
674.690	6837
674.740	6567
674.791	8688
674.841	7522
674.891	7653
674.942	7073
674.992	6671
675.042	6330
675.092	6224
675.142	6252
675.193	6261
675.243	5959
675.293	6605
675.343	6423
675.393	6974
675.443	6684
675.493	5346
675.543	5576
675.593	6333
675.643	5819
675.693	6980
675.743	6921
675.793	6375
675.843	5907
675.893	6668
675.943	5749
675.993	6071
676.043	6515
676.093	6686
676.142	5765
676.192	6816
676.242	6327
676.292	6422
676.341	6769
676.391	6602
676.441	5130
676.491	5232
676.540	5925
676.590	5370
676.640	6076
676.689	6018
676.739	5149
676.789	5283
676.838	5218
676.888	5115
676.937	5955
676.987	5108
677.037	4824
677.086	4257
677.136	6369
677.185	5824
677.235	4398
677.284	4694
677.333	4515
677.383	5388
677.432	4645
677.482	4892
677.531	5790
677.580	5050
677.630	4677
677.679	4357
677.728	4902
677.778	6048
677.827	4189
677.876	5326
677.925	4408
677.975	4777
678.024	5662
678.073	4807
678.122	5845
678.171	5731
678.220	5625
678.269	7119
678.319	6239
678.368	6448
678.417	6185
678.466	6737
678.515	6823
678.564	6842
678.613	6052
678.662	5544
678.711	6409
678.760	6062
678.809	6010
678.857	5708
678.906	5454
678.955	6229
679.004	5518
679.053	5971
679.102	5874
679.151	6698
679.199	5644
679.248	4990
679.297	5734
679.346	6313
679.394	5684
679.443	5898
679.492	5778
679.540	5905
679.589	5517
679.638	6034
679.686	4191
679.735	4898
679.784	5683
679.832	5835
679.881	4454
679.929	4586
679.978	4576
680.026	4312
680.075	5488
680.123	5156
680.172	4481
680.220	4385
680.268	4115
680.317	4781
680.365	4570
680.414	4438
680.462	4576
680.510	5837
680.559	4509
680.607	4396
680.655	4509
680.703	6287
680.752	4522
680.800	4908
680.848	3865
680.896	4523
680.945	4380
680.993	4806
681.041	3953
681.089	4851
681.137	4420
681.185	4357
681.233	4287
681.258	4680
681.281	5027
681.329	3948
681.377	5039
681.380	5036
681.425	4482
681.473	5789
681.502	5757
681.521	5681
681.569	6489
681.617	5274
681.624	5360
681.665	5700
681.713	5092
681.745	5153
681.761	5146
681.809	5118
681.857	5712
681.867	5514
681.904	4727
681.952	5767
681.989	5483
682.000	5361
682.048	5918
682.096	4883
682.111	5008
682.143	5162
682.191	5332
682.233	5850
682.239	5907
682.286	5420
682.334	5531
682.354	5362
682.382	5045
682.430	6080
682.476	5447
682.477	5411
682.525	5913
682.572	4933
682.598	4950
682.620	4923
682.667	5266
682.715	5950
682.720	5968
682.763	5894
682.810	5874
682.841	5945
682.857	5943
682.905	5505
682.952	6110
682.963	6195
683.000	6415
683.047	5555
683.085	6784
683.095	7085
683.142	5502
683.190	6302
683.206	6049
683.237	5553
683.284	5845
683.328	6514
683.332	6545
683.379	6529
683.426	6193
683.449	6341
683.473	6453
683.521	6316
683.568	6621
683.571	6582
683.615	5791
683.662	6633
683.693	5902
683.709	5497
683.757	6206
683.804	6652
683.814	6625
683.851	6421
683.898	6597
683.936	6667
683.945	6668
683.992	6480
684.039	7492
684.057	6946
684.086	6039
684.133	6648
684.179	6733
684.180	6717
684.227	6944
684.274	6462
684.300	6839
684.321	7139
684.368	6760
684.415	7263
684.422	7174
684.462	6438
684.509	6279
684.543	6826
684.556	7041
684.603	6740
684.649	7411
684.665	7230
684.696	6836
684.743	6789
684.786	7643
684.790	7712
684.837	7536
684.883	9059
684.908	9245
684.930	9301
684.977	9873
685.023	8734
685.029	8699
685.070	8125
685.117	7969
685.150	8349
685.164	8621
685.210	9353
685.257	10004
685.272	9882
685.303	9241
685.350	9312
685.393	8955
685.396	8932
685.443	8965
685.490	9730
685.514	9928
685.536	10043
685.583	9585
685.629	9386
685.636	9333
685.675	8849
685.722	8504
685.757	8695
685.768	8839
685.815	9479
685.861	9222
685.878	9405
685.908	9631
685.954	9875
686.000	10971
686.000	10989
686.047	11581
686.093	13685
686.121	13788
686.139	13384
686.185	12157
686.232	10255
686.242	10240
686.278	10307
686.324	9314
686.363	8556
686.370	8451
686.416	9173
686.463	9650
686.484	9223
686.509	8901
686.555	9848
686.601	8895
686.606	9075
686.647	10418
686.693	9288
686.727	9168
686.739	9151
686.785	9512
686.831	10033
686.848	10002
686.877	9799
686.923	9282
686.969	9238
686.969	9238
687.015	9640
687.061	9701
687.090	9922
687.107	9934
687.153	9680
687.199	9769
687.211	9656
687.245	9580
687.291	9286
687.332	10375
687.336	10488
687.382	10564
687.428	10679
687.453	10710
687.474	10436
687.520	9855
687.565	9920
687.574	9705
687.611	9295
687.657	9702
687.695	9787
687.702	9814
687.748	10139
687.794	10592
687.816	10393
687.839	9929
687.885	9491
687.931	9051
687.937	9012
687.976	9305
688.022	9558
688.058	9883
688.067	9951
688.113	10236
688.158	10023
688.179	10182
688.204	10292
688.249	10022
688.295	10522
688.300	10509
688.340	10679
688.386	11640
688.421	11276
688.431	11068
688.477	11029
688.522	9956
688.542	10172
688.567	10696
688.613	10514
688.658	10825
688.663	10787
688.703	10471
688.749	10910
688.784	10940
688.794	10905
688.839	10417
688.884	10802
688.905	10493
688.930	10303
688.975	10368
689.020	10905
689.026	10914
689.065	10935
689.110	10172
689.146	10441
689.155	10502
689.201	10171
689.246	10500
689.267	10401
689.291	10457
689.336	10332
689.381	11228
689.388	11238
689.426	11081
689.471	10964
689.509	10527
689.516	10451
689.561	10640
689.606	10408
689.630	10324
689.651	10510
689.696	10155
689.741	10764
689.750	10887
689.785	11060
689.830	11189
689.871	10534
689.875	10477
689.920	10626
689.965	10621
689.992	10206
690.010	9998
690.054	10080
690.099	10241
690.112	10334
690.144	10688
690.189	10516
690.233	10337
690.233	10348
690.278	10493
690.323	10190
690.354	10354
690.367	10656
690.412	10897
690.457	11732
690.474	11846
690.501	11600
690.546	11206
690.590	10692
690.595	10687
690.635	11163
690.680	11300
690.716	11418
690.724	11557
690.769	12644
690.813	13204
690.836	13539
690.857	14145
690.902	15319
690.946	16823
690.957	17226
690.991	21243
691.035	26913
691.077	32655
691.080	32731
691.124	31228
691.168	29496
691.198	28584
691.213	26998
691.257	22287
691.301	17735
691.318	16152
691.346	15474
691.390	13435
691.434	12049
691.439	11827
691.478	11518
691.522	12007
691.559	11971
691.567	11983
691.611	12022
691.655	11703
691.680	11593
691.699	11604
691.743	11924
691.787	12197
691.800	12101
691.831	11989
691.875	12533
691.919	12682
691.921	12659
691.964	12773
692.008	13238
692.041	13457
692.052	13484
692.096	13415
692.139	13720
692.162	13713
692.183	13634
692.227	13374
692.271	13361
692.282	13235
692.315	13012
692.359	13115
692.402	13091
692.403	13113
692.447	12575
692.490	12962
692.523	12773
692.534	12925
692.578	13819
692.622	13747
692.643	14113
692.666	13899
692.709	13156
692.753	12395
692.763	12155
692.797	12302
692.840	12983
692.884	12969
692.884	12992
692.928	13320
692.971	13307
693.004	13221
693.015	13232
693.059	13361
693.102	13070
693.124	13127
693.146	13194
693.189	13581
693.233	13461
693.245	13422
693.276	13775
693.320	14148
693.363	14635
693.365	14618
693.407	15140
693.450	15807
693.485	16421
693.493	16700
693.537	17881
693.580	19147
693.605	19981
693.624	21473
693.667	24259
693.710	27611
693.725	28880
693.753	36497
693.797	48696
693.840	60990
693.845	62177
693.883	59101
693.926	54584
693.966	51238
693.970	50245
694.013	39085
694.056	28409
694.086	20599
694.099	20062
694.142	18965
694.185	17496
694.206	16790
694.229	16622
694.272	16045
694.315	15910
694.326	15704
694.358	15170
694.401	14582
694.444	14034
694.446	13979
694.487	13897
694.530	13642
694.566	13674
694.573	13681
694.616	12957
694.659	12792
694.686	12371
694.702	12183
694.745	11875
694.787	11715
694.806	11493
694.830	11617
694.873	11946
694.916	12260
694.926	12262
694.959	12053
695.002	11959
695.044	11604
695.046	11577
695.087	12114
695.130	12366
695.166	13007
695.172	13097
695.215	12727
695.258	12758
695.286	12703
695.301	12803
695.343	12952
695.386	13235
695.406	13349
695.428	13139
695.471	12447
695.514	11922
695.526	11741
695.556	12039
695.599	12513
695.641	12845
695.646	12849
695.684	12555
695.726	12209
695.766	11855
695.769	11886
695.811	12084
695.854	12028
695.886	12163
695.896	12164
695.938	11942
695.981	11494
696.005	11273
696.023	11421
696.065	11753
696.108	12248
696.125	12365
696.150	12767
696.192	13369
696.235	13880
696.245	14018
696.277	13625
696.319	12999
696.361	12273
696.365	12187
696.404	12607
696.446	13135
696.485	13441
696.488	13475
696.530	13570
696.572	13656
696.604	13609
696.614	13475
696.656	12821
696.698	12246
696.724	11764
696.740	11703
696.783	11478
696.825	11521
696.844	11360
696.867	11524
696.909	12015
696.951	12357
696.964	12440
696.992	12202
697.034	11812
697.076	11427
697.083	11331
697.118	11701
697.160	12112
697.202	12631
697.203	12610
697.244	12490
697.286	12427
697.323	12238
697.327	12248
697.369	12102
697.411	11982
697.442	11891
697.453	11913
697.494	11749
697.536	11682
697.562	11564
697.578	11643
697.620	11852
697.661	11984
697.682	12007
697.703	11946
697.744	11870
697.786	11791
697.801	11683
697.828	12113
697.869	12874
697.911	13532
697.921	13669
697.952	13109
697.994	12323
698.035	11525
698.040	11396
698.077	11482
698.118	11591
698.160	11659
698.160	11628
698.201	11678
698.243	11721
698.279	11724
698.284	11792
698.325	12158
698.367	12487
698.399	12687
698.408	12559
698.449	11857
698.491	11139
698.518	10628
698.532	10824
698.573	11334
698.614	11858
698.638	12116
698.656	12307
698.697	12668
698.738	13070
698.757	13211
698.779	13232
698.820	13212
698.862	13194
698.877	13151
698.903	13326
698.944	13551
698.985	13775
698.996	13804
699.026	13568
699.067	13188
699.116	12704
699.235	12704
699.354	12090
699.474	12637
699.593	15603
699.713	14179
699.832	12855
699.951	12188
700.070	12154
700.190	12192
700.309	12345
700.428	12706
700.547	13195
700.667	12349
700.786	14382
700.905	11549
701.024	13288
701.143	12155
701.262	10457
701.381	10676
701.500	10978
701.619	10365
701.738	10163
701.857	11156
701.976	10611
702.095	10932
702.214	10761
702.333	10436
702.452	10494
702.571	9740
702.690	9953
702.809	9746
702.928	8881
703.047	10721
703.165	10533
703.284	10241
703.403	10592
703.522	12545
703.640	12167
703.759	13446
703.878	19972
703.997	11295
704.115	10347
704.234	9595
704.353	9453
704.471	9153
704.590	9496
704.708	9386
704.827	8951
704.946	9854
705.064	10382
705.183	10306
705.301	13777
705.420	22083
705.538	20271
705.656	15411
705.775	15103
705.893	19883
706.012	23987
706.130	16183
706.249	15630
706.367	16387
706.485	17043
706.604	15175
706.722	16121
706.840	19312
706.958	17890
707.077	14765
707.195	14193
707.313	14650
707.431	13872
707.549	13883
707.668	14520
707.786	15464
707.904	13221
708.022	13270
708.140	13083
708.258	12771
708.376	13948
708.494	12907
708.612	15716
708.730	24881
708.848	23629
708.966	19443
709.084	18460
709.202	17690
709.320	19972
709.438	19490
709.556	19667
709.674	19687
709.791	19221
709.909	18137
710.027	18355
710.145	18391
710.263	18900
710.380	18543
710.498	17486
710.616	18387
710.733	18161
710.851	18711
710.969	19686
711.086	17683
711.204	17793
711.322	17586
711.439	18338
711.557	17590
711.674	16957
711.792	16808
711.909	17033
712.027	16647
712.144	15925
712.262	16852
712.379	20031
712.497	29027
712.614	29636
712.732	23495
712.849	22415
712.966	22725
713.084	27047
713.201	24256
713.318	22700
713.436	21144
713.553	23543
713.670	22845
713.787	24736
713.905	26175
714.022	21819
714.139	21606
714.256	22383
714.373	21543
714.490	20481
714.608	21979
714.725	33781
714.842	34104
714.959	20534
715.076	19137
715.193	19388
715.310	17791
715.427	18624
715.544	17616
715.661	18976
715.778	18692
715.895	21433
716.011	19842
716.128	19317
716.245	17272
716.362	19862
716.479	19047
716.596	18218
716.713	18419
716.829	18026
716.946	19179
717.063	16477
717.180	17139
717.296	17286
717.413	17264
717.530	16967
717.646	15837
717.763	15726
717.880	15738
717.996	15823
718.113	14453
718.229	15665
718.346	14215
718.462	15369
718.579	16769
718.695	19977
718.812	21540
718.928	23048
719.045	16827
719.161	14116
719.277	13846
719.394	14231
719.510	14724
719.626	14594
719.743	17698
719.859	15009
719.975	15396
720.092	17218
720.208	20210
720.324	16738
720.440	14348
720.557	16344
720.673	19004
720.789	33799
720.905	79801
721.021	28888
721.137	13901
721.253	15236
721.369	16088
721.486	18603
721.602	25539
721.718	14134
721.834	11263
721.950	13650
722.066	11285
722.181	11338
722.297	12480
722.413	12277
722.529	11903
722.645	11824
722.761	11684
722.877	11058
722.993	11763
723.108	11822
723.224	11373
723.340	12405
723.456	11480
723.571	11936
723.687	11341
723.803	11519
723.918	10547
724.034	11348
724.150	11476
724.265	13708
724.381	28847
724.497	37595
724.612	10764
724.728	9911
724.843	10013
724.959	13742
725.074	30150
725.190	33008
725.305	13344
725.421	10363
725.536	8802
725.651	9420
725.767	9268
725.882	9148
725.997	8081
726.113	9107
726.228	8081
726.343	9013
726.459	7848
726.574	9629
726.689	8706
726.804	8737
726.920	9084
727.035	9149
727.150	10055
727.265	8314
727.380	8983
727.495	8422
727.610	8124
727.725	8671
727.841	8785
727.956	12133
728.071	12719
728.186	7788
728.301	6306
728.416	9098
728.531	7634
728.645	6555
728.760	7474
728.875	9498
728.990	8620
729.105	7396
729.220	7552
729.335	6961
729.449	7438
729.564	7329
729.679	6585
729.794	7512
729.908	7875
730.023	7323
730.138	6025
730.253	6832
730.367	6296
730.482	5835
730.596	6457
730.711	6287
730.826	6026
730.940	6181
731.055	6803
731.169	6249
731.284	6015
731.398	6202
731.513	7434
731.627	7546
731.742	7757
731.856	8407
731.970	5045
732.085	5813
732.199	6423
732.313	5568
732.428	5991
732.542	8334
732.656	6538
732.771	5831
732.885	5382
732.999	5774
733.113	6946
733.227	7015
733.342	4214
733.456	4378
733.570	4871
733.684	5725
733.798	5205
733.912	4567
734.026	3888
734.140	5597
734.254	6426
734.368	15319
734.482	18862
734.596	5094
734.710	5259
734.824	5319
734.938	4435
735.052	4905
735.166	6869
735.280	5850
735.393	4671
735.507	5406
735.621	8500
735.735	18501
735.849	7239
735.962	5304
736.076	6433
736.190	5977
736.303	9370
736.417	13384
736.531	5002
736.644	5820
736.758	4036
736.872	4795
736.985	3828
737.099	4816
737.212	4495
737.326	4649
737.439	4506
737.553	4058
737.666	4147
737.780	4591
737.893	3357
738.007	4215
738.120	3447
738.233	3360
738.347	3766
738.460	4294
738.573	3561
738.687	3734
738.800	3781
738.913	3681
739.026	3430
739.140	3810
739.253	3065
739.366	3785
739.479	2913
739.592	2834
739.705	3109
739.818	3745
739.932	3591
740.045	3189
740.158	3677
740.271	4581
740.384	3552
740.497	4388
740.610	4393
740.723	4173
740.836	4560
740.949	4753
741.062	4248
741.174	4554
741.287	4104
741.400	4020
741.513	4213
741.626	5283
741.739	3871
741.851	3351
741.964	3160
742.077	3969
742.189	5043
742.302	6756
742.415	4328
742.527	3512
742.640	3961
742.753	3520
742.865	1756
742.978	3211
743.090	3501
743.203	3675
743.316	2829
743.428	3048
743.541	3340
743.653	1940
743.766	3348
743.878	3544
743.990	6294
744.103	6895
744.215	5370
744.327	3762
744.440	3936
744.552	4834
744.664	2721
744.777	3488
744.889	2368
745.001	2809
745.113	2550
745.226	2652
745.338	2863
745.450	3398
745.562	2680
745.674	2149
745.786	2145
745.898	3131
746.010	2842
746.122	2863
746.234	2367
746.347	2554
746.459	2319
746.570	3739
746.682	4683
746.794	8406
746.906	4272
747.018	2952
747.130	2512
747.242	2402
747.354	2581
747.466	3082
747.577	2881
747.689	3008
747.801	2529
747.913	2410
748.024	1835
748.136	1968
748.248	2938
748.359	2625
748.471	2568
748.583	1906
748.694	2581
748.806	4532
748.918	4641
749.029	3552
749.141	2308
749.252	2579
749.364	2254
749.475	4521
749.587	4821
749.698	2832
749.809	3048
749.921	2664
750.032	1740
750.144	1705
750.255	2310
750.366	2445
750.478	1638
750.589	2401
750.700	2259
750.811	2234
750.923	2561
751.034	4766
751.145	4307
751.256	2036
751.367	2084
751.479	2181
751.590	1851
751.701	2124
751.812	1037
751.923	2277
752.034	2013
752.145	2430
752.256	1012
752.367	2179
752.478	1209
752.589	1885
752.700	1783
752.811	2163
752.922	1722
753.032	1577
753.143	2353
753.254	1810
753.365	2425
753.476	1551
753.586	1864
753.697	1853
753.808	2235
753.919	1668
754.029	2288
754.140	1702
754.251	2387
754.361	1978
754.472	1518
754.582	2003
754.693	2100
754.804	1242
754.914	1716
755.025	2167
755.135	1909
755.246	2054
755.356	1638
755.466	2748
755.577	2393
755.687	1512
755.798	1365
755.908	2130
756.018	1415
756.129	2334
756.239	2181
756.349	2280
756.460	1806
756.570	2293
756.680	2016
756.790	2458
756.900	2825
757.011	1430
757.121	2395
757.231	2236
757.341	2564
757.451	1641
757.561	514
757.671	1890
757.781	486
757.891	3137
758.001	2530
758.111	2388
758.221	2486
758.331	2585
758.441	2278
758.551	2697
758.661	1866
758.771	2087
758.880	1883
758.990	2464
759.100	2861
759.210	2854
759.320	3157
759.429	2474
759.539	2118
759.649	3527
759.758	2217
759.868	3694
759.978	2921
760.087	3840
760.197	3534
760.307	3919
760.416	2873
760.526	3224
760.635	2916
760.745	3669
760.854	3373
760.964	3747
761.073	3308
761.182	3363
761.292	3617
761.401	5308
761.511	3781
761.620	3281
761.729	3894
761.839	4073
761.948	4431
762.057	4140
762.166	3740
762.276	2782
762.385	4327
762.494	4445
762.603	5085
762.712	5226
762.822	4608
762.931	5084
763.040	4874
763.149	4720
763.258	4732
763.367	5993
763.476	5438
763.585	5798
763.694	6093
763.803	7280
763.912	7371
764.021	7166
764.130	7033
764.238	8540
764.347	7839
764.456	9144
764.565	8916
764.674	10217
764.783	9942
764.891	11141
765.000	12808
765.109	15051
765.217	16708
765.326	20193
765.435	24591
765.543	27746
765.652	34105
765.761	44795
765.869	61709
765.978	91218
766.086	143253
766.195	246620
766.303	457304
766.412	648779
766.520	548550
766.629	383177
766.737	205528
766.846	123869
766.954	83063
767.062	60480
767.171	46035
767.279	34825
767.387	27000
767.496	23877
767.604	21136
767.712	17787
767.820	16751
767.928	16544
768.037	14289
768.145	14652
768.253	14026
768.361	13087
768.469	12209
768.577	13201
768.685	15009
768.793	14092
768.901	15839
769.009	18471
769.117	21834
769.225	27327
769.333	38383
769.441	58624
769.549	100049
769.657	200968
769.765	431101
769.873	535568
769.981	357746
770.088	163891
770.196	84437
770.304	54702
770.412	38565
770.519	29573
770.627	22523
770.735	20540
770.842	15502
770.950	13807
771.058	11847
771.165	11497
771.273	11155
771.380	9442
771.488	8169
771.595	7022
771.703	8005
771.810	6972
771.918	6301
772.025	6221
772.133	4806
772.240	6529
772.348	6053
772.455	6116
772.562	5062
772.670	5114
772.777	5455
772.884	5368
772.991	3572
773.099	5177
773.206	4244
773.313	4314
773.420	3732
773.528	3605
773.635	4619
773.742	4537
773.849	4055
773.956	3909
774.063	3278
774.170	3539
774.277	4220
774.384	3190
774.491	3475
774.598	4040
774.705	4015
774.812	4610
774.919	4814
775.026	4899
775.133	3588
775.239	3766
775.346	4183
775.453	2778
775.560	3359
775.667	4144
775.773	2648
775.880	3561
775.987	3602
776.093	3891
776.200	2411
776.307	3042
776.413	3812
776.520	2608
776.627	3908
776.733	3442
776.840	2895
776.946	5120
777.053	7142
777.159	15091
777.266	6953
777.372	12666
777.478	10019
777.585	5254
777.691	3207
777.798	2906
777.904	2952
778.010	4457
778.117	3313
778.223	3490
778.329	3653
778.435	2701
778.542	3409
778.648	3030
778.754	2194
778.860	2789
778.966	3049
779.072	2660
779.178	2410
779.284	3198
779.391	1785
779.497	1948
779.603	4780
779.708	4790
779.815	10559
779.920	33251
780.026	65552
780.132	11185
780.238	3369
780.344	3086
780.450	2706
780.556	2162
780.661	2525
780.767	2286
780.873	1726
780.979	3471
781.085	1638
781.190	2410
781.296	1900
781.402	2532
781.507	1090
781.613	1963
781.719	2130
781.824	1962
781.930	2727
782.035	1861
782.141	2378
782.246	1771
782.352	2483
782.457	1876
782.563	1305
782.668	2654
782.773	2346
782.879	2155
782.984	1926
783.090	2092
783.195	3271
783.300	3514
783.405	2689
783.511	2450
783.616	3564
783.721	2560
783.826	1763
783.932	2649
784.037	1483
784.142	2270
784.247	2187
784.352	2579
784.457	2875
784.562	1962
784.667	1909
784.772	2774
784.877	1569
784.982	2333
785.087	1749
785.192	2374
785.297	1945
785.402	1776
785.507	1215
785.611	1614
785.716	1862
785.821	1653
785.926	1095
786.031	1891
786.135	1308
786.240	1989
786.345	748
786.450	2193
786.554	853
786.659	1786
786.763	1056
786.868	1309
786.973	2091
787.077	1125
787.182	522
787.286	1408
787.391	1182
787.495	1443
787.600	1675
787.704	533
787.809	1150
787.913	1381
788.017	1793
788.122	1360
788.226	882
788.330	997
788.435	840
788.539	1686
788.643	886
788.747	1167
788.852	1695
788.956	728
789.060	1064
789.164	1268
789.268	206
789.372	869
789.476	1264
789.580	1837
789.684	584
789.788	2185
789.892	906
789.996	1715
790.100	1046
790.204	1040
790.308	1609
790.412	748
790.516	1844
790.620	1874
790.724	1757
790.828	1740
790.931	200
791.035	2425
791.139	902
791.242	1262
791.346	1798
791.450	1317
791.554	1505
791.657	425
791.761	1509
791.864	1735
791.968	1368
792.072	1593
792.175	580
792.279	1049
792.382	1138
792.486	1364
792.589	1503
792.693	2088
792.796	901
792.899	1223
793.003	1654
793.106	200
793.209	955
793.313	2860
793.416	283
793.519	1578
793.623	2230
793.726	1561
793.829	1176
793.932	1047
794.035	37
794.138	2388
794.242	1530
794.345	2850
794.448	3158
794.551	4785
794.654	17768
794.757	34084
794.860	7645
794.963	2896
795.066	836
795.169	1846
795.272	351
795.375	1417
795.477	953
795.580	1844
795.683	222
795.786	835
795.889	-811
795.991	1568
796.094	2723
796.197	-35
796.300	1345
796.402	-126
796.505	540
796.608	121
796.710	207
796.813	-73
796.915	-183
797.018	998
797.120	-319
797.223	-1214
797.326	985
797.428	-69
797.530	380
797.633	-65
797.735	2248
797.838	4263
797.940	3182
798.042	-230
798.145	-758
798.247	928
798.349	407
798.452	248
798.554	154
798.656	-179
798.758	1944
798.860	224
798.962	-184
799.065	1081
799.167	-493
799.269	1769
799.371	1117
799.473	785
799.575	1222
799.677	2086
799.779	2029
799.881	146
799.983	554
800.085	-201
800.187	666
800.289	796
800.390	-36
800.492	244
800.594	1208
800.696	464
800.798	799
800.899	728
801.001	-1447
801.103	214
801.205	232
801.306	85
801.408	234
801.509	-163
801.611	-123
801.713	876
801.814	-404
801.916	131
802.017	23
802.119	124
802.220	-195
802.322	-538
802.423	2943
802.525	518
802.626	116
802.727	46
802.829	593
802.930	-958
803.031	1278
803.133	248
803.234	-72
803.335	-355
803.436	-361
803.538	-72
803.639	-837
803.740	1179
803.841	385
803.942	144
804.043	826
804.144	-190
804.245	-296
804.346	-68
804.447	-115
804.548	-285
804.649	802
804.750	-201
804.851	-877
804.952	-491
805.053	-688
805.154	-300
805.255	357
805.355	79
805.456	53
805.557	-841
805.658	-760
805.758	398
805.859	-941
805.960	-148
806.061	-812
806.161	-327
806.262	644
806.362	-295
806.463	-413
806.564	274
806.664	146
806.765	1629
806.865	987
806.966	878
807.066	229
807.166	-211
807.267	800
807.367	93
807.468	-161
807.568	-1551
807.668	-120
807.769	1000
807.869	-256
807.969	207
808.069	-457
808.170	566
808.270	203
808.370	870
808.470	651
808.570	-599
808.670	-971
808.770	746
808.870	-640
808.970	-332
809.070	-646
809.170	-1046
809.271	-765
809.370	-1036
809.470	-607
809.570	-1148
809.670	-743
809.770	-177
809.870	262
809.970	-95
810.070	84
810.169	841
810.269	-1424
810.369	66
810.469	-939
810.568	-569
810.668	-984
810.768	-610
810.867	-442
810.967	-1461
811.066	-702
811.166	-387
811.265	-81
811.365	-1426
811.464	-636
811.564	26
811.663	84
811.763	-605
811.862	48
811.962	-74
812.061	-525
812.160	-1690
812.260	-466
812.359	-245
812.458	-466
812.557	2118
812.657	1937
812.756	1557
812.855	-391
812.954	-941
813.053	-696
813.153	43
813.252	-915
813.351	-79
813.450	-231
813.549	-1106
813.648	-444
813.747	-689
813.846	247
813.945	-291
814.044	-1589
814.143	-828
814.242	-33
814.341	-880
814.439	235
814.538	-646
814.637	-851
814.736	-456
814.835	89
814.933	-803
815.032	-1038
815.131	-440
815.229	-918
815.328	-550
815.427	-249
815.525	-179
815.624	-601
815.722	-87
815.821	-1452
815.919	-770
816.018	-728
816.116	63
816.215	-1077
816.313	-1349
816.412	83
816.510	-503
816.609	466
816.707	-287
816.805	-774
816.904	-1383
817.002	150
817.100	600
817.198	-459
817.296	-537
817.395	-444
817.493	588
817.591	-294
817.689	855
817.787	-254
817.885	2418
817.983	4130
818.081	11019
818.179	28812
818.277	76957
818.375	66090
818.473	14007
818.571	3959
818.669	3612
818.767	3644
818.865	2868
818.963	2694
819.061	4449
819.158	10036
819.256	25376
819.354	61727
819.452	150917
819.549	91687
819.647	18599
819.745	5538
819.842	3219
819.940	1351
820.038	1424
820.135	1376
820.233	1397
820.330	645
820.428	-119
820.525	1056
820.623	35
820.720	-383
820.818	172
820.915	352
821.012	937
821.110	-1597
821.207	-45
821.304	-351
821.402	696
821.499	2293
821.596	2941
821.693	680
821.791	1012
821.888	-764
821.985	876
822.082	743
822.179	876
822.276	462
822.373	268
822.470	-1338
822.567	51
822.664	-1260
822.761	-340
822.858	-2163
822.955	-110
823.052	-584
823.149	-862
823.246	-996
823.343	-995
823.440	-13
823.536	-1541
823.633	-1557
823.730	-1088
823.827	-809
823.923	-1203
824.020	-148
824.117	-56
824.213	-570
824.310	258
824.407	-823
824.503	-1069
824.600	-1135
824.696	-753
824.793	147
824.889	-1982
824.986	-1133
825.082	-1142
825.179	-891
825.275	-889
825.371	-1309
825.468	-347
825.564	-1736
825.660	-573
825.757	-821
825.853	-559
825.949	-877
826.045	-1224
826.142	-1043
826.238	-859
826.334	-328
826.430	-1804
826.526	-506
826.622	-769
826.718	-1366
826.814	-1042
826.910	-65
827.006	-1015
827.102	-791
827.198	51
827.294	-730
827.390	-452
827.486	-284
827.582	-1614
827.678	-1216
827.774	326
827.869	-1121
827.965	111
828.061	-1315
828.157	-1273
828.252	-1561
828.348	-1724
828.444	675
828.539	-1391
828.635	-930
828.731	57
828.826	-1307
828.922	-418
829.017	-1337
829.113	-59
829.208	-630
829.304	-1628
829.399	144
829.495	-1337
829.590	-92
829.685	-1362
829.781	-519
829.876	-648
829.971	-1554
830.066	-535
830.162	-826
830.257	-1480
830.352	-1783
830.447	437
830.543	-729
830.638	-1890
830.733	49
830.828	-712
830.923	115
831.018	-824
831.113	-1151
831.208	-896
831.303	-211
831.398	-1135
831.493	-1736
831.588	-1323
831.683	-2519
831.778	-1276
831.873	-1979
831.967	-52
832.062	-1137
832.157	-2424
832.252	-181
832.346	-1128
832.441	-321
832.536	23
832.631	824
832.725	-341
832.820	-999
832.914	-935
833.009	-1440
833.104	-751
833.198	-236
833.293	-1109
833.387	-1546
833.482	-1080
833.576	-1315
833.670	-336
833.765	-1327
833.859	-1876
833.954	-505
834.048	-969
834.142	-830
834.237	-1003
834.331	-448
834.425	-545
834.519	-1928
834.613	-342
834.708	-1245
834.802	-882
834.896	-1305
834.990	-1261
835.084	-1222
835.178	-600
835.272	-1376
835.366	-685
835.460	-1272
835.554	-1148
835.648	-1445
835.742	-1090
835.836	-1302
835.930	-1981
836.024	-1360
836.117	-410
836.211	113
836.305	1432
836.399	1428
836.493	-1203
836.586	-1132
836.680	-1664
836.774	-1531
836.867	-144
836.961	-1608
837.055	-1400
837.148	-1869
837.242	-1693
837.335	-1466
837.429	-523
837.522	-921
837.616	810
837.709	2703
837.803	1182
837.896	-657
837.989	-408
838.083	1105
838.176	4104
838.269	3275
838.363	-272
838.456	-1485
838.549	74
838.642	-1031
838.735	1520
838.829	733
838.922	-1560
839.015	-763
839.108	-1903
839.201	-268
839.294	-603
839.387	-405
839.480	-1084
839.573	463
839.666	1086
839.759	-1319
839.852	-2017
839.945	-1336
840.038	-1031
840.131	-912
840.223	-773
840.316	-1006
840.409	-1255
840.502	-1968
840.594	-571
840.687	-1992
840.780	-251
840.873	-1520
840.965	-175
841.058	738
841.150	3448
841.243	1185
841.336	-410
841.428	-779
841.521	-982
841.613	-1399
841.706	-351
841.798	-1194
841.890	-1074
841.983	-1839
842.075	-208
842.167	-562
842.260	-721
842.352	120
842.444	1773
842.537	4312
842.629	6705
842.721	-392
842.813	-1111
842.905	-1070
842.997	-581
843.090	-946
843.182	784
843.274	4205
843.366	12664
843.458	25266
843.550	15879
843.642	832
843.734	458
843.826	979
843.918	-221
844.009	-911
844.101	-1340
844.193	-1025
844.285	-990
844.377	-423
844.469	1153
844.560	234
844.652	261
844.744	-842
844.835	-893
844.927	-1154
845.019	299
845.110	-1170
845.202	-1728
845.293	-1163
845.385	-1756
845.476	-1427
845.568	-144
845.659	-1171
845.751	-308
845.842	-1435
845.934	-1383
846.025	-1372
846.116	-1097
846.208	-1373
846.299	-1023
846.390	-570
846.482	-528
846.573	-95
846.664	280
846.755	506
846.846	1535
846.937	-2200
847.029	-1127
847.120	-1900
847.211	-1760
847.302	-179
847.393	-1744
847.484	-918
847.575	-481
847.666	-1164
847.757	-1009
847.847	-1190
847.938	94
848.029	-1817
848.120	-1172
848.211	-837
848.302	-1069
848.392	-1930
848.483	-737
848.574	-1827
848.664	-1080
848.755	-957
848.846	-1034
848.936	-1425
849.027	-1141
849.118	-796
849.208	-1292
849.299	-1409
849.389	-1276
849.480	-581
849.570	-214
849.661	-699
849.751	241
849.841	-816
849.932	-1570
850.022	-1663
850.112	-1602
850.203	-1828
850.293	-808
850.383	-1407
850.474	-1104
850.564	-1015
850.654	-1120
850.744	-1405
850.834	-795
850.924	-1748
851.014	-1392
851.104	-763
851.194	-1445
851.284	-793
851.374	-328
851.464	-1158
851.554	-413
851.644	-206
851.734	640
851.824	329
851.914	-825
852.004	615
852.094	6
852.183	-1513
852.273	-1335
852.363	-1348
852.452	-692
852.542	-1436
852.632	-1631
852.721	-1194
852.811	-1722
852.901	-1045
852.990	-1495
853.080	-1077
853.169	-1471
853.259	-1722
853.348	-1277
853.438	-1572
853.527	-650
853.617	-2095
853.706	-452
853.795	-779
853.885	2145
853.974	2660
854.063	6021
854.152	9651
854.242	2508
854.331	-1559
854.420	-1119
854.509	-1156
854.598	-1299
854.687	-475
854.777	-374
854.866	-2283
854.955	-1245
855.044	-2000
855.133	-2000
855.222	-666
855.311	-1270
855.400	-1276
855.488	-902
855.577	-1223
855.666	-1204
855.755	-610
855.844	-814
855.933	-1837
856.021	-872
856.110	-989
856.199	-1288
856.288	-1467
856.376	-1672
856.465	-2301
856.554	-1734
856.642	-571
856.731	-600
856.819	-1293
856.908	-1436
856.996	-1629
857.085	-1591
857.173	-1584
857.262	-1528
857.350	-1117
857.438	-686
857.527	-962
857.615	-1112
857.703	-1251
857.792	-917
857.880	-2414
857.968	-2094
858.056	-1122
858.145	-1643
858.233	-1524
858.321	-1369
858.409	-478
858.497	-2127
858.585	-1488
858.673	-1387
858.761	-2316
858.849	-1931
858.937	-1654
859.025	-804
859.113	-1159
859.201	-1419
859.289	-571
859.377	-1214
859.465	-1135
859.552	-1165
859.640	-1590
859.728	-579
859.816	-1009
859.903	-897
859.991	-1610
860.079	-629
860.166	-1943
860.254	-1745
860.342	-2010
860.429	-1865
860.517	-1394
860.604	-659
860.692	-1134
860.779	-1869
860.867	-2086
860.954	-650
861.042	-1675
861.129	-1253
861.216	-1470
861.304	-1729
861.391	-1135
861.478	-920
861.565	-909
861.653	-854
861.740	-1493
861.827	-1927
861.914	-1600
862.001	-1732
862.089	-1125
862.176	-1591
862.263	-2294
862.350	-1444
862.437	-1666
862.524	-1911
862.611	-1542
862.698	-771
862.785	-936
862.871	-930
862.958	-1849
863.045	-1171
863.132	-2185
863.219	-1274
863.306	-1685
863.392	-776
863.479	-817
863.566	-1579
863.652	-1962
863.739	-1574
863.826	-1919
863.912	-1375
863.999	-1611
864.086	-679
864.172	-1765
864.259	-1581
864.345	-1894
864.432	-611
864.518	-1675
864.604	-2087
864.691	-2488
864.777	-994
864.863	-1321
864.950	-1595
865.036	-2148
865.122	-2131
865.209	-1285
865.295	-2309
865.381	-2354
865.467	-1514
865.553	-1553
865.639	-2175
865.726	-1649
865.812	-419
865.898	272
865.984	1028
866.070	3839
866.156	4480
866.242	-460
866.328	-1622
866.414	-1923
866.499	-1657
866.585	-1386
866.671	-965
866.757	-2059
866.843	-1291
866.928	-1081
867.014	-2018
867.100	-1083
867.186	-967
867.271	-1350
867.357	-397
867.442	-311
867.528	-605
867.614	-744
867.699	-1284
867.785	-174
867.870	501
867.956	563
868.041	-106
868.127	-667
868.212	949
868.297	-420
868.383	-1037
868.468	-615
868.553	506
868.639	-269
868.724	803
868.809	319
868.894	-935
868.979	-1823
869.065	-918
869.150	-1403
869.235	-1472
869.320	-1685
869.405	-1597
869.490	-1198
869.575	-1859
869.660	-2060
869.745	-1297
869.830	-2848
869.915	-1604
870.000	-1849
870.085	-904
870.169	-1689
870.254	-1700
870.339	-2479
870.424	-1588
870.509	-1777
870.593	-1746
870.678	-1308
870.763	-1634
870.847	-2065
870.932	-1861
871.016	-1095
871.101	-1885
871.186	-2586
871.270	-1444
871.355	-2245
871.439	-1458
871.523	-1416
871.608	-1733
871.692	-1390
871.777	-1144
871.861	-1151
871.945	-1994
872.030	-1852
872.114	-1651
872.198	-2346
872.282	-1959
872.367	-1862
872.451	-1825
872.535	-2031
872.619	-1613
872.703	-2154
872.787	-1935
872.871	-2064
872.955	-2134
873.039	-2162
873.123	-1781
873.207	-1493
873.291	-916
873.375	-1375
873.459	-2438
873.543	-2031
873.627	-1942
873.711	-2353
873.794	-1946
873.878	-2445
873.962	-2764
874.045	-1923
874.129	-1779
874.137	-1812
874.213	-2140
874.245	-2212
874.296	-2325
874.352	-2220
874.380	-2178
874.460	-1778
874.464	-1761
874.547	-1951
874.568	-1867
874.631	-1665
874.676	-1623
874.714	-1551
874.784	-1829
874.798	-1899
874.881	-382
874.892	-602
874.965	-2049
874.999	-2052
875.048	-2099
875.107	-1168
875.131	-778
875.215	-1758
875.215	-1757
875.298	-1667
875.323	-1768
875.381	-1971
875.430	-2059
875.465	-2129
875.538	-1494
875.548	-1395
875.631	-1385
875.646	-1442
875.714	-1886
875.753	-1592
875.798	-1135
875.861	-1223
875.881	-1313
875.964	-1798
875.968	-1807
876.047	-1715
876.076	-1561
876.130	-1369
876.183	-1270
876.213	-1167
876.291	-1194
876.296	-1212
876.379	-2196
876.398	-2041
876.462	-1336
876.506	-1169
876.545	-1109
876.613	-1577
876.628	-1638
876.711	-777
876.721	-828
876.794	-1401
876.828	-1386
876.877	-1258
876.935	-1241
876.960	-1242
877.043	-1070
877.043	-1069
877.125	-508
877.150	-418
877.208	-384
877.258	-256
877.291	-16
877.365	-421
877.374	-511
877.456	-180
877.472	-302
877.539	-518
877.579	-412
877.622	-473
877.687	-677
877.704	-671
877.787	-744
877.794	-729
877.869	-678
877.901	-618
877.952	-435
878.008	-692
878.034	-878
878.115	-189
878.117	-168
878.199	-1320
878.222	-1100
878.282	-665
878.329	-587
878.364	-467
878.437	-558
878.447	-597
878.529	-1091
878.544	-1043
878.611	-600
878.651	-753
878.694	-1019
878.758	-735
878.776	-588
878.858	-282
878.865	-272
878.941	-558
878.972	-833
879.023	-886
879.078	-898
879.105	-1047
879.185	-938
879.187	-928
879.269	-178
879.292	-382
879.351	-1123
879.399	-924
879.433	-615
879.506	-925
879.516	-990
879.598	-211
879.613	-264
879.680	-238
879.720	-232
879.762	-566
879.827	-1129
879.844	-1136
879.926	-849
879.933	-807
880.007	-702
880.040	-839
880.089	-676
880.147	-158
880.171	-45
880.253	205
880.254	198
880.335	-503
880.360	-327
880.417	853
880.467	1940
880.499	2778
880.574	4256
880.580	4132
880.662	668
880.680	174
880.744	-215
880.787	-464
880.825	-592
880.893	-452
880.907	-420
880.989	-795
881.000	-780
881.070	-468
881.106	-570
881.152	-863
881.213	-606
881.233	-442
881.315	-856
881.319	-838
881.396	-375
881.426	-413
881.478	-668
881.532	-454
881.559	-200
881.639	-295
881.641	-309
881.722	-671
881.745	-760
881.803	-316
881.852	-48
881.885	-91
881.958	-505
881.966	-549
882.047	-803
882.064	-739
882.129	-13
882.171	216
882.210	586
882.277	1470
882.291	1419
882.372	406
882.383	222
882.454	-300
882.489	-94
882.535	-206
882.596	-921
882.616	-857
882.697	-170
882.702	-145
882.778	-231
882.808	-211
882.859	37
882.914	-65
882.940	-272
883.020	-106
883.021	-97
883.102	-418
883.127	-437
883.183	-332
883.233	-213
883.264	-201
883.339	-118
883.345	-104
883.426	-542
883.445	-471
883.507	116
883.551	36
883.587	-226
883.657	11
883.668	103
883.749	473
883.763	530
883.830	194
883.869	-198
883.910	-287
883.975	89
883.991	232
884.072	184
884.081	189
884.152	409
884.187	616
884.233	293
884.292	-234
884.314	22
884.394	1137
884.398	1179
884.475	145
884.504	-415
884.555	-428
884.610	-124
884.636	-68
884.716	-176
884.716	-168
884.797	206
884.821	165
884.877	124
884.927	99
884.958	173
885.033	617
885.038	609
885.118	65
885.139	-80
885.199	288
885.244	657
885.279	407
885.350	-366
885.359	-339
885.439	177
885.456	158
885.520	-51
885.561	129
885.600	501
885.667	936
885.680	878
885.760	545
885.773	473
885.840	1132
885.878	1436
885.920	1312
885.984	1149
886.000	1164
886.080	1217
886.089	1194
886.160	453
886.195	197
886.240	637
886.300	1022
886.320	977
886.400	1130
886.406	1108
886.480	1440
886.511	1559
886.560	1344
886.616	1199
886.640	1309
886.720	1456
886.722	1450
886.800	564
886.827	185
886.879	564
886.932	1117
886.959	1226
887.038	1304
887.039	1312
887.119	1003
887.143	937
887.198	425
887.248	-57
887.278	291
887.354	1193
887.358	1175
887.437	393
887.459	245
887.517	1093
887.564	1722
887.596	1331
887.669	367
887.676	456
887.755	1464
887.774	1720
887.835	1110
887.880	564
887.914	828
887.985	1417
887.994	1359
888.073	698
888.090	561
888.153	1333
888.195	1806
888.232	1462
888.300	839
888.311	932
888.391	1471
888.405	1567
888.470	1226
888.510	982
888.549	1448
888.615	2215
888.628	2027
888.708	808
888.720	609
888.787	957
888.825	1126
888.866	1292
888.930	1550
888.945	1651
889.024	2121
889.035	2170
889.103	1816
889.140	1597
889.182	1718
889.245	1909
889.261	1827
889.340	1351
889.349	1287
889.419	2014
889.454	2360
889.498	2155
889.559	1847
889.577	1924
889.656	2214
889.664	2232
889.735	1264
889.768	796
889.814	1826
889.873	3174
889.978	1840
890.083	2355
890.187	1870
890.292	2659
890.397	1170
890.501	2170
890.606	1355
890.710	1910
890.815	1610
890.919	2539
891.024	1543
891.128	2234
891.233	1437
891.337	1804
891.442	1338
891.546	1980
891.650	1804
891.755	2446
891.859	2132
891.963	1633
892.068	1579
892.172	1813
892.276	1489
892.380	1624
892.484	1389
892.589	1836
892.693	1510
892.797	1919
892.901	1415
893.005	1551
893.109	1301
893.213	2007
893.317	1104
893.421	1421
893.525	1101
893.629	842
893.733	1905
893.837	1930
893.941	1387
894.045	2475
894.148	1049
894.252	4478
894.356	2376
894.460	1692
894.564	1331
894.667	1898
894.771	343
894.875	1044
894.978	821
895.082	1717
895.186	542
895.289	1906
895.393	1541
895.496	1669
895.600	552
895.703	1209
895.807	275
895.910	1425
896.014	1561
896.117	1968
896.221	1040
896.324	939
896.427	1398
896.531	1254
896.634	824
896.737	1962
896.840	14
896.944	1947
897.047	744
897.150	1650
897.253	52
897.356	1597
897.460	1089
897.563	1148
897.666	527
897.769	1366
897.872	1625
897.975	1047
898.078	1155
898.181	1626
898.284	687
898.387	1296
898.490	850
898.593	1817
898.695	1385
898.798	1883
898.901	2098
899.004	1741
899.107	-93
899.209	2060
899.312	691
899.415	1789
899.518	250
899.620	1180
899.723	972
899.826	3081
899.928	2521
900.031	1480
900.133	252
900.236	1125
900.338	626
900.441	852
900.543	795
900.646	1172
900.748	1349
900.851	753
900.953	400
901.055	1750
901.158	452
901.260	1417
901.362	651
901.465	891
901.567	427
901.669	1159
901.771	509
901.873	1424
901.976	870
902.078	1422
902.180	1036
902.282	1433
902.384	684
902.486	1805
902.588	1501
902.690	2849
902.792	1155
902.894	2663
902.996	592
903.098	1435
903.200	1031
903.302	1386
903.404	612
903.505	1846
903.607	178
903.709	1832
903.811	183
903.913	1047
904.014	1023
904.116	934
904.218	442
904.319	1456
904.421	1097
904.523	2174
904.624	1433
904.726	1936
904.827	575
904.929	1628
905.030	1001
905.132	1411
905.233	986
905.335	1015
905.436	1369
905.537	689
905.639	986
905.740	674
905.841	1167
905.943	1851
906.044	1500
906.145	1946
906.247	686
906.348	1472
906.449	566
906.550	1308
906.651	-260
906.752	1217
906.854	696
906.955	1220
907.056	100
907.157	796
907.258	464
907.359	1023
907.460	133
907.561	1181
907.662	633
907.762	1530
907.863	242
907.964	1286
908.065	297
908.166	1062
908.267	483
908.367	1506
908.468	146
908.569	1703
908.670	1495
908.770	2319
908.871	1909
908.971	2984
909.072	2273
909.173	919
909.273	396
909.374	1667
909.474	435
909.575	1806
909.675	258
909.776	1618
909.876	1135
909.977	1060
910.077	1442
910.177	262
910.278	414
910.378	1347
910.478	502
910.579	782
910.679	965
910.779	1457
910.879	290
910.980	442
911.080	187
911.180	656
911.280	253
911.380	1757
911.480	871
911.580	759
911.680	625
911.780	1367
911.880	682
911.980	986
912.080	448
912.180	1309
912.280	-171
912.380	1700
912.480	161
912.580	1128
912.679	247
912.779	1283
912.879	1581
912.979	918
913.078	565
913.178	1524
913.278	171
913.377	1669
913.477	648
913.577	1291
913.676	530
913.776	995
913.875	669
913.975	1273
914.074	564
914.174	1250
914.273	36
914.373	1134
914.472	610
914.572	1475
914.671	291
914.770	1036
914.870	628
914.969	1787
915.068	432
915.167	1642
915.267	559
915.366	964
915.465	1300
915.564	853
915.663	879
915.763	633
915.862	294
915.961	932
916.060	-25
916.159	536
916.258	308
916.357	1282
916.456	774
916.555	927
916.654	285
916.752	1376
916.851	718
916.950	1361
917.049	-18
917.148	601
917.247	867
917.345	735
917.444	-355
917.543	1023
917.642	583
917.740	1083
917.839	64
917.937	670
918.036	704
918.135	518
918.233	-311
918.332	1661
918.430	-241
918.529	896
918.627	-47
918.726	758
918.824	76
918.923	645
919.021	192
919.119	1675
919.218	-143
919.316	872
919.414	291
919.512	208
919.611	381
919.709	835
919.807	109
919.905	621
920.003	-332
920.102	1476
920.200	686
920.298	939
920.396	126
920.494	1220
920.592	-114
920.690	1844
920.788	987
920.886	516
920.984	35
921.082	1131
921.180	537
921.277	662
921.375	-13
921.473	785
921.571	-377
921.669	538
921.766	318
921.864	1217
921.962	742
922.060	651
922.157	814
922.255	968
922.352	12
922.450	1516
922.548	-767
922.645	1509
922.743	720
922.840	1171
922.938	404
923.035	741
923.133	48
923.230	961
923.327	576
923.425	342
923.522	815
923.619	995
923.717	36
923.814	542
923.911	330
924.008	917
924.106	333
924.203	1354
924.300	-172
924.397	741
924.494	1324
924.591	1477
924.688	-156
924.786	1052
924.883	149
924.979	1341
925.077	1046
925.173	634
925.270	600
925.367	452
925.464	296
925.561	839
925.658	251
925.755	1742
925.852	1131
925.948	1724
926.045	1552
926.142	1768
926.239	1018
926.335	1871
926.432	2366
926.529	1637
926.625	1597
926.722	1626
926.818	954
926.915	1367
927.011	-373
927.108	-184
927.204	275
927.301	912
927.397	386
927.494	1031
927.590	165
927.687	534
927.783	156
927.879	543
927.976	419
928.072	344
928.168	-567
928.264	-22
928.361	-137
928.457	786
928.553	1001
928.649	762
928.745	27
928.841	1115
928.937	-914
929.033	1379
929.129	32
929.225	597
929.321	447
929.417	326
929.513	-377
929.609	655
929.705	362
929.801	1167
929.897	-506
929.993	583
930.089	-314
930.184	817
930.280	29
930.376	1354
930.471	-342
930.567	938
930.663	906
930.758	314
930.854	8
930.950	831
931.045	-165
931.141	1311
931.236	332
931.332	1158
931.427	443
931.523	203
931.618	601
931.714	827
931.809	485
931.905	1077
932.000	336
932.095	918
932.191	844
932.286	578
932.381	-219
932.476	759
932.572	-414
932.667	484
932.762	159
932.857	411
932.952	293
933.047	622
933.142	-172
933.237	468
933.332	-454
933.427	672
933.522	-35
933.617	1040
933.712	336
933.807	513
933.902	-209
933.997	725
934.092	218
934.187	386
934.282	-30
934.376	679
934.471	96
934.566	188
934.661	365
934.755	1068
934.850	-141
934.945	1296
935.039	540
935.134	1036
935.228	-24
935.323	1312
935.417	601
935.512	641
935.606	-676
935.701	711
935.795	-977
935.890	301
935.984	514
936.079	580
936.173	522
936.267	714
936.362	-370
936.456	460
936.550	-379
936.644	813
936.738	273
936.833	819
936.927	46
937.021	722
937.115	297
937.209	258
937.303	177
937.397	725
937.491	156
937.585	114
937.679	-719
937.773	1187
937.867	-493
937.961	16
938.055	-380
938.149	1208
938.243	152
938.337	207
938.430	-75
938.524	2209
938.618	2088
938.712	1478
938.805	458
938.899	69
938.993	202
939.086	2086
939.180	2673
939.274	3539
939.367	244
939.461	861
939.554	543
939.648	612
939.741	977
939.835	744
939.928	-630
940.022	466
940.115	-104
940.208	600
940.302	755
940.395	328
940.488	-836
940.582	572
940.675	454
940.768	300
940.861	628
940.954	860
941.048	247
941.141	1545
941.234	383
941.327	1300
941.420	1765
941.513	1643
941.606	-223
941.699	573
941.792	-63
941.885	1058
941.978	281
942.071	-542
942.164	-271
942.257	577
942.349	182
942.442	277
942.535	-471
942.628	624
942.721	303
942.813	335
942.906	123
942.999	335
943.091	-810
943.184	746
943.277	-138
943.369	558
943.462	-1
943.554	729
943.647	-454
943.739	667
943.832	-475
943.924	-218
944.017	823
944.109	86
944.201	-188
944.294	1181
944.386	69
944.478	969
944.571	-275
944.663	1043
944.755	-85
944.847	1011
944.940	-272
945.032	533
945.124	-306
945.216	1454
945.308	-390
945.400	1029
945.492	-188
945.584	854
945.676	-779
945.768	57
945.860	343
945.952	693
946.044	471
946.136	1252
946.228	-697
946.320	-63
946.412	-478
946.503	236
946.595	301
946.687	455
946.779	-357
946.870	891
946.962	-702
947.054	417
947.145	318
947.237	-119
947.329	-234
947.420	334
947.512	-405
947.603	99
947.695	-165
947.786	186
947.878	-454
947.969	811
948.061	-1257
948.152	-254
948.243	-93
948.335	1079
948.426	-471
948.517	-44
948.609	237
948.700	290
948.791	-500
948.882	377
948.973	-984
949.065	-79
949.156	-1112
949.247	-702
949.338	22
949.429	265
949.520	-707
949.611	-314
949.702	-180
949.793	904
949.884	-444
949.975	161
950.066	-118
950.157	189
950.247	-485
950.338	207
950.429	164
950.520	790
950.611	-231
950.701	394
950.792	527
950.883	1355
950.973	155
951.064	648
951.155	-128
951.245	579
951.336	-846
951.427	-514
951.517	164
951.608	-131
951.698	-590
951.788	70
951.879	-635
951.969	284
952.060	-49
952.150	-12
952.240	331
952.331	-1260
952.421	504
952.511	308
952.602	-465
952.692	-803
952.782	18
952.872	157
952.962	-12
953.052	-202
953.143	-978
953.233	287
953.323	163
953.413	109
953.503	-520
953.593	562
953.683	-503
953.773	-271
953.863	-351
953.953	495
954.042	-792
954.132	34
954.222	88
954.312	716
954.402	-757
954.492	1842
954.581	3622
954.671	1300
954.761	-357
954.850	1049
954.940	-840
955.030	-245
955.119	-476
955.209	748
955.298	-672
955.388	882
955.477	-100
955.567	-56
955.656	-297
955.746	308
955.835	96
955.925	-109
956.014	-694
956.103	136
956.193	-128
956.282	1007
956.371	-20
956.461	-585
956.550	-709
956.639	178
956.728	-488
956.817	38
956.906	-5
956.995	419
957.085	-476
957.174	37
957.263	232
957.352	217
957.441	-249
957.530	665
957.619	-564
957.708	251
957.796	-19
957.885	493
957.974	-617
958.063	955
958.152	-1112
958.241	836
958.329	-537
958.418	1424
958.507	-435
958.596	1603
958.684	-286
958.773	1264
958.861	-50
958.950	764
959.039	593
959.127	1401
959.216	1516
959.304	1406
959.393	249
959.481	772
959.570	1272
959.658	1149
959.746	1165
959.835	3450
959.923	4767
960.011	2975
960.100	712
960.188	1012
960.276	-187
960.365	1201
960.453	-696
960.541	-101
960.629	-351
960.717	2
960.805	-794
960.893	583
960.981	-798
961.069	502
961.158	115
961.245	1258
961.333	-119
961.421	-663
961.509	299
961.597	591
961.685	-1096
961.773	-27
961.861	-1311
961.949	907
962.036	-467
962.124	726
962.212	-549
962.299	250
962.387	-583
962.475	615
962.562	-1277
962.650	433
962.738	-354
962.825	305
962.913	-639
963.000	-273
963.088	-329
963.175	1033
963.263	-100
963.350	-61
963.438	-16
963.525	1133
963.612	3846
963.700	11621
963.787	24969
963.874	12088
963.962	1379
964.049	70
964.136	-401
964.223	12
964.310	-524
964.398	439
964.485	-502
964.572	1421
964.659	2258
964.746	3241
964.833	-505
964.920	-694
965.007	-583
965.094	181
965.181	-1508
965.268	-587
965.355	-260
965.441	-488
965.528	-1150
965.615	-270
965.702	-1383
965.789	-1201
965.875	-897
965.962	-898
966.049	-1090
966.136	-382
966.222	-1209
966.309	249
966.395	-887
966.482	-408
966.569	-1290
966.655	-76
966.742	-933
966.828	201
966.915	-1139
967.001	-189
967.087	-865
967.174	27
967.260	1096
967.347	3009
967.433	8446
967.519	16435
967.605	4504
967.692	-74
967.778	-566
967.864	-10
967.950	-434
968.036	-1104
968.123	-1030
968.209	154
968.295	-1626
968.381	1156
968.467	-78
968.553	-1080
968.639	-714
968.725	-210
968.811	1490
968.897	2351
968.983	-501
969.069	-503
969.154	-768
969.240	-151
969.326	-1710
969.412	-172
969.497	-1436
969.583	-1033
969.669	-536
969.755	-521
969.840	41
969.926	583
970.012	-975
970.097	855
970.183	-781
970.268	1353
970.354	537
970.439	4769
970.525	9975
970.610	2841
970.696	149
970.781	-92
970.866	-1698
970.952	-214
971.037	-1160
971.122	349
971.208	-1424
971.293	-729
971.378	-1736
971.463	-14
971.549	-225
971.634	-66
971.719	-49
971.804	714
971.889	239
971.974	-385
972.059	-1195
972.144	-21
972.229	-1387
972.314	-661
972.399	-607
972.484	-281
972.569	-161
972.654	1012
972.739	4540
972.824	5200
972.908	1193
972.993	-584
973.078	-893
973.163	-442
973.247	-298
973.332	-1615
973.417	-573
973.501	-681
973.586	198
973.671	-674
973.755	-1196
973.840	381
973.924	358
974.009	-267
974.093	-1027
974.178	2125
974.262	2761
974.346	3577
974.431	41
974.515	-14
974.600	-1592
974.684	-622
974.768	-1074
974.852	167
974.937	-2486
975.021	-16
975.105	-1919
975.189	-511
975.273	-608
975.358	-1374
975.442	-1652
975.526	458
975.610	-1682
975.694	-758
975.778	45
975.862	116
975.946	-2955
976.030	718
976.114	-1235
976.198	521
976.281	-1561
976.365	-358
976.449	-1062
976.533	-624
976.617	-1623
976.700	-64
976.784	-781
976.868	383
976.951	813
977.035	1642
977.119	-469
977.202	-616
977.286	-1178
977.369	-977
977.453	-665
977.536	-159
977.620	-1360
977.703	-635
977.787	-1558
977.870	932
977.953	-312
978.037	-1007
978.120	866
978.203	2048
978.287	4752
978.370	2850
978.453	-696
978.536	-723
978.620	410
978.703	2369
978.786	-510
978.869	-752
978.952	-2647
979.035	520
979.118	-477
979.201	-695
979.284	-770
979.367	-1168
979.450	-1152
979.533	-595
979.616	-1840
979.699	-859
979.782	-1072
979.865	-554
979.948	-957
980.030	-1023
980.113	-750
980.196	-1851
980.279	-1015
980.361	-932
980.444	-1815
980.526	-1084
980.609	-1442
980.692	-1083
980.774	-1165
980.857	-1143
980.939	-498
981.022	-101
981.104	-1667
981.187	-1374
981.269	-1038
981.352	-1152
981.434	-2721
981.516	-948
981.599	-1278
981.681	-333
981.763	-613
981.846	-168
981.928	-1145
982.010	-421
982.092	-2117
982.174	-519
982.256	-1715
982.339	-364
982.421	-1187
982.503	-809
982.585	-2464
982.667	-740
982.749	-1286
982.831	-873
982.913	-2155
982.995	303
983.077	-1252
983.158	-14
983.240	-1642
983.322	-643
983.404	-347
983.486	-1457
983.568	-1370
983.649	-1245
983.731	-1659
983.813	-1927
983.894	-1232
983.976	-1589
984.058	-1813
984.139	236
984.221	-1709
984.302	85
984.384	-1825
984.465	-1616
984.547	-1454
984.628	-876
984.710	-450
984.791	-964
984.872	-652
984.954	-844
985.035	-1024
985.116	-1410
985.198	-1604
985.279	220
985.360	-2296
985.441	-1033
985.522	-1421
985.604	-1004
985.685	-2908
985.766	-961
985.847	-467
985.928	-1699
986.009	-1899
986.090	-1301
986.171	-608
986.252	-1512
986.333	-1996
986.414	-1492
986.495	-1331
986.576	-1203
986.656	-1417
986.737	-129
986.818	-1069
986.899	-949
986.980	-2157
987.060	-861
987.141	-2085
987.222	-1212
987.302	-1896
987.383	-781
987.464	-2158
987.544	-671
987.625	-1312
987.705	-314
987.786	-1721
987.866	-1355
987.947	-1702
988.027	-714
988.108	-1672
988.188	-1423
988.268	-1542
988.349	-1046
988.429	-1420
988.509	-1701
988.589	-1433
988.670	-1813
988.750	-571
988.830	-1153
988.910	-1499
988.990	-706
989.070	-2706
989.151	-1245
989.231	-2207
989.311	-280
989.391	-1580
989.471	-1097
989.551	-1461
989.631	-1502
989.711	-837
989.791	-1260
989.870	-1924
989.950	-1004
990.030	-2677
990.110	-527
990.190	-2096
990.269	-824
990.349	-1802
990.429	-668
990.509	-1387
990.588	-1113
990.668	-833
990.747	-1756
990.827	-1738
990.907	-677
990.986	-2040
991.066	-365
991.145	-1324
991.225	-587
991.304	-3094
991.383	-1167
991.463	-2681
991.542	-588
991.622	-2409
991.701	-1278
991.780	-1414
991.859	-804
991.939	-2075
992.018	-936
992.097	-1406
992.176	-1025
992.256	-2032
992.335	-1282
992.414	-678
992.493	-1144
992.572	-1918
992.651	537
992.730	-1651
992.809	-2
992.888	-1898
992.967	-1242
993.046	-1688
993.125	-1638
993.203	-1599
993.282	-855
993.361	-1585
993.440	-1176
993.519	-2047
993.597	-612
993.676	-2322
993.755	-339
993.834	-1575
993.912	-1981
993.991	-1305
994.069	-1825
994.148	-1810
994.226	-1343
994.305	-1335
994.384	-1150
994.462	-260
994.540	-1365
994.619	-1798
994.697	-1100
994.776	-2681
994.854	-1207
994.932	-1878
995.011	-1314
995.089	-2214
995.167	-612
995.245	-1425
995.324	-1606
995.402	-173
995.480	-2039
995.558	-1920
995.636	-1000
995.714	-1733
995.792	-573
995.870	-1846
995.948	-1159
996.026	-1447
996.104	-1305
996.182	-1562
996.260	-1593
996.338	-1145
996.416	-2283
996.494	-1681
996.572	-776
996.649	-2279
996.727	-2334
996.805	-1680
996.883	-1833
996.960	-2002
997.038	-973
997.116	-754
997.193	-1153
997.271	-965
997.348	-1258
997.426	-1821
997.504	-1252
997.581	-1627
997.658	-929
997.736	-2443
997.813	-1736
997.891	-1376
997.968	-1825
998.046	-1757
998.123	-1394
998.200	-1441
998.277	-1976
998.355	-1123
998.432	-2502
998.509	-1405
998.586	-403
998.663	-2091
998.741	-1276
998.818	-1832
998.895	-2004
998.972	-2297
999.049	-1427
999.126	-1807
999.203	-526
999.280	-2158
999.357	-1899
999.434	-1642
999.511	-1008
999.587	-1286
999.664	-1347
999.741	-1018
999.818	-935
999.895	-2031
999.971	-1450
1000.048	-1810
1000.125	-974
1000.202	-1696
1000.278	-1193
1000.355	-1566
1000.431	-1008
1000.508	-1874
1000.584	-572
1000.661	-2764
1000.738	-2858
1000.814	-1910
1000.890	-560
1000.967	-1348
1001.043	-791
1001.120	-3037
1001.196	-999
1001.272	-2502
1001.349	-1794
1001.425	-1311
1001.501	-1376
1001.577	-2565
1001.654	-1193
1001.730	-2432
1001.806	-906
1001.882	-2599
1001.958	-1044
1002.034	-2173
1002.110	-479
1002.186	-2674
1002.262	-1147
1002.338	-2149
1002.414	-573
1002.490	-807
1002.566	-1413
1002.642	-1645
1002.718	-624
1002.794	-2276
1002.870	-982
1002.945	-1960
1003.021	-1828
1003.097	-2169
1003.173	-311
1003.248	-1954
1003.324	-1315
1003.400	-1627
1003.475	-1792
1003.551	-1795
1003.626	-673
1003.702	-2190
1003.777	-1061
1003.853	-2309
1003.928	-797
1004.004	-2641
1004.079	-920
1004.155	-2203
1004.230	-2395
1004.305	-1475
1004.381	-1666
1004.456	-2934
1004.531	-1162
1004.607	-1677
1004.682	-1191
1004.757	-1686
1004.832	-1240
1004.907	-2263
1004.982	-1321
1005.057	-1751
1005.133	-1847
1005.208	-2575
1005.283	-1613
1005.358	-1215
1005.433	-2111
1005.508	-1759
1005.583	-1454
1005.657	-2099
1005.732	-394
1005.807	-1821
1005.882	-1335
1005.957	-2050
1006.032	-680
1006.106	-820
1006.181	-1076
1006.256	-1618
1006.331	-1836
1006.405	-2275
1006.480	-1018
1006.554	-1569
1006.629	-1180
1006.704	-2168
1006.778	-757
1006.853	-1097
1006.927	-1561
1007.002	-2629
1007.076	-1401
1007.150	-2199
1007.225	-1006
1007.299	-2033
1007.373	-1344
1007.448	-1278
1007.522	-1367
1007.596	-2103
1007.671	-1728
1007.745	-1924
1007.819	-575
1007.893	-2321
1007.967	-975
1008.041	-1982
1008.115	-987
1008.190	-2368
1008.264	-972
1008.338	-3549
1008.412	-1923
1008.486	-1768
1008.560	-220
1008.633	-2383
1008.707	-985
1008.781	-1713
1008.855	-1990
1008.929	-2295
1009.003	-2004
1009.076	-2079
1009.150	-1793
1009.224	-2034
1009.298	-1139
1009.371	-2716
1009.445	-379
1009.519	-2382
1009.592	-1984
1009.666	-1928
1009.739	-897
1009.813	-3060
1009.886	-247
1009.960	-3199
1010.033	-514
1010.107	-1933
1010.180	-1576
1010.253	-1819
1010.327	-1740
1010.400	-2098
1010.473	-1020
1010.547	-1707
1010.620	-1672
1010.693	-1958
1010.766	-1083
1010.840	-2001
1010.913	-803
1010.986	-1724
1011.059	-1216
1011.132	-1938
1011.205	-25
1011.278	-3302
1011.351	-1700
1011.424	-1875
1011.497	-1892
1011.570	-1729
1011.643	-1927
1011.716	-3067
1011.789	-1068
1011.862	-1584
1011.934	128
1012.007	-2861
1012.080	-1100
1012.153	-2552
1012.225	-827
1012.298	-2559
1012.371	-1167
1012.443	-1376
1012.516	-1740
1012.588	-2414
1012.661	-576
1012.733	-1824
1012.806	-812
1012.879	-2453
1012.951	-2027
1013.023	-2761
1013.096	-1267
1013.168	-2206
1013.241	-1073
1013.313	-1812
1013.385	-1804
1013.458	-2182
1013.530	-646
1013.602	-2344
1013.674	-1017
1013.746	-3125
1013.819	-1553
1013.891	-2074
1013.963	-2158
1014.035	-1422
1014.107	-1380
1014.179	-800
1014.251	-2549
1014.323	-1779
1014.395	-1073
1014.467	-1862
1014.539	-1184
1014.611	-2622
1014.683	-1497
1014.754	-1878
1014.826	-1985
1014.898	-2422
1014.970	-2037
1015.042	-978
1015.113	-871
1015.185	-2365
1015.257	-2210
1015.328	-2110
1015.400	-2166
1015.471	-2782
1015.543	-2436
1015.615	-2420
1015.686	-1973
1015.757	-2525
1015.829	-600
1015.901	-1756
1015.972	-1010
1016.043	-2504
1016.115	-2014
1016.186	-1974
1016.257	-1948
1016.328	-2867
1016.400	-724
1016.471	-3060
1016.542	-672
1016.613	-1746
1016.685	-1198
1016.756	-1927
1016.827	-1197
1016.898	-2050
1016.969	-1034
1017.040	-2097
1017.111	-1655
1017.182	-2693
1017.253	-1518
1017.324	-2456
1017.395	-1823
1017.466	-2140
1017.537	-1506
1017.608	-1969
1017.678	-1037
1017.749	-2621
1017.820	-1407
1017.891	-1454
1017.961	-1253
1018.032	-1699
1018.103	-1442
1018.173	-1847
1018.244	-1597
1018.315	-2704
1018.385	-1580
1018.456	-1957
1018.526	-1580
1018.597	-2105
1018.667	-1714
1018.738	-2590
1018.808	-2162
1018.878	-1726
1018.949	-1265
1019.019	-1453
1019.089	-2353
1019.160	-1363
1019.230	-1862
1019.300	-2416
1019.371	-2037
1019.441	-1966
1019.511	-1073
1019.581	-2507
1019.651	-1375
1019.721	-1277
1019.791	-1959
1019.861	-1891
1019.931	-1586
1020.001	-2303
1020.071	-1071
1020.141	-2378
1020.211	-1890
1020.281	-2685
1020.351	-1718
1020.421	-2405
1020.491	-1424
1020.560	-2552
1020.630	-2148
1020.700	-2263
1020.770	-1402
1020.839	-2188
1020.909	-1279
1020.979	-2535
1021.048	-1060
1021.118	-2289
1021.187	-1386
1021.257	-1863
1021.326	-905
1021.396	-2435
1021.465	-1836
1021.535	-3165
1021.604	-1543
1021.674	-2449
1021.743	-1594
1021.812	-2527
1021.882	-1013
1021.951	-2184
1022.020	-2508
1022.089	-1849
1022.159	-1428
1022.228	-2386
1022.297	-891
1022.366	-2743
1022.435	-1811
1022.504	-1628
1022.573	-1895
1022.642	-1679
1022.711	-1812
1022.781	-1872
1022.849	-1449
1022.918	-2902
1022.987	-1754
1023.056	-1819
1023.125	-1595
1023.194	-2602
1023.263	-1450
1023.331	-2651
1023.400	-2181
1023.469	-1741
1023.538	-1216
1023.606	-2469
1023.675	-1607
1023.744	-2567
1023.812	-1871
1023.881	-2442
1023.949	-1896
1024.018	-2136
1024.086	-1735
1024.155	-2383
1024.223	-2005
1024.292	-2558
1024.360	-1517
1024.429	-2973
1024.497	-2265
1024.565	-2173
1024.634	-1628
1024.702	-2603
1024.770	-1200
1024.838	-2027
1024.907	-702
1024.975	-3230
1025.043	-1178
1025.111	-2933
1025.179	-1307
1025.247	-2596
1025.315	-1453
1025.383	-3112
1025.451	-1790
1025.519	-2386
1025.587	-1478
1025.655	-2706
1025.723	-1162
1025.791	-2104
1025.859	-2165
1025.927	-2005
1025.995	-2654
1026.062	-2087
1026.130	-1670
1026.198	-2465
1026.266	-1438
1026.333	-1966
1026.401	-1244
1026.469	-2373
1026.536	-1722
1026.604	-2608
1026.671	-2216
1026.739	-2207
1026.806	-2225
1026.874	-3398
1026.941	-1835
1027.009	-1784
1027.076	-1433
1027.144	-2307
1027.211	-1841
1027.278	-2047
1027.345	-1686
1027.413	-2256
1027.480	-2677
1027.547	-2629
1027.614	-1592
1027.682	-2174
1027.749	-1658
1027.816	-2399
1027.883	-1578
1027.950	-2142
1028.017	-1733
1028.084	-2027
1028.151	-1876
1028.218	-2740
1028.285	-1306
1028.352	-1965
1028.419	-2399
1028.486	-2598
1028.553	-1436
1028.619	-2465
1028.686	-1628
1028.753	-2303
1028.820	-2006
1028.886	-3586
1028.953	-2137
1029.020	-2162
1029.086	-2413
1029.153	-3898
1029.220	-1754
1029.286	-2640
1029.353	-1439
1029.419	-3251
1029.486	-1997
1029.552	-2820
1029.619	-1909
1029.685	-2644
1029.751	-2274
1029.818	-1304
1029.884	-1738
1029.951	-1715
1030.017	-1268
1030.083	-2737
1030.149	-1769
1030.216	-2822
1030.282	-2212
1030.348	-2775
1030.414	-2073
1030.480	-2403
1030.546	-1530
1030.612	-1970
1030.678	-2117
1030.744	-2330
1030.810	-1334
1030.876	-2610
1030.942	-2184
1031.008	-2678
1031.074	-2003
1031.140	-3038
1031.206	-1767
1031.272	-2962
1031.337	-827
1031.403	-1998
1031.469	-1801
1031.534	-2350
1031.600	-1379
1031.666	-2355
1031.731	-1904
1031.797	-1933
1031.863	-1986
1031.928	-2362
1031.994	-1742
1032.059	-2300
1032.125	-2185
1032.190	-2953
1032.256	-2077
1032.321	-2338
1032.386	-1821
1032.452	-2139
1032.517	-1322
1032.582	-2411
1032.647	-1860
1032.713	-2928
1032.778	-1984
1032.843	-2238
1032.908	-1450
1032.974	-2096
1033.039	-1226
1033.104	-1823
1033.169	-1731
1033.234	-2687
1033.299	-974
1033.364	-2183
1033.429	-2480
1033.494	-2209
1033.559	-2130
1033.624	-2914
1033.688	-2462
1033.753	-2612
1033.818	-1543
1033.883	-2217
1033.948	-1391
1034.013	-2319
1034.077	-1472
1034.142	-2773
1034.207	-2196
1034.271	-2773
1034.336	-575
1034.400	-1535
1034.465	-725
1034.530	-2378
1034.594	-1706
1034.658	-3152
1034.723	-1392
1034.787	-1689
1034.852	-2166
1034.916	-2866
1034.981	-2470
1035.045	-2781
1035.109	-1498
1035.173	-1787
1035.238	-1776
1035.302	-2108
1035.366	-1808
1035.430	-2329
1035.495	-1774
1035.559	-2567
1035.623	-2410
1035.687	-2654
1035.751	-1879
1035.815	-2524
1035.879	-1733
1035.943	-2722
1036.007	-2292
1036.071	-2648
1036.135	-2219
1036.198	-2268
1036.262	-2497
1036.326	-2767
1036.390	-1388
1036.454	-2488
1036.517	-2275
1036.581	-1652
1036.645	-1412
1036.709	-1845
1036.772	-2608
1036.836	-2488
1036.900	-2019
1036.963	-1260
1037.026	-1546
1037.090	-2623
1037.154	-1791
1037.217	-2003
1037.280	-1832
1037.344	-2102
1037.407	-2143
1037.471	-2508
1037.534	-1676
1037.597	-2391
1037.661	-2258
1037.724	-2961
1037.787	-1819
1037.850	-2708
1037.913	-2113
1037.977	-2461
1038.040	-1983
1038.103	-3155
1038.166	-1769
1038.229	-2009
1038.292	-1873
1038.355	-2629
1038.418	-1401
1038.481	-1777
1038.544	-1752
1038.607	-2602
1038.670	-1402
1038.732	-2036
1038.795	-1947
1038.858	-2115
1038.921	-1945
1038.984	-2157
1039.046	-2391
1039.109	-1392
1039.172	-2129
1039.234	-2933
1039.297	-1823
1039.360	-2555
1039.422	-1154
1039.485	-3295
1039.547	-1713
1039.610	-2121
1039.672	-1825
1039.734	-2299
1039.797	-2045
1039.859	-2137
1039.922	-2298
1039.984	-2688
1040.046	-2386
1040.109	-3155
1040.171	-2200
1040.233	-2738
1040.295	-1396
1040.358	-3237
1040.420	-1861
1040.482	-2336
1040.544	-2315
1040.606	-3079
1040.668	-2224
1040.730	-2735
1040.792	-1906
1040.854	-1859
1040.916	-2981
1040.978	-2500
1041.040	-1761
1041.102	-3181
1041.164	-1937
1041.225	-2463
1041.287	-1412
1041.349	-1990
1041.411	-1842
1041.472	-3164
1041.534	-1903
1041.596	-3237
1041.657	-2764
1041.719	-2754
1041.781	-2782
1041.842	-3141
1041.904	-1329
1041.965	-2815
1042.027	-2023
1042.088	-2123
1042.150	-1954
1042.211	-2902
1042.272	-1009
1042.334	-3119
1042.395	-1477
1042.456	-2413
1042.518	-1634
1042.579	-2601
1042.640	-2152
1042.701	-2260
1042.763	-1698
1042.824	-3421
1042.885	-2576
1042.946	-2196
1043.007	-1685
1043.068	-2872
1043.129	-1686
1043.190	-2462
1043.251	-1930
1043.312	-3450
1043.373	-1843
1043.434	-2901
1043.495	-1830
1043.556	-2048
1043.616	-1827
1043.677	-2850
1043.738	-1668
1043.799	-3353
1043.859	-1790
1043.920	-1937
1043.981	-2588
1044.041	-2499
1044.102	-1598
1044.162	-2676
1044.223	-1699
1044.284	-2665
1044.344	-1387
1044.405	-1781
1044.465	-1271
1044.525	-1916
1044.586	-1771
1044.646	-2195
1044.707	-1018
1044.767	-2266
1044.827	-1631
1044.887	-2250
1044.948	-1701
1045.008	-2571
1045.068	-1779
1045.128	-2343
1045.188	-1293
1045.249	-1926
1045.309	-1326
1045.369	-2260
1045.429	-1678
1045.489	-2077
1045.549	-1193
1045.609	-2182
1045.669	-1534
1045.729	-2457
1045.789	-2341
1045.848	-2288
1045.908	-965
1045.968	-2263
1046.028	-787
1046.088	-2528
1046.147	-1625
1046.207	-2377
1046.267	-1926
1046.326	-971
1046.386	-2070
1046.446	-1889
1046.505	-1047
1046.565	-1666
1046.624	-970
1046.684	-1516
1046.743	-471
1046.803	-804
1046.862	-1154
1046.922	0
