'Start Wavelength	183.907
'End Wavelength	1046.922
'Gate Delay	5.000
'Gate Width (ms)	1.050
'Laser Output Level	0.000
'X Position	0.000
'Y Position	0.000
'Z Position	0.000
'Grid Point Number	1.000
'Shot Number	100.000
183.907	723.000
183.977	-325.000
184.047	-118
184.116	204
184.186	383
184.256	-208
184.325	-649
184.395	82
184.465	1473
184.534	-465
184.604	17
184.674	-210
184.743	344
184.813	560
184.883	-424
184.952	425
185.022	189
185.092	-141
185.161	288
185.231	256
185.301	383
185.370	414
185.440	296
185.509	187
185.579	454
185.649	205
185.718	270
185.788	132
185.857	-861
185.927	-425
185.996	-95
186.066	1052
186.136	-455
186.205	-389
186.275	587
186.344	799
186.414	92
186.483	27
186.553	1293
186.622	1989
186.692	321
186.761	567
186.831	244
186.900	-166
186.970	296
187.039	486
187.109	1222
187.178	-139
187.248	223
187.317	724
187.387	14
187.456	-137
187.526	587
187.595	1365
187.664	376
187.734	276
187.803	853
187.873	162
187.942	723
188.012	1180
188.081	220
188.150	-41
188.220	650
188.289	668
188.358	969
188.428	1059
188.497	-253
188.567	716
188.636	494
188.705	15
188.775	405
188.844	124
188.913	1397
188.983	126
189.052	395
189.121	631
189.191	677
189.260	1539
189.329	512
189.399	234
189.468	917
189.537	161
189.606	1120
189.676	214
189.745	680
189.814	776
189.883	152
189.953	407
190.022	575
190.091	3407
190.161	3559
190.230	1882
190.299	735
190.368	308
190.437	254
190.507	215
190.576	751
190.645	154
190.714	235
190.783	28
190.853	787
190.922	1057
190.991	78
191.060	905
191.129	464
191.198	1361
191.268	623
191.337	378
191.406	906
191.475	877
191.544	547
191.613	1231
191.682	602
191.752	333
191.821	596
191.890	1045
191.959	1028
192.028	1092
192.097	499
192.166	-106
192.235	270
192.304	533
192.373	535
192.442	18
192.511	130
192.580	754
192.650	319
192.719	163
192.788	532
192.857	526
192.926	687
192.995	1512
193.064	747
193.133	1561
193.202	1973
193.271	2154
193.340	1813
193.409	2025
193.478	1999
193.547	2296
193.615	3884
193.684	4092
193.753	2310
193.822	1784
193.891	985
193.960	1008
194.029	933
194.098	1125
194.167	-13
194.236	1289
194.305	1190
194.374	1033
194.443	944
194.512	1128
194.580	775
194.649	1790
194.718	1957
194.787	533
194.856	322
194.925	1596
194.994	897
195.062	1269
195.131	1317
195.200	2161
195.269	3116
195.338	1332
195.407	1121
195.475	1368
195.544	2027
195.613	1338
195.682	1449
195.751	2150
195.819	2257
195.888	2160
195.957	1715
196.026	2404
196.094	2290
196.163	2364
196.232	1823
196.301	2044
196.369	1582
196.438	1605
196.507	1402
196.576	865
196.644	59
196.713	584
196.782	365
196.850	1957
196.919	1154
196.988	1416
197.056	961
197.125	713
197.194	1109
197.262	1077
197.331	1043
197.400	799
197.468	675
197.537	561
197.606	984
197.674	1559
197.743	3595
197.812	2388
197.880	4412
197.949	3296
198.017	3804
198.086	2101
198.155	1546
198.223	1768
198.292	3692
198.360	1932
198.429	1430
198.497	1541
198.566	1938
198.635	4753
198.703	2397
198.772	1508
198.840	4818
198.909	5246
198.977	1856
199.046	1376
199.114	2601
199.183	1794
199.251	1578
199.320	1258
199.388	1417
199.457	1385
199.525	1846
199.594	1609
199.662	1186
199.731	1534
199.799	1839
199.867	652
199.936	1540
200.004	1071
200.073	1624
200.141	1403
200.210	650
200.278	854
200.346	2067
200.415	1697
200.483	2554
200.552	1858
200.620	1613
200.688	1744
200.757	996
200.825	549
200.893	1735
200.962	1245
201.030	1166
201.098	1452
201.167	1293
201.235	790
201.303	524
201.372	1304
201.440	1256
201.508	2174
201.577	1872
201.645	1701
201.713	1681
201.781	1128
201.850	2834
201.918	1707
201.986	1160
202.055	2303
202.123	940
202.191	1778
202.259	1332
202.327	1252
202.396	911
202.464	1345
202.532	2337
202.600	7045
202.669	5228
202.737	2264
202.805	1314
202.873	1699
202.941	1808
203.009	716
203.078	1006
203.146	2131
203.214	1773
203.282	526
203.350	1631
203.418	1614
203.487	1916
203.555	1271
203.623	1487
203.691	1548
203.759	883
203.827	864
203.895	1277
203.963	1485
204.031	1647
204.099	1732
204.168	999
204.236	1915
204.304	2291
204.372	1955
204.440	1324
204.508	1662
204.576	1251
204.644	1717
204.712	1259
204.780	1522
204.848	1446
204.916	2001
204.984	1278
205.052	1724
205.120	1297
205.188	1684
205.256	1860
205.324	1245
205.392	2001
205.460	2224
205.528	2013
205.596	2463
205.664	1010
205.732	1800
205.799	6135
205.867	8680
205.935	2217
206.003	2759
206.071	1794
206.139	2495
206.207	1763
206.275	1445
206.343	1009
206.411	1956
206.478	2054
206.546	2136
206.614	2302
206.682	1580
206.750	2466
206.818	3144
206.885	3159
206.953	1068
207.021	2804
207.089	2076
207.157	1694
207.225	1675
207.292	1856
207.360	2240
207.428	2011
207.496	1384
207.563	1300
207.631	2354
207.699	1292
207.767	2267
207.834	1148
207.902	2563
207.970	1647
208.038	2153
208.105	1794
208.173	1836
208.241	3424
208.309	3576
208.376	3335
208.444	5520
208.512	2844
208.579	1835
208.647	3090
208.715	3329
208.782	2778
208.850	2760
208.918	1780
208.985	2468
209.053	2210
209.120	2921
209.188	2202
209.256	2349
209.323	2190
209.391	3203
209.459	3502
209.526	2365
209.594	2211
209.661	1919
209.729	2521
209.796	2586
209.864	2507
209.932	1738
209.999	3088
210.067	2870
210.134	3222
210.202	2937
210.269	4145
210.337	3474
210.404	2689
210.472	2376
210.539	2550
210.607	2191
210.674	4278
210.742	3109
210.809	2483
210.877	3253
210.944	4009
211.012	2675
211.079	4348
211.146	2271
211.214	2790
211.281	3725
211.349	3692
211.416	2757
211.484	3508
211.551	2313
211.618	2844
211.686	2879
211.753	3263
211.821	3140
211.888	2266
211.955	2997
212.023	1660
212.090	2786
212.157	3144
212.225	3103
212.292	6786
212.359	10953
212.427	24672
212.494	13006
212.561	5297
212.629	3932
212.696	2949
212.763	3639
212.831	3199
212.898	4087
212.965	2387
213.032	3081
213.100	3239
213.167	3913
213.234	4010
213.301	3476
213.369	2971
213.436	2564
213.503	3508
213.570	3948
213.638	3547
213.705	2291
213.772	1872
213.839	2627
213.906	4189
213.973	3768
214.041	3494
214.108	3126
214.175	3317
214.242	2796
214.309	3017
214.376	3314
214.444	3252
214.511	4230
214.578	3398
214.645	3976
214.712	4003
214.779	4069
214.846	3196
214.913	4168
214.980	4614
215.048	5567
215.115	5445
215.182	5381
215.249	4160
215.316	3446
215.383	3736
215.450	3578
215.517	3417
215.584	2791
215.651	2883
215.718	2790
215.785	4305
215.852	3485
215.919	4570
215.986	4535
216.053	3148
216.120	1908
216.187	3289
216.254	2971
216.321	3282
216.388	4009
216.455	4013
216.522	3715
216.589	4699
216.656	8079
216.722	8355
216.789	6095
216.856	6351
216.923	5978
216.990	5389
217.057	4381
217.124	5237
217.191	5183
217.258	6184
217.324	8720
217.391	9454
217.458	6528
217.525	4761
217.592	4102
217.659	4340
217.725	5427
217.792	6576
217.859	6646
217.926	2848
217.993	2987
218.059	3262
218.126	2904
218.193	2752
218.260	2638
218.327	2102
218.393	1893
218.460	3064
218.527	1862
218.594	3661
218.660	7008
218.727	7751
218.794	3261
218.860	2661
218.927	2640
218.994	2945
219.061	3026
219.127	3640
219.194	6288
219.261	3426
219.327	2534
219.394	2895
219.461	1769
219.527	1980
219.594	4230
219.661	3007
219.727	1838
219.794	2538
219.860	1705
219.927	2588
219.994	4766
220.060	9850
220.127	6688
220.193	4187
220.260	4094
220.326	5887
220.393	9871
220.460	14836
220.526	9831
220.593	5324
220.659	6623
220.726	5496
220.792	13962
220.859	12581
220.925	16287
220.992	23680
221.058	22263
221.125	19922
221.191	15396
221.258	7136
221.324	4874
221.391	3932
221.457	3896
221.524	4029
221.590	5180
221.657	15533
221.723	12090
221.789	10723
221.856	10452
221.922	5536
221.989	4662
222.055	4497
222.121	2087
222.188	5111
222.254	2858
222.321	2992
222.387	1759
222.453	2122
222.520	2612
222.586	1995
222.652	2798
222.719	1563
222.785	2604
222.851	1778
222.918	1904
222.984	1371
223.050	1286
223.116	1371
223.183	3243
223.249	1795
223.315	1421
223.382	2506
223.448	2691
223.514	1281
223.580	1765
223.647	1697
223.713	1515
223.779	1597
223.845	1194
223.911	2220
223.978	1194
224.044	1776
224.110	2126
224.176	2705
224.242	2019
224.309	1510
224.375	2195
224.441	1545
224.507	1908
224.573	1295
224.639	2394
224.705	1065
224.772	902
224.838	2835
224.904	2734
224.970	2928
225.036	2345
225.102	1384
225.168	2640
225.234	3148
225.300	3025
225.366	1509
225.432	1809
225.499	2554
225.565	2512
225.631	2439
225.697	3045
225.763	2796
225.829	4306
225.895	4914
225.961	6896
226.027	6008
226.093	4927
226.159	6607
226.225	8971
226.291	20951
226.357	35859
226.423	18710
226.489	10338
226.554	5802
226.620	6096
226.686	8135
226.752	12195
226.818	18503
226.884	45603
226.950	41305
227.016	16429
227.082	10316
227.148	7157
227.214	7148
227.279	5619
227.345	4631
227.411	5302
227.477	5126
227.543	11521
227.609	11333
227.674	6141
227.740	4178
227.806	3566
227.872	3781
227.938	3445
228.003	5565
228.069	3928
228.135	2545
228.201	3399
228.267	2441
228.332	4030
228.398	6032
228.464	4284
228.530	1991
228.595	2120
228.661	3175
228.727	6215
228.792	5542
228.858	2824
228.924	2753
228.990	5874
229.055	3583
229.121	5171
229.187	2741
229.252	4349
229.318	2478
229.384	3231
229.449	4817
229.515	1627
229.581	1572
229.646	3632
229.712	3781
229.777	9245
229.843	10017
229.909	6353
229.974	6053
230.040	6458
230.105	4559
230.171	4582
230.236	6464
230.302	9635
230.368	7786
230.433	3892
230.499	4779
230.564	4532
230.630	2571
230.695	2450
230.761	3009
230.826	1330
230.892	6456
230.957	3215
231.023	2679
231.088	3381
231.154	3098
231.219	3681
231.284	5519
231.350	6330
231.415	2514
231.481	3825
231.546	2688
231.612	3017
231.677	1590
231.742	1742
231.808	3642
231.873	1928
231.939	1250
232.004	6932
232.069	7839
232.135	3105
232.200	2741
232.265	3255
232.331	2054
232.396	2642
232.461	1561
232.527	1529
232.592	2395
232.657	2600
232.723	6056
232.788	5440
232.853	3179
232.918	2580
232.984	2168
233.049	2711
233.114	5609
233.179	5838
233.245	8169
233.310	11942
233.375	2934
233.440	2768
233.506	2387
233.571	1913
233.636	2091
233.701	2628
233.766	6633
233.832	9591
233.897	3692
233.962	3579
234.027	5831
234.092	3867
234.157	3527
234.222	4089
234.288	5897
234.353	22808
234.418	20034
234.483	10902
234.548	7105
234.613	5794
234.678	5654
234.743	5763
234.808	23684
234.873	16039
234.938	7033
235.004	3887
235.069	4483
235.134	3597
235.199	4076
235.264	3500
235.329	2446
235.394	3302
235.459	6124
235.524	5813
235.589	4468
235.654	3410
235.719	2692
235.784	3361
235.849	4387
235.913	12109
235.978	13985
236.043	16956
236.108	6336
236.173	6042
236.238	6814
236.303	3843
236.368	3942
236.433	6947
236.498	14570
236.563	8754
236.627	15233
236.692	56433
236.757	46473
236.822	19362
236.887	13724
236.952	11943
237.017	8472
237.081	9734
237.146	11673
237.211	24087
237.276	54477
237.341	97077
237.405	46828
237.470	18641
237.535	14389
237.600	8789
237.664	8026
237.729	5791
237.794	8154
237.859	16257
237.923	12493
237.988	7350
238.053	11166
238.118	12297
238.182	27131
238.247	26773
238.312	13457
238.376	9342
238.441	7506
238.506	7734
238.570	3400
238.635	4797
238.700	3191
238.764	3712
238.829	11811
238.893	17262
238.958	7702
239.023	7449
239.087	4983
239.152	5468
239.216	3707
239.281	4135
239.346	3128
239.410	3554
239.475	5337
239.539	27970
239.604	23329
239.668	7279
239.733	5016
239.797	7119
239.862	18943
239.926	25299
239.991	10860
240.055	5237
240.120	3237
240.184	4190
240.249	3148
240.313	4097
240.378	5044
240.442	16222
240.507	28347
240.571	8486
240.635	12396
240.700	17138
240.764	6290
240.829	4373
240.893	2384
240.957	4330
241.022	14767
241.086	29124
241.151	14326
241.215	4832
241.279	6736
241.344	15421
241.408	7873
241.472	4154
241.537	5470
241.601	5798
241.665	3519
241.730	3968
241.794	5060
241.858	3108
241.922	4360
241.987	4510
242.051	3046
242.115	2877
242.179	3536
242.244	2885
242.308	4918
242.372	4638
242.436	5918
242.501	4968
242.565	3874
242.629	3977
242.693	3770
242.757	3159
242.822	3435
242.886	4508
242.950	5119
243.014	4935
243.078	5363
243.142	5904
243.206	4376
243.271	4855
243.335	4064
243.399	9024
243.463	29576
243.527	85581
243.591	27414
243.655	11995
243.719	7183
243.783	7074
243.847	12431
243.911	16086
243.975	18804
244.040	13325
244.104	7028
244.168	5727
244.232	8740
244.296	13328
244.360	13560
244.424	8930
244.488	7107
244.552	6037
244.615	3813
244.679	4640
244.743	6294
244.807	7506
244.871	4509
244.935	3919
244.999	3316
245.063	4125
245.127	5976
245.191	9316
245.255	9602
245.319	8379
245.383	6684
245.446	6568
245.510	3218
245.574	5121
245.638	6467
245.702	4828
245.766	16905
245.829	10212
245.893	5655
245.957	4527
246.021	6327
246.085	6043
246.149	8747
246.212	20521
246.276	32125
246.340	13987
246.404	9280
246.467	10430
246.531	16533
246.595	10206
246.659	8829
246.722	7133
246.786	10912
246.850	10598
246.913	15341
246.977	5663
247.041	6715
247.104	8228
247.168	7372
247.232	18919
247.295	43543
247.359	21450
247.423	9299
247.486	18748
247.550	12082
247.614	8164
247.677	11376
247.741	7236
247.804	6007
247.868	8255
247.932	16430
247.995	39918
248.059	14367
248.122	7114
248.186	10038
248.249	16431
248.313	63208
248.376	68347
248.440	43605
248.503	16133
248.567	13327
248.630	18784
248.694	26169
248.757	31160
248.821	69846
248.884	39605
248.948	34954
249.011	52451
249.075	80702
249.138	69908
249.202	26401
249.265	17027
249.328	22166
249.392	15539
249.455	12136
249.519	9336
249.582	10854
249.645	20932
249.709	15458
249.772	10367
249.835	9390
249.899	11613
249.962	9858
250.025	8915
250.089	23840
250.152	35387
250.215	16354
250.279	12396
250.342	12198
250.405	11139
250.468	9897
250.532	13950
250.595	22492
250.658	75093
250.721	127068
250.785	45138
250.848	24021
250.911	14576
250.974	13897
251.038	18276
251.101	41838
251.164	21381
251.227	20710
251.290	18875
251.354	25945
251.417	106187
251.480	106153
251.543	67735
251.606	190887
251.669	145140
251.732	53977
251.795	57401
251.859	57323
251.922	124258
251.985	72435
252.048	26564
252.111	21064
252.174	18876
252.237	35340
252.300	82534
252.363	82401
252.426	164639
252.489	69590
252.552	36382
252.615	24272
252.678	25441
252.741	59992
252.804	75595
252.867	163386
252.930	99344
252.993	55912
253.056	32611
253.119	24018
253.182	18598
253.245	31241
253.308	23243
253.371	22704
253.434	21523
253.497	19220
253.559	39587
253.622	26444
253.685	33808
253.748	34295
253.811	16843
253.874	21402
253.937	20891
254.000	14647
254.062	25847
254.125	42308
254.188	33917
254.251	32123
254.314	15188
254.376	28835
254.439	33407
254.502	26884
254.565	27518
254.628	49698
254.690	29481
254.753	16568
254.816	13512
254.878	15487
254.941	27997
255.004	31745
255.067	14204
255.129	13476
255.192	7493
255.255	7462
255.317	9506
255.380	6546
255.443	5869
255.505	5547
255.568	6236
255.631	6318
255.693	5990
255.756	4506
255.819	5950
255.881	5024
255.944	4837
256.006	4581
256.069	5309
256.132	5816
256.194	8648
256.257	26148
256.319	19977
256.382	17233
256.444	9433
256.507	7377
256.569	5748
256.632	6986
256.694	13426
256.757	29511
256.819	89789
256.882	34823
256.944	14326
257.007	12611
257.069	14241
257.132	9156
257.194	7386
257.257	6398
257.319	6365
257.381	7565
257.444	22833
257.506	100729
257.569	110435
257.631	49695
257.693	30171
257.756	15363
257.818	15345
257.880	8654
257.943	8007
258.005	6615
258.067	6149
258.130	5957
258.192	9461
258.254	20525
258.317	11559
258.379	7474
258.441	22224
258.503	23406
258.566	30747
258.628	41895
258.690	11135
258.753	9689
258.815	18503
258.877	10082
258.939	6720
259.001	6608
259.064	5416
259.126	8426
259.188	13094
259.250	8563
259.312	8488
259.375	19780
259.437	15109
259.499	6272
259.561	5596
259.623	6222
259.685	6060
259.747	8091
259.809	27961
259.872	56117
259.934	75409
259.996	68539
260.058	17353
260.120	8234
260.182	7018
260.244	6915
260.306	5003
260.368	6799
260.430	5200
260.492	10574
260.554	18502
260.616	16485
260.678	39322
260.740	59050
260.802	14646
260.864	9934
260.926	8812
260.988	8113
261.050	8424
261.112	15355
261.174	49487
261.236	45561
261.298	13772
261.359	24672
261.421	37498
261.483	10349
261.545	8767
261.607	5356
261.669	6425
261.731	14727
261.793	40563
261.854	17369
261.916	10323
261.978	7039
262.040	9568
262.102	7674
262.164	15843
262.225	13022
262.287	7234
262.349	20479
262.411	16780
262.472	8143
262.534	15112
262.596	38745
262.658	11459
262.719	7527
262.781	10709
262.843	36859
262.904	15541
262.966	10140
263.028	14140
263.090	57552
263.151	150655
263.213	45608
263.275	23280
263.336	12720
263.398	8723
263.459	6653
263.521	7172
263.583	19624
263.644	13486
263.706	5980
263.767	4700
263.829	4309
263.891	4049
263.952	3337
264.014	3984
264.075	5099
264.137	12616
264.198	9070
264.260	3722
264.321	3875
264.383	11801
264.444	24743
264.506	7963
264.567	4912
264.629	8738
264.690	16197
264.752	8731
264.813	6271
264.875	4484
264.936	4231
264.998	3711
265.059	3494
265.120	5718
265.182	8597
265.243	43729
265.305	44297
265.366	10633
265.427	6428
265.489	6039
265.550	3106
265.611	6379
265.673	5207
265.734	4379
265.795	3537
265.857	3854
265.918	5295
265.979	12479
266.040	73858
266.102	60623
266.163	15583
266.224	12629
266.286	9216
266.347	5526
266.408	5844
266.469	7041
266.530	4794
266.592	5309
266.653	11601
266.714	21498
266.775	6301
266.836	5044
266.898	3271
266.959	7591
267.020	5596
267.081	4565
267.142	4454
267.203	4589
267.264	3038
267.326	6020
267.387	4038
267.448	2912
267.509	3808
267.570	4391
267.631	3511
267.692	3239
267.753	4629
267.814	3563
267.875	11208
267.936	26533
267.997	10220
268.058	8148
268.119	5468
268.180	5591
268.241	4567
268.302	4044
268.363	3348
268.424	5578
268.485	4921
268.546	3369
268.607	2347
268.668	2028
268.729	3043
268.790	4202
268.851	4780
268.912	13885
268.972	19971
269.033	8767
269.094	4850
269.155	3676
269.216	3933
269.277	4988
269.338	4301
269.398	3452
269.459	5199
269.520	7695
269.581	10551
269.642	13086
269.702	9027
269.763	6533
269.824	4045
269.885	6525
269.945	11601
270.006	4603
270.067	3166
270.128	3713
270.188	3878
270.249	3912
270.310	2389
270.370	4121
270.431	4219
270.492	2965
270.553	4602
270.613	11488
270.674	25663
270.734	10457
270.795	5359
270.856	8494
270.916	7325
270.977	4423
271.038	6354
271.098	6768
271.159	11227
271.219	12620
271.280	4616
271.340	4480
271.401	6253
271.462	19680
271.522	10301
271.583	5304
271.643	5900
271.704	5877
271.764	7291
271.825	17392
271.885	58901
271.946	81467
272.006	25444
272.066	34933
272.127	62907
272.187	19475
272.248	11034
272.308	12608
272.369	42878
272.429	25073
272.489	17242
272.550	18492
272.610	17620
272.671	15443
272.731	13187
272.791	25478
272.852	12591
272.912	10841
272.972	5788
273.033	6866
273.093	12803
273.153	10468
273.214	7918
273.274	9748
273.334	29108
273.394	65426
273.455	26768
273.515	24003
273.575	57359
273.635	24369
273.696	31981
273.756	65037
273.816	25970
273.876	16008
273.936	33413
273.997	59215
274.057	15735
274.117	12304
274.177	17040
274.237	73150
274.297	68218
274.358	50009
274.418	52036
274.478	39056
274.538	15714
274.598	14149
274.658	47962
274.718	65164
274.778	25084
274.838	13189
274.898	28251
274.958	88999
275.018	68822
275.078	42210
275.138	17993
275.198	10161
275.258	8368
275.318	11053
275.378	18371
275.438	20643
275.498	13239
275.558	36919
275.618	79846
275.678	48667
275.738	24654
275.798	19362
275.858	8913
275.918	5853
275.978	8666
276.038	9304
276.098	7147
276.157	14313
276.217	43057
276.277	20383
276.337	13629
276.397	7847
276.457	10310
276.517	7197
276.576	5220
276.636	5676
276.696	11222
276.756	25913
276.815	19978
276.875	8980
276.935	11107
276.995	9454
277.055	6665
277.114	6550
277.174	10054
277.234	35073
277.293	16350
277.353	9087
277.413	6832
277.472	7343
277.532	8311
277.592	9916
277.651	32616
277.711	65654
277.771	23633
277.830	74014
277.890	62575
277.950	42610
278.009	121169
278.069	47319
278.128	44386
278.188	66530
278.248	28710
278.307	70124
278.367	45007
278.426	14247
278.486	10160
278.545	8142
278.605	7324
278.664	6569
278.724	8989
278.783	23323
278.843	63688
278.902	19446
278.962	12175
279.021	12623
279.081	17867
279.140	18246
279.199	12881
279.259	11793
279.318	13383
279.378	18888
279.437	33520
279.496	108419
279.556	317141
279.615	269718
279.675	76137
279.734	43437
279.793	57760
279.853	81297
279.912	31643
279.971	18783
280.031	16465
280.090	27311
280.149	49403
280.208	49781
280.268	212066
280.327	231139
280.386	59885
280.445	40361
280.505	37868
280.564	18456
280.623	13881
280.682	21039
280.742	31963
280.801	11566
280.860	8421
280.919	8000
280.978	6490
281.037	7594
281.097	6012
281.156	6610
281.215	5918
281.274	8885
281.333	38778
281.392	32792
281.451	8976
281.510	6012
281.569	6009
281.628	4796
281.688	4782
281.747	5851
281.806	6441
281.865	5055
281.924	4520
281.983	5805
282.042	3701
282.101	4155
282.160	3784
282.219	3943
282.278	5374
282.337	21469
282.396	16062
282.454	7628
282.513	9086
282.572	32601
282.631	20268
282.690	6346
282.749	5395
282.808	7350
282.867	7473
282.926	7002
282.985	4296
283.043	4190
283.102	4585
283.161	6815
283.220	16075
283.279	38660
283.338	11800
283.396	7237
283.455	6429
283.514	6808
283.573	13577
283.631	9417
283.690	5641
283.749	5776
283.808	13467
283.866	17749
283.925	6830
283.984	7264
284.043	9372
284.101	10022
284.160	6683
284.219	9499
284.277	8648
284.336	14637
284.395	44543
284.453	39643
284.512	13063
284.570	18005
284.629	16275
284.688	14604
284.746	15461
284.805	19038
284.863	24178
284.922	30928
284.981	34695
285.039	49885
285.098	89716
285.156	207460
285.215	392018
285.273	377523
285.332	225767
285.390	116748
285.449	72229
285.507	50185
285.566	36608
285.624	27190
285.683	20256
285.741	16415
285.799	14362
285.858	13580
285.916	11760
285.975	10071
286.033	8008
286.091	7461
286.150	6290
286.208	6927
286.267	8411
286.325	8443
286.383	12232
286.442	10735
286.500	6809
286.558	6235
286.616	5371
286.675	8426
286.733	8086
286.791	7030
286.850	7888
286.908	10507
286.966	17635
287.024	7511
287.083	5152
287.141	4942
287.199	6085
287.257	8687
287.315	6426
287.374	7449
287.432	18403
287.490	12743
287.548	7600
287.606	6299
287.664	5645
287.723	8706
287.781	10192
287.839	5973
287.897	6964
287.955	9331
288.013	15955
288.071	38497
288.129	135252
288.187	364005
288.245	161679
288.303	50999
288.361	29941
288.419	23151
288.477	15876
288.535	11763
288.593	9144
288.651	7462
288.709	5260
288.767	5327
288.825	5007
288.883	4044
288.941	3970
288.999	3770
289.057	3265
289.115	3226
289.173	4120
289.231	4659
289.289	5138
289.346	5077
289.404	5757
289.462	10486
289.520	10306
289.578	5507
289.636	3300
289.694	3228
289.751	3271
289.809	3466
289.867	2999
289.925	4822
289.983	5977
290.040	3049
290.098	2325
290.156	4594
290.214	6239
290.271	2975
290.329	2591
290.387	2316
290.444	1942
290.502	1950
290.560	3268
290.617	2343
290.675	2868
290.733	3468
290.790	3993
290.848	2798
290.906	4472
290.963	4480
291.021	3578
291.078	2916
291.136	4797
291.194	13267
291.251	32699
291.309	9556
291.366	3763
291.424	3075
291.481	4048
291.539	4390
291.596	4121
291.654	1863
291.711	3171
291.769	3529
291.826	9910
291.884	6689
291.941	2944
291.999	3212
292.056	4636
292.114	5068
292.171	3544
292.228	3675
292.286	4974
292.343	10778
292.401	13543
292.458	8477
292.515	4745
292.573	6453
292.630	6216
292.687	6312
292.745	4498
292.802	6117
292.859	15656
292.917	36475
292.974	23273
293.031	7212
293.089	4413
293.146	4312
293.203	3301
293.260	2942
293.318	3935
293.375	5434
293.432	2964
293.489	3403
293.546	3474
293.604	7612
293.661	23732
293.718	62823
293.775	28551
293.832	13600
293.889	11197
293.947	10445
294.004	6721
294.061	7937
294.118	15608
294.175	31707
294.232	29360
294.289	13028
294.346	6750
294.403	7205
294.460	6489
294.517	5281
294.574	4315
294.631	3623
294.688	6834
294.745	17006
294.802	63408
294.859	57796
294.916	21291
294.973	12385
295.030	11569
295.087	10030
295.144	6078
295.201	5308
295.258	5373
295.315	7840
295.372	24225
295.429	53976
295.486	20575
295.542	10196
295.599	19209
295.656	32391
295.713	27585
295.770	47183
295.827	17264
295.883	8256
295.940	7995
295.997	13715
296.054	12975
296.111	6896
296.167	4763
296.224	3469
296.281	4161
296.338	3617
296.394	3649
296.451	7193
296.508	20945
296.564	39992
296.621	24027
296.678	48759
296.734	73321
296.791	25707
296.848	13877
296.904	15514
296.961	32661
297.018	55828
297.074	41671
297.131	14747
297.187	12870
297.244	17747
297.301	52889
297.357	102235
297.414	34778
297.470	13294
297.527	9297
297.583	8740
297.640	7878
297.696	6344
297.753	5348
297.809	3999
297.866	2900
297.922	3926
297.979	3473
298.035	4932
298.092	10546
298.148	33409
298.204	31518
298.261	15017
298.317	22225
298.374	62378
298.430	38356
298.486	16506
298.543	14010
298.599	12065
298.656	14389
298.712	20163
298.768	49666
298.824	35176
298.881	11462
298.937	7509
298.993	5956
299.050	8073
299.106	7514
299.162	6138
299.218	6446
299.275	5366
299.331	7564
299.387	15140
299.443	55160
299.500	61247
299.556	23430
299.612	11512
299.668	11235
299.724	12917
299.780	14422
299.837	9863
299.893	14379
299.949	48381
300.005	60777
300.061	45413
300.117	79685
300.173	38589
300.229	16978
300.285	19793
300.341	23369
300.397	12430
300.453	7739
300.510	6880
300.566	7470
300.622	10554
300.678	27434
300.734	54709
300.790	48618
300.845	61842
300.901	37180
300.957	51511
301.013	41070
301.069	15488
301.125	11754
301.181	11877
301.237	8590
301.293	5918
301.349	5150
301.405	4754
301.461	5709
301.516	8308
301.572	9410
301.628	13856
301.684	13228
301.740	19111
301.796	36192
301.851	23409
301.907	37446
301.963	40997
302.019	59626
302.074	160322
302.130	158195
302.186	69249
302.242	29486
302.297	18950
302.353	18947
302.409	36623
302.464	33442
302.520	25272
302.576	58289
302.631	67888
302.687	36673
302.743	15128
302.798	9126
302.854	8053
302.910	7764
302.965	9221
303.021	18020
303.076	18169
303.132	21521
303.187	26523
303.243	14405
303.299	6630
303.354	5786
303.410	5775
303.465	5082
303.521	4845
303.576	5732
303.632	9327
303.687	16322
303.743	50811
303.798	44260
303.853	15806
303.909	8889
303.964	7757
304.020	12768
304.075	19648
304.130	17100
304.186	31037
304.241	32855
304.297	24581
304.352	12978
304.358	12476
304.407	8396
304.449	7792
304.463	7596
304.518	7148
304.539	7317
304.573	7567
304.629	7660
304.630	7760
304.684	13160
304.720	28544
304.739	36056
304.794	60444
304.811	51252
304.850	28762
304.902	12764
304.905	11785
304.960	8952
304.992	9104
305.015	9199
305.071	8637
305.083	8180
305.126	6395
305.173	4324
305.181	4040
305.236	3554
305.264	4535
305.292	5493
305.347	7088
305.354	7155
305.402	7732
305.445	8886
305.457	9203
305.512	12169
305.535	12134
305.567	11908
305.622	12197
305.626	12610
305.678	26424
305.716	51954
305.733	59603
305.788	69659
305.807	59728
305.843	44462
305.897	56279
305.898	56342
305.953	56690
305.988	37108
306.008	27003
306.063	15472
306.078	13725
306.118	10595
306.168	7569
306.173	7331
306.228	5572
306.259	5121
306.283	4954
306.338	5152
306.349	5339
306.393	6468
306.440	8838
306.448	9128
306.503	8705
306.530	8685
306.558	11615
306.613	24506
306.620	26443
306.668	41784
306.711	61067
306.723	62124
306.778	49119
306.801	36640
306.833	23646
306.888	11884
306.892	11322
306.943	8118
306.982	6939
306.997	6632
307.052	6616
307.072	6454
307.107	7012
307.162	9036
307.163	9067
307.217	14479
307.253	17458
307.272	17618
307.327	18249
307.343	17315
307.381	15684
307.434	15097
307.436	15745
307.491	32737
307.524	48717
307.546	51917
307.600	55052
307.614	50128
307.655	30994
307.704	14884
307.710	14597
307.765	17665
307.795	21155
307.819	25072
307.874	37786
307.885	38507
307.929	31244
307.975	23175
307.984	24159
308.038	35934
308.065	44616
308.093	85893
308.148	182768
308.156	202607
308.202	304634
308.246	379039
308.257	363804
308.312	190606
308.336	124365
308.366	95220
308.421	60933
308.426	57375
308.475	36287
308.517	24189
308.530	22660
308.585	19574
308.607	18417
308.639	18874
308.694	20884
308.697	21086
308.748	37572
308.787	53809
308.803	52713
308.857	40627
308.877	34696
308.912	31204
308.967	30331
308.967	30298
309.021	44928
309.058	57786
309.076	75306
309.130	136054
309.148	157919
309.185	291739
309.238	504965
309.239	506568
309.293	535103
309.328	500129
309.348	428179
309.402	200894
309.418	142417
309.457	100998
309.508	60325
309.511	59909
309.566	60113
309.598	61543
309.620	76579
309.674	121269
309.688	132915
309.729	122357
309.778	95961
309.783	93412
309.837	61759
309.868	45988
309.892	55445
309.946	82182
309.959	90042
310.001	113661
310.049	135369
310.055	130383
310.109	73925
310.139	42662
310.163	34061
310.218	20378
310.229	17957
310.272	14965
310.319	12052
310.326	11719
310.381	9889
310.409	9011
310.435	9010
310.489	9336
310.499	9301
310.543	8901
310.589	8943
310.598	8934
310.652	8848
310.679	8640
310.706	7845
310.760	6131
310.769	5886
310.814	6190
310.859	6470
310.868	6436
310.923	6368
310.948	6235
310.977	7340
311.031	9815
311.038	10104
311.085	9025
311.128	7784
311.139	7824
311.193	8169
311.218	8248
311.247	7505
311.301	6063
311.308	5884
311.356	6091
311.398	6219
311.410	6105
311.464	5581
311.488	5300
311.518	5882
311.572	6971
311.578	7085
311.626	10240
311.668	13048
311.680	12854
311.734	11570
311.758	10992
311.788	10776
311.842	10418
311.847	10353
311.896	12912
311.937	15110
311.950	14843
312.004	13516
312.027	12872
312.058	11518
312.112	9074
312.117	8810
312.165	7918
312.207	7125
312.297	9523
312.386	7430
312.476	10059
312.566	23625
312.656	11315
312.745	5436
312.835	6241
312.925	8225
313.015	9347
313.104	9130
313.194	6767
313.284	7322
313.374	12088
313.463	9760
313.553	7032
313.643	6283
313.732	5790
313.822	4586
313.912	6958
314.001	9895
314.091	9183
314.180	10572
314.270	13137
314.360	13887
314.449	13073
314.539	6837
314.628	6184
314.718	8096
314.808	11079
314.897	6689
314.987	8784
315.076	10574
315.166	15197
315.255	12804
315.345	13217
315.434	14032
315.524	12263
315.613	15636
315.703	23065
315.792	39115
315.881	144020
315.971	44976
316.060	28478
316.150	34291
316.239	35269
316.328	12311
316.418	8288
316.507	7769
316.597	13000
316.686	10996
316.775	17363
316.865	36512
316.954	9821
317.043	6324
317.133	8901
317.222	6581
317.311	8092
317.400	7994
317.490	15022
317.579	17426
317.668	15106
317.757	26671
317.847	68443
317.936	256674
318.025	84634
318.114	50022
318.203	26416
318.293	22174
318.382	39492
318.471	30489
318.560	37800
318.649	63669
318.738	16889
318.828	15723
318.917	17132
319.006	16680
319.095	42128
319.184	90399
319.273	61755
319.362	37676
319.451	14250
319.540	13349
319.629	32807
319.718	54040
319.807	19514
319.896	33917
319.985	119394
320.074	47756
320.163	13251
320.252	21857
320.341	15195
320.430	12798
320.519	25791
320.608	13426
320.697	10387
320.786	10656
320.875	17086
320.964	23612
321.053	38854
321.142	55624
321.230	55654
321.319	37439
321.408	90506
321.497	33357
321.586	37214
321.675	38587
321.764	37438
321.852	22323
321.941	53241
322.030	34565
322.119	34269
322.207	97276
322.296	54214
322.385	28440
322.474	36729
322.562	120542
322.651	54600
322.740	42374
322.829	53043
322.917	49968
323.006	33065
323.095	27687
323.183	19051
323.272	30632
323.361	55669
323.449	162988
323.538	50816
323.626	105206
323.715	62880
323.804	25690
323.892	98859
323.981	56308
324.069	17927
324.158	49532
324.246	48142
324.335	18902
324.424	34400
324.512	10821
324.601	13955
324.689	17574
324.778	25026
324.866	35033
324.954	10718
325.043	12005
325.131	22918
325.220	35898
325.308	43943
325.397	32502
325.485	20681
325.574	6266
325.662	7385
325.750	9387
325.839	7370
325.927	6345
326.015	10722
326.104	15990
326.192	23897
326.280	7366
326.369	7865
326.457	13890
326.545	27654
326.634	10775
326.722	7162
326.810	6815
326.898	7019
326.987	10786
327.075	26164
327.163	23167
327.251	10261
327.340	10523
327.428	11824
327.516	5984
327.604	8780
327.692	7717
327.781	9939
327.869	17229
327.957	11294
328.045	12365
328.133	6425
328.221	8977
328.309	8662
328.397	6472
328.485	10855
328.574	16969
328.662	64393
328.750	31492
328.838	11497
328.926	7671
329.014	6314
329.102	10957
329.190	25960
329.278	18476
329.366	5334
329.454	3872
329.542	5178
329.630	4290
329.718	6364
329.806	9220
329.893	7698
329.981	6777
330.069	10787
330.157	36486
330.245	109462
330.333	54052
330.421	12887
330.509	18206
330.597	78064
330.684	44738
330.772	14193
330.860	12623
330.948	15291
331.036	8653
331.123	4612
331.211	4625
331.299	6784
331.387	12871
331.475	26279
331.562	9291
331.650	5221
331.738	7437
331.825	9655
331.913	5648
332.001	5418
332.089	7969
332.176	18586
332.264	46442
332.352	35428
332.439	10433
332.527	7355
332.614	5658
332.702	9956
332.790	9252
332.877	24698
332.965	48651
333.052	16338
333.140	17811
333.228	46854
333.315	11422
333.403	9703
333.490	28146
333.578	30829
333.665	60065
333.753	25605
333.840	8030
333.928	10964
334.015	28813
334.103	43225
334.190	127941
334.278	31208
334.365	15704
334.452	12632
334.540	7311
334.627	11788
334.715	16434
334.802	36575
334.889	187280
334.977	186367
335.064	25748
335.151	11928
335.239	9531
335.326	16771
335.413	56739
335.501	74708
335.588	12877
335.675	8860
335.762	9340
335.850	17000
335.937	18495
336.024	47298
336.111	190276
336.199	77164
336.286	16216
336.373	8742
336.460	6056
336.547	7159
336.635	9281
336.722	9613
336.809	7649
336.896	15864
336.983	36768
337.070	83527
337.157	123967
337.245	116904
337.332	79922
337.419	10604
337.506	5435
337.593	8578
337.680	21915
337.767	62810
337.854	22500
337.941	24633
338.028	38857
338.115	14140
338.202	13137
338.289	31169
338.376	116989
338.463	33890
338.550	38346
338.637	40410
338.724	19629
338.811	33072
338.898	7684
338.984	5993
339.071	6962
339.158	11285
339.245	32704
339.332	19856
339.419	23348
339.506	21559
339.593	5324
339.679	7464
339.766	6015
339.853	9843
339.940	26384
340.027	7869
340.113	8415
340.200	12707
340.287	8770
340.374	13058
340.460	21490
340.547	9024
340.634	19446
340.720	78559
340.807	43061
340.894	7929
340.980	7449
341.067	7298
341.154	8776
341.240	15367
341.327	36524
341.414	11626
341.500	11985
341.587	8603
341.674	7193
341.760	25076
341.847	28455
341.933	8685
342.020	3347
342.106	4426
342.193	8896
342.279	19474
342.366	14390
342.452	25045
342.539	13233
342.625	32738
342.712	83544
342.798	33090
342.885	12707
342.971	4858
343.058	3716
343.144	6225
343.230	5391
343.317	6961
343.403	5035
343.490	4872
343.576	4404
343.662	7102
343.749	8057
343.835	11371
343.921	25616
344.008	153108
344.094	337962
344.180	70750
344.267	26565
344.353	94728
344.439	92348
344.525	38307
344.612	13898
344.698	12854
344.784	8268
344.870	5959
344.957	6215
345.043	14215
345.129	10762
345.215	21712
345.301	10697
345.387	6896
345.474	3810
345.560	4698
345.646	7252
345.732	6158
345.818	8927
345.904	8322
345.990	9340
346.076	9427
346.162	16184
346.249	8591
346.335	6141
346.421	10929
346.507	42233
346.593	140681
346.679	28886
346.765	8318
346.851	7736
346.937	8634
347.023	6480
347.108	10000
347.194	6949
347.280	7419
347.366	11325
347.452	41774
347.538	170665
347.624	115107
347.710	88008
347.796	13709
347.882	6675
347.967	6467
348.053	7393
348.139	5582
348.225	5623
348.311	5730
348.397	4645
348.482	9251
348.568	10354
348.654	5524
348.740	8884
348.825	10527
348.911	17043
348.997	77131
349.083	147870
349.168	21942
349.254	8278
349.340	8186
349.425	5205
349.511	10907
349.597	10361
349.682	27241
349.768	91573
349.854	40202
349.939	6393
350.025	5274
350.110	4733
350.196	4416
350.282	3440
350.367	4747
350.453	10117
350.538	12140
350.624	9316
350.709	8440
350.795	4830
350.880	6644
350.966	6680
351.051	12612
351.137	8482
351.222	7855
351.308	27238
351.393	78586
351.479	19656
351.564	7717
351.649	6609
351.735	5088
351.820	4947
351.906	6276
351.991	9208
352.076	51968
352.162	74251
352.247	14483
352.332	9004
352.418	21299
352.503	26612
352.588	114174
352.673	87749
352.759	20115
352.844	8525
352.929	10693
353.014	15627
353.100	8334
353.185	12035
353.270	27133
353.355	27288
353.441	8070
353.526	10256
353.611	26019
353.696	29179
353.781	17208
353.866	6917
353.952	9906
354.037	25902
354.122	60410
354.207	53803
354.292	18431
354.377	6844
354.462	6531
354.547	11619
354.632	9606
354.717	9184
354.802	12049
354.887	5087
354.972	5292
355.057	4265
355.142	4999
355.227	7725
355.312	16904
355.397	39288
355.482	98112
355.567	42750
355.652	31749
355.737	35831
355.822	113444
355.907	85607
355.991	13628
356.076	8614
356.161	7100
356.246	6295
356.331	8995
356.416	26445
356.501	184827
356.585	183778
356.670	25079
356.755	16762
356.840	24811
356.924	116549
357.009	434623
357.094	151572
357.179	35034
357.263	25042
357.348	20680
357.433	20077
357.517	19268
357.602	16836
357.687	13405
357.771	21211
357.856	69360
357.941	42131
358.025	94966
358.110	397680
358.195	170968
358.279	26576
358.364	22205
358.448	76466
358.533	205413
358.617	140936
358.702	142304
358.787	49545
358.871	28588
358.956	23694
359.040	9474
359.125	6088
359.209	9365
359.294	32932
359.378	54025
359.462	24549
359.547	13063
359.631	8696
359.716	5647
359.800	6753
359.885	10876
359.969	8277
360.053	8462
360.138	7981
360.222	15006
360.306	29439
360.391	21508
360.475	41864
360.559	90229
360.644	81503
360.728	57443
360.812	99369
360.896	273870
360.981	99687
361.065	48630
361.149	14553
361.233	14226
361.318	13627
361.402	20578
361.486	12904
361.570	8493
361.654	14457
361.739	40023
361.823	179475
361.907	264446
361.991	43524
362.075	26406
362.159	58280
362.243	37544
362.327	32093
362.411	39485
362.495	21212
362.580	11892
362.664	7669
362.748	7512
362.832	9817
362.916	18250
363.000	65826
363.084	222356
363.168	313864
363.252	69020
363.336	23747
363.420	29619
363.503	81482
363.587	89148
363.671	19593
363.755	16486
363.839	24970
363.923	12486
364.007	29057
364.091	30011
364.175	34774
364.258	134198
364.342	101141
364.426	127726
364.510	70083
364.594	33851
364.677	48450
364.761	240594
364.845	158951
364.929	50538
365.013	40455
365.096	34413
365.180	39378
365.264	37746
365.347	128903
365.431	50224
365.515	14725
365.598	10897
365.682	8409
365.766	11340
365.849	13044
365.933	11764
366.017	11875
366.100	8354
366.184	5101
366.267	7221
366.351	5892
366.435	6473
366.518	4611
366.602	5370
366.685	6813
366.769	9585
366.852	12800
366.936	26247
367.019	17967
367.103	9626
367.186	13791
367.270	6727
367.353	4590
367.436	7089
367.520	5870
367.603	10552
367.687	18086
367.770	34648
367.853	18500
367.937	67641
368.020	110260
368.104	25577
368.187	25607
368.270	33955
368.353	28213
368.437	38917
368.520	76985
368.603	51989
368.687	81269
368.770	146605
368.853	33973
368.936	29007
369.020	21777
369.103	10737
369.186	6127
369.269	8501
369.352	21742
369.436	29929
369.519	18526
369.602	8391
369.685	9547
369.768	11986
369.851	8199
369.934	6776
370.018	10087
370.101	29582
370.184	19413
370.267	12013
370.350	22975
370.433	39027
370.516	123987
370.599	167067
370.682	53595
370.765	75299
370.848	94639
370.931	185361
371.014	61759
371.097	15285
371.180	10414
371.263	7197
371.346	4692
371.429	6986
371.511	7167
371.594	16975
371.677	22925
371.760	20414
371.843	24088
371.926	136150
372.009	303476
372.091	87749
372.174	67708
372.257	168781
372.340	59163
372.423	33995
372.505	31353
372.588	17439
372.671	56251
372.754	184889
372.836	82373
372.919	38899
373.002	64132
373.085	26499
373.167	27346
373.250	75795
373.332	167865
373.415	215302
373.498	436362
373.580	151450
373.663	237812
373.746	296438
373.828	60701
373.911	24924
373.993	23891
374.076	66926
374.159	61625
374.241	44876
374.324	151861
374.406	94703
374.489	131433
374.571	368005
374.654	142831
374.736	71333
374.819	229088
374.901	321931
374.983	317660
375.066	51662
375.148	18027
375.231	58171
375.313	103030
375.395	39366
375.478	12369
375.560	10287
375.643	16514
375.725	67465
375.807	295350
375.890	204144
375.972	74276
376.054	42474
376.136	60608
376.219	30299
376.301	85200
376.383	257679
376.465	90351
376.548	60277
376.630	72950
376.712	217571
376.794	93172
376.877	11915
376.959	6775
377.041	9624
377.123	11775
377.205	13178
377.287	5025
377.369	7256
377.452	8751
377.534	7667
377.616	6636
377.698	8081
377.780	5564
377.862	8841
377.944	7883
378.026	4588
378.108	4855
378.190	6288
378.272	5495
378.354	4266
378.436	3950
378.518	10721
378.600	33546
378.682	36698
378.764	103767
378.846	77999
378.928	19551
379.010	27740
379.091	14572
379.173	8002
379.255	6360
379.337	13159
379.419	50245
379.501	147533
379.583	53992
379.664	14392
379.746	37225
379.828	98733
379.910	136609
379.991	115796
380.073	18754
380.155	13416
380.237	9381
380.318	6705
380.400	8291
380.482	23327
380.564	35029
380.645	29536
380.727	26634
380.809	16272
380.890	11676
380.972	9284
381.053	8571
381.135	11704
381.217	34752
381.298	104214
381.380	49012
381.461	43518
381.543	217273
381.624	258720
381.706	42932
381.787	20484
381.869	23220
381.951	89728
382.032	341176
382.113	200600
382.195	40382
382.276	26357
382.358	62697
382.439	191004
382.521	209504
382.602	325300
382.684	143421
382.765	274759
382.846	312190
382.928	487121
383.009	255473
383.090	173202
383.172	684205
383.253	1006959
383.334	323008
383.416	304931
383.497	151111
383.578	73534
383.659	143805
383.741	581191
383.822	1456421
383.903	710563
383.984	236127
384.066	364118
384.147	215428
384.228	45101
384.309	34196
384.390	25104
384.471	17720
384.553	19246
384.634	26705
384.715	27419
384.796	15239
384.877	22811
384.958	95573
385.039	111951
385.120	35627
385.201	16743
385.282	17979
385.363	18635
385.444	17987
385.525	38203
385.606	143694
385.687	122273
385.768	25297
385.849	30652
385.930	148492
386.011	249837
386.092	61787
386.173	15489
386.254	10474
386.335	11581
386.416	13330
386.496	59088
386.577	95724
386.658	29213
386.739	17017
386.820	13877
386.901	10813
386.981	11671
387.062	9179
387.143	24561
387.224	98431
387.304	85395
387.385	27276
387.466	15289
387.547	16355
387.627	14897
387.708	37920
387.789	177267
387.869	216832
387.950	53734
388.031	9810
388.111	7141
388.192	15820
388.273	24411
388.353	16886
388.434	14298
388.514	34596
388.595	170116
388.676	209349
388.756	95131
388.837	92171
388.917	53567
388.998	10309
389.078	10537
389.159	9212
389.239	9997
389.320	18483
389.400	15128
389.480	35516
389.561	104309
389.641	47902
389.722	18081
389.802	27836
389.883	43728
389.963	125247
390.043	70854
390.124	19044
390.204	34779
390.284	113910
390.365	70189
390.445	69500
390.525	259080
390.605	232568
390.686	63077
390.766	25679
390.846	13107
390.927	8138
391.007	9475
391.087	11353
391.167	18803
391.247	13286
391.328	15881
391.408	18509
391.488	13028
391.568	7652
391.648	14459
391.728	19591
391.808	19815
391.888	23121
391.969	57073
392.049	89299
392.129	34170
392.209	44714
392.289	119687
392.369	59038
392.449	31298
392.529	23394
392.609	26512
392.689	38260
392.769	123763
392.849	101299
392.929	64252
393.009	161180
393.089	134733
393.169	129649
393.248	437995
393.328	1513846
393.408	1544817
393.488	429368
393.568	121062
393.648	59853
393.728	38485
393.807	28731
393.887	25440
393.967	20926
394.047	25049
394.127	29587
394.206	47569
394.286	171378
394.366	748295
394.446	762359
394.525	167938
394.605	42704
394.685	30139
394.764	46430
394.844	73185
394.924	54838
395.003	24810
395.083	19844
395.163	18329
395.242	16200
395.322	17499
395.402	12085
395.481	17208
395.561	36086
395.640	89984
395.720	77938
395.799	95373
395.879	76204
395.958	66854
396.038	251838
396.117	978809
396.197	1017995
396.276	270849
396.356	81508
396.435	54155
396.515	45577
396.594	60676
396.673	117140
396.753	459605
396.832	1360492
396.912	973438
396.991	230797
397.070	63476
397.150	33543
397.229	24965
397.308	29800
397.388	44766
397.467	22531
397.546	12284
397.625	11107
397.705	17053
397.784	18398
397.863	10442
397.942	7106
398.022	8360
398.101	25050
398.180	67899
398.259	32203
398.338	12707
398.417	11214
398.497	7761
398.576	8325
398.655	5909
398.734	6541
398.813	7451
398.892	23596
398.971	75819
399.050	36281
399.129	5936
399.208	4467
399.287	5467
399.366	4144
399.445	4889
399.524	4715
399.603	6078
399.682	14352
399.761	36227
399.840	88467
399.919	62662
399.998	9484
400.077	4340
400.156	4166
400.235	6505
400.313	4371
400.392	8918
400.471	50981
400.550	82403
400.629	20608
400.708	9559
400.786	5627
400.865	13959
400.944	16137
401.023	11041
401.102	3075
401.180	4633
401.259	3367
401.338	4975
401.416	8928
401.495	8103
401.574	4958
401.652	4923
401.731	7682
401.810	6624
401.888	3047
401.967	4520
402.046	9122
402.124	9667
402.203	11011
402.281	8063
402.360	13135
402.438	21075
402.517	11995
402.596	5062
402.674	3855
402.753	3463
402.831	3353
402.910	5841
402.988	19169
403.066	63105
403.145	33908
403.223	20801
403.302	46486
403.380	33216
403.459	30672
403.537	12659
403.615	5513
403.694	2495
403.772	2999
403.850	3325
403.929	1670
404.007	3582
404.085	8361
404.164	8507
404.242	3901
404.320	8762
404.398	20737
404.477	57967
404.555	267510
404.633	219655
404.711	31977
404.789	10547
404.868	5014
404.946	3595
405.024	2202
405.102	3399
405.180	1592
405.258	3620
405.336	3696
405.415	4286
405.493	9221
405.571	7907
405.649	3204
405.727	3984
405.805	6127
405.883	7798
405.961	5748
406.039	6180
406.117	4625
406.195	12313
406.273	63207
406.351	231081
406.429	121367
406.507	15682
406.585	5976
406.663	7743
406.740	10804
406.818	9878
406.896	4472
406.974	5739
407.052	18498
407.130	132737
407.208	180514
407.285	31636
407.363	6429
407.441	6568
407.519	5013
407.596	9617
407.674	34907
407.752	131584
407.830	99256
407.907	19998
407.985	6866
408.063	4607
408.141	2071
408.218	7084
408.296	5672
408.373	6041
408.451	7393
408.529	7911
408.606	2862
408.684	3284
408.762	2087
408.839	2476
408.917	1414
408.994	2333
409.072	1915
409.149	2511
409.227	5678
409.304	8309
409.382	5982
409.459	8136
409.537	10794
409.614	9724
409.692	6135
409.769	6462
409.846	12380
409.924	15029
410.001	9338
410.079	8171
410.156	6754
410.233	6848
410.311	5888
410.388	4200
410.465	5137
410.543	4917
410.620	3955
410.697	6545
410.775	7162
410.852	2860
410.929	6870
411.006	9315
411.083	4236
411.161	11593
411.238	9906
411.315	6059
411.392	3686
411.469	6739
411.547	5949
411.624	2999
411.701	3747
411.778	7146
411.855	17118
411.932	9201
412.009	3062
412.086	4067
412.163	4366
412.240	4668
412.317	5646
412.394	5579
412.471	2512
412.548	2682
412.625	3222
412.702	5186
412.779	10341
412.856	7508
412.933	1692
413.010	2742
413.087	7530
413.164	47120
413.241	63365
413.318	15898
413.395	8761
413.471	14344
413.548	5462
413.625	3827
413.702	4981
413.779	4470
413.855	1210
413.932	1823
414.009	1418
414.086	2410
414.162	2991
414.239	9317
414.316	46610
414.393	104331
414.469	34846
414.546	3775
414.623	1967
414.699	3328
414.776	4739
414.853	2549
414.929	3146
415.006	3665
415.082	3122
415.159	3112
415.236	3347
415.312	4377
415.389	11080
415.465	15497
415.542	6550
415.618	4725
415.695	9605
415.771	5999
415.848	5747
415.924	4494
416.000	1633
416.077	2791
416.153	848
416.230	372
416.306	447
416.383	2031
416.459	1817
416.535	2439
416.612	1995
416.688	3257
416.764	2292
416.841	3257
416.917	2551
416.993	3270
417.069	4341
417.146	6529
417.222	8298
417.298	5770
417.374	2881
417.451	4398
417.527	5759
417.603	8652
417.679	5191
417.755	4677
417.831	1655
417.908	2276
417.984	1433
418.060	2444
418.136	12366
418.212	17459
418.288	4259
418.364	2977
418.440	3390
418.516	7275
418.592	7213
418.668	19013
418.744	32627
418.820	22447
418.896	4569
418.972	2632
419.048	3571
419.124	14347
419.200	10118
419.276	2552
419.352	1032
419.428	2167
419.504	4684
419.579	7032
419.655	4075
419.731	5872
419.807	21405
419.883	41185
419.959	26032
420.034	6644
420.110	15458
420.186	65505
420.262	47193
420.337	8060
420.413	5581
420.489	3279
420.565	3035
420.640	3854
420.716	3421
420.792	1489
420.867	3507
420.943	4098
421.019	8558
421.094	7016
421.170	2973
421.245	1585
421.321	3279
421.397	5765
421.472	21194
421.548	71749
421.623	41877
421.699	9446
421.774	7502
421.850	6720
421.925	12704
422.001	12073
422.076	8539
422.152	9677
422.227	17806
422.302	19556
422.378	25863
422.453	48861
422.529	125728
422.604	405206
422.679	673444
422.755	414458
422.830	127796
422.905	48634
422.981	24426
423.056	17277
423.131	12216
423.207	10507
423.282	10321
423.357	22281
423.432	13506
423.508	12824
423.583	33339
423.658	23492
423.733	6102
423.808	7586
423.883	10972
423.959	8912
424.034	6229
424.109	4750
424.184	2099
424.259	2654
424.334	2788
424.409	2267
424.484	3069
424.559	4373
424.634	5347
424.709	10946
424.784	9789
424.859	5436
424.934	8705
425.009	45130
425.084	74172
425.159	24212
425.234	3917
425.309	2587
425.384	15315
425.459	25268
425.534	7085
425.609	2715
425.683	1376
425.758	2201
425.833	2580
425.908	6030
425.983	28131
426.058	77733
426.132	29446
426.207	5226
426.282	5983
426.357	4006
426.431	2259
426.506	2900
426.581	2472
426.655	2420
426.730	2115
426.805	3528
426.879	3332
426.954	4398
427.029	11584
427.103	77152
427.178	189769
427.253	75859
427.327	8603
427.402	10185
427.476	25350
427.551	12993
427.625	3475
427.700	3290
427.774	1757
427.849	3500
427.923	1967
427.998	2793
428.072	2672
428.147	9528
428.221	51009
428.296	143714
428.370	68526
428.444	8985
428.519	6811
428.593	13248
428.667	10493
428.742	14289
428.816	18096
428.890	83372
428.965	135216
429.039	39585
429.113	15644
429.188	7233
429.262	3025
429.336	10557
429.410	31169
429.485	18434
429.559	10990
429.633	9195
429.707	4063
429.781	15100
429.855	85821
429.930	132485
430.004	56271
430.078	64021
430.152	72512
430.226	193113
430.300	182121
430.374	26927
430.448	8693
430.522	24272
430.596	64928
430.670	52442
430.744	183843
430.818	260736
430.892	49489
430.966	8036
431.040	3805
431.114	2444
431.188	1758
431.262	2659
431.336	2048
431.410	8345
431.484	21215
431.557	16227
431.631	2538
431.705	4605
431.779	26712
431.853	124527
431.927	81287
432.000	9732
432.074	3547
432.148	3860
432.222	1872
432.295	2246
432.369	2212
432.443	9533
432.516	73142
432.590	185406
432.664	61362
432.737	7522
432.811	2005
432.885	1449
432.958	801
433.032	930
433.106	541
433.179	840
433.253	530
433.326	1345
433.400	-62
433.473	350
433.547	-331
433.620	2047
433.694	6567
433.767	6922
433.841	1827
433.914	1688
433.988	483
434.061	1370
434.134	521
434.208	105
434.281	-150
434.355	503
434.428	1936
434.501	1282
434.575	142
434.648	1398
434.721	201
434.795	982
434.868	79
434.941	843
435.014	91
435.088	2479
435.161	3397
435.234	8514
435.307	10138
435.381	5350
435.454	3613
435.527	6434
435.600	6146
435.673	4162
435.746	2308
435.819	2481
435.892	1041
435.966	235
436.039	1210
436.112	1869
436.185	198
436.258	-271
436.331	-406
436.404	747
436.477	-566
436.550	577
436.623	438
436.696	1089
436.769	1999
436.842	1880
436.915	1490
436.987	4094
437.060	1116
437.133	487
437.206	143
437.279	1008
437.352	459
437.425	1758
437.498	3214
437.570	7610
437.643	6466
437.716	2223
437.789	234
437.861	5316
437.934	14616
438.007	6552
438.080	2110
438.152	3968
438.225	11516
438.298	100224
438.370	260681
438.443	93643
438.516	16818
438.588	4462
438.661	1021
438.734	2740
438.806	2738
438.879	4023
438.951	3701
439.024	7444
439.096	1743
439.169	1906
439.241	171
439.314	546
439.386	2261
439.459	4865
439.531	8684
439.604	3497
439.676	1379
439.749	881
439.821	-67
439.893	1049
439.966	1182
440.038	2898
440.110	3031
440.183	2392
440.255	437
440.327	5801
440.400	37069
440.472	159461
440.544	96680
440.617	11095
440.689	6397
440.761	8548
440.833	12504
440.905	8464
440.978	1192
441.050	931
441.122	1067
441.194	1093
441.266	1139
441.338	1458
441.411	6885
441.483	48607
441.555	68038
441.627	13114
441.699	3887
441.771	4075
441.843	1542
441.915	1349
441.987	1422
442.059	1855
442.131	1838
442.203	5257
442.275	5657
442.347	5581
442.419	9352
442.491	54056
442.563	134005
442.635	55464
442.706	22348
442.778	17426
442.850	3537
442.922	2430
442.994	3093
443.066	5893
443.137	3571
443.209	4302
443.281	5627
443.353	15860
443.425	69347
443.496	258073
443.568	239604
443.640	83570
443.711	14820
443.783	5900
443.855	3713
443.926	1934
443.998	1750
444.070	3584
444.141	2655
444.213	7507
444.285	9135
444.356	7568
444.428	5150
444.499	2639
444.571	682
444.642	1657
444.714	2530
444.785	7124
444.857	5997
444.928	12500
445.000	6714
445.071	9353
445.143	10017
445.214	7486
445.285	13230
445.357	40319
445.428	167164
445.500	394527
445.571	227949
445.642	112996
445.714	38038
445.785	23310
445.856	8412
445.928	11302
445.999	8244
446.070	4917
446.141	4719
446.213	8042
446.284	2830
446.355	3487
446.426	2563
446.497	2439
446.569	3085
446.640	9959
446.711	8220
446.782	2413
446.853	3662
446.924	4775
446.995	3199
447.066	2228
447.138	3841
447.209	2511
447.280	-28
447.351	710
447.422	153
447.493	2391
447.564	3901
447.635	8202
447.706	2366
447.777	1273
447.847	234
447.918	845
447.989	2302
448.060	2866
448.131	7561
448.202	9291
448.273	7170
448.344	2589
448.414	2000
448.485	1582
448.556	595
448.627	855
448.698	837
448.768	-577
448.839	565
448.910	3670
448.981	3813
449.051	2614
449.122	386
449.193	-34
449.263	-30
449.334	25
449.405	2589
449.475	10786
449.546	6046
449.616	4961
449.687	2591
449.758	1888
449.828	7
449.899	387
449.969	42
450.040	801
450.110	2475
450.181	3776
450.251	112
450.322	489
450.392	73
450.463	1476
450.533	225
450.604	630
450.674	301
450.744	1106
450.815	19
450.885	1372
450.955	1160
451.026	845
451.096	1112
451.166	1735
451.237	4588
451.307	12031
451.377	3901
451.447	1095
451.518	567
451.588	453
451.658	193
451.728	2679
451.799	12184
451.869	13539
451.939	2472
452.009	1301
452.079	-123
452.149	1228
452.219	2626
452.289	14586
452.360	10722
452.430	2842
452.500	2679
452.570	3801
452.640	7085
452.710	19320
452.780	24984
452.850	22060
452.920	20481
452.990	5584
453.060	3267
453.129	4761
453.199	5755
453.269	17883
453.339	39635
453.409	61449
453.479	56514
453.549	81552
453.619	82119
453.688	33053
453.758	5396
453.828	3088
453.898	1139
453.968	1191
454.037	688
454.087	980
454.107	1087
454.168	278
454.177	145
454.247	1418
454.249	1366
454.316	-216
454.330	185
454.386	1667
454.411	3254
454.456	5770
454.492	8454
454.525	10879
454.574	5676
454.595	3404
454.655	1657
454.665	1377
454.734	1985
454.736	2076
454.804	4924
454.817	6359
454.873	12022
454.898	13488
454.943	16054
454.979	11222
455.013	6879
455.060	3982
455.082	2782
455.141	2595
455.152	2501
455.221	9597
455.222	9701
455.291	15875
455.303	15108
455.360	11520
455.384	13644
455.430	17420
455.465	14226
455.499	11053
455.546	10779
455.569	10544
455.627	9163
455.638	8973
455.707	1826
455.708	1836
455.777	1121
455.789	1095
455.846	1053
455.869	1168
455.916	1351
455.950	1188
455.985	1017
456.031	1197
456.054	1255
456.112	1227
456.124	1227
456.193	1705
456.193	1693
456.262	1385
456.274	1635
456.332	2763
456.355	2738
456.401	2542
456.436	2469
456.470	2458
456.516	1575
456.540	1056
456.597	1128
456.609	1173
456.678	1343
456.678	1332
456.747	818
456.759	747
456.817	547
456.840	594
456.886	492
456.920	806
456.955	1303
457.001	1594
457.024	1744
457.082	1750
457.093	1712
457.162	3269
457.163	3286
457.232	4547
457.243	4381
457.301	3372
457.324	2470
457.370	805
457.405	1374
457.439	2073
457.485	1538
457.508	1219
457.566	2335
457.577	2614
457.646	2835
457.647	2862
457.715	5496
457.727	6105
457.784	10323
457.808	14150
457.853	19258
457.889	22418
457.922	22990
457.969	15551
457.991	14886
458.050	16226
458.060	16385
458.129	30943
458.130	31292
458.198	35622
458.211	32531
458.267	19081
458.292	13153
458.336	6593
458.372	5864
458.405	7661
458.453	11582
458.474	14487
458.533	28188
458.543	29609
458.611	53930
458.614	54170
458.680	37935
458.694	30583
458.749	12575
458.775	9135
458.818	5595
458.855	4306
458.887	3316
458.936	3235
458.955	3143
459.016	2259
459.024	2229
459.093	3490
459.097	3507
459.162	3035
459.177	3097
459.230	3555
459.257	3904
459.299	4253
459.338	4221
459.368	4240
459.418	4647
459.437	4554
459.499	3823
459.505	3841
459.574	3301
459.579	3357
459.643	3046
459.659	2662
459.711	2402
459.740	2855
459.780	3194
459.820	3204
459.849	3154
459.900	3236
459.917	3282
459.981	3122
459.986	3094
460.054	3325
460.061	3337
460.123	3427
460.141	3442
460.191	4325
460.222	4866
460.260	5181
460.302	6306
460.328	6503
460.382	5116
460.397	4850
460.462	3843
460.465	3923
460.534	7085
460.543	7580
460.602	24328
460.623	30660
460.671	45941
460.703	64254
460.739	65899
460.783	56902
460.808	48722
460.864	12053
460.876	8293
460.944	3371
460.945	3333
461.013	4131
461.024	4092
461.081	3114
461.104	3552
461.150	4355
461.184	4048
461.218	3854
461.264	3856
461.286	3793
461.345	3437
461.355	3338
461.423	3303
461.425	3281
461.491	2962
461.505	3032
461.559	4996
461.585	5945
461.628	8476
461.665	11626
461.696	13099
461.745	16634
461.764	15785
461.825	7758
461.832	7496
461.901	4385
461.905	4390
461.969	3805
461.985	3604
462.037	3889
462.065	4072
462.105	3880
462.145	3695
462.173	4802
462.225	6797
462.241	7182
462.305	10075
462.310	9932
462.378	8004
462.385	7341
462.446	4933
462.465	4737
462.514	4376
462.545	4321
462.582	4189
462.625	3980
462.650	3608
462.705	2592
462.718	2723
462.785	3808
462.786	3826
462.854	4775
462.865	4917
462.922	5843
462.945	6407
462.990	5522
463.025	4301
463.058	4045
463.104	3405
463.126	2992
463.184	2913
463.194	3160
463.262	4026
463.264	4074
463.330	3697
463.344	3549
463.398	3909
463.424	4131
463.466	3758
463.504	3593
463.533	4169
463.583	4669
463.601	4614
463.663	4558
463.669	4626
463.737	5746
463.743	5847
463.805	7925
463.823	8463
463.873	11419
463.903	13391
463.940	13952
463.982	15403
464.008	13683
464.062	7739
464.076	7169
464.142	3871
464.144	3859
464.211	4505
464.221	4702
464.279	4917
464.301	4869
464.347	5480
464.381	6117
464.414	5887
464.461	5152
464.482	5432
464.540	6599
464.550	6575
464.617	5989
464.620	5976
464.685	7471
464.699	7708
464.753	8424
464.779	8812
464.820	9902
464.859	10985
464.888	10081
464.938	8327
464.956	8587
465.018	9576
465.023	9484
465.091	8037
465.098	7860
465.158	8253
465.177	8493
465.226	8211
465.257	7867
465.293	8189
465.336	8534
465.361	8906
465.416	9840
465.428	10316
465.495	13096
465.496	13127
465.563	15052
465.575	15476
465.631	18639
465.654	20087
465.698	14856
465.734	9838
465.765	8775
465.813	7006
465.833	6780
465.893	6802
465.900	6880
465.968	7316
465.972	7336
466.035	7131
466.052	7096
466.102	7274
466.131	7362
466.170	7282
466.210	7082
466.237	7587
466.290	8645
466.304	8665
466.369	8555
466.372	8592
466.439	9413
466.449	9497
466.506	9544
466.528	9581
466.573	12240
466.607	14157
466.641	17679
466.687	22621
466.708	25421
466.766	33325
466.775	31446
466.842	16784
466.845	16055
466.909	11871
466.925	10956
466.977	10596
467.004	10406
467.044	11112
467.083	11842
467.111	12556
467.163	13795
467.178	14361
467.242	16665
467.245	16551
467.312	13648
467.321	13245
467.379	12595
467.400	12327
467.446	13440
467.480	14210
467.559	12757
467.638	10459
467.717	11257
467.796	13030
467.875	14067
467.955	12605
468.034	14643
468.113	25935
468.192	35456
468.271	15057
468.350	12209
468.429	14622
468.508	17053
468.588	13011
468.667	10130
468.746	10635
468.825	10149
468.904	9506
468.983	10697
469.062	13051
469.141	15395
469.220	9271
469.299	9732
469.378	9705
469.456	14656
469.535	12520
469.614	10559
469.693	11241
469.772	13340
469.851	15531
469.930	13008
470.009	11315
470.088	11969
470.166	14183
470.245	21151
470.324	25195
470.403	17461
470.482	12357
470.560	10999
470.639	11905
470.718	13539
470.797	11493
470.875	11454
470.954	12705
471.033	14394
471.111	8785
471.190	9124
471.269	8131
471.347	8931
471.426	8900
471.505	10421
471.583	11671
471.662	11738
471.740	9516
471.819	10621
471.898	8362
471.976	10497
472.055	8603
472.133	10501
472.212	12347
472.290	12677
472.369	8995
472.447	9353
472.526	8819
472.604	9580
472.683	9591
472.761	10850
472.839	10144
472.918	10480
472.996	9228
473.075	10255
473.153	9705
473.231	8667
473.310	9995
473.388	10699
473.466	8852
473.545	11651
473.623	15119
473.701	16394
473.780	10371
473.858	7942
473.936	9533
474.014	10639
474.093	10827
474.171	13085
474.249	13477
474.327	12764
474.405	9067
474.484	8110
474.562	8295
474.640	8530
474.718	8409
474.796	9144
474.874	8906
474.952	7738
475.030	7617
475.108	9287
475.187	8006
475.265	9611
475.343	10655
475.421	12859
475.499	8721
475.577	9258
475.655	9152
475.733	15659
475.811	22488
475.889	21221
475.966	16277
476.044	8524
476.122	8611
476.200	9944
476.278	8836
476.356	8028
476.434	7734
476.512	8082
476.590	10089
476.667	10908
476.745	7058
476.823	7956
476.901	7193
476.979	8077
477.056	7795
477.134	7868
477.212	7793
477.290	7998
477.367	7032
477.445	7551
477.523	6929
477.601	7082
477.678	6857
477.756	8101
477.834	8259
477.911	7284
477.989	7303
478.066	7212
478.144	7019
478.222	7951
478.299	9570
478.377	10811
478.454	6561
478.532	6834
478.609	7312
478.687	8954
478.764	6380
478.842	7858
478.919	8589
478.997	9616
479.074	5627
479.152	7647
479.229	7536
479.307	7719
479.384	5133
479.461	6325
479.539	4946
479.616	7040
479.694	6379
479.771	6690
479.848	6994
479.926	7343
480.003	10059
480.080	6261
480.157	6351
480.235	6321
480.312	6280
480.389	6450
480.467	8287
480.544	11219
480.621	7682
480.698	7527
480.775	7886
480.853	7763
480.930	5871
481.007	6529
481.084	7913
481.161	10174
481.238	8758
481.315	5794
481.392	6185
481.470	6133
481.547	4911
481.624	6359
481.701	5780
481.778	6554
481.855	6669
481.932	8645
482.009	13114
482.086	10882
482.163	7011
482.240	10182
482.317	11891
482.393	12271
482.470	6370
482.547	7188
482.624	5681
482.701	6916
482.778	6383
482.855	5990
482.932	6066
483.009	6348
483.085	8076
483.162	9302
483.239	9388
483.316	6373
483.393	6730
483.469	6680
483.546	6461
483.623	8006
483.699	5425
483.776	7100
483.853	6767
483.930	10441
484.006	20630
484.083	34239
484.160	28521
484.236	44196
484.313	34439
484.389	25767
484.466	22516
484.543	23374
484.619	21919
484.696	24718
484.772	22641
484.849	22853
484.925	20525
485.002	20748
485.078	20735
485.155	21175
485.231	19039
485.308	19079
485.384	19002
485.461	21742
485.537	27500
485.614	33685
485.690	19021
485.766	18761
485.843	19999
485.919	26843
485.995	30041
486.072	18193
486.148	16301
486.224	17330
486.301	16629
486.377	19755
486.453	19306
486.530	20121
486.606	25774
486.682	30144
486.758	28587
486.835	30887
486.911	25816
486.987	37337
487.063	51666
487.139	70498
487.215	51920
487.292	28578
487.368	20608
487.444	23586
487.520	26731
487.596	28975
487.672	41073
487.748	106185
487.824	164597
487.900	62500
487.976	24509
488.052	21037
488.128	24609
488.204	21095
488.280	17688
488.356	20349
488.432	29849
488.508	41802
488.584	22889
488.660	17505
488.736	17986
488.812	18443
488.888	23156
488.964	30177
489.039	61225
489.115	101473
489.191	68564
489.267	17956
489.343	15528
489.418	15077
489.494	14327
489.570	13582
489.646	15239
489.722	14467
489.797	13274
489.873	17295
489.949	29166
490.024	31019
490.100	13475
490.176	14453
490.251	17247
490.327	23765
490.403	15119
490.478	13531
490.554	11924
490.629	12736
490.705	10897
490.781	13968
490.856	11892
490.932	15228
491.007	15608
491.083	15170
491.158	11682
491.234	14229
491.309	23085
491.385	26407
491.460	12683
491.536	13985
491.611	12630
491.686	14644
491.762	18499
491.837	39518
491.913	67277
491.988	90397
492.063	128263
492.139	35299
492.214	16474
492.289	11920
492.365	10163
492.440	13511
492.515	11951
492.590	11434
492.666	8955
492.741	13441
492.816	15023
492.891	11698
492.967	10022
493.042	9712
493.117	9705
493.192	9879
493.267	11834
493.342	24712
493.418	34229
493.493	13389
493.568	8202
493.643	9691
493.718	10018
493.793	14977
493.868	20156
493.943	15162
494.018	10067
494.093	9030
494.168	8734
494.243	8336
494.318	8721
494.393	7385
494.468	7494
494.543	7872
494.618	9888
494.693	9500
494.768	7734
494.842	9448
494.917	7349
494.992	8522
495.067	7155
495.142	7644
495.217	8497
495.292	8811
495.366	10268
495.441	13146
495.516	15728
495.591	21799
495.665	79645
495.740	207339
495.815	113393
495.890	15026
495.964	7900
496.039	12116
496.114	9801
496.188	13188
496.263	12298
496.338	8723
496.412	9927
496.487	11669
496.561	13066
496.636	15349
496.710	10508
496.785	12044
496.860	12666
496.934	10557
497.009	11163
497.083	10230
497.158	9484
497.232	11438
497.307	14526
497.381	13898
497.455	13809
497.530	16862
497.604	14148
497.679	14450
497.753	20664
497.827	27989
497.902	26907
497.976	29549
498.050	52866
498.125	196778
498.199	252822
498.273	55757
498.348	38284
498.422	30831
498.496	24674
498.570	24214
498.645	15378
498.719	14369
498.793	16018
498.867	23088
498.941	28387
499.016	74773
499.090	212174
499.164	108957
499.238	13451
499.312	10398
499.386	14065
499.460	13556
499.534	11500
499.609	13174
499.683	16774
499.757	16726
499.831	31222
499.905	127988
499.979	151219
500.053	24212
500.127	23372
500.201	23833
500.275	13214
500.349	12410
500.422	13333
500.496	20029
500.570	42355
500.644	84286
500.718	142283
500.792	47963
500.866	9959
500.940	11879
501.013	11051
501.087	11072
501.161	21125
501.235	27252
501.309	38339
501.382	107407
501.456	122251
501.530	29163
501.603	33910
501.677	19687
501.751	7967
501.825	10967
501.898	15073
501.972	42317
502.046	33079
502.119	9656
502.193	21674
502.266	47842
502.340	29651
502.413	19547
502.487	40506
502.561	26673
502.634	10883
502.708	10712
502.781	9879
502.855	7842
502.928	5632
503.002	6883
503.075	5234
503.149	6465
503.222	6924
503.295	6957
503.369	8833
503.442	10112
503.516	29231
503.589	79783
503.662	60913
503.736	20360
503.809	37316
503.882	38038
503.956	46140
504.029	56978
504.102	62733
504.175	94465
504.249	33779
504.322	13563
504.395	9935
504.468	8294
504.542	5443
504.615	5747
504.688	5749
504.761	5226
504.834	8160
504.907	11156
504.980	19269
505.053	10947
505.127	9651
505.200	14849
505.273	7396
505.346	6718
505.419	4564
505.492	6226
505.565	4327
505.638	4603
505.711	3890
505.784	4788
505.857	4660
505.930	6185
506.003	3959
506.076	7302
506.149	5545
506.221	7335
506.294	8898
506.367	15654
506.440	57572
506.513	45358
506.586	8912
506.659	6696
506.731	6428
506.804	7249
506.877	11216
506.950	8696
507.022	5874
507.095	5897
507.168	7684
507.241	7264
507.313	4841
507.386	5622
507.459	11518
507.531	8684
507.604	4984
507.677	6379
507.749	2445
507.822	7839
507.894	16427
507.967	23648
508.040	12814
508.112	11487
508.185	11285
508.257	9423
508.330	15885
508.402	10734
508.475	7661
508.547	10603
508.620	7994
508.692	12626
508.765	10627
508.837	7039
508.909	6221
508.982	7323
509.054	9101
509.127	7766
509.199	5779
509.271	4974
509.344	5790
509.416	6646
509.488	5945
509.560	7960
509.633	7522
509.705	10401
509.777	8358
509.849	13808
509.922	9247
509.994	6596
510.066	6869
510.138	8227
510.210	17747
510.283	16470
510.355	13529
510.427	11952
510.499	9388
510.571	9421
510.643	9805
510.715	16744
510.787	15297
510.859	12300
510.931	11047
511.003	16348
511.076	15104
511.148	7959
511.219	7521
511.291	12471
511.363	13401
511.435	9197
511.507	7041
511.579	8353
511.651	8160
511.723	7961
511.795	7176
511.867	7884
511.939	8727
512.010	14292
512.082	13851
512.154	9135
512.226	9026
512.298	15673
512.369	21941
512.441	18782
512.513	17550
512.585	12708
512.656	12331
512.728	12977
512.800	10488
512.871	11764
512.943	10389
513.015	8479
513.086	10153
513.158	11343
513.230	10002
513.301	16745
513.373	23310
513.444	12817
513.516	9259
513.588	9697
513.659	11266
513.731	14715
513.802	12153
513.874	25377
513.945	48511
514.016	19947
514.088	9554
514.159	10738
514.231	14630
514.302	20814
514.374	15237
514.445	11842
514.516	18429
514.588	16794
514.659	11710
514.730	15891
514.802	17420
514.873	13347
514.944	15128
515.016	13168
515.087	13335
515.158	14402
515.229	18994
515.301	13151
515.372	17001
515.443	12192
515.514	9225
515.585	9329
515.656	11008
515.728	10086
515.799	8970
515.870	11213
515.941	10336
516.012	10585
516.083	15680
516.154	17868
516.225	24379
516.296	23633
516.367	19009
516.438	22452
516.509	28128
516.580	38479
516.651	113783
516.722	450439
516.793	286707
516.864	44033
516.935	37162
517.006	40581
517.077	52313
517.148	117511
517.219	457169
517.289	934052
517.360	208716
517.431	53548
517.502	19385
517.573	17158
517.643	16218
517.714	19285
517.785	19773
517.856	20058
517.926	27400
517.997	33610
518.068	42660
518.138	55345
518.209	78266
518.280	295182
518.350	1225211
518.421	697641
518.492	65800
518.562	31047
518.633	25333
518.703	23794
518.774	39693
518.845	103262
518.915	119082
518.986	36878
519.056	24286
519.127	37197
519.197	52895
519.268	87183
519.338	59624
519.408	18519
519.479	23914
519.549	21260
519.620	14047
519.690	9720
519.760	9045
519.831	10527
519.901	10375
519.971	8354
520.042	8823
520.112	9443
520.182	13701
520.253	17239
520.323	10625
520.393	14680
520.463	29231
520.534	15688
520.604	38599
520.674	19782
520.744	13768
520.814	37326
520.885	41266
520.955	23897
521.025	78444
521.095	45709
521.165	11089
521.235	7963
521.305	7530
521.375	8507
521.445	9600
521.515	13486
521.585	14297
521.655	15225
521.725	12110
521.795	11881
521.865	5755
521.935	12522
522.005	9717
522.075	6746
522.145	8582
522.215	8248
522.285	11109
522.355	14310
522.424	23643
522.494	23780
522.564	15495
522.634	29956
522.704	104499
522.774	55876
522.843	10448
522.913	10283
522.983	13688
523.053	10963
523.122	8777
523.192	15086
523.262	51475
523.331	69339
523.401	13837
523.471	8109
523.540	8321
523.610	6854
523.680	5949
523.749	7420
523.819	7984
523.888	7393
523.958	5522
524.027	6634
524.097	6668
524.166	6736
524.236	7036
524.305	9988
524.375	6207
524.444	5871
524.514	7259
524.583	5852
524.653	6981
524.722	8981
524.791	6333
524.861	8431
524.930	5934
524.999	6849
525.069	12073
525.138	8030
525.207	8103
525.277	7162
525.346	7213
525.415	7899
525.484	6863
525.554	8773
525.623	9296
525.692	10817
525.761	11203
525.830	12539
525.900	13896
525.969	21816
526.038	34016
526.107	64074
526.176	212449
526.245	203169
526.314	63398
526.383	105407
526.452	161134
526.522	239345
526.591	300539
526.660	83745
526.729	43525
526.797	40250
526.867	72200
526.935	320029
527.004	633656
527.073	417037
527.142	39316
527.211	16271
527.280	14365
527.349	14788
527.418	5902
527.487	7876
527.555	6804
527.624	6269
527.693	4180
527.762	6672
527.831	3491
527.899	6969
527.968	5130
528.037	5108
528.106	8307
528.174	16998
528.243	13045
528.312	14698
528.380	26376
528.449	8433
528.518	6007
528.586	3910
528.655	5218
528.723	4620
528.792	3949
528.861	4799
528.929	4368
528.998	5704
529.066	4101
529.135	4968
529.203	4133
529.272	3905
529.340	6019
529.409	7274
529.477	3899
529.545	6224
529.614	8647
529.682	7543
529.751	9610
529.819	12690
529.887	8589
529.956	6545
530.024	6476
530.092	5321
530.161	9672
530.229	14934
530.297	9206
530.365	6796
530.434	6501
530.502	4998
530.570	6481
530.638	4561
530.707	7316
530.775	8283
530.843	5044
530.911	5878
530.979	5283
531.047	5724
531.115	6838
531.183	6097
531.252	5823
531.320	6342
531.388	5115
531.456	6590
531.524	4045
531.592	7565
531.660	8930
531.728	5677
531.796	6260
531.864	7411
531.932	6104
532.000	7177
532.067	6780
532.135	9457
532.203	9617
532.271	10401
532.339	15886
532.407	47681
532.475	37255
532.542	14413
532.610	13873
532.678	17995
532.746	68948
532.814	227851
532.881	74545
532.949	13266
533.017	9910
533.084	7777
533.152	6733
533.220	7475
533.287	7478
533.355	8216
533.423	7408
533.490	6918
533.558	6976
533.625	7942
533.693	7459
533.761	7960
533.828	7908
533.896	8135
533.963	15799
534.031	22206
534.098	27575
534.166	15549
534.233	7886
534.300	9687
534.368	9351
534.435	8003
534.503	8962
534.570	11545
534.637	10732
534.705	11918
534.772	12144
534.840	20208
534.907	90582
534.974	151813
535.041	21961
535.109	10585
535.176	7796
535.243	8083
535.310	7987
535.378	8515
535.445	6636
535.512	6575
535.579	7159
535.646	7623
535.714	7103
535.781	9529
535.848	9027
535.915	8956
535.982	7824
536.049	7973
536.116	7942
536.183	7071
536.250	7562
536.317	8587
536.384	10549
536.451	16042
536.518	17726
536.585	10720
536.652	13672
536.719	21775
536.786	19101
536.853	13024
536.920	16818
536.987	31113
537.053	28345
537.120	98510
537.187	113907
537.254	13881
537.321	8219
537.388	10076
537.454	6146
537.521	7447
537.588	6879
537.654	9210
537.721	9314
537.788	10080
537.855	6941
537.921	8223
537.988	8474
538.055	9550
538.121	7919
538.188	8844
538.254	13188
538.321	32683
538.388	24072
538.454	9805
538.521	7998
538.587	8425
538.654	7433
538.720	7921
538.787	7404
538.853	8456
538.920	9648
538.986	9895
539.053	8142
539.119	8829
539.185	9568
539.252	11414
539.318	17948
539.385	15756
539.451	10205
539.517	11518
539.583	12879
539.650	24495
539.716	80933
539.782	31135
539.849	10205
539.915	10148
539.981	9362
540.047	13200
540.114	11055
540.180	12226
540.246	10380
540.312	14786
540.378	29420
540.444	37082
540.510	29391
540.576	93654
540.643	39230
540.709	9977
540.775	8580
540.841	8375
540.907	12016
540.973	18959
541.039	18322
541.105	21665
541.171	11322
541.237	9559
541.303	9503
541.369	12666
541.435	14478
541.500	29334
541.566	21312
541.632	9593
541.698	7677
541.764	8888
541.830	6469
541.896	7039
541.961	9310
542.027	8465
542.093	8737
542.159	10863
542.224	9519
542.290	15468
542.356	26818
542.421	38630
542.487	16376
542.553	9878
542.618	10280
542.684	10422
542.750	10097
542.815	12313
542.881	17272
542.947	72160
543.012	73781
543.078	11470
543.143	9068
543.209	10393
543.274	9645
543.340	11515
543.405	24759
543.471	53861
543.536	14385
543.602	8894
543.667	7863
543.732	9568
543.798	6942
543.863	10068
543.928	7559
543.994	7503
544.059	7717
544.124	8401
544.190	8380
544.255	10200
544.320	9791
544.386	10458
544.451	14507
544.516	18977
544.581	15941
544.646	42733
544.712	88684
544.777	21620
544.842	10735
544.907	10689
544.972	9221
545.037	10178
545.102	10607
545.168	11116
545.233	10781
545.298	12776
545.363	13396
545.428	14988
545.493	26804
545.558	67951
545.623	34328
545.688	12506
545.753	9965
545.818	10833
545.883	11952
545.947	11611
546.012	12098
546.077	11935
546.142	12396
546.207	12366
546.272	17429
546.337	19458
546.401	15664
546.466	14470
546.531	12233
546.596	14918
546.661	15818
546.725	15604
546.790	13117
546.855	16450
546.919	14945
546.984	18096
547.049	17663
547.113	21717
547.178	20853
547.243	24420
547.307	28343
547.372	32613
547.436	33432
547.501	32012
547.565	34540
547.630	36229
547.695	36145
547.759	33879
547.823	31695
547.888	31332
547.952	31390
548.017	33107
548.081	37779
548.146	38144
548.210	37802
548.274	36525
548.339	34806
548.403	33514
548.468	31422
548.532	31959
548.596	31830
548.660	30816
548.725	34507
548.789	38895
548.853	38415
548.917	34410
548.982	36048
549.046	35360
549.110	27288
549.174	29044
549.238	31705
549.303	35844
549.367	36710
549.431	35587
549.495	33720
549.559	31787
549.623	37218
549.687	42967
549.751	48083
549.815	49353
549.879	49460
549.943	45772
550.007	48731
550.071	48937
550.135	48715
550.199	45120
550.263	41072
550.327	40352
550.391	43022
550.455	45550
550.519	43907
550.582	47897
550.646	58664
550.710	62775
550.774	54049
550.838	54841
550.901	56523
550.965	58548
551.029	60982
551.093	67658
551.156	73191
551.220	93828
551.284	117396
551.347	84058
551.411	76879
551.475	80944
551.538	61396
551.602	55744
551.666	50932
551.729	48340
551.793	46697
551.856	46159
551.920	44706
551.983	45100
552.047	45203
552.110	45531
552.174	45445
552.237	47112
552.301	45085
552.364	42600
552.428	41620
552.491	41666
552.554	44612
552.618	44287
552.681	45915
552.745	47760
552.808	61864
552.871	86601
552.934	59891
552.998	45878
553.061	43243
553.124	41697
553.187	39968
553.251	42334
553.314	41763
553.377	41778
553.440	46145
553.503	51598
553.567	60602
553.630	46514
553.693	44463
553.756	44200
553.819	41765
553.882	40918
553.945	41131
554.008	41502
554.071	40578
554.134	41811
554.197	38478
554.260	38895
554.323	40280
554.386	41953
554.449	40549
554.512	41087
554.575	38281
554.638	40208
554.701	38927
554.764	38649
554.827	35994
554.889	35028
554.952	31801
555.015	33712
555.078	32614
555.141	34523
555.203	32500
555.266	34374
555.329	33472
555.391	33444
555.454	31825
555.517	33055
555.580	29991
555.642	29598
555.705	27742
555.768	29020
555.830	27879
555.893	26944
555.955	24965
556.018	26508
556.080	25023
556.143	27307
556.206	25717
556.268	26298
556.330	25713
556.393	26801
556.455	23855
556.518	27655
556.580	28841
556.643	23585
556.705	22638
556.767	21927
556.830	23108
556.892	24386
556.955	33624
557.017	28720
557.079	21804
557.142	21430
557.204	22940
557.266	40835
557.328	37858
557.391	19074
557.453	17178
557.515	18293
557.577	22114
557.639	24698
557.701	19627
557.764	19273
557.826	19732
557.888	22183
557.950	22461
558.012	24239
558.074	30084
558.136	64771
558.198	184598
558.260	79935
558.322	27924
558.384	29201
558.446	32059
558.508	38639
558.570	46995
558.632	69630
558.694	102647
558.756	106661
558.818	306584
558.880	928030
558.942	339495
559.003	197237
559.065	112895
559.127	42262
559.189	39577
559.251	43021
559.312	58617
559.374	139054
559.436	548446
559.498	332193
559.559	49084
559.621	39640
559.683	41930
559.744	67098
559.806	224927
559.868	418790
559.929	85633
559.991	38104
560.052	54909
560.114	167793
560.176	126291
560.237	90378
560.299	178065
560.360	44914
560.422	16042
560.483	13330
560.545	12425
560.606	11905
560.667	9996
560.729	9954
560.790	10552
560.852	11163
560.913	10749
560.974	10799
561.036	9272
561.097	11689
561.158	10434
561.220	12443
561.281	11498
561.342	12344
561.403	13772
561.465	17051
561.526	43238
561.587	70452
561.648	18891
561.709	11584
561.771	10145
561.832	10680
561.893	9032
561.954	9432
562.015	9239
562.076	10960
562.137	8918
562.198	9592
562.259	9450
562.320	9844
562.381	10886
562.442	18383
562.503	15686
562.564	10672
562.625	9118
562.686	9761
562.747	10046
562.808	10930
562.869	8975
562.930	10631
562.991	10991
563.051	9745
563.112	8544
563.173	9376
563.234	8355
563.294	8658
563.355	8846
563.416	9863
563.477	7903
563.537	8390
563.598	9535
563.659	9975
563.720	9097
563.780	9934
563.841	10389
563.901	9789
563.962	9398
564.023	8818
564.083	9041
564.144	10155
564.204	8801
564.265	9844
564.325	9590
564.386	16543
564.446	15726
564.507	9400
564.567	8389
564.628	8747
564.688	8701
564.749	8893
564.809	9416
564.869	11221
564.930	9043
564.990	9997
565.050	8322
565.111	8424
565.171	8651
565.231	8711
565.292	7979
565.352	7212
565.412	9209
565.472	9200
565.532	10682
565.593	10020
565.653	8494
565.713	8883
565.773	10621
565.833	13047
565.893	17955
565.953	10310
566.013	9470
566.074	9549
566.134	11430
566.194	15885
566.254	18715
566.314	13788
566.374	9598
566.434	9132
566.494	8585
566.554	9292
566.614	9156
566.673	9524
566.733	10771
566.793	10604
566.853	11031
566.913	11364
566.973	10883
567.033	12356
567.092	12194
567.152	14694
567.212	14395
567.272	11906
567.331	11718
567.391	12141
567.451	12903
567.511	15776
567.570	16707
567.630	12603
567.690	11156
567.749	11914
567.809	12560
567.868	14421
567.928	15269
567.988	17170
568.047	19296
568.107	23475
568.166	30394
568.226	52604
568.285	80126
568.345	64918
568.404	44331
568.464	38176
568.523	32744
568.582	34455
568.642	38369
568.701	49925
568.761	75414
568.820	132347
568.879	126391
568.939	82015
568.998	54167
569.057	38342
569.116	29132
569.176	22976
569.235	19296
569.294	16847
569.353	13790
569.413	14559
569.472	12759
569.531	12039
569.590	11120
569.649	12001
569.708	10300
569.767	11619
569.827	13495
569.886	11771
569.945	9670
570.004	12610
570.063	10858
570.122	10585
570.181	11721
570.240	10546
570.299	11283
570.358	12244
570.417	9714
570.475	9456
570.534	10343
570.593	10864
570.652	10493
570.711	10334
570.770	10013
570.829	12580
570.887	10826
570.946	14421
571.005	9464
571.064	9906
571.122	11459
571.181	12326
571.240	8586
571.299	8196
571.357	7784
571.416	9224
571.475	8750
571.533	11239
571.592	8427
571.650	8956
571.709	8303
571.768	10066
571.826	8160
571.885	8533
571.943	7076
572.002	8178
572.060	7382
572.119	7420
572.177	7385
572.236	7411
572.294	6541
572.352	7551
572.411	7865
572.469	7059
572.528	6435
572.586	8414
572.644	8601
572.703	12781
572.761	8645
572.819	7314
572.877	6654
572.936	6821
572.994	6605
573.052	7278
573.110	6983
573.169	8707
573.227	6809
573.285	7545
573.343	7278
573.401	6753
573.459	7070
573.517	6240
573.576	6544
573.634	8447
573.692	7745
573.750	7781
573.808	5841
573.866	7224
573.924	8317
573.982	8647
574.040	7216
574.098	6928
574.155	6686
574.213	7049
574.271	7010
574.329	7875
574.387	6727
574.445	6959
574.503	5688
574.560	5919
574.618	5334
574.676	7289
574.734	5398
574.792	7653
574.849	5550
574.907	5490
574.965	4990
575.022	6516
575.080	6155
575.138	6292
575.195	7003
575.253	6319
575.311	7521
575.368	6716
575.426	5146
575.483	6130
575.541	5909
575.598	5736
575.656	4967
575.713	7066
575.771	6150
575.828	6401
575.886	5226
575.943	6884
576.001	5358
576.058	6702
576.115	6198
576.173	7775
576.230	9418
576.287	11875
576.345	8554
576.402	6597
576.459	6578
576.517	6485
576.574	7516
576.631	8246
576.688	5786
576.746	6214
576.803	6410
576.860	5283
576.917	4762
576.974	6716
577.031	6269
577.089	6023
577.146	4987
577.203	6815
577.260	6788
577.317	6855
577.374	7069
577.431	7332
577.488	6917
577.545	6356
577.602	6112
577.659	6550
577.716	5470
577.773	5472
577.830	5046
577.886	5935
577.943	5558
578.000	6051
578.057	6421
578.114	7106
578.171	6225
578.227	7367
578.284	5105
578.341	7342
578.398	6632
578.454	6557
578.511	7166
578.568	8593
578.625	6041
578.681	6403
578.738	5611
578.794	6476
578.851	6003
578.908	7514
578.964	6275
579.021	6709
579.077	6515
579.134	7264
579.190	5805
579.247	6722
579.303	5471
579.360	5985
579.416	5875
579.473	5073
579.529	5276
579.586	5936
579.642	5138
579.698	5909
579.755	6071
579.811	7504
579.867	6159
579.924	6046
579.980	5115
580.036	6812
580.093	6857
580.149	8286
580.205	8450
580.261	7613
580.317	7298
580.374	8450
580.430	8805
580.486	7832
580.542	6894
580.598	7147
580.619	7315
580.654	7612
580.692	7433
580.710	7355
580.765	6756
580.767	6740
580.823	7145
580.838	7054
580.879	6805
580.911	6757
580.935	6731
580.984	5881
580.991	5769
581.047	7602
581.057	7378
581.103	6390
581.130	6714
581.159	7048
581.203	7225
581.215	7277
581.270	6795
581.276	6756
581.326	6419
581.349	6666
581.382	7020
581.422	6597
581.438	6419
581.494	7063
581.494	7068
581.550	7698
581.567	8159
581.606	9076
581.640	7917
581.661	7255
581.713	7916
581.717	7967
581.773	6709
581.786	6806
581.829	7094
581.859	7154
581.885	7212
581.932	7334
581.940	7373
581.996	8104
582.004	7987
582.052	7258
582.077	7037
582.107	6760
582.150	7366
582.163	7564
582.219	7273
582.223	7322
582.274	7988
582.296	8177
582.330	8427
582.368	8523
582.386	8590
582.441	7011
582.441	7007
582.497	7214
582.514	7478
582.552	8171
582.587	7998
582.608	7859
582.659	7212
582.663	7161
582.719	9037
582.732	8780
582.774	7904
582.805	7661
582.830	7516
582.877	8130
582.885	8228
582.941	8374
582.950	8523
582.996	9113
583.023	9520
583.052	10229
583.095	9749
583.107	9517
583.162	9710
583.168	9772
583.218	10317
583.240	9806
583.273	9130
583.313	8499
583.328	8257
583.384	9244
583.385	9206
583.439	8153
583.458	8446
583.494	8948
583.531	8354
583.549	8067
583.603	8972
583.605	8999
583.660	8607
583.676	8672
583.715	8976
583.748	9019
583.770	8989
583.820	9648
583.825	9719
583.881	9340
583.893	9369
583.936	9390
583.965	9212
583.991	9076
584.038	9641
584.046	9749
584.101	9129
584.110	9197
584.156	9645
584.183	9616
584.211	9411
584.255	9651
584.266	9783
584.321	9713
584.328	9779
584.376	10203
584.400	9934
584.431	9586
584.472	9906
584.486	10065
584.541	10758
584.545	10765
584.596	10703
584.617	10646
584.651	10915
584.689	11647
584.706	11757
584.761	11479
584.762	11473
584.816	11870
584.834	12019
584.871	12182
584.906	12695
584.926	12985
584.978	12879
584.980	12894
585.035	13547
585.051	13920
585.090	15185
585.123	15963
585.145	16239
585.195	16822
585.200	16963
585.254	18864
585.267	19573
585.309	21807
585.340	23727
585.364	25193
585.412	26860
585.419	27162
585.473	30782
585.484	31832
585.528	38706
585.556	45856
585.583	61307
585.628	98366
585.637	113068
585.692	237438
585.700	261872
585.747	348447
585.772	297586
585.801	184235
585.845	60439
585.856	46538
585.910	29093
585.917	27305
585.965	23201
585.989	21778
586.019	20737
586.061	19615
586.074	19443
586.128	19629
586.133	19617
586.183	20012
586.205	20448
586.237	20851
586.277	20481
586.292	20224
586.346	19739
586.349	19659
586.401	19287
586.421	19484
586.455	20028
586.493	20678
586.509	21844
586.564	25860
586.565	26003
586.618	35036
586.637	36359
586.672	32963
586.709	27061
586.727	25388
586.781	25798
586.781	25825
586.835	22623
586.853	22086
586.889	21665
586.925	21263
586.944	21274
586.996	22153
586.998	22217
587.052	22273
587.068	22559
587.106	23298
587.140	23398
587.161	23472
587.212	24460
587.215	24565
587.269	25390
587.284	25706
587.323	26588
587.356	27118
587.377	27648
587.427	29084
587.431	29208
587.485	30166
587.499	30283
587.539	31344
587.571	32361
587.593	33307
587.643	35307
587.648	35520
587.702	36871
587.715	37405
587.755	39901
587.786	41135
587.810	42014
587.858	44199
587.864	44697
587.917	49411
587.930	50413
587.971	54506
588.001	57277
588.025	59784
588.073	65045
588.079	65969
588.133	73228
588.145	75009
588.187	83719
588.217	89589
588.241	96022
588.288	109598
588.295	111957
588.348	131203
588.360	135547
588.402	155090
588.431	168361
588.456	181432
588.503	208306
588.510	213534
588.564	255279
588.575	264426
588.617	314584
588.646	351507
588.671	401904
588.718	505512
588.725	536162
588.778	789914
588.789	847749
588.832	1300903
588.861	1633276
588.886	1990513
588.932	2655198
588.939	2671082
588.993	2561811
589.004	2545242
589.047	2204836
589.075	1880307
589.100	1517170
589.147	867403
589.154	830664
589.207	594274
589.218	549488
589.261	503819
589.290	479417
589.314	502107
589.361	556471
589.368	587077
589.421	854124
589.433	916831
589.475	1443199
589.504	1834079
589.528	2087388
589.576	2486594
589.582	2438798
589.635	1883325
589.647	1738818
589.689	1082942
589.718	645943
589.742	520660
589.790	304781
589.795	295682
589.849	216502
589.861	199236
589.902	170832
589.932	149904
589.955	138137
590.004	114184
590.009	112854
590.062	96830
590.075	92921
590.115	85916
590.146	80433
590.168	77657
590.218	71285
590.222	71052
590.275	65961
590.289	64596
590.328	62528
590.360	60408
590.381	59071
590.431	55963
590.435	55897
590.488	52443
590.503	51438
590.541	50397
590.574	49143
590.594	48452
590.645	46688
590.647	46769
590.700	45578
590.716	45307
590.753	44115
590.787	42499
590.806	42311
590.859	41782
590.859	41875
590.912	40988
590.930	40735
590.965	41367
591.001	41552
591.018	41103
591.071	39624
591.072	39507
591.124	39020
591.143	38846
591.177	39102
591.214	39031
591.230	39116
591.283	39162
591.285	39061
591.336	40689
591.356	41232
591.389	41878
591.427	42214
591.442	41253
591.495	37126
591.498	36730
591.547	35609
591.569	35040
591.600	35133
591.640	34907
591.653	35068
591.706	35427
591.711	35367
591.759	36363
591.782	36772
591.811	38033
591.853	39551
591.864	39149
591.917	36514
591.924	36030
591.969	35709
591.995	35388
592.022	35494
592.066	35431
592.075	35933
592.127	38438
592.137	38801
592.180	40150
592.208	40838
592.233	39294
592.279	35906
592.285	36033
592.338	36416
592.350	36393
592.390	36368
592.421	36189
592.443	36143
592.491	35704
592.495	35805
592.548	35852
592.562	35772
592.600	36110
592.633	36218
592.653	36128
592.704	35449
592.705	35680
592.775	37067
592.846	37423
592.916	39499
592.987	41710
593.058	39535
593.128	36894
593.199	35818
593.270	36093
593.341	36795
593.411	39194
593.482	39128
593.553	37556
593.623	37189
593.694	38894
593.764	39327
593.835	37946
593.906	38225
593.976	38456
594.047	39224
594.117	42439
594.188	42813
594.258	40412
594.329	39446
594.399	40627
594.470	41420
594.540	42197
594.611	41566
594.681	40965
594.751	41838
594.822	47862
594.892	47781
594.963	46700
595.033	45181
595.103	47285
595.174	48317
595.244	57548
595.314	62169
595.384	49889
595.455	50147
595.525	51131
595.595	51778
595.665	52072
595.736	50475
595.806	52322
595.876	51033
595.946	51628
596.016	52948
596.087	54765
596.157	54913
596.227	54857
596.297	57961
596.367	61842
596.437	65022
596.507	70106
596.577	74993
596.647	65816
596.717	66397
596.787	67769
596.857	68274
596.927	67576
596.997	67487
597.067	68884
597.137	72231
597.207	71331
597.277	70896
597.347	67220
597.417	66077
597.487	69055
597.557	70080
597.626	71740
597.696	72531
597.766	74827
597.836	77176
597.906	65055
597.975	62021
598.045	62909
598.115	66087
598.185	70096
598.254	77881
598.324	85240
598.394	87266
598.464	83705
598.533	80778
598.603	75934
598.672	75137
598.742	76698
598.812	75734
598.881	78709
598.951	76298
599.020	76657
599.090	80738
599.159	81777
599.229	77090
599.299	76337
599.368	79002
599.437	77516
599.507	71500
599.576	70469
599.646	69348
599.715	69479
599.785	68164
599.854	67375
599.924	68210
599.993	67306
600.062	67086
600.132	68710
600.201	73092
600.270	85196
600.340	86498
600.409	83466
600.478	83198
600.547	85467
600.617	79631
600.686	66279
600.755	62391
600.824	63137
600.894	61155
600.963	57956
601.032	57923
601.101	55787
601.170	54762
601.239	53505
601.308	54447
601.378	53115
601.447	53959
601.516	54138
601.585	55349
601.654	57816
601.723	56114
601.792	58906
601.861	60772
601.930	65422
601.999	68708
602.068	64017
602.137	66303
602.206	66411
602.275	66554
602.343	74446
602.412	73828
602.481	66955
602.550	65408
602.619	67974
602.688	69108
602.756	69406
602.825	67392
602.894	69059
602.963	70304
603.032	72005
603.100	70704
603.169	69943
603.238	72294
603.307	71345
603.375	72466
603.444	74962
603.513	74816
603.581	75719
603.650	79031
603.719	73969
603.787	73413
603.856	76043
603.924	78579
603.993	81433
604.061	82516
604.130	86768
604.198	88771
604.267	89356
604.335	91022
604.404	90157
604.472	91880
604.541	93233
604.609	94051
604.678	95661
604.746	95093
604.815	99331
604.883	99695
604.951	99228
605.020	100205
605.088	102435
605.156	101941
605.225	103093
605.293	102554
605.361	104838
605.429	103492
605.498	108358
605.566	111259
605.634	115701
605.702	117448
605.771	120268
605.839	119542
605.907	117414
605.975	115090
606.043	110677
606.111	110574
606.180	112815
606.248	108800
606.316	108092
606.384	110704
606.452	113447
606.520	120812
606.588	114726
606.656	109503
606.724	108458
606.792	101875
606.860	92145
606.928	82783
606.996	80674
607.064	78417
607.132	81473
607.200	86490
607.267	90507
607.335	91199
607.403	93774
607.471	91202
607.539	86633
607.607	88026
607.674	77837
607.742	79523
607.810	80372
607.878	80407
607.946	81333
608.013	84402
608.081	84950
608.149	86632
608.216	87912
608.284	89957
608.352	90624
608.419	90313
608.487	93541
608.555	87574
608.622	89472
608.690	91814
608.757	103330
608.825	105916
608.893	103454
608.960	101787
609.028	98432
609.095	99772
609.163	93671
609.230	83210
609.298	75982
609.365	78782
609.432	87444
609.500	92652
609.567	107589
609.635	123271
609.702	129362
609.769	123907
609.837	99318
609.904	84465
609.971	87422
610.039	100374
610.106	133675
610.173	260605
610.241	608058
610.308	333886
610.375	127782
610.442	92625
610.509	85438
610.577	85434
610.644	85910
610.711	88448
610.778	90840
610.845	94873
610.912	101372
610.980	105316
611.047	106533
611.114	105541
611.181	99632
611.248	96800
611.315	106063
611.382	106839
611.449	110693
611.516	114818
611.583	111458
611.650	112421
611.717	115710
611.784	118065
611.851	126103
611.918	138497
611.984	164220
612.051	246746
612.118	526735
612.185	1359726
612.252	780000
612.319	181771
612.386	150410
612.452	135754
612.519	130938
612.586	132005
612.653	131294
612.719	133177
612.786	127058
612.853	116241
612.919	114277
612.986	116893
613.053	110583
613.120	103492
613.186	98406
613.253	101733
613.319	101414
613.386	101727
613.453	104365
613.519	108409
613.586	116206
613.652	133518
613.719	119928
613.785	116584
613.852	104914
613.918	103120
613.985	106253
614.051	113835
614.118	121408
614.184	116437
614.250	102999
614.317	104793
614.383	103596
614.449	104889
614.516	105450
614.582	105925
614.648	102983
614.715	102210
614.781	102140
614.847	102567
614.914	102322
614.980	96497
615.046	98685
615.112	101585
615.179	101155
615.245	104912
615.311	110464
615.377	125442
615.443	127571
615.509	109581
615.575	112272
615.642	111108
615.708	115760
615.774	122841
615.840	131885
615.906	149640
615.972	202523
616.038	337403
616.104	701914
616.170	1699688
616.236	1357909
616.302	266390
616.368	190540
616.434	140131
616.500	133600
616.565	143729
616.631	179416
616.697	143895
616.763	151509
616.829	227815
616.895	408773
616.961	370033
617.026	153750
617.092	113469
617.158	106743
617.224	104983
617.289	97959
617.355	92938
617.421	92548
617.487	92146
617.552	86954
617.618	85731
617.684	86258
617.749	88212
617.815	83922
617.880	82410
617.946	81902
618.012	83525
618.077	84985
618.143	80825
618.208	81254
618.274	88133
618.339	90564
618.405	72766
618.470	73493
618.536	74086
618.601	73698
618.667	68655
618.732	65364
618.798	65087
618.863	64737
618.928	62959
618.994	67400
619.059	71551
619.124	85952
619.190	71030
619.255	62465
619.320	64596
619.386	63238
619.451	61675
619.516	60293
619.581	61805
619.647	62109
619.712	63272
619.777	60105
619.842	60742
619.907	63178
619.972	64530
620.038	62926
620.103	59858
620.168	59316
620.233	61341
620.298	60860
620.363	62647
620.428	63983
620.493	66228
620.558	65959
620.623	66534
620.688	66008
620.753	65362
620.818	66912
620.883	65626
620.948	67009
621.013	67195
621.078	65238
621.143	64499
621.207	67506
621.272	65797
621.337	67406
621.402	66065
621.467	68886
621.532	69448
621.596	65432
621.661	61877
621.726	60262
621.791	62879
621.855	63948
621.920	65494
621.985	65066
622.049	68275
622.114	67260
622.179	65177
622.243	67922
622.308	67984
622.373	71155
622.437	69127
622.502	65150
622.566	64020
622.631	64269
622.695	67667
622.760	67077
622.824	66843
622.889	67483
622.953	72296
623.018	92795
623.082	90987
623.147	69976
623.211	69917
623.276	70257
623.340	65174
623.404	62309
623.469	62411
623.533	63062
623.597	60829
623.662	62203
623.726	58426
623.790	54352
623.854	53175
623.919	55046
623.983	55535
624.047	56036
624.111	56313
624.176	58789
624.240	59046
624.304	63172
624.368	57653
624.432	57672
624.496	61488
624.560	67132
624.625	71410
624.689	62560
624.753	64264
624.817	61928
624.881	58316
624.945	55446
625.009	53020
625.073	54218
625.137	58016
625.201	70093
625.265	68496
625.329	57516
625.393	60559
625.456	59375
625.520	60165
625.584	63308
625.648	66508
625.712	76949
625.776	112098
625.839	118152
625.903	65980
625.967	50697
626.031	64240
626.095	86256
626.158	58810
626.222	42796
626.286	40428
626.349	39216
626.413	37568
626.477	40420
626.540	38886
626.604	37417
626.668	36128
626.731	35072
626.795	36782
626.858	37335
626.922	35691
626.986	36651
627.049	34903
627.113	37176
627.176	36302
627.240	34300
627.303	34125
627.366	34817
627.430	35614
627.493	35008
627.557	34521
627.620	35768
627.684	36596
627.747	37332
627.810	32794
627.874	31504
627.937	29138
628.000	32935
628.064	31792
628.127	26786
628.190	27593
628.253	28387
628.317	27005
628.380	25621
628.443	25082
628.506	25465
628.569	24053
628.632	22117
628.696	21761
628.759	21727
628.822	21384
628.885	21693
628.948	21018
629.011	22424
629.074	21500
629.137	19993
629.200	20448
629.263	22298
629.326	18676
629.389	19285
629.452	19874
629.515	20028
629.578	21074
629.641	21931
629.704	20533
629.767	20944
629.830	19039
629.892	19428
629.955	19148
630.018	23155
630.081	23930
630.144	31924
630.207	22843
630.269	23006
630.332	20251
630.395	19600
630.458	19619
630.520	19617
630.583	19450
630.646	18948
630.708	18337
630.771	17423
630.834	19556
630.896	17944
630.959	18503
631.021	17237
631.084	18013
631.146	20284
631.209	21364
631.272	18277
631.334	18762
631.397	18788
631.459	17910
631.522	21434
631.584	20986
631.646	22582
631.709	24305
631.771	29667
631.834	23291
631.896	20716
631.958	18582
632.021	18601
632.083	17556
632.145	19131
632.208	17760
632.270	19185
632.332	15846
632.395	17099
632.457	17477
632.519	17379
632.581	18117
632.643	16680
632.706	17296
632.768	16176
632.830	17593
632.892	16730
632.954	16766
633.016	17828
633.078	16759
633.141	17347
633.203	17497
633.265	17441
633.327	17623
633.389	17540
633.451	19846
633.513	23621
633.575	21773
633.637	22423
633.698	20569
633.760	18697
633.822	18762
633.884	19357
633.946	18104
634.008	20211
634.070	19531
634.132	20701
634.193	22581
634.255	25632
634.317	25506
634.379	26147
634.441	22237
634.502	20203
634.564	19639
634.626	19890
634.687	19596
634.749	17229
634.811	16523
634.873	15434
634.934	16135
634.996	16709
635.057	15236
635.119	16642
635.181	16471
635.242	17664
635.304	13901
635.365	17861
635.427	16532
635.488	16891
635.550	15880
635.611	16415
635.673	14487
635.734	19364
635.796	18503
635.857	21363
635.918	21250
635.980	24883
636.041	24445
636.102	25912
636.164	25491
636.225	26550
636.286	21024
636.348	19830
636.409	18234
636.470	16697
636.531	16814
636.593	16940
636.654	16519
636.715	14220
636.776	14294
636.838	13550
636.899	15083
636.960	14127
637.021	13672
637.082	14206
637.143	14184
637.204	12220
637.265	12290
637.326	13060
637.387	13688
637.448	12398
637.509	13112
637.570	12731
637.631	13286
637.692	12965
637.753	10848
637.814	13317
637.875	11998
637.936	12270
637.997	12712
638.058	13576
638.119	13028
638.179	11959
638.240	11841
638.301	12075
638.362	11048
638.423	10521
638.483	12791
638.544	10516
638.605	12300
638.666	11794
638.726	11724
638.787	12396
638.848	11204
638.908	11473
638.969	11132
639.030	11191
639.090	9523
639.151	11073
639.211	12921
639.272	17036
639.332	28413
639.393	17042
639.453	12314
639.514	11903
639.574	11939
639.635	11209
639.695	11965
639.756	10522
639.816	12500
639.877	16024
639.937	27799
639.997	36289
640.058	12902
640.118	10676
640.178	11920
640.239	9887
640.299	10068
640.359	9319
640.420	10876
640.480	11913
640.540	14300
640.600	13263
640.661	12940
640.721	13595
640.781	19230
640.841	15134
640.901	11461
640.961	11083
641.021	13498
641.082	15129
641.142	21629
641.202	13527
641.262	7679
641.322	10183
641.382	8820
641.442	10345
641.502	9871
641.562	10793
641.622	9898
641.682	11095
641.742	11837
641.802	11393
641.861	11537
641.921	11237
641.981	13469
642.041	12705
642.101	16305
642.161	10772
642.221	9520
642.280	8801
642.340	7742
642.400	8404
642.460	10194
642.519	8995
642.579	9014
642.639	10256
642.698	7721
642.758	10794
642.818	9218
642.877	9479
642.937	9861
642.997	13504
643.056	19654
643.116	11381
643.175	11058
643.235	9986
643.294	10726
643.354	11464
643.414	13972
643.473	18099
643.532	22461
643.592	32724
643.651	55310
643.711	100556
643.770	205297
643.830	506421
643.889	1125864
643.948	242426
644.008	35300
644.067	22204
644.126	16576
644.186	13706
644.245	12655
644.304	9954
644.363	13053
644.423	9588
644.482	9568
644.541	12004
644.600	10463
644.659	14790
644.719	17144
644.778	27943
644.837	48247
644.896	99372
644.955	235219
645.014	74381
645.073	16977
645.132	11391
645.191	11574
645.250	11057
645.309	12941
645.368	12046
645.427	16520
645.486	25054
645.545	44615
645.604	14552
645.663	11483
645.722	11319
645.781	12214
645.840	15027
645.898	19585
645.957	30246
646.016	48082
646.075	92464
646.134	184111
646.192	507838
646.251	768478
646.310	99724
646.369	24779
646.427	19508
646.486	13953
646.545	11830
646.603	10948
646.662	11072
646.721	10151
646.779	8285
646.838	9031
646.896	14778
646.955	17513
647.014	27746
647.072	52078
647.131	145972
647.189	69452
647.248	10878
647.306	9469
647.365	8409
647.423	5967
647.481	8810
647.540	5838
647.598	8209
647.657	6181
647.715	7070
647.773	6421
647.832	7699
647.890	4640
647.948	5479
648.007	6671
648.065	5327
648.123	5695
648.181	7487
648.240	6618
648.298	5351
648.356	5590
648.414	6017
648.472	6276
648.531	6214
648.589	5639
648.647	6765
648.705	6025
648.763	6975
648.821	6555
648.879	7268
648.937	8621
648.995	11236
649.053	14178
649.111	21528
649.169	37248
649.227	68348
649.285	145690
649.343	433737
649.401	205474
649.459	48362
649.516	28217
649.574	13050
649.632	17745
649.690	19775
649.748	15077
649.806	19702
649.863	36004
649.921	99619
649.979	65171
650.037	10242
650.094	5416
650.152	7773
650.210	5228
650.268	5949
650.325	6318
650.383	7723
650.440	4618
650.498	5806
650.556	5306
650.613	4363
650.671	5204
650.728	5244
650.786	5014
650.843	6388
650.901	4025
650.958	5302
651.016	4931
651.073	4223
651.131	3953
651.188	3364
651.246	4567
651.303	4062
651.360	4577
651.418	3810
651.475	4100
651.532	3137
651.590	4015
651.647	3723
651.704	3929
651.762	4334
651.819	4839
651.876	4317
651.933	4312
651.990	4540
652.048	2669
652.105	3910
652.162	4421
652.219	3418
652.276	3961
652.333	4508
652.390	3079
652.448	4403
652.505	3974
652.562	3643
652.619	3729
652.676	5393
652.733	4808
652.790	3760
652.847	1923
652.904	3881
652.961	2216
653.017	2311
653.074	4402
653.131	4296
653.188	3078
653.245	4001
653.302	3008
653.359	3096
653.415	4435
653.472	3195
653.529	3579
653.586	3001
653.642	3163
653.699	4372
653.756	3292
653.813	2930
653.869	3152
653.926	2855
653.983	2445
654.039	3587
654.096	3522
654.152	3277
654.209	3142
654.266	3464
654.322	2753
654.379	4522
654.435	4931
654.492	4455
654.548	7844
654.605	11746
654.661	5196
654.717	3519
654.774	4849
654.830	4370
654.887	3924
654.943	4241
655.000	4647
655.056	4295
655.112	3856
655.168	2915
655.225	3011
655.281	4163
655.337	5091
655.394	7244
655.450	6133
655.506	5596
655.562	7522
655.618	7712
655.675	3817
655.731	3912
655.787	3984
655.843	4315
655.899	2517
655.955	4883
656.011	4245
656.067	3794
656.123	5233
656.179	5310
656.235	7423
656.291	4895
656.347	5695
656.403	3954
656.459	4522
656.515	5359
656.571	3784
656.627	3199
656.683	3314
656.739	4485
656.795	4098
656.850	5351
656.906	5637
656.962	4802
657.018	2386
657.074	4318
657.129	4387
657.185	6295
657.241	12580
657.297	8097
657.352	3736
657.408	3153
657.464	4531
657.519	2924
657.575	1885
657.630	2531
657.686	2541
657.742	2516
657.797	3434
657.853	3029
657.908	3953
657.964	2507
658.019	2421
658.075	3171
658.130	2788
658.186	2104
658.241	3775
658.297	2537
658.352	1871
658.407	3681
658.463	2476
658.518	3318
658.573	2647
658.629	1769
658.684	2572
658.739	3706
658.795	2140
658.850	2694
658.905	2597
658.960	2113
659.016	2125
659.071	3032
659.126	3379
659.181	4291
659.236	8526
659.291	9800
659.346	4247
659.401	4119
659.457	3092
659.512	2293
659.567	3713
659.622	3484
659.677	2201
659.732	1993
659.787	3112
659.842	2917
659.897	3706
659.952	3643
660.007	2047
660.061	3076
660.116	2809
660.171	2967
660.226	2935
660.281	3977
660.336	2576
660.391	3580
660.445	1730
660.500	2397
660.555	3010
660.610	2257
660.664	3080
660.719	2888
660.774	3008
660.828	3582
660.883	3864
660.938	3268
660.992	1722
661.047	3618
661.101	2761
661.156	2031
661.211	1708
661.265	2708
661.320	2112
661.374	2284
661.429	2031
661.483	2984
661.538	1847
661.592	2447
661.647	2767
661.701	3773
661.755	3350
661.810	2349
661.864	2643
661.919	2088
661.973	3197
662.027	2714
662.081	2042
662.136	1986
662.190	3734
662.244	2938
662.299	2309
662.353	2993
662.407	1344
662.461	3053
662.515	2357
662.569	2758
662.624	3353
662.678	2198
662.732	2751
662.786	2708
662.840	2831
662.894	2502
662.948	2347
663.002	2188
663.056	2838
663.110	1696
663.164	2222
663.218	3151
663.272	2864
663.326	3153
663.380	3680
663.434	3638
663.488	2355
663.542	2345
663.595	2908
663.649	2614
663.703	2992
663.757	2234
663.811	2640
663.864	2589
663.918	2213
663.972	2545
664.026	2317
664.079	2187
664.133	2079
664.187	2171
664.240	2348
664.294	2665
664.348	3222
664.401	2901
664.455	3244
664.508	2323
664.562	1613
664.615	2716
664.669	2484
664.722	2463
664.776	2112
664.829	2005
664.883	2665
664.936	1964
664.990	2368
665.043	3481
665.097	2487
665.150	4059
665.203	1918
665.257	2914
665.310	3004
665.363	2358
665.417	3089
665.470	3130
665.523	2771
665.576	2951
665.630	2825
665.683	2389
665.736	2028
665.789	3556
665.842	2833
665.895	2616
665.949	2362
666.002	1969
666.055	2356
666.108	3534
666.161	2401
666.214	3222
666.267	4051
666.320	4493
666.373	2973
666.426	2425
666.479	2517
666.532	3034
666.585	4047
666.638	4260
666.691	3165
666.744	3442
666.796	2927
666.849	2922
666.902	3263
666.955	2593
667.008	2610
667.060	2284
667.113	2012
667.166	2544
667.219	2532
667.271	2484
667.324	3218
667.377	3244
667.430	2545
667.482	2368
667.535	2795
667.587	3178
667.640	3702
667.693	4763
667.745	9504
667.798	9399
667.850	3419
667.903	2739
667.955	2969
668.008	2581
668.060	2791
668.113	3358
668.165	2588
668.218	3049
668.270	3273
668.322	2570
668.375	2012
668.427	2868
668.479	1836
668.532	3104
668.584	3393
668.636	2586
668.689	2593
668.741	2443
668.793	2310
668.845	2952
668.898	3232
668.950	3483
669.002	2568
669.054	3257
669.106	2718
669.158	3510
669.211	3120
669.263	2237
669.315	3445
669.367	3404
669.419	3317
669.471	5858
669.523	6099
669.575	10085
669.627	7354
669.679	4170
669.731	3899
669.783	4854
669.835	6109
669.886	4988
669.938	3154
669.990	3997
670.042	2251
670.094	3273
670.146	3160
670.197	3831
670.249	4913
670.301	6004
670.353	7915
670.404	11021
670.456	15967
670.508	25262
670.560	41784
670.611	69303
670.663	120767
670.715	297980
670.766	482190
670.818	128145
670.869	19662
670.921	11532
670.972	9045
671.024	6503
671.075	5726
671.127	4880
671.178	4461
671.230	4511
671.281	3869
671.333	4144
671.384	4592
671.436	4902
671.487	6218
671.538	8474
671.590	12339
671.641	18665
671.692	34599
671.744	66580
671.795	38693
671.846	12092
671.897	5919
671.949	5332
672.000	4224
672.051	3582
672.102	4744
672.153	2685
672.204	3390
672.256	3657
672.307	2866
672.358	2259
672.409	3271
672.460	2765
672.511	2007
672.562	2373
672.613	3288
672.664	3246
672.715	2557
672.766	1849
672.817	1959
672.868	2221
672.919	2832
672.970	2325
673.021	2227
673.071	1939
673.122	2384
673.173	2575
673.224	2412
673.275	2663
673.326	1806
673.376	2645
673.427	2167
673.478	1667
673.528	2136
673.579	2321
673.630	1618
673.680	2468
673.731	2537
673.782	2317
673.832	2206
673.883	2211
673.934	985
673.984	2582
674.035	1701
674.085	2508
674.136	1840
674.186	2681
674.237	2633
674.287	4068
674.338	2217
674.388	2171
674.438	1863
674.489	2637
674.539	2124
674.589	2773
674.640	2285
674.690	1952
674.740	2265
674.791	2436
674.841	2176
674.891	2599
674.942	3444
674.992	2062
675.042	1750
675.092	1878
675.142	2110
675.193	1883
675.243	1650
675.293	1320
675.343	1703
675.393	1980
675.443	1196
675.493	2026
675.543	1413
675.593	1538
675.643	2219
675.693	2690
675.743	1508
675.793	2534
675.843	1426
675.893	1907
675.943	1896
675.993	2014
676.043	1966
676.093	2826
676.142	1659
676.192	2242
676.242	1750
676.292	703
676.341	1424
676.391	1716
676.441	1092
676.491	1188
676.540	1158
676.590	1353
676.640	1291
676.689	1678
676.739	91
676.789	1757
676.838	896
676.888	1349
676.937	1776
676.987	997
677.037	1074
677.086	386
677.136	1115
677.185	1372
677.235	1093
677.284	1216
677.333	882
677.383	1226
677.432	398
677.482	1680
677.531	2027
677.580	1006
677.630	190
677.679	857
677.728	1805
677.778	1998
677.827	856
677.876	2278
677.925	1962
677.975	1086
678.024	1837
678.073	747
678.122	1107
678.171	1214
678.220	1492
678.269	1994
678.319	1873
678.368	2749
678.417	1996
678.466	2583
678.515	2180
678.564	1630
678.613	1261
678.662	1810
678.711	786
678.760	994
678.809	1313
678.857	948
678.906	1987
678.955	1947
679.004	1130
679.053	1202
679.102	2119
679.151	1095
679.199	1271
679.248	1415
679.297	1157
679.346	1947
679.394	1129
679.443	1541
679.492	1818
679.540	794
679.589	1337
679.638	536
679.686	854
679.735	1170
679.784	1614
679.832	1387
679.881	455
679.929	964
679.978	665
680.026	1382
680.075	1322
680.123	659
680.172	1192
680.220	767
680.268	1057
680.317	1818
680.365	1412
680.414	646
680.462	674
680.510	1308
680.559	79
680.607	1011
680.655	1152
680.703	528
680.752	1462
680.800	1021
680.848	-22
680.896	121
680.945	559
680.993	410
681.041	546
681.089	1781
681.137	818
681.185	1090
681.233	802
681.258	833
681.281	846
681.329	1220
681.377	480
681.380	529
681.425	1159
681.473	1758
681.502	1313
681.521	970
681.569	1925
681.617	1075
681.624	1016
681.665	522
681.713	1665
681.745	1609
681.761	1561
681.809	830
681.857	2314
681.867	2052
681.904	1108
681.952	1826
681.989	1316
682.000	1129
682.048	1422
682.096	1124
682.111	1448
682.143	2091
682.191	1295
682.233	1689
682.239	1731
682.286	1445
682.334	1352
682.354	1254
682.382	1100
682.430	2103
682.476	1413
682.477	1384
682.525	2369
682.572	1235
682.598	1410
682.620	1543
682.667	1690
682.715	2113
682.720	2066
682.763	1485
682.810	1903
682.841	2516
682.857	2774
682.905	1712
682.952	1936
682.963	1924
683.000	1857
683.047	1762
683.085	2562
683.095	2763
683.142	2185
683.190	2018
683.206	1902
683.237	1692
683.284	2046
683.328	2494
683.332	2515
683.379	2032
683.426	2053
683.449	2473
683.473	2912
683.521	2207
683.568	2352
683.571	2399
683.615	2852
683.662	2538
683.693	2536
683.709	2503
683.757	2251
683.804	2800
683.814	2793
683.851	2771
683.898	2641
683.936	2699
683.945	2697
683.992	2444
684.039	2913
684.057	3091
684.086	3409
684.133	3609
684.179	2975
684.180	2935
684.227	3986
684.274	3485
684.300	3940
684.321	4311
684.368	3399
684.415	3327
684.422	3303
684.462	2913
684.509	3137
684.543	2838
684.556	2778
684.603	2628
684.649	2756
684.665	2915
684.696	3278
684.743	3010
684.786	2933
684.790	2913
684.837	2867
684.883	3754
684.908	3706
684.930	3645
684.977	3148
685.023	2934
685.029	3000
685.070	3395
685.117	2818
685.150	3509
685.164	3813
685.210	4443
685.257	4295
685.272	4239
685.303	3963
685.350	4221
685.393	3970
685.396	3968
685.443	4525
685.490	5716
685.514	5537
685.536	5116
685.583	4408
685.629	4349
685.636	4272
685.675	3954
685.722	4501
685.757	4232
685.768	4155
685.815	3997
685.861	3956
685.878	4067
685.908	4215
685.954	4605
686.000	4594
686.000	4593
686.047	4607
686.093	5328
686.121	4973
686.139	4608
686.185	5330
686.232	4438
686.242	4443
686.278	4418
686.324	4347
686.363	4257
686.370	4256
686.416	3671
686.463	4416
686.484	4526
686.509	4739
686.555	4442
686.601	4234
686.606	4303
686.647	4731
686.693	4616
686.727	4324
686.739	4224
686.785	3901
686.831	4456
686.848	4432
686.877	4420
686.923	3996
686.969	4367
686.969	4367
687.015	4241
687.061	4061
687.090	4225
687.107	4380
687.153	4812
687.199	4639
687.211	4651
687.245	4697
687.291	5091
687.332	4791
687.336	4750
687.382	5449
687.428	4810
687.453	4624
687.474	4430
687.520	4646
687.565	4570
687.574	4615
687.611	5028
687.657	5379
687.695	5068
687.702	5064
687.748	5963
687.794	6734
687.816	6560
687.839	5823
687.885	5385
687.931	4824
687.937	4731
687.976	4800
688.022	5121
688.058	5439
688.067	5511
688.113	5082
688.158	5039
688.179	5211
688.204	5350
688.249	4732
688.295	5167
688.300	5078
688.340	4615
688.386	5399
688.421	5067
688.431	4980
688.477	5303
688.522	5697
688.542	5651
688.567	5627
688.613	5874
688.658	5845
688.663	5814
688.703	5275
688.749	5385
688.784	5500
688.794	5614
688.839	5269
688.884	5505
688.905	5373
688.930	5144
688.975	5604
689.020	5046
689.026	5032
689.065	5053
689.110	5366
689.146	5262
689.155	5257
689.201	5710
689.246	5709
689.267	5867
689.291	5988
689.336	5474
689.381	5963
689.388	5877
689.426	5523
689.471	5796
689.509	5573
689.516	5491
689.561	5686
689.606	5109
689.630	4846
689.651	4797
689.696	5190
689.741	5502
689.750	5513
689.785	5454
689.830	5548
689.871	5359
689.875	5349
689.920	5332
689.965	5288
689.992	5090
690.010	5091
690.054	5570
690.099	5982
690.112	6072
690.144	6107
690.189	5876
690.233	5587
690.233	5594
690.278	5995
690.323	5699
690.354	5493
690.367	5434
690.412	5653
690.457	5896
690.474	5747
690.501	5536
690.546	5663
690.590	5211
690.595	5223
690.635	5742
690.680	6104
690.716	6289
690.724	6298
690.769	6181
690.813	6721
690.836	6640
690.857	6708
690.902	6989
690.946	7473
690.957	7634
690.991	8862
691.035	9990
691.077	11592
691.080	11614
691.124	10417
691.168	10432
691.198	9574
691.213	8990
691.257	8296
691.301	7385
691.318	6952
691.346	6783
691.390	6457
691.434	6346
691.439	6326
691.478	6615
691.522	7178
691.559	7008
691.567	7006
691.611	7688
691.655	7528
691.680	7642
691.699	7414
691.743	7086
691.787	6626
691.800	6504
691.831	6742
691.875	6718
691.919	7044
691.921	7039
691.964	7057
692.008	6676
692.041	6703
692.052	6810
692.096	7364
692.139	7537
692.162	7453
692.183	7158
692.227	7067
692.271	7087
692.282	6977
692.315	6932
692.359	7119
692.402	7377
692.403	7393
692.447	7285
692.490	7246
692.523	7475
692.534	7501
692.578	7317
692.622	6947
692.643	7000
692.666	6986
692.709	6626
692.753	6136
692.763	5988
692.797	6069
692.840	6434
692.884	6501
692.884	6517
692.928	6928
692.971	7261
693.004	7355
693.015	7307
693.059	7144
693.102	7033
693.124	6868
693.146	6992
693.189	7375
693.233	7482
693.245	7644
693.276	8026
693.320	8221
693.363	8443
693.365	8423
693.407	8077
693.450	8027
693.485	7829
693.493	7930
693.537	8772
693.580	9056
693.605	9304
693.624	9578
693.667	10669
693.710	11192
693.725	11413
693.753	13272
693.797	16526
693.840	19517
693.845	19798
693.883	17956
693.926	15498
693.966	13808
693.970	13664
694.013	11729
694.056	9727
694.086	8465
694.099	8432
694.142	8138
694.185	7763
694.206	7712
694.229	8097
694.272	8453
694.315	9118
694.326	9140
694.358	9000
694.401	9295
694.444	9310
694.446	9290
694.487	9331
694.530	9482
694.566	9596
694.573	9498
694.616	8568
694.659	7626
694.686	6981
694.702	6973
694.745	7289
694.787	7165
694.806	7297
694.830	7646
694.873	7816
694.916	8238
694.926	8245
694.959	8260
695.002	8442
695.044	8695
695.046	8679
695.087	8395
695.130	8209
695.166	7953
695.172	7978
695.215	7928
695.258	8169
695.286	8045
695.301	7956
695.343	7927
695.386	7660
695.406	7543
695.428	7613
695.471	7734
695.514	8087
695.526	8091
695.556	8254
695.599	8694
695.641	8796
695.646	8822
695.684	8771
695.726	8504
695.766	8161
695.769	8178
695.811	8194
695.854	8233
695.886	8281
695.896	8330
695.938	8245
695.981	8384
696.005	8380
696.023	8559
696.065	8858
696.108	9434
696.125	9514
696.150	9379
696.192	9309
696.235	9073
696.245	9052
696.277	9231
696.319	9254
696.361	9161
696.365	9149
696.404	9095
696.446	8870
696.485	8605
696.488	8640
696.530	8997
696.572	9040
696.604	9206
696.614	9198
696.656	8915
696.698	8814
696.724	8597
696.740	8656
696.783	8904
696.825	9203
696.844	9256
696.867	9285
696.909	9269
696.951	9294
696.964	9286
696.992	9514
697.034	9837
697.076	10026
697.083	10056
697.118	9930
697.160	9699
697.202	9457
697.203	9423
697.244	9359
697.286	9366
697.323	9259
697.327	9307
697.369	9673
697.411	9883
697.442	10057
697.453	10122
697.494	10322
697.536	10385
697.562	10506
697.578	10486
697.620	10205
697.661	10019
697.682	9895
697.703	10411
697.744	11345
697.786	12380
697.801	12679
697.828	12677
697.869	12654
697.911	12556
697.921	12530
697.952	12116
697.994	11437
698.035	10791
698.040	10680
698.077	10592
698.118	10476
698.160	10389
698.160	10361
698.201	10265
698.243	10111
698.279	10010
698.284	10073
698.325	10335
698.367	10655
698.399	10858
698.408	10872
698.449	10797
698.491	10705
698.518	10647
698.532	10759
698.573	10959
698.614	11207
698.638	11302
698.656	11232
698.697	11004
698.738	10785
698.757	10653
698.779	10704
698.820	10740
698.862	10775
698.877	10761
698.903	11032
698.944	11420
698.985	11806
698.996	11884
699.026	11616
699.067	11200
699.116	10678
699.235	10987
699.354	10532
699.474	11060
699.593	12482
699.713	11989
699.832	11697
699.951	12335
700.070	11735
700.190	10995
700.309	11474
700.428	12021
700.547	10631
700.667	11140
700.786	12317
700.905	10102
701.024	10848
701.143	9692
701.262	10185
701.381	11387
701.500	11419
701.619	12799
701.738	10108
701.857	9532
701.976	9798
702.095	10022
702.214	11854
702.333	12717
702.452	10426
702.571	10369
702.690	9687
702.809	10250
702.928	10872
703.047	9502
703.165	9919
703.284	9486
703.403	10763
703.522	10671
703.640	11249
703.759	12403
703.878	13600
703.997	9839
704.115	9332
704.234	8704
704.353	9538
704.471	8499
704.590	8536
704.708	8466
704.827	8697
704.946	9315
705.064	8831
705.183	8827
705.301	9993
705.420	11936
705.538	11392
705.656	9329
705.775	9860
705.893	10042
706.012	11824
706.130	10348
706.249	10414
706.367	9770
706.485	11248
706.604	10356
706.722	11332
706.840	14022
706.958	16064
707.077	11675
707.195	9955
707.313	9914
707.431	9951
707.549	9151
707.668	9058
707.786	9604
707.904	9927
708.022	8295
708.140	8312
708.258	9534
708.376	9667
708.494	10116
708.612	10762
708.730	13016
708.848	12105
708.966	12614
709.084	11881
709.202	10540
709.320	11241
709.438	10036
709.556	10483
709.674	9977
709.791	10432
709.909	9736
710.027	9795
710.145	9916
710.263	10343
710.380	9261
710.498	9497
710.616	10127
710.733	9593
710.851	10655
710.969	10637
711.086	9650
711.204	10301
711.322	9613
711.439	10120
711.557	9852
711.674	9582
711.792	9395
711.909	9296
712.027	9381
712.144	9804
712.262	9256
712.379	10161
712.497	13327
712.614	12521
712.732	11870
712.849	11014
712.966	12728
713.084	17434
713.201	12264
713.318	11817
713.436	11514
713.553	11261
713.670	12927
713.787	12609
713.905	12190
714.022	11053
714.139	11887
714.256	15158
714.373	20969
714.490	39271
714.608	107809
714.725	479608
714.842	419446
714.959	28049
715.076	14815
715.193	12534
715.310	12365
715.427	10974
715.544	10421
715.661	10059
715.778	10806
715.895	11010
716.011	10540
716.128	10432
716.245	11902
716.362	14420
716.479	14827
716.596	10999
716.713	9904
716.829	9941
716.946	9472
717.063	8435
717.180	9319
717.296	9472
717.413	9469
717.530	9627
717.646	9167
717.763	8705
717.880	8610
717.996	9034
718.113	9199
718.229	9581
718.346	8760
718.462	9762
718.579	14027
718.695	27475
718.812	15080
718.928	12393
719.045	9543
719.161	8622
719.277	8788
719.394	10171
719.510	9075
719.626	9054
719.743	11378
719.859	16511
719.975	30438
720.092	127831
720.208	258153
720.324	27349
720.440	10533
720.557	11460
720.673	20196
720.789	21676
720.905	32782
721.021	12764
721.137	8202
721.253	8330
721.369	8336
721.486	9227
721.602	11392
721.718	7961
721.834	7685
721.950	8159
722.066	8067
722.181	7853
722.297	7851
722.413	7889
722.529	7696
722.645	7872
722.761	7444
722.877	6346
722.993	6926
723.108	7686
723.224	7505
723.340	7402
723.456	7072
723.571	7375
723.687	5596
723.803	6833
723.918	6778
724.034	7154
724.150	6636
724.265	8452
724.381	13336
724.497	15774
724.612	6636
724.728	6043
724.843	5502
724.959	8299
725.074	14183
725.190	13682
725.305	6869
725.421	6609
725.536	6016
725.651	6177
725.767	5445
725.882	6409
725.997	5906
726.113	7457
726.228	5974
726.343	5198
726.459	5427
726.574	6489
726.689	5019
726.804	6149
726.920	5790
727.035	6341
727.150	6676
727.265	5744
727.380	5782
727.495	6968
727.610	6382
727.725	6001
727.841	6364
727.956	6601
728.071	6634
728.186	5791
728.301	5412
728.416	6632
728.531	5925
728.645	5851
728.760	6839
728.875	8841
728.990	8216
729.105	6502
729.220	7653
729.335	6685
729.449	6151
729.564	4807
729.679	5179
729.794	5893
729.908	4599
730.023	5713
730.138	5052
730.253	5102
730.367	4784
730.482	5480
730.596	5879
730.711	6944
730.826	7187
730.940	7295
731.055	7010
731.169	6400
731.284	5509
731.398	5041
731.513	6493
731.627	6014
731.742	7502
731.856	7678
731.970	6623
732.085	7727
732.199	10330
732.313	16915
732.428	46648
732.542	148885
732.656	74631
732.771	12336
732.885	8299
732.999	7717
733.113	7949
733.227	7531
733.342	7517
733.456	6053
733.570	6200
733.684	6424
733.798	5862
733.912	6776
734.026	5735
734.140	6516
734.254	6819
734.368	10296
734.482	11193
734.596	6362
734.710	5296
734.824	6475
734.938	6745
735.052	6620
735.166	7802
735.280	7289
735.393	4982
735.507	6315
735.621	7607
735.735	10865
735.849	6596
735.962	5887
736.076	5909
736.190	7364
736.303	8119
736.417	8709
736.531	6297
736.644	6285
736.758	5153
736.872	6034
736.985	5065
737.099	6180
737.212	4614
737.326	6141
737.439	6379
737.553	6177
737.666	5539
737.780	5023
737.893	5816
738.007	5286
738.120	5098
738.233	5590
738.347	5363
738.460	5475
738.573	6746
738.687	6365
738.800	7164
738.913	9297
739.026	6007
739.140	5975
739.253	4832
739.366	4268
739.479	5488
739.592	4462
739.705	4884
739.818	5189
739.932	4347
740.045	5784
740.158	4420
740.271	5627
740.384	5839
740.497	5664
740.610	6825
740.723	5765
740.836	5657
740.949	7426
741.062	10148
741.174	6629
741.287	4867
741.400	5286
741.513	6642
741.626	7422
741.739	5753
741.851	5550
741.964	4131
742.077	5591
742.189	5286
742.302	7750
742.415	6691
742.527	5137
742.640	4429
742.753	4363
742.865	4501
742.978	3815
743.090	4786
743.203	4573
743.316	4933
743.428	4098
743.541	4647
743.653	4275
743.766	4597
743.878	4103
743.990	4375
744.103	5890
744.215	5703
744.327	4503
744.440	7257
744.552	11499
744.664	5616
744.777	5536
744.889	3782
745.001	4172
745.113	4075
745.226	3831
745.338	4448
745.450	4245
745.562	3891
745.674	4433
745.786	3546
745.898	3293
746.010	3680
746.122	4459
746.234	3815
746.347	4357
746.459	4230
746.570	3822
746.682	4090
746.794	3929
746.906	3753
747.018	3395
747.130	4283
747.242	4246
747.354	4001
747.466	4171
747.577	3627
747.689	4390
747.801	4200
747.913	3361
748.024	3126
748.136	2968
748.248	2413
748.359	3569
748.471	3527
748.583	3242
748.694	2918
748.806	4150
748.918	3929
749.029	4114
749.141	4603
749.252	4572
749.364	6627
749.475	13652
749.587	6514
749.698	3760
749.809	4230
749.921	2823
750.032	3617
750.144	3358
750.255	3469
750.366	3323
750.478	2866
750.589	3535
750.700	4650
750.811	4496
750.923	6397
751.034	15258
751.145	13099
751.256	3508
751.367	3171
751.479	2009
751.590	3013
751.701	3670
751.812	2415
751.923	2526
752.034	3480
752.145	2976
752.256	2964
752.367	2942
752.478	2641
752.589	3807
752.700	2870
752.811	2939
752.922	3154
753.032	4721
753.143	4937
753.254	3555
753.365	4230
753.476	2947
753.586	2349
753.697	3174
753.808	2589
753.919	3027
754.029	2545
754.140	3152
754.251	2270
754.361	2908
754.472	2446
754.582	2776
754.693	2578
754.804	3347
754.914	1835
755.025	2074
755.135	2768
755.246	2355
755.356	2385
755.466	3036
755.577	2512
755.687	3238
755.798	2373
755.908	2851
756.018	2714
756.129	2169
756.239	3228
756.349	3507
756.460	2971
756.570	3592
756.680	3033
756.790	3766
756.900	3344
757.011	3451
757.121	2928
757.231	2992
757.341	2331
757.451	2785
757.561	2787
757.671	2475
757.781	1503
757.891	3203
758.001	2677
758.111	2496
758.221	3863
758.331	4068
758.441	4202
758.551	7577
758.661	5219
758.771	3520
758.880	3238
758.990	2945
759.100	2420
759.210	2698
759.320	3430
759.429	3081
759.539	3636
759.649	4373
759.758	3496
759.868	4736
759.978	3721
760.087	4479
760.197	3730
760.307	4575
760.416	3568
760.526	3010
760.635	4348
760.745	3638
760.854	4856
760.964	5053
761.073	4977
761.182	4985
761.292	4213
761.401	4359
761.511	2562
761.620	3937
761.729	3293
761.839	3820
761.948	3710
762.057	4312
762.166	2895
762.276	2473
762.385	4112
762.494	3058
762.603	3112
762.712	3607
762.822	2939
762.931	3561
763.040	3439
763.149	2915
763.258	2746
763.367	2950
763.476	3885
763.585	3128
763.694	3782
763.803	4003
763.912	3729
764.021	3313
764.130	3580
764.238	3737
764.347	4283
764.456	3566
764.565	3741
764.674	3590
764.783	4400
764.891	3876
765.000	4647
765.109	5520
765.217	5843
765.326	7210
765.435	8384
765.543	8611
765.652	9743
765.761	12374
765.869	18048
765.978	28937
766.086	54452
766.195	113195
766.303	317977
766.412	797132
766.520	557593
766.629	135627
766.737	49692
766.846	29915
766.954	19508
767.062	16398
767.171	11310
767.279	10188
767.387	7729
767.496	7323
767.604	6787
767.712	6090
767.820	5858
767.928	6021
768.037	4777
768.145	6247
768.253	5439
768.361	5291
768.469	4872
768.577	4574
768.685	5926
768.793	5741
768.901	5578
769.009	6749
769.117	6994
769.225	9837
769.333	13345
769.441	21747
769.549	44315
769.657	110329
769.765	373449
769.873	618152
769.981	175075
770.088	40022
770.196	19877
770.304	14977
770.412	11261
770.519	8454
770.627	7228
770.735	5783
770.842	5689
770.950	5472
771.058	5109
771.165	5164
771.273	4094
771.380	4216
771.488	4655
771.595	4794
771.703	4490
771.810	4102
771.918	3818
772.025	5305
772.133	4454
772.240	4490
772.348	5122
772.455	5036
772.562	4729
772.670	3557
772.777	4537
772.884	4400
772.991	4189
773.099	5095
773.206	3559
773.313	4339
773.420	4018
773.528	3734
773.635	4344
773.742	4492
773.849	3727
773.956	3513
774.063	3846
774.170	3600
774.277	4250
774.384	3254
774.491	3342
774.598	3687
774.705	4359
774.812	5463
774.919	4485
775.026	3510
775.133	4031
775.239	3382
775.346	3562
775.453	3637
775.560	3511
775.667	3333
775.773	3261
775.880	3852
775.987	1987
776.093	3755
776.200	3801
776.307	3610
776.413	3666
776.520	3344
776.627	3799
776.733	2627
776.840	1930
776.946	4642
777.053	4685
777.159	8106
777.266	3772
777.372	6902
777.478	6664
777.585	4758
777.691	2824
777.798	4031
777.904	4289
778.010	5830
778.117	5176
778.223	2458
778.329	2854
778.435	2523
778.542	3689
778.648	2878
778.754	3301
778.860	2672
778.966	2695
779.072	2680
779.178	2968
779.284	2442
779.391	2618
779.497	1467
779.603	4524
779.708	2050
779.815	4712
779.920	9661
780.026	11168
780.132	3518
780.238	2269
780.344	2697
780.450	2969
780.556	1958
780.661	2140
780.767	2974
780.873	2231
780.979	3519
781.085	2300
781.190	3036
781.296	2207
781.402	2924
781.507	1906
781.613	2448
781.719	2348
781.824	2586
781.930	2552
782.035	2531
782.141	2405
782.246	2110
782.352	2518
782.457	2791
782.563	2186
782.668	2334
782.773	2615
782.879	2932
782.984	2883
783.090	4094
783.195	7749
783.300	4568
783.405	3510
783.511	2032
783.616	3280
783.721	3411
783.826	3292
783.932	3214
784.037	3024
784.142	2541
784.247	2802
784.352	3264
784.457	2947
784.562	2907
784.667	2629
784.772	2285
784.877	1872
784.982	2821
785.087	2722
785.192	3475
785.297	2459
785.402	2200
785.507	2825
785.611	1834
785.716	1996
785.821	1884
785.926	2288
786.031	1690
786.135	2154
786.240	2297
786.345	669
786.450	2406
786.554	2556
786.659	1321
786.763	1324
786.868	1624
786.973	2629
787.077	2595
787.182	1951
787.286	2543
787.391	2223
787.495	1530
787.600	2146
787.704	1471
787.809	1348
787.913	1780
788.017	1496
788.122	2818
788.226	2370
788.330	1413
788.435	1496
788.539	1684
788.643	977
788.747	1357
788.852	1369
788.956	1585
789.060	2066
789.164	1247
789.268	918
789.372	2326
789.476	1319
789.580	1105
789.684	1142
789.788	2178
789.892	933
789.996	1931
790.100	1522
790.204	1783
790.308	1497
790.412	1213
790.516	1798
790.620	2146
790.724	1494
790.828	1463
790.931	864
791.035	2562
791.139	1923
791.242	787
791.346	2991
791.450	1275
791.554	501
791.657	1153
791.761	2722
791.864	1916
791.968	840
792.072	1846
792.175	1650
792.279	2072
792.382	1486
792.486	1707
792.589	804
792.693	1222
792.796	1137
792.899	2204
793.003	1983
793.106	102
793.209	1884
793.313	2561
793.416	-572
793.519	2992
793.623	4663
793.726	6417
793.829	1964
793.932	1303
794.035	2063
794.138	2980
794.242	2471
794.345	2403
794.448	3186
794.551	4665
794.654	6420
794.757	5556
794.860	2678
794.963	955
795.066	166
795.169	1699
795.272	559
795.375	1552
795.477	570
795.580	1603
795.683	262
795.786	805
795.889	-512
795.991	2340
796.094	1694
796.197	583
796.300	1432
796.402	1117
796.505	870
796.608	595
796.710	1720
796.813	1607
796.915	1195
797.018	1923
797.120	1349
797.223	424
797.326	2176
797.428	1258
797.530	1420
797.633	1175
797.735	2613
797.838	1661
797.940	2192
798.042	758
798.145	931
798.247	1373
798.349	-17
798.452	1964
798.554	416
798.656	154
798.758	1909
798.860	858
798.962	1127
799.065	244
799.167	686
799.269	1842
799.371	2262
799.473	1870
799.575	1207
799.677	2618
799.779	3676
799.881	4114
799.983	2175
800.085	936
800.187	1973
800.289	416
800.390	682
800.492	1696
800.594	2165
800.696	48
800.798	973
800.899	982
801.001	1193
801.103	1355
801.205	199
801.306	886
801.408	912
801.509	678
801.611	502
801.713	1071
801.814	599
801.916	1181
802.017	328
802.119	-332
802.220	557
802.322	-295
802.423	2519
802.525	396
802.626	1098
802.727	1946
802.829	1655
802.930	-187
803.031	1885
803.133	476
803.234	1027
803.335	531
803.436	589
803.538	364
803.639	-851
803.740	1612
803.841	44
803.942	1376
804.043	773
804.144	56
804.245	909
804.346	1062
804.447	1792
804.548	3316
804.649	2999
804.750	902
804.851	325
804.952	412
805.053	371
805.154	-170
805.255	1015
805.355	578
805.456	390
805.557	485
805.658	-291
805.758	1410
805.859	208
805.960	340
806.061	558
806.161	644
806.262	523
806.362	499
806.463	111
806.564	658
806.664	1092
806.765	1278
806.865	1227
806.966	381
807.066	-99
807.166	1460
807.267	485
807.367	456
807.468	1731
807.568	-184
807.668	1104
807.769	2201
807.869	213
807.969	927
808.069	391
808.170	1462
808.270	462
808.370	929
808.470	2637
808.570	1500
808.670	205
808.770	778
808.870	-249
808.970	518
809.070	605
809.170	552
809.271	575
809.370	390
809.470	1224
809.570	1052
809.670	-279
809.770	178
809.870	374
809.970	123
810.070	471
810.169	1310
810.269	-1278
810.369	1514
810.469	567
810.568	-229
810.668	-99
810.768	229
810.867	226
810.967	112
811.066	93
811.166	114
811.265	503
811.365	-212
811.464	-221
811.564	922
811.663	840
811.763	-722
811.862	-197
811.962	435
812.061	-358
812.160	-501
812.260	293
812.359	839
812.458	847
812.557	1788
812.657	1243
812.756	1332
812.855	-211
812.954	347
813.053	583
813.153	358
813.252	470
813.351	-237
813.450	541
813.549	266
813.648	709
813.747	-150
813.846	432
813.945	-42
814.044	75
814.143	928
814.242	1438
814.341	141
814.439	1428
814.538	1046
814.637	610
814.736	372
814.835	1126
814.933	-276
815.032	1179
815.131	1233
815.229	555
815.328	2224
815.427	779
815.525	1869
815.624	1093
815.722	793
815.821	838
815.919	988
816.018	940
816.116	2532
816.215	277
816.313	1629
816.412	1664
816.510	1693
816.609	2782
816.707	2907
816.805	1913
816.904	1055
817.002	2218
817.100	3289
817.198	3493
817.296	2722
817.395	2389
817.493	3678
817.591	3172
817.689	5029
817.787	5289
817.885	11001
817.983	19873
818.081	49486
818.179	126285
818.277	315197
818.375	197579
818.473	36892
818.571	14044
818.669	11293
818.767	9705
818.865	10364
818.963	12902
819.061	20918
819.158	41409
819.256	100317
819.354	260886
819.452	540745
819.549	252804
819.647	48674
819.745	18240
819.842	13251
819.940	9559
820.038	5528
820.135	6214
820.233	4746
820.330	3656
820.428	2549
820.525	3867
820.623	2716
820.720	2417
820.818	3073
820.915	3021
821.012	2053
821.110	1157
821.207	2834
821.304	1125
821.402	2704
821.499	2592
821.596	3209
821.693	2339
821.791	3253
821.888	3073
821.985	8116
822.082	5065
822.179	2885
822.276	1535
822.373	1746
822.470	920
822.567	1424
822.664	861
822.761	1619
822.858	596
822.955	1275
823.052	1249
823.149	1189
823.246	832
823.343	432
823.440	754
823.536	1518
823.633	586
823.730	1253
823.827	1449
823.923	1476
824.020	1838
824.117	902
824.213	162
824.310	1983
824.407	983
824.503	1122
824.600	1111
824.696	1054
824.793	2063
824.889	566
824.986	602
825.082	223
825.179	796
825.275	676
825.371	671
825.468	1244
825.564	-723
825.660	177
825.757	826
825.853	1672
825.949	909
826.045	657
826.142	297
826.238	864
826.334	1332
826.430	-228
826.526	975
826.622	-49
826.718	1150
826.814	626
826.910	1287
827.006	-480
827.102	-752
827.198	247
827.294	-230
827.390	475
827.486	734
827.582	-507
827.678	127
827.774	789
827.869	-980
827.965	2050
828.061	-338
828.157	580
828.252	-35
828.348	-212
828.444	1257
828.539	-190
828.635	503
828.731	1626
828.826	-474
828.922	660
829.017	176
829.113	521
829.208	-38
829.304	233
829.399	1738
829.495	1084
829.590	1159
829.685	-170
829.781	1622
829.876	-216
829.971	201
830.066	-36
830.162	187
830.257	477
830.352	423
830.447	1487
830.543	831
830.638	-342
830.733	577
830.828	224
830.923	1130
831.018	546
831.113	856
831.208	-930
831.303	146
831.398	-206
831.493	303
831.588	973
831.683	58
831.778	-167
831.873	604
831.967	794
832.062	-593
832.157	-249
832.252	249
832.346	525
832.441	949
832.536	1935
832.631	5436
832.725	4154
832.820	-286
832.914	-388
833.009	126
833.104	530
833.198	2066
833.293	907
833.387	552
833.482	355
833.576	47
833.670	1082
833.765	-376
833.859	873
833.954	1213
834.048	307
834.142	1624
834.237	-422
834.331	-165
834.425	381
834.519	-26
834.613	339
834.708	-249
834.802	168
834.896	-657
834.990	241
835.084	592
835.178	61
835.272	68
835.366	-56
835.460	-86
835.554	30
835.648	224
835.742	-105
835.836	411
835.930	-853
836.024	-1
836.117	918
836.211	211
836.305	572
836.399	1074
836.493	-476
836.586	1200
836.680	201
836.774	8
836.867	1481
836.961	-364
837.055	17
837.148	-308
837.242	-1283
837.335	-747
837.429	-183
837.522	327
837.616	425
837.709	900
837.803	552
837.896	661
837.989	-144
838.083	480
838.176	1262
838.269	1194
838.363	404
838.456	190
838.549	2300
838.642	2140
838.735	5460
838.829	2294
838.922	-168
839.015	-941
839.108	-448
839.201	-283
839.294	518
839.387	-174
839.480	-412
839.573	-362
839.666	451
839.759	15
839.852	-98
839.945	512
840.038	421
840.131	-114
840.223	-164
840.316	-32
840.409	213
840.502	-1474
840.594	141
840.687	-1298
840.780	249
840.873	-566
840.965	-573
841.058	259
841.150	1313
841.243	-265
841.336	578
841.428	-66
841.521	-554
841.613	-326
841.706	730
841.798	-569
841.890	-205
841.983	-325
842.075	403
842.167	-648
842.260	71
842.352	1129
842.444	836
842.537	1938
842.629	2698
842.721	-115
842.813	482
842.905	-1381
842.997	414
843.090	316
843.182	1110
843.274	534
843.366	4718
843.458	8307
843.550	5556
843.642	-300
843.734	137
843.826	83
843.918	898
844.009	-101
844.101	-555
844.193	97
844.285	-547
844.377	426
844.469	1023
844.560	741
844.652	710
844.744	467
844.835	117
844.927	-465
845.019	32
845.110	592
845.202	-110
845.293	238
845.385	-525
845.476	-219
845.568	881
845.659	-352
845.751	329
845.842	-297
845.934	121
846.025	176
846.116	511
846.208	-1031
846.299	-649
846.390	-729
846.482	-151
846.573	386
846.664	879
846.755	986
846.846	1893
846.937	-969
847.029	-604
847.120	-43
847.211	202
847.302	210
847.393	-646
847.484	-295
847.575	-78
847.666	-559
847.757	497
847.847	168
847.938	358
848.029	-553
848.120	-785
848.211	-1704
848.302	-606
848.392	-622
848.483	923
848.574	-435
848.664	-343
848.755	-509
848.846	446
848.936	-656
849.027	453
849.118	-570
849.208	396
849.299	1422
849.389	3736
849.480	8855
849.570	18661
849.661	38531
849.751	65319
849.841	20174
849.932	1592
850.022	530
850.112	-174
850.203	446
850.293	-494
850.383	-23
850.474	-224
850.564	-877
850.654	404
850.744	-496
850.834	-240
850.924	-561
851.014	-333
851.104	448
851.194	631
851.284	1235
851.374	1223
851.464	-107
851.554	318
851.644	-59
851.734	1033
851.824	-395
851.914	-342
852.004	-521
852.094	-961
852.183	-436
852.273	-285
852.363	-665
852.452	33
852.542	441
852.632	-58
852.721	-416
852.811	-454
852.901	79
852.990	-678
853.080	-796
853.169	391
853.259	926
853.348	1164
853.438	1534
853.527	3088
853.617	5074
853.706	12185
853.795	23701
853.885	59222
853.974	113216
854.063	209745
854.152	325072
854.242	109539
854.331	16024
854.420	5512
854.509	3678
854.598	3290
854.687	1873
854.777	2454
854.866	1367
854.955	1403
855.044	48
855.133	297
855.222	198
855.311	-279
855.400	283
855.488	-327
855.577	-152
855.666	170
855.755	371
855.844	489
855.933	-853
856.021	385
856.110	-350
856.199	-626
856.288	-387
856.376	-363
856.465	-405
856.554	285
856.642	-145
856.731	49
856.819	-313
856.908	-811
856.996	-236
857.085	-401
857.173	-161
857.262	108
857.350	-128
857.438	-18
857.527	-435
857.615	-356
857.703	-4
857.792	-324
857.880	-223
857.968	-955
858.056	-401
858.145	490
858.233	-754
858.321	-1278
858.409	-49
858.497	-519
858.585	-864
858.673	-447
858.761	-1032
858.849	-687
858.937	-535
859.025	-481
859.113	-634
859.201	-17
859.289	89
859.377	56
859.465	-757
859.552	-667
859.640	234
859.728	92
859.816	-767
859.903	-970
859.991	-1167
860.079	-760
860.166	-381
860.254	-242
860.342	17
860.429	300
860.517	-1410
860.604	-421
860.692	-447
860.779	-324
860.867	-850
860.954	-220
861.042	-553
861.129	-103
861.216	-166
861.304	-1061
861.391	-504
861.478	-437
861.565	284
861.653	542
861.740	-994
861.827	-443
861.914	-15
862.001	-1428
862.089	-447
862.176	-900
862.263	-873
862.350	200
862.437	-778
862.524	-831
862.611	-717
862.698	451
862.785	437
862.871	32
862.958	-677
863.045	200
863.132	-480
863.219	-91
863.306	-283
863.392	526
863.479	-277
863.566	-335
863.652	-511
863.739	-728
863.826	91
863.912	-377
863.999	-1308
864.086	324
864.172	-409
864.259	-832
864.345	-248
864.432	-661
864.518	-193
864.604	-110
864.691	-224
864.777	-174
864.863	-96
864.950	1052
865.036	256
865.122	1515
865.209	1759
865.295	2757
865.381	1804
865.467	3029
865.553	4151
865.639	7180
865.726	12542
865.812	27915
865.898	57500
865.984	83774
866.070	163324
866.156	170731
866.242	39102
866.328	7401
866.414	2679
866.499	2673
866.585	2305
866.671	1960
866.757	1650
866.843	1769
866.928	388
867.014	350
867.100	1193
867.186	330
867.271	1033
867.357	2129
867.442	1436
867.528	659
867.614	541
867.699	829
867.785	1426
867.870	607
867.956	1459
868.041	2128
868.127	596
868.212	852
868.297	1162
868.383	1632
868.468	1770
868.553	3586
868.639	4135
868.724	8079
868.809	6528
868.894	1841
868.979	968
869.065	461
869.150	-291
869.235	277
869.320	-98
869.405	173
869.490	-216
869.575	250
869.660	-105
869.745	905
869.830	456
869.915	-749
870.000	157
870.085	-180
870.169	254
870.254	81
870.339	-516
870.424	-265
870.509	239
870.593	920
870.678	480
870.763	337
870.847	81
870.932	168
871.016	658
871.101	446
871.186	-445
871.270	373
871.355	-875
871.439	577
871.523	68
871.608	316
871.692	150
871.777	1001
871.861	216
871.945	-575
872.030	331
872.114	-75
872.198	-642
872.282	32
872.367	-628
872.451	-419
872.535	177
872.619	81
872.703	177
872.787	483
872.871	23
872.955	-666
873.039	-863
873.123	380
873.207	-13
873.291	-93
873.375	-123
873.459	-132
873.543	-711
873.627	88
873.711	-516
873.794	-100
873.878	402
873.962	-300
874.045	555
874.129	84
874.137	146
874.213	765
874.245	517
874.296	114
874.352	-360
874.380	-589
874.460	-325
874.464	-316
874.547	-400
874.568	-221
874.631	334
874.676	236
874.714	134
874.784	27
874.798	10
874.881	1038
874.892	904
874.965	-23
874.999	167
875.048	425
875.107	238
875.131	157
875.215	575
875.215	575
875.298	458
875.323	312
875.381	-68
875.430	213
875.465	452
875.538	-269
875.548	-380
875.631	159
875.646	70
875.714	-286
875.753	-189
875.798	-132
875.861	-179
875.881	-188
875.964	-148
875.968	-153
876.047	-306
876.076	-362
876.130	-304
876.183	77
876.213	193
876.291	579
876.296	616
876.379	-143
876.398	-203
876.462	-531
876.506	-332
876.545	-32
876.613	207
876.628	217
876.711	-389
876.721	-274
876.794	746
876.828	267
876.877	-474
876.935	-312
876.960	-187
877.043	834
877.043	838
877.125	1468
877.150	1437
877.208	1625
877.258	1590
877.291	1472
877.365	1461
877.374	1476
877.456	1444
877.472	1445
877.539	1270
877.579	1412
877.622	1684
877.687	1224
877.704	1037
877.787	857
877.794	785
877.869	304
877.901	480
877.952	552
878.008	487
878.034	524
878.115	264
878.117	260
878.199	81
878.222	179
878.282	473
878.329	491
878.364	492
878.437	395
878.447	353
878.529	-247
878.544	-198
878.611	40
878.651	-37
878.694	198
878.758	671
878.776	670
878.858	276
878.865	270
878.941	461
878.972	438
879.023	264
879.078	37
879.105	14
879.185	823
879.187	834
879.269	301
879.292	-4
879.351	-525
879.399	-37
879.433	279
879.506	182
879.516	153
879.598	-260
879.613	-189
879.680	173
879.720	216
879.762	308
879.827	151
879.844	58
879.926	346
879.933	317
880.007	467
880.040	799
880.089	1153
880.147	1592
880.171	1837
880.253	4085
880.254	4097
880.335	5611
880.360	5991
880.417	7869
880.467	12807
880.499	15456
880.574	16851
880.580	16726
880.662	5038
880.680	3896
880.744	1170
880.787	523
880.825	259
880.893	17
880.907	-69
880.989	72
881.000	41
881.070	331
881.106	669
881.152	718
881.213	13
881.233	-100
881.315	19
881.319	35
881.396	393
881.426	352
881.478	360
881.532	769
881.559	715
881.639	289
881.641	293
881.722	-23
881.745	-47
881.803	-32
881.852	345
881.885	646
881.958	1070
881.966	1067
882.047	627
882.064	555
882.129	513
882.171	833
882.210	1397
882.277	2265
882.291	2338
882.372	1264
882.383	1175
882.454	410
882.489	180
882.535	133
882.596	437
882.616	519
882.697	516
882.702	506
882.778	666
882.808	903
882.859	912
882.914	344
882.940	227
883.020	163
883.021	167
883.102	454
883.127	489
883.183	634
883.233	613
883.264	484
883.339	317
883.345	327
883.426	84
883.445	140
883.507	315
883.551	427
883.587	505
883.657	692
883.668	713
883.749	568
883.763	488
883.830	335
883.869	383
883.910	180
883.975	339
883.991	488
884.072	301
884.081	317
884.152	108
884.187	82
884.233	568
884.292	1053
884.314	901
884.394	-76
884.398	-93
884.475	598
884.504	580
884.555	400
884.610	575
884.636	524
884.716	405
884.716	412
884.797	587
884.821	646
884.877	840
884.927	1060
884.958	1040
885.033	741
885.038	736
885.118	791
885.139	793
885.199	575
885.244	373
885.279	448
885.350	584
885.359	594
885.439	814
885.456	704
885.520	171
885.561	134
885.600	222
885.667	436
885.680	494
885.760	719
885.773	745
885.840	571
885.878	442
885.920	553
885.984	732
886.000	735
886.080	587
886.089	605
886.160	1083
886.195	1118
886.240	816
886.300	577
886.320	608
886.400	783
886.406	782
886.480	881
886.511	1007
886.560	1338
886.616	1422
886.640	1223
886.720	601
886.722	583
886.800	739
886.827	811
886.879	930
886.932	1043
886.959	1222
887.038	1583
887.039	1579
887.119	729
887.143	449
887.198	643
887.248	890
887.278	971
887.354	1105
887.358	1106
887.437	799
887.459	810
887.517	1101
887.564	1212
887.596	1101
887.669	818
887.676	805
887.755	665
887.774	578
887.835	478
887.880	557
887.914	457
887.985	38
887.994	177
888.073	1506
888.090	1771
888.153	1510
888.195	1303
888.232	1092
888.300	721
888.311	717
888.391	639
888.405	620
888.470	607
888.510	565
888.549	463
888.615	381
888.628	476
888.708	942
888.720	1010
888.787	698
888.825	505
888.866	841
888.930	1405
888.945	1516
889.024	2066
889.035	2129
889.103	1652
889.140	1374
889.182	1142
889.245	840
889.261	956
889.340	1436
889.349	1492
889.419	1296
889.454	1169
889.498	1323
889.559	1552
889.577	1531
889.656	1409
889.664	1394
889.735	1233
889.768	1151
889.814	911
889.873	591
889.978	1273
890.083	1801
890.187	1585
890.292	925
890.397	1095
890.501	1353
890.606	1405
890.710	1497
890.815	1972
890.919	1242
891.024	1690
891.128	1563
891.233	975
891.337	345
891.442	1030
891.546	1593
891.650	1010
891.755	209
891.859	2371
891.963	1656
892.068	1578
892.172	831
892.276	788
892.380	458
892.484	1271
892.589	403
892.693	1227
892.797	765
892.901	1179
893.005	53
893.109	1096
893.213	1056
893.317	1202
893.421	170
893.525	-144
893.629	1130
893.733	1460
893.837	475
893.941	1052
894.045	768
894.148	1061
894.252	833
894.356	698
894.460	1917
894.564	1259
894.667	341
894.771	525
894.875	1050
894.978	802
895.082	237
895.186	675
895.289	1005
895.393	1358
895.496	654
895.600	1328
895.703	-783
895.807	1567
895.910	607
896.014	765
896.117	418
896.221	1731
896.324	229
896.427	701
896.531	-752
896.634	1153
896.737	371
896.840	417
896.944	496
897.047	365
897.150	-54
897.253	1158
897.356	1055
897.460	1470
897.563	446
897.666	600
897.769	872
897.872	956
897.975	118
898.078	1218
898.181	862
898.284	897
898.387	958
898.490	1315
898.593	531
898.695	1160
898.798	272
898.901	1059
899.004	571
899.107	518
899.209	-26
899.312	1641
899.415	804
899.518	273
899.620	1307
899.723	1299
899.826	1481
899.928	1480
900.031	503
900.133	1039
900.236	475
900.338	963
900.441	661
900.543	498
900.646	879
900.748	566
900.851	1217
900.953	1309
901.055	1082
901.158	863
901.260	714
901.362	1333
901.465	196
901.567	825
901.669	709
901.771	856
901.873	633
901.976	642
902.078	51
902.180	1216
902.282	433
902.384	907
902.486	532
902.588	1345
902.690	275
902.792	158
902.894	839
902.996	210
903.098	670
903.200	1289
903.302	865
903.404	1383
903.505	658
903.607	730
903.709	1198
903.811	2208
903.913	-329
904.014	817
904.116	91
904.218	1306
904.319	766
904.421	2124
904.523	342
904.624	1639
904.726	563
904.827	505
904.929	157
905.030	1497
905.132	1275
905.233	1394
905.335	413
905.436	259
905.537	-140
905.639	880
905.740	384
905.841	826
905.943	358
906.044	957
906.145	414
906.247	772
906.348	2
906.449	1292
906.550	820
906.651	666
906.752	213
906.854	788
906.955	480
907.056	666
907.157	979
907.258	573
907.359	793
907.460	558
907.561	1183
907.662	839
907.762	769
907.863	278
907.964	414
908.065	1023
908.166	369
908.267	408
908.367	219
908.468	639
908.569	6
908.670	849
908.770	1239
908.871	1679
908.971	690
909.072	1283
909.173	-377
909.273	1280
909.374	1170
909.474	196
909.575	442
909.675	592
909.776	357
909.876	879
909.977	-6
910.077	994
910.177	810
910.278	903
910.378	114
910.478	811
910.579	975
910.679	719
910.779	401
910.879	955
910.980	-63
911.080	1180
911.180	-86
911.280	281
911.380	1011
911.480	1057
911.580	286
911.680	1220
911.780	705
911.880	895
911.980	-52
912.080	116
912.180	-181
912.280	1652
912.380	-274
912.480	252
912.580	485
912.679	238
912.779	517
912.879	470
912.979	29
913.078	427
913.178	-67
913.278	564
913.377	306
913.477	1041
913.577	668
913.676	924
913.776	602
913.875	190
913.975	1125
914.074	236
914.174	425
914.273	-94
914.373	817
914.472	459
914.572	-77
914.671	1128
914.770	-404
914.870	1091
914.969	108
915.068	-80
915.167	812
915.267	415
915.366	456
915.465	800
915.564	440
915.663	959
915.763	201
915.862	297
915.961	-100
916.060	547
916.159	386
916.258	667
916.357	142
916.456	1050
916.555	170
916.654	1551
916.752	982
916.851	720
916.950	0
917.049	1195
917.148	775
917.247	1229
917.345	-186
917.444	1074
917.543	857
917.642	-157
917.740	32
917.839	898
917.937	546
918.036	1492
918.135	238
918.233	851
918.332	78
918.430	224
918.529	316
918.627	553
918.726	752
918.824	1066
918.923	97
919.021	901
919.119	-180
919.218	610
919.316	-158
919.414	568
919.512	1030
919.611	1910
919.709	665
919.807	902
919.905	873
920.003	1288
920.102	608
920.200	719
920.298	1161
920.396	-102
920.494	553
920.592	701
920.690	692
920.788	686
920.886	1651
920.984	1885
921.082	765
921.180	892
921.277	1171
921.375	814
921.473	1386
921.571	1161
921.669	455
921.766	1285
921.864	1708
921.962	1897
922.060	1240
922.157	1560
922.255	1251
922.352	1207
922.450	1306
922.548	939
922.645	883
922.743	1881
922.840	2421
922.938	2680
923.035	2137
923.133	2934
923.230	2936
923.327	4034
923.425	2189
923.522	2414
923.619	2117
923.717	2235
923.814	1590
923.911	2220
924.008	3006
924.106	2339
924.203	1902
924.300	2585
924.397	2309
924.494	2642
924.591	2021
924.688	1963
924.786	2541
924.883	3018
924.979	2281
925.077	2252
925.173	2039
925.270	2574
925.367	1637
925.464	3126
925.561	2378
925.658	2461
925.755	2274
925.852	2849
925.948	2333
926.045	2630
926.142	2242
926.239	2168
926.335	1505
926.432	2178
926.529	2233
926.625	2217
926.722	1659
926.818	1853
926.915	1806
927.011	1366
927.108	2491
927.204	2892
927.301	1644
927.397	1798
927.494	1860
927.590	1600
927.687	1633
927.783	2471
927.879	1611
927.976	1800
928.072	847
928.168	1621
928.264	1746
928.361	1754
928.457	1968
928.553	2023
928.649	816
928.745	1979
928.841	1530
928.937	1429
929.033	1840
929.129	2324
929.225	1933
929.321	2163
929.417	1189
929.513	2268
929.609	1185
929.705	2141
929.801	1022
929.897	946
929.993	1436
930.089	1818
930.184	1317
930.280	1635
930.376	1835
930.471	1290
930.567	1572
930.663	1488
930.758	1171
930.854	1770
930.950	1268
931.045	1592
931.141	1476
931.236	2229
931.332	1839
931.427	1106
931.523	1760
931.618	2004
931.714	591
931.809	1185
931.905	2121
932.000	748
932.095	488
932.191	1655
932.286	1854
932.381	1552
932.476	872
932.572	1454
932.667	1654
932.762	1034
932.857	1022
932.952	2209
933.047	1423
933.142	2064
933.237	1591
933.332	1268
933.427	2376
933.522	1395
933.617	1488
933.712	1064
933.807	1460
933.902	2506
933.997	1820
934.092	1172
934.187	1572
934.282	1347
934.376	1203
934.471	1417
934.566	962
934.661	1439
934.755	1683
934.850	2193
934.945	1159
935.039	1276
935.134	402
935.228	1691
935.323	1645
935.417	1028
935.512	467
935.606	589
935.701	939
935.795	1333
935.890	1048
935.984	1285
936.079	2065
936.173	1689
936.267	555
936.362	826
936.456	1202
936.550	1210
936.644	576
936.738	67
936.833	971
936.927	970
937.021	1139
937.115	1234
937.209	204
937.303	1643
937.397	-118
937.491	1001
937.585	1101
937.679	1343
937.773	430
937.867	1353
937.961	994
938.055	1865
938.149	1453
938.243	750
938.337	1079
938.430	1272
938.524	1554
938.618	508
938.712	-89
938.805	1398
938.899	610
938.993	1905
939.086	1019
939.180	1050
939.274	637
939.367	1745
939.461	871
939.554	1172
939.648	739
939.741	274
939.835	666
939.928	1195
940.022	1324
940.115	1258
940.208	711
940.302	1819
940.395	2419
940.488	262
940.582	963
940.675	1244
940.768	354
940.861	1763
940.954	1499
941.048	471
941.141	1466
941.234	1091
941.327	1057
941.420	2263
941.513	1010
941.606	1042
941.699	1357
941.792	1092
941.885	471
941.978	1085
942.071	415
942.164	869
942.257	-417
942.349	1278
942.442	1220
942.535	870
942.628	269
942.721	902
942.813	-141
942.906	1631
942.999	348
943.091	-162
943.184	-196
943.277	815
943.369	999
943.462	530
943.554	1228
943.647	334
943.739	695
943.832	825
943.924	-378
944.017	131
944.109	214
944.201	799
944.294	431
944.386	1242
944.478	-286
944.571	632
944.663	628
944.755	379
944.847	-140
944.940	1245
945.032	-563
945.124	972
945.216	432
945.308	978
945.400	898
945.492	249
945.584	556
945.676	1044
945.768	440
945.860	1218
945.952	485
946.044	101
946.136	856
946.228	1480
946.320	-111
946.412	1217
946.503	626
946.595	1340
946.687	191
946.779	16
946.870	-43
946.962	286
947.054	1305
947.145	475
947.237	18
947.329	558
947.420	453
947.512	662
947.603	615
947.695	835
947.786	-372
947.878	-105
947.969	90
948.061	-86
948.152	697
948.243	234
948.335	277
948.426	968
948.517	-341
948.609	168
948.700	127
948.791	991
948.882	430
948.973	1116
949.065	238
949.156	31
949.247	-581
949.338	60
949.429	47
949.520	697
949.611	-776
949.702	1057
949.793	-99
949.884	633
949.975	-108
950.066	365
950.157	-199
950.247	1025
950.338	-162
950.429	-108
950.520	234
950.611	-66
950.701	-106
950.792	553
950.883	1083
950.973	520
951.064	612
951.155	-96
951.245	658
951.336	209
951.427	-885
951.517	1477
951.608	-101
951.698	-255
951.788	-211
951.879	92
951.969	-206
952.060	465
952.150	343
952.240	1074
952.331	-1516
952.421	1224
952.511	196
952.602	413
952.692	149
952.782	360
952.872	498
952.962	385
953.052	34
953.143	-246
953.233	617
953.323	1326
953.413	-110
953.503	870
953.593	253
953.683	529
953.773	-125
953.863	988
953.953	-422
954.042	251
954.132	726
954.222	749
954.312	-32
954.402	958
954.492	333
954.581	910
954.671	-488
954.761	9
954.850	804
954.940	483
955.030	-51
955.119	87
955.209	-189
955.298	231
955.388	471
955.477	478
955.567	-990
955.656	1098
955.746	428
955.835	-334
955.925	-146
956.014	533
956.103	347
956.193	162
956.282	-128
956.371	439
956.461	-107
956.550	729
956.639	319
956.728	201
956.817	281
956.906	284
956.995	869
957.085	792
957.174	-213
957.263	165
957.352	59
957.441	780
957.530	126
957.619	756
957.708	81
957.796	211
957.885	707
957.974	-308
958.063	390
958.152	-805
958.241	-90
958.329	371
958.418	-702
958.507	26
958.596	5
958.684	-15
958.773	81
958.861	188
958.950	-183
959.039	-18
959.127	218
959.216	997
959.304	-756
959.393	1256
959.481	538
959.570	522
959.658	-490
959.746	548
959.835	-6
959.923	606
960.011	478
960.100	645
960.188	-433
960.276	1106
960.365	-522
960.453	-139
960.541	-1057
960.629	242
960.717	-852
960.805	-486
960.893	-27
960.981	266
961.069	863
961.158	757
961.245	-161
961.333	427
961.421	54
961.509	559
961.597	-355
961.685	239
961.773	-277
961.861	655
961.949	885
962.036	-120
962.124	264
962.212	527
962.299	-152
962.387	711
962.475	-388
962.562	-737
962.650	586
962.738	406
962.825	-652
962.913	819
963.000	-180
963.088	-145
963.175	-216
963.263	3
963.350	-244
963.438	235
963.525	-611
963.612	1416
963.700	913
963.787	2857
963.874	1253
963.962	778
964.049	-162
964.136	767
964.223	-887
964.310	304
964.398	-668
964.485	54
964.572	-18
964.659	895
964.746	72
964.833	654
964.920	-15
965.007	-386
965.094	-486
965.181	802
965.268	-506
965.355	2
965.441	573
965.528	-475
965.615	267
965.702	-137
965.789	-840
965.875	-106
965.962	230
966.049	329
966.136	-52
966.222	-305
966.309	-416
966.395	72
966.482	-555
966.569	130
966.655	-233
966.742	327
966.828	75
966.915	57
967.001	225
967.087	-870
967.174	-649
967.260	769
967.347	34
967.433	390
967.519	1362
967.605	-283
967.692	-172
967.778	-270
967.864	272
967.950	60
968.036	-853
968.123	44
968.209	412
968.295	49
968.381	803
968.467	531
968.553	-806
968.639	955
968.725	-498
968.811	455
968.897	499
968.983	178
969.069	-453
969.154	705
969.240	333
969.326	-736
969.412	-274
969.497	212
969.583	-213
969.669	1939
969.755	-146
969.840	545
969.926	-158
970.012	597
970.097	559
970.183	-405
970.268	-404
970.354	338
970.439	-122
970.525	1841
970.610	-1072
970.696	382
970.781	87
970.866	-221
970.952	-51
971.037	-661
971.122	-172
971.208	424
971.293	-214
971.378	-962
971.463	-996
971.549	-88
971.634	-137
971.719	409
971.804	-142
971.889	958
971.974	-275
972.059	-492
972.144	-256
972.229	38
972.314	-288
972.399	1068
972.484	-375
972.569	137
972.654	-1323
972.739	514
972.824	-66
972.908	-295
972.993	212
973.078	-304
973.163	-378
973.247	-459
973.332	-1527
973.417	641
973.501	-668
973.586	-66
973.671	-621
973.755	138
973.840	-267
973.924	237
974.009	-53
974.093	-562
974.178	553
974.262	851
974.346	-1070
974.431	-146
974.515	-1368
974.600	-486
974.684	156
974.768	-95
974.852	33
974.937	-985
975.021	-486
975.105	114
975.189	-518
975.273	526
975.358	-872
975.442	-238
975.526	-153
975.610	-951
975.694	-926
975.778	1357
975.862	-1202
975.946	-1652
976.030	1623
976.114	-115
976.198	-337
976.281	-394
976.365	222
976.449	-415
976.533	-197
976.617	-660
976.700	-506
976.784	-1054
976.868	-168
976.951	326
977.035	-676
977.119	-229
977.202	-863
977.286	571
977.369	-386
977.453	824
977.536	-1035
977.620	-335
977.703	98
977.787	-1295
977.870	-417
977.953	444
978.037	-1032
978.120	108
978.203	-936
978.287	107
978.370	-974
978.453	403
978.536	476
978.620	560
978.703	-611
978.786	83
978.869	-535
978.952	-1230
979.035	578
979.118	-436
979.201	-812
979.284	-194
979.367	-531
979.450	-216
979.533	-643
979.616	55
979.699	-377
979.782	-417
979.865	0
979.948	288
980.030	-1065
980.113	-186
980.196	-1691
980.279	348
980.361	-222
980.444	-197
980.526	-265
980.609	442
980.692	-536
980.774	268
980.857	-1488
980.939	-256
981.022	-937
981.104	-1263
981.187	-828
981.269	-483
981.352	-906
981.434	-1141
981.516	-1656
981.599	717
981.681	-78
981.763	-202
981.846	-867
981.928	-599
982.010	-594
982.092	-382
982.174	-135
982.256	-781
982.339	-1316
982.421	-957
982.503	-436
982.585	-1098
982.667	-939
982.749	105
982.831	242
982.913	-896
982.995	119
983.077	-1361
983.158	-142
983.240	-1052
983.322	-276
983.404	314
983.486	-1218
983.568	1183
983.649	-257
983.731	-270
983.813	-1471
983.894	342
983.976	-909
984.058	-208
984.139	211
984.221	-1649
984.302	-458
984.384	-667
984.465	-1205
984.547	878
984.628	-457
984.710	546
984.791	-1031
984.872	-448
984.954	-917
985.035	592
985.116	-1204
985.198	-1025
985.279	23
985.360	-530
985.441	-724
985.522	173
985.604	-1097
985.685	-1090
985.766	-34
985.847	466
985.928	-1258
986.009	-1071
986.090	-487
986.171	291
986.252	-1517
986.333	-75
986.414	-835
986.495	-368
986.576	-486
986.656	-42
986.737	-134
986.818	-252
986.899	-733
986.980	-383
987.060	-8
987.141	199
987.222	-702
987.302	143
987.383	-266
987.464	-815
987.544	-38
987.625	78
987.705	849
987.786	-76
987.866	-368
987.947	-226
988.027	-497
988.108	-701
988.188	-267
988.268	112
988.349	-364
988.429	-36
988.509	-123
988.589	71
988.670	-2022
988.750	916
988.830	-1031
988.910	-933
988.990	-1148
989.070	-944
989.151	-984
989.231	-92
989.311	-330
989.391	-383
989.471	-643
989.551	-635
989.631	-1011
989.711	-368
989.791	-518
989.870	-464
989.950	626
990.030	-590
990.110	-442
990.190	-490
990.269	-628
990.349	-504
990.429	-1135
990.509	526
990.588	-1395
990.668	244
990.747	-905
990.827	-392
990.907	-424
990.986	-1331
991.066	-105
991.145	-1368
991.225	-166
991.304	-342
991.383	-1249
991.463	-984
991.542	270
991.622	-572
991.701	-805
991.780	-841
991.859	-1279
991.939	-819
992.018	-577
992.097	561
992.176	-244
992.256	-541
992.335	-1134
992.414	-966
992.493	-848
992.572	-864
992.651	-509
992.730	-1301
992.809	-2072
992.888	-721
992.967	-994
993.046	-346
993.125	-1090
993.203	-1193
993.282	-551
993.361	-1004
993.440	-1250
993.519	-1644
993.597	-1000
993.676	-417
993.755	-173
993.834	-1035
993.912	-1734
993.991	-463
994.069	-812
994.148	-1301
994.226	-354
994.305	287
994.384	-1042
994.462	46
994.540	-2109
994.619	-1473
994.697	-710
994.776	-1125
994.854	-108
994.932	-1140
995.011	-1586
995.089	-1457
995.167	-846
995.245	20
995.324	-1859
995.402	-232
995.480	-862
995.558	-830
995.636	-1070
995.714	-1161
995.792	-872
995.870	-1274
995.948	-1118
996.026	-504
996.104	-1490
996.182	-441
996.260	-2761
996.338	-1440
996.416	-1613
996.494	-861
996.572	-436
996.649	-721
996.727	-1766
996.805	-818
996.883	-1399
996.960	-1331
997.038	-1333
997.116	-533
997.193	-1425
997.271	-646
997.348	-1395
997.426	-710
997.504	-1005
997.581	-459
997.658	-1256
997.736	-1779
997.813	-1207
997.891	-114
997.968	-2058
998.046	-553
998.123	-1473
998.200	-779
998.277	-2295
998.355	-783
998.432	-2860
998.509	-1153
998.586	-1039
998.663	-686
998.741	-1270
998.818	-91
998.895	-831
998.972	-402
999.049	-1525
999.126	-1138
999.203	-1080
999.280	-539
999.357	-2323
999.434	-747
999.511	-1233
999.587	31
999.664	-1582
999.741	-121
999.818	-770
999.895	-1380
999.971	-1505
1000.048	-1181
1000.125	-866
1000.202	-1465
1000.278	-1213
1000.355	-413
1000.431	-2270
1000.508	-1753
1000.584	-1280
1000.661	-1197
1000.738	-1921
1000.814	-804
1000.890	-1223
1000.967	-1509
1001.043	-1348
1001.120	-1974
1001.196	-875
1001.272	-1371
1001.349	-414
1001.425	-1069
1001.501	-1344
1001.577	-1165
1001.654	-915
1001.730	-1762
1001.806	-979
1001.882	-1485
1001.958	-835
1002.034	-246
1002.110	-1048
1002.186	-1393
1002.262	-1664
1002.338	-1124
1002.414	-1279
1002.490	-603
1002.566	-1243
1002.642	-1619
1002.718	-683
1002.794	-1420
1002.870	-995
1002.945	-910
1003.021	-1687
1003.097	-1161
1003.173	-994
1003.248	-1840
1003.324	-1585
1003.400	-1249
1003.475	-2133
1003.551	-891
1003.626	-1884
1003.702	-1182
1003.777	-1218
1003.853	-195
1003.928	-1457
1004.004	-1617
1004.079	-845
1004.155	-822
1004.230	-2494
1004.305	-337
1004.381	-2091
1004.456	-1638
1004.531	-2187
1004.607	-1662
1004.682	-2234
1004.757	-1485
1004.832	-1267
1004.907	-1594
1004.982	-1133
1005.057	-1266
1005.133	-1616
1005.208	-879
1005.283	-1378
1005.358	-1354
1005.433	-1722
1005.508	-636
1005.583	-2238
1005.657	-1132
1005.732	-609
1005.807	-1482
1005.882	-1518
1005.957	-1553
1006.032	-898
1006.106	-1305
1006.181	-1727
1006.256	-1228
1006.331	-1825
1006.405	-1733
1006.480	-1510
1006.554	-1273
1006.629	-1031
1006.704	-1048
1006.778	-1515
1006.853	-661
1006.927	-1841
1007.002	-1501
1007.076	-1346
1007.150	-1421
1007.225	-2117
1007.299	-1337
1007.373	-2222
1007.448	-1843
1007.522	-985
1007.596	-1769
1007.671	-2081
1007.745	-586
1007.819	-1857
1007.893	-793
1007.967	-1517
1008.041	-2377
1008.115	-779
1008.190	-1633
1008.264	-1527
1008.338	-1565
1008.412	-2267
1008.486	-995
1008.560	-2070
1008.633	-2623
1008.707	-2334
1008.781	-1529
1008.855	-1681
1008.929	-1260
1009.003	-2452
1009.076	-1601
1009.150	-947
1009.224	-1526
1009.298	-1679
1009.371	-856
1009.445	-1583
1009.519	-737
1009.592	-1602
1009.666	-835
1009.739	-741
1009.813	-2083
1009.886	-839
1009.960	-2075
1010.033	-1069
1010.107	-953
1010.180	-2452
1010.253	-771
1010.327	-2374
1010.400	-1444
1010.473	-1747
1010.547	-313
1010.620	-1370
1010.693	-1479
1010.766	-1198
1010.840	-1401
1010.913	-1853
1010.986	-1394
1011.059	-1554
1011.132	-1749
1011.205	-1187
1011.278	-927
1011.351	-2031
1011.424	-2024
1011.497	-2229
1011.570	-1897
1011.643	-2365
1011.716	-1925
1011.789	-1842
1011.862	-1425
1011.934	-1678
1012.007	-2639
1012.080	-921
1012.153	-1202
1012.225	-1383
1012.298	-1709
1012.371	-2614
1012.443	-1350
1012.516	-2403
1012.588	-1681
1012.661	-1096
1012.733	-2019
1012.806	-1346
1012.879	-2030
1012.951	-1925
1013.023	-1758
1013.096	-1163
1013.168	-2027
1013.241	-2160
1013.313	-1625
1013.385	-3138
1013.458	-1355
1013.530	-678
1013.602	-1746
1013.674	-1231
1013.746	-1633
1013.819	-2153
1013.891	-355
1013.963	-2703
1014.035	-1484
1014.107	-1987
1014.179	-1290
1014.251	-2385
1014.323	-1169
1014.395	-2058
1014.467	-1317
1014.539	-1623
1014.611	-1553
1014.683	-1568
1014.754	-1083
1014.826	-2411
1014.898	-2005
1014.970	-1968
1015.042	-238
1015.113	-2014
1015.185	-1439
1015.257	-2617
1015.328	-1710
1015.400	-1806
1015.471	-1301
1015.543	-2829
1015.615	-1324
1015.686	-2153
1015.757	-1438
1015.829	-1952
1015.901	-1599
1015.972	-2107
1016.043	-1475
1016.115	-1737
1016.186	-1438
1016.257	-1864
1016.328	-1195
1016.400	-1053
1016.471	-2478
1016.542	-1924
1016.613	-1740
1016.685	-1932
1016.756	-1410
1016.827	-1980
1016.898	-2541
1016.969	-1388
1017.040	-1547
1017.111	-1808
1017.182	-1697
1017.253	-1993
1017.324	-1806
1017.395	-1871
1017.466	-1449
1017.537	-2308
1017.608	-1848
1017.678	-2621
1017.749	-2116
1017.820	-2620
1017.891	-1707
1017.961	-2368
1018.032	-1767
1018.103	-1440
1018.173	-1444
1018.244	-2195
1018.315	-1749
1018.385	-1359
1018.456	-1704
1018.526	-2547
1018.597	-1814
1018.667	-1734
1018.738	-2448
1018.808	-2715
1018.878	-1945
1018.949	-1861
1019.019	-2267
1019.089	-2433
1019.160	-2094
1019.230	-3119
1019.300	-1325
1019.371	-2445
1019.441	-1767
1019.511	-2543
1019.581	-1472
1019.651	-1768
1019.721	-1773
1019.791	-2127
1019.861	-1286
1019.931	-2096
1020.001	-2030
1020.071	-1917
1020.141	-1320
1020.211	-1593
1020.281	-1880
1020.351	-2890
1020.421	-662
1020.491	-1856
1020.560	-2045
1020.630	-1905
1020.700	-1560
1020.770	-2265
1020.839	-1735
1020.909	-2238
1020.979	-2197
1021.048	-2845
1021.118	-1374
1021.187	-2288
1021.257	-2147
1021.326	-2422
1021.396	-1909
1021.465	-1372
1021.535	-2124
1021.604	-2640
1021.674	-1729
1021.743	-2454
1021.812	-1740
1021.882	-2335
1021.951	-1698
1022.020	-2365
1022.089	-1614
1022.159	-2048
1022.228	-1293
1022.297	-2343
1022.366	-1145
1022.435	-2481
1022.504	-2221
1022.573	-2079
1022.642	-1289
1022.711	-2380
1022.781	-1803
1022.849	-1835
1022.918	-2386
1022.987	-1552
1023.056	-1897
1023.125	-1940
1023.194	-1694
1023.263	-1933
1023.331	-1473
1023.400	-2845
1023.469	-2017
1023.538	-2444
1023.606	-2292
1023.675	-1989
1023.744	-2239
1023.812	-2648
1023.881	-2126
1023.949	-2929
1024.018	-2001
1024.086	-2113
1024.155	-1423
1024.223	-2934
1024.292	-1661
1024.360	-2025
1024.429	-1231
1024.497	-1802
1024.565	-1641
1024.634	-2071
1024.702	-983
1024.770	-1835
1024.838	-2102
1024.907	-1846
1024.975	-1471
1025.043	-1594
1025.111	-1170
1025.179	-2213
1025.247	-1588
1025.315	-1551
1025.383	-1782
1025.451	-2379
1025.519	-2276
1025.587	-2722
1025.655	-1585
1025.723	-2194
1025.791	-1651
1025.859	-1637
1025.927	-1198
1025.995	-2094
1026.062	-1973
1026.130	-1667
1026.198	-1906
1026.266	-2701
1026.333	-1348
1026.401	-1830
1026.469	-1811
1026.536	-1851
1026.604	-1859
1026.671	-2401
1026.739	-1169
1026.806	-1946
1026.874	-1428
1026.941	-1180
1027.009	-1258
1027.076	-1711
1027.144	-1281
1027.211	-1995
1027.278	-1586
1027.345	-1989
1027.413	-1215
1027.480	-2090
1027.547	-1239
1027.614	-1740
1027.682	-1619
1027.749	-2577
1027.816	-1108
1027.883	-1947
1027.950	-1897
1028.017	-2582
1028.084	-1544
1028.151	-2725
1028.218	-1235
1028.285	-2436
1028.352	-2190
1028.419	-2698
1028.486	-2427
1028.553	-1904
1028.619	-2514
1028.686	-2386
1028.753	-2004
1028.820	-1873
1028.886	-1929
1028.953	-1911
1029.020	-2135
1029.086	-2076
1029.153	-1318
1029.220	-1551
1029.286	-1543
1029.353	-2555
1029.419	-2019
1029.486	-1999
1029.552	-2084
1029.619	-2383
1029.685	-2540
1029.751	-2033
1029.818	-1124
1029.884	-2576
1029.951	-1116
1030.017	-2043
1030.083	-1801
1030.149	-1354
1030.216	-1497
1030.282	-2128
1030.348	-1476
1030.414	-2532
1030.480	-2405
1030.546	-1864
1030.612	-2008
1030.678	-2695
1030.744	-418
1030.810	-2162
1030.876	-1627
1030.942	-2053
1031.008	-1680
1031.074	-3251
1031.140	-1776
1031.206	-2474
1031.272	-2678
1031.337	-2681
1031.403	-1360
1031.469	-1534
1031.534	-1258
1031.600	-1711
1031.666	-1799
1031.731	-2372
1031.797	-1671
1031.863	-2662
1031.928	-2054
1031.994	-2499
1032.059	-1827
1032.125	-1697
1032.190	-1891
1032.256	-2471
1032.321	-1615
1032.386	-1438
1032.452	-1671
1032.517	-2253
1032.582	-1968
1032.647	-1521
1032.713	-1646
1032.778	-1964
1032.843	-2091
1032.908	-2125
1032.974	-1930
1033.039	-1478
1033.104	-1508
1033.169	-2275
1033.234	-1473
1033.299	-2414
1033.364	-1547
1033.429	-2425
1033.494	-1544
1033.559	-2250
1033.624	-1677
1033.688	-1069
1033.753	-2029
1033.818	-2538
1033.883	-1519
1033.948	-1439
1034.013	-1051
1034.077	-1429
1034.142	-1122
1034.207	-1533
1034.271	-593
1034.336	-1034
1034.400	-1481
1034.465	-1712
1034.530	-1676
1034.594	-1962
1034.658	-1596
1034.723	-1673
1034.787	-1981
1034.852	-1897
1034.916	-1441
1034.981	-2496
1035.045	-1441
1035.109	-2234
1035.173	-718
1035.238	-2752
1035.302	-1993
1035.366	-1429
1035.430	-2254
1035.495	-1787
1035.559	-1802
1035.623	-2051
1035.687	-1999
1035.751	-1379
1035.815	-2285
1035.879	-2384
1035.943	-1241
1036.007	-3306
1036.071	-1703
1036.135	-2570
1036.198	-1756
1036.262	-2674
1036.326	-2181
1036.390	-2332
1036.454	-911
1036.517	-646
1036.581	-2053
1036.645	-1364
1036.709	-1680
1036.772	-1096
1036.836	-2135
1036.900	-1801
1036.963	-1830
1037.026	-2000
1037.090	-2021
1037.154	-2434
1037.217	-797
1037.280	-1980
1037.344	-1155
1037.407	-2598
1037.471	-1660
1037.534	-2222
1037.597	-1291
1037.661	-2322
1037.724	-1074
1037.787	-2271
1037.850	-1916
1037.913	-2756
1037.977	-1122
1038.040	-2206
1038.103	-2485
1038.166	-2516
1038.229	-1670
1038.292	-2400
1038.355	-1623
1038.418	-2246
1038.481	-2017
1038.544	-1877
1038.607	-1948
1038.670	-1202
1038.732	-2064
1038.795	-2016
1038.858	-2171
1038.921	-2030
1038.984	-1908
1039.046	-2265
1039.109	-1163
1039.172	-1919
1039.234	-1969
1039.297	-2021
1039.360	-2168
1039.422	-2091
1039.485	-2018
1039.547	-3391
1039.610	-1381
1039.672	-2674
1039.734	-1222
1039.797	-2731
1039.859	-2356
1039.922	-2317
1039.984	-2261
1040.046	-2662
1040.109	-2096
1040.171	-1791
1040.233	-1620
1040.295	-1955
1040.358	-1897
1040.420	-2199
1040.482	-2030
1040.544	-2802
1040.606	-667
1040.668	-2241
1040.730	-2410
1040.792	-2041
1040.854	-2114
1040.916	-2032
1040.978	-2375
1041.040	-1097
1041.102	-1676
1041.164	-2323
1041.225	-2039
1041.287	-2324
1041.349	-2325
1041.411	-2379
1041.472	-1652
1041.534	-2531
1041.596	-1465
1041.657	-1948
1041.719	-1807
1041.781	-2432
1041.842	-2090
1041.904	-2198
1041.965	-1779
1042.027	-2022
1042.088	-1439
1042.150	-2237
1042.211	-2278
1042.272	-1811
1042.334	-1307
1042.395	-2040
1042.456	-2113
1042.518	-2649
1042.579	-1769
1042.640	-2549
1042.701	-2389
1042.763	-2159
1042.824	-2347
1042.885	-2303
1042.946	-1941
1043.007	-2931
1043.068	-1975
1043.129	-2436
1043.190	-1695
1043.251	-1424
1043.312	-1340
1043.373	-2327
1043.434	-1194
1043.495	-2333
1043.556	-1669
1043.616	-2331
1043.677	-2155
1043.738	-1711
1043.799	-2163
1043.859	-2007
1043.920	-892
1043.981	-1809
1044.041	-1573
1044.102	-2811
1044.162	-1995
1044.223	-3185
1044.284	-1949
1044.344	-2229
1044.405	-1913
1044.465	-2630
1044.525	-1673
1044.586	-2096
1044.646	-2337
1044.707	-2229
1044.767	-2657
1044.827	-2458
1044.887	-2285
1044.948	-2714
1045.008	-1999
1045.068	-1689
1045.128	-1549
1045.188	-1895
1045.249	-752
1045.309	-2151
1045.369	-939
1045.429	-2334
1045.489	-2523
1045.549	-1979
1045.609	-2437
1045.669	-2039
1045.729	-2041
1045.789	-2780
1045.848	-1765
1045.908	-1954
1045.968	-1020
1046.028	-1441
1046.088	-1756
1046.147	-1630
1046.207	-1849
1046.267	-1878
1046.326	-1148
1046.386	-2459
1046.446	-436
1046.505	-977
1046.565	-684
1046.624	-793
1046.684	-423
1046.743	-921
1046.803	-779
1046.862	-693
1046.922	0
