'Start Wavelength	183.907
'End Wavelength	1046.922
'Gate Delay	5.000
'Gate Width (ms)	1.050
'Laser Output Level	0.000
'X Position	0.000
'Y Position	0.000
'Z Position	0.000
'Grid Point Number	1.000
'Shot Number	100.000
183.907	-580.000
183.977	-94.000
184.047	-51
184.116	148
184.186	-724
184.256	326
184.325	-109
184.395	-198
184.465	757
184.534	553
184.604	-655
184.674	973
184.743	-126
184.813	609
184.883	493
184.952	-79
185.022	-227
185.092	10
185.161	-401
185.231	589
185.301	-302
185.370	318
185.440	-515
185.509	436
185.579	-300
185.649	732
185.718	179
185.788	319
185.857	44
185.927	-48
185.996	516
186.066	136
186.136	-640
186.205	378
186.275	-520
186.344	-100
186.414	-501
186.483	-537
186.553	33
186.622	1087
186.692	-709
186.761	420
186.831	303
186.900	-51
186.970	315
187.039	586
187.109	453
187.178	417
187.248	-76
187.317	651
187.387	-579
187.456	217
187.526	2
187.595	1554
187.664	171
187.734	400
187.803	-177
187.873	460
187.942	744
188.012	1097
188.081	-800
188.150	-34
188.220	67
188.289	649
188.358	-561
188.428	920
188.497	-344
188.567	185
188.636	-553
188.705	1048
188.775	75
188.844	-558
188.913	-115
188.983	-81
189.052	-398
189.121	-89
189.191	-549
189.260	434
189.329	558
189.399	967
189.468	-301
189.537	-420
189.606	259
189.676	-78
189.745	181
189.814	763
189.883	-68
189.953	-5
190.022	310
190.091	1388
190.161	744
190.230	842
190.299	427
190.368	271
190.437	418
190.507	770
190.576	155
190.645	648
190.714	469
190.783	-40
190.853	754
190.922	286
190.991	-208
191.060	-70
191.129	-117
191.198	1147
191.268	180
191.337	546
191.406	805
191.475	336
191.544	-172
191.613	654
191.682	548
191.752	500
191.821	74
191.890	179
191.959	193
192.028	563
192.097	-341
192.166	348
192.235	512
192.304	1185
192.373	47
192.442	-309
192.511	219
192.580	1194
192.650	-458
192.719	609
192.788	-31
192.857	791
192.926	245
192.995	486
193.064	677
193.133	1415
193.202	1719
193.271	2040
193.340	567
193.409	1981
193.478	1318
193.547	2205
193.615	2289
193.684	2095
193.753	1390
193.822	1842
193.891	484
193.960	711
194.029	433
194.098	927
194.167	74
194.236	1382
194.305	70
194.374	1095
194.443	227
194.512	1313
194.580	661
194.649	1074
194.718	896
194.787	1073
194.856	-99
194.925	662
194.994	-25
195.062	574
195.131	451
195.200	959
195.269	802
195.338	617
195.407	144
195.475	773
195.544	680
195.613	233
195.682	460
195.751	573
195.819	84
195.888	451
195.957	1036
196.026	817
196.094	1077
196.163	379
196.232	884
196.301	1238
196.369	460
196.438	1370
196.507	991
196.576	925
196.644	606
196.713	1104
196.782	697
196.850	806
196.919	692
196.988	955
197.056	852
197.125	1423
197.194	616
197.262	873
197.331	880
197.400	825
197.468	870
197.537	1097
197.606	963
197.674	1649
197.743	1856
197.812	1921
197.880	2206
197.949	2006
198.017	1566
198.086	1917
198.155	367
198.223	1579
198.292	1933
198.360	1492
198.429	1007
198.497	906
198.566	987
198.635	2549
198.703	1162
198.772	2193
198.840	3020
198.909	2905
198.977	1840
199.046	1247
199.114	1495
199.183	1179
199.251	578
199.320	910
199.388	822
199.457	1102
199.525	616
199.594	1643
199.662	1064
199.731	825
199.799	715
199.867	399
199.936	631
200.004	1179
200.073	1084
200.141	1326
200.210	1071
200.278	1624
200.346	-160
200.415	1705
200.483	1184
200.552	1409
200.620	1163
200.688	583
200.757	938
200.825	799
200.893	-88
200.962	1016
201.030	725
201.098	487
201.167	679
201.235	1267
201.303	899
201.372	1147
201.440	795
201.508	1272
201.577	1200
201.645	1323
201.713	541
201.781	1204
201.850	1169
201.918	676
201.986	559
202.055	1725
202.123	1133
202.191	1115
202.259	404
202.327	1822
202.396	-154
202.464	1780
202.532	689
202.600	1133
202.669	508
202.737	870
202.805	569
202.873	1376
202.941	913
203.009	1361
203.078	-50
203.146	1300
203.214	662
203.282	856
203.350	1709
203.418	1847
203.487	1006
203.555	872
203.623	1122
203.691	588
203.759	832
203.827	1151
203.895	816
203.963	662
204.031	538
204.099	2219
204.168	917
204.236	2321
204.304	671
204.372	1408
204.440	1204
204.508	1546
204.576	483
204.644	1467
204.712	938
204.780	1982
204.848	564
204.916	1375
204.984	1085
205.052	1101
205.120	560
205.188	1814
205.256	879
205.324	1753
205.392	1217
205.460	1758
205.528	1548
205.596	1625
205.664	838
205.732	1365
205.799	3525
205.867	5319
205.935	2454
206.003	2365
206.071	924
206.139	1683
206.207	1683
206.275	1809
206.343	1000
206.411	2109
206.478	1748
206.546	2493
206.614	1176
206.682	2141
206.750	1609
206.818	2181
206.885	1874
206.953	1335
207.021	1646
207.089	1564
207.157	1619
207.225	2139
207.292	1051
207.360	1927
207.428	2040
207.496	2424
207.563	1646
207.631	2871
207.699	1393
207.767	1931
207.834	1768
207.902	2108
207.970	2094
208.038	1809
208.105	2210
208.173	2165
208.241	2331
208.309	3141
208.376	2388
208.444	2938
208.512	2568
208.579	1446
208.647	2301
208.715	3051
208.782	1368
208.850	2392
208.918	1970
208.985	2041
209.053	1948
209.120	1945
209.188	1294
209.256	2333
209.323	1142
209.391	2543
209.459	2746
209.526	1523
209.594	1293
209.661	1965
209.729	2413
209.796	2919
209.864	1748
209.932	1413
209.999	2494
210.067	2432
210.134	2218
210.202	2719
210.269	2655
210.337	3115
210.404	1976
210.472	2539
210.539	2903
210.607	1921
210.674	1636
210.742	2683
210.809	2110
210.877	2951
210.944	2132
211.012	1565
211.079	3409
211.146	2697
211.214	2045
211.281	3082
211.349	1934
211.416	2994
211.484	2794
211.551	2716
211.618	3132
211.686	2923
211.753	2164
211.821	2817
211.888	2262
211.955	2446
212.023	2613
212.090	2501
212.157	2530
212.225	3532
212.292	4294
212.359	7343
212.427	11530
212.494	8385
212.561	4177
212.629	4447
212.696	2781
212.763	3797
212.831	2254
212.898	3269
212.965	3491
213.032	3898
213.100	3135
213.167	2229
213.234	2527
213.301	3185
213.369	2282
213.436	3390
213.503	2031
213.570	3827
213.638	2293
213.705	2349
213.772	1640
213.839	2949
213.906	2855
213.973	3343
214.041	2013
214.108	3439
214.175	3073
214.242	2798
214.309	2580
214.376	2984
214.444	2519
214.511	3820
214.578	2391
214.645	3874
214.712	2646
214.779	3236
214.846	2644
214.913	3483
214.980	2485
215.048	3209
215.115	3310
215.182	3138
215.249	2404
215.316	3228
215.383	3233
215.450	3183
215.517	2455
215.584	2576
215.651	1981
215.718	2711
215.785	2630
215.852	2663
215.919	2502
215.986	2910
216.053	3112
216.120	2833
216.187	2741
216.254	3261
216.321	2967
216.388	3301
216.455	2780
216.522	3537
216.589	3126
216.656	4137
216.722	3180
216.789	4744
216.856	3716
216.923	4593
216.990	4362
217.057	4753
217.124	5067
217.191	5282
217.258	5203
217.324	5156
217.391	4318
217.458	5000
217.525	3618
217.592	4963
217.659	2494
217.725	4307
217.792	3377
217.859	4352
217.926	2486
217.993	2636
218.059	3274
218.126	2883
218.193	3358
218.260	3574
218.327	2320
218.393	2525
218.460	2377
218.527	2419
218.594	2199
218.660	3390
218.727	2959
218.794	1951
218.860	2845
218.927	2657
218.994	1939
219.061	2161
219.127	2123
219.194	2393
219.261	2047
219.327	2496
219.394	2536
219.461	2229
219.527	2105
219.594	3395
219.661	1917
219.727	1816
219.794	3632
219.860	3163
219.927	3232
219.994	4385
220.060	2985
220.127	4899
220.193	4667
220.260	4388
220.326	6158
220.393	8704
220.460	8643
220.526	7160
220.593	6443
220.659	7594
220.726	6357
220.792	10281
220.859	11206
220.925	11824
220.992	11936
221.058	13637
221.125	12875
221.191	9667
221.258	5532
221.324	5248
221.391	4279
221.457	3837
221.524	3167
221.590	4967
221.657	9943
221.723	8847
221.789	6732
221.856	7293
221.922	4602
221.989	4120
222.055	2658
222.121	2837
222.188	3976
222.254	3508
222.321	2185
222.387	2801
222.453	2078
222.520	2545
222.586	2314
222.652	2839
222.719	2030
222.785	3069
222.851	2087
222.918	2295
222.984	2550
223.050	2214
223.116	577
223.183	3784
223.249	2306
223.315	2696
223.382	1844
223.448	2096
223.514	2056
223.580	2057
223.647	1589
223.713	2120
223.779	1707
223.845	3071
223.911	2171
223.978	1246
224.044	2302
224.110	2683
224.176	3170
224.242	2471
224.309	1589
224.375	2603
224.441	2432
224.507	2393
224.573	677
224.639	2552
224.705	1137
224.772	2661
224.838	1705
224.904	2068
224.970	2125
225.036	2623
225.102	1764
225.168	2752
225.234	1643
225.300	2104
225.366	1312
225.432	2271
225.499	2266
225.565	2178
225.631	2099
225.697	3387
225.763	3653
225.829	5101
225.895	4620
225.961	4654
226.027	4867
226.093	4518
226.159	6599
226.225	11008
226.291	17356
226.357	21579
226.423	14823
226.489	10318
226.554	7771
226.620	7427
226.686	8517
226.752	11296
226.818	18959
226.884	25192
226.950	22323
227.016	15248
227.082	9895
227.148	7027
227.214	5026
227.279	4582
227.345	3508
227.411	3611
227.477	3271
227.543	5076
227.609	4784
227.674	4201
227.740	2571
227.806	3540
227.872	2880
227.938	3252
228.003	2765
228.069	2700
228.135	2630
228.201	3355
228.267	1397
228.332	2693
228.398	1548
228.464	3179
228.530	1796
228.595	2380
228.661	1577
228.727	2157
228.792	2904
228.858	2297
228.924	1280
228.990	4156
229.055	1540
229.121	3116
229.187	2264
229.252	1922
229.318	1672
229.384	2143
229.449	1254
229.515	498
229.581	1067
229.646	3368
229.712	1058
229.777	1909
229.843	1646
229.909	3726
229.974	3076
230.040	4150
230.105	3327
230.171	3155
230.236	4285
230.302	4984
230.368	3314
230.433	3402
230.499	3160
230.564	4766
230.630	2439
230.695	3568
230.761	3567
230.826	1809
230.892	3269
230.957	2162
231.023	2611
231.088	3292
231.154	2699
231.219	2922
231.284	2903
231.350	3878
231.415	2112
231.481	2598
231.546	2632
231.612	3243
231.677	1486
231.742	1841
231.808	3444
231.873	1457
231.939	559
232.004	3278
232.069	2942
232.135	1692
232.200	1766
232.265	3422
232.331	1528
232.396	1313
232.461	2167
232.527	1865
232.592	1582
232.657	2117
232.723	1862
232.788	1767
232.853	2017
232.918	2649
232.984	1349
233.049	1701
233.114	1131
233.179	2345
233.245	2730
233.310	2329
233.375	1085
233.440	2766
233.506	1530
233.571	1433
233.636	1159
233.701	1978
233.766	1793
233.832	1645
233.897	1816
233.962	1221
234.027	2206
234.092	2162
234.157	1156
234.222	2439
234.288	1745
234.353	2941
234.418	3577
234.483	4432
234.548	3481
234.613	2864
234.678	3102
234.743	3276
234.808	4769
234.873	3268
234.938	3896
235.004	3006
235.069	2366
235.134	2924
235.199	3151
235.264	2790
235.329	1597
235.394	3452
235.459	2792
235.524	2698
235.589	3372
235.654	2231
235.719	2552
235.784	4181
235.849	2909
235.913	3753
235.978	2423
236.043	3455
236.108	2745
236.173	2643
236.238	4132
236.303	2558
236.368	3149
236.433	5925
236.498	4067
236.563	7452
236.627	14996
236.692	33458
236.757	33954
236.822	17793
236.887	10653
236.952	9839
237.017	6425
237.081	9525
237.146	11349
237.211	22845
237.276	36029
237.341	42135
237.405	32105
237.470	16830
237.535	10275
237.600	9302
237.664	6852
237.729	4783
237.794	5871
237.859	13853
237.923	8580
237.988	5857
238.053	4412
238.118	4271
238.182	4601
238.247	5461
238.312	3060
238.376	3643
238.441	1553
238.506	4052
238.570	1581
238.635	4772
238.700	2923
238.764	2710
238.829	2429
238.893	2437
238.958	3943
239.023	2971
239.087	2073
239.152	3502
239.216	2112
239.281	2865
239.346	2792
239.410	2708
239.475	1990
239.539	4137
239.604	2111
239.668	3359
239.733	2880
239.797	3676
239.862	6117
239.926	4566
239.991	3321
240.055	2899
240.120	1990
240.184	2047
240.249	1006
240.313	2514
240.378	1744
240.442	2394
240.507	2413
240.571	1907
240.635	794
240.700	2388
240.764	1719
240.829	2332
240.893	1290
240.957	2979
241.022	2254
241.086	2791
241.151	524
241.215	1125
241.279	2799
241.344	1240
241.408	3002
241.472	3096
241.537	4521
241.601	4632
241.665	2816
241.730	3572
241.794	3694
241.858	3898
241.922	2804
241.987	4057
242.051	3329
242.115	3461
242.179	3357
242.244	3460
242.308	3547
242.372	3986
242.436	2173
242.501	3381
242.565	2744
242.629	3055
242.693	4565
242.757	2620
242.822	2978
242.886	3777
242.950	3420
243.014	2190
243.078	3045
243.142	3457
243.206	3003
243.271	4380
243.335	3689
243.399	7145
243.463	20478
243.527	44333
243.591	17201
243.655	6643
243.719	3957
243.783	4553
243.847	6928
243.911	8454
243.975	4113
244.040	3586
244.104	4135
244.168	3448
244.232	2496
244.296	4370
244.360	7057
244.424	3196
244.488	2713
244.552	2839
244.615	952
244.679	2599
244.743	1971
244.807	1882
244.871	1463
244.935	2576
244.999	813
245.063	2861
245.127	2937
245.191	5092
245.255	4612
245.319	3209
245.383	993
245.446	2728
245.510	470
245.574	2099
245.638	2325
245.702	1243
245.766	2922
245.829	3372
245.893	1216
245.957	2136
246.021	3123
246.085	2606
246.149	1833
246.212	4116
246.276	5441
246.340	3171
246.404	2512
246.467	3448
246.531	1208
246.595	3687
246.659	3084
246.722	1722
246.786	2574
246.850	3020
246.913	2476
246.977	1964
247.041	1670
247.104	1799
247.168	2080
247.232	2571
247.295	7466
247.359	4872
247.423	2114
247.486	2534
247.550	2894
247.614	2497
247.677	1780
247.741	1670
247.804	2177
247.868	2683
247.932	2122
247.995	7585
248.059	2819
248.122	2126
248.186	3032
248.249	4360
248.313	10733
248.376	12332
248.440	6469
248.503	2867
248.567	4363
248.630	3709
248.694	4252
248.757	6644
248.821	14528
248.884	10652
248.948	7673
249.011	10931
249.075	14477
249.138	13950
249.202	5959
249.265	5449
249.328	5117
249.392	4318
249.455	4921
249.519	4088
249.582	4510
249.645	5701
249.709	5780
249.772	5470
249.835	4872
249.899	5436
249.962	5308
250.025	4446
250.089	6410
250.152	9509
250.215	4956
250.279	5692
250.342	5550
250.405	5753
250.468	5064
250.532	8265
250.595	13687
250.658	40862
250.721	66534
250.785	28509
250.848	14099
250.911	9355
250.974	8353
251.038	8594
251.101	11927
251.164	8952
251.227	8362
251.290	10074
251.354	17643
251.417	56418
251.480	61943
251.543	50801
251.606	91745
251.669	82320
251.732	38982
251.795	27195
251.859	29733
251.922	64571
251.985	43293
252.048	18892
252.111	11536
252.174	10206
252.237	11738
252.300	21089
252.363	32431
252.426	73293
252.489	35775
252.552	15877
252.615	10113
252.678	11029
252.741	18988
252.804	35922
252.867	77056
252.930	43908
252.993	17434
253.056	11779
253.119	7474
253.182	6778
253.245	13462
253.308	10647
253.371	3635
253.434	4279
253.497	4044
253.559	7357
253.622	4139
253.685	2603
253.748	3008
253.811	2277
253.874	3337
253.937	2598
254.000	2911
254.062	3526
254.125	6774
254.188	5685
254.251	3082
254.314	3422
254.376	2321
254.439	3597
254.502	2155
254.565	3182
254.628	6514
254.690	2891
254.753	1648
254.816	1937
254.878	1182
254.941	4794
255.004	4447
255.067	2681
255.129	698
255.192	1684
255.255	583
255.317	2140
255.380	1371
255.443	1671
255.505	1323
255.568	824
255.631	1131
255.693	2452
255.756	177
255.819	3049
255.881	1408
255.944	1613
256.006	1514
256.069	1916
256.132	1495
256.194	2303
256.257	2464
256.319	2112
256.382	1891
256.444	4003
256.507	3743
256.569	3431
256.632	4729
256.694	7376
256.757	22600
256.819	62586
256.882	34250
256.944	13023
257.007	8409
257.069	6799
257.132	4684
257.194	6570
257.257	4779
257.319	5028
257.381	7088
257.444	20534
257.506	62613
257.569	76477
257.631	29483
257.693	14537
257.756	8751
257.818	6449
257.880	4392
257.943	4396
258.005	3085
258.067	2905
258.130	3252
258.192	3155
258.254	2357
258.317	2585
258.379	3156
258.441	4073
258.503	4372
258.566	3027
258.628	3399
258.690	2274
258.753	3747
258.815	4605
258.877	3038
258.939	3437
259.001	3882
259.064	2510
259.126	2217
259.188	3208
259.250	4046
259.312	3359
259.375	3523
259.437	3565
259.499	3201
259.561	2568
259.623	2379
259.685	3099
259.747	2734
259.809	3060
259.872	3956
259.934	7053
259.996	5061
260.058	3306
260.120	1611
260.182	3400
260.244	1887
260.306	1714
260.368	2182
260.430	1830
260.492	2271
260.554	3742
260.616	1991
260.678	3850
260.740	3964
260.802	1919
260.864	2031
260.926	1163
260.988	2417
261.050	1594
261.112	1993
261.174	4305
261.236	3126
261.298	2715
261.359	2498
261.421	2928
261.483	1741
261.545	3047
261.607	1068
261.669	1971
261.731	1115
261.793	3337
261.854	328
261.916	2166
261.978	1704
262.040	2063
262.102	2191
262.164	1886
262.225	1512
262.287	2009
262.349	1245
262.411	2359
262.472	1529
262.534	1828
262.596	1847
262.658	2118
262.719	468
262.781	1770
262.843	643
262.904	2681
262.966	2511
263.028	3680
263.090	16425
263.151	49623
263.213	16464
263.275	4679
263.336	3172
263.398	3177
263.459	1398
263.521	2454
263.583	2738
263.644	2528
263.706	860
263.767	435
263.829	755
263.891	1245
263.952	661
264.014	1291
264.075	791
264.137	1843
264.198	1702
264.260	739
264.321	1286
264.383	1149
264.444	1659
264.506	1662
264.567	1935
264.629	3062
264.690	1272
264.752	2497
264.813	1482
264.875	1272
264.936	1516
264.998	1580
265.059	2169
265.120	3323
265.182	6132
265.243	33461
265.305	42605
265.366	11842
265.427	5321
265.489	4838
265.550	1868
265.611	2674
265.673	1734
265.734	1883
265.795	1865
265.857	2968
265.918	3709
265.979	11787
266.040	51895
266.102	56298
266.163	16125
266.224	8382
266.286	5068
266.347	2750
266.408	2468
266.469	2237
266.530	1759
266.592	2184
266.653	1145
266.714	2270
266.775	679
266.836	1597
266.898	827
266.959	1159
267.020	1877
267.081	2419
267.142	1770
267.203	1872
267.264	1465
267.326	2278
267.387	1482
267.448	1423
267.509	1507
267.570	2149
267.631	1307
267.692	431
267.753	2217
267.814	2349
267.875	2960
267.936	5100
267.997	5285
268.058	5825
268.119	3114
268.180	3168
268.241	1076
268.302	2730
268.363	851
268.424	1360
268.485	1334
268.546	457
268.607	169
268.668	1184
268.729	489
268.790	1008
268.851	934
268.912	2023
268.972	1557
269.033	764
269.094	1365
269.155	1920
269.216	992
269.277	1697
269.338	1701
269.398	2221
269.459	855
269.520	1945
269.581	1934
269.642	2982
269.702	904
269.763	2746
269.824	1345
269.885	1860
269.945	2336
270.006	2120
270.067	979
270.128	1763
270.188	931
270.249	1892
270.310	650
270.370	1230
270.431	685
270.492	1963
270.553	1489
270.613	1654
270.674	2644
270.734	1791
270.795	513
270.856	1522
270.916	772
270.977	1663
271.038	1608
271.098	934
271.159	1862
271.219	1170
271.280	825
271.340	1493
271.401	720
271.462	1659
271.522	1164
271.583	1145
271.643	1552
271.704	1163
271.764	1572
271.825	1365
271.885	8150
271.946	15125
272.006	3814
272.066	5392
272.127	11406
272.187	3944
272.248	2292
272.308	2078
272.369	6407
272.429	3290
272.489	1864
272.550	604
272.610	1046
272.671	1509
272.731	983
272.791	1352
272.852	262
272.912	1599
272.972	198
273.033	741
273.093	288
273.153	1447
273.214	1350
273.274	1445
273.334	2572
273.394	6612
273.455	1194
273.515	1662
273.575	3817
273.635	2324
273.696	2708
273.756	7234
273.816	2063
273.876	1617
273.936	1591
273.997	2877
274.057	-28
274.117	1184
274.177	1460
274.237	7818
274.297	7539
274.358	2827
274.418	3912
274.478	3651
274.538	638
274.598	631
274.658	1682
274.718	1804
274.778	568
274.838	796
274.898	406
274.958	3126
275.018	6771
275.078	5231
275.138	586
275.198	1381
275.258	308
275.318	1044
275.378	574
275.438	1083
275.498	918
275.558	1282
275.618	3422
275.678	3879
275.738	1887
275.798	1582
275.858	190
275.918	763
275.978	956
276.038	1438
276.098	556
276.157	928
276.217	2257
276.277	1876
276.337	716
276.397	603
276.457	867
276.517	528
276.576	680
276.636	1028
276.696	458
276.756	1373
276.815	607
276.875	576
276.935	328
276.995	27
277.055	676
277.114	1136
277.174	366
277.234	2692
277.293	1255
277.353	648
277.413	292
277.472	468
277.532	-282
277.592	842
277.651	745
277.711	2158
277.771	1016
277.830	3758
277.890	2598
277.950	2303
278.009	8289
278.069	3929
278.128	2546
278.188	2970
278.248	1916
278.307	4124
278.367	3027
278.426	1294
278.486	438
278.545	1170
278.605	528
278.664	588
278.724	907
278.783	2531
278.843	8015
278.902	2708
278.962	1558
279.021	1654
279.081	1999
279.140	2139
279.199	2645
279.259	2751
279.318	1496
279.378	3237
279.437	5264
279.496	17535
279.556	34370
279.615	25444
279.675	7012
279.734	5300
279.793	5279
279.853	13221
279.912	4527
279.971	2938
280.031	1774
280.090	5477
280.149	9464
280.208	3689
280.268	16972
280.327	19251
280.386	3254
280.445	2549
280.505	2052
280.564	1516
280.623	196
280.682	1934
280.742	2114
280.801	1379
280.860	414
280.919	1066
280.978	630
281.037	836
281.097	38
281.156	1201
281.215	494
281.274	911
281.333	3114
281.392	2862
281.451	1641
281.510	257
281.569	762
281.628	1177
281.688	804
281.747	831
281.806	-192
281.865	1036
281.924	-408
281.983	1082
282.042	-63
282.101	1249
282.160	-195
282.219	452
282.278	-248
282.337	1400
282.396	817
282.454	697
282.513	627
282.572	1903
282.631	1222
282.690	884
282.749	-177
282.808	603
282.867	523
282.926	560
282.985	32
283.043	-111
283.102	308
283.161	750
283.220	836
283.279	2794
283.338	470
283.396	855
283.455	562
283.514	1283
283.573	1114
283.631	1097
283.690	978
283.749	623
283.808	1306
283.866	1408
283.925	-140
283.984	1187
284.043	209
284.101	1203
284.160	-334
284.219	1391
284.277	922
284.336	1264
284.395	2749
284.453	2462
284.512	1218
284.570	1622
284.629	455
284.688	1833
284.746	695
284.805	1559
284.863	1444
284.922	2747
284.981	2726
285.039	4073
285.098	8754
285.156	22424
285.215	77042
285.273	91065
285.332	45584
285.390	20931
285.449	10668
285.507	8240
285.566	5004
285.624	3480
285.683	2817
285.741	1916
285.799	1109
285.858	1749
285.916	1426
285.975	1995
286.033	262
286.091	1724
286.150	154
286.208	1092
286.267	186
286.325	901
286.383	606
286.442	572
286.500	448
286.558	695
286.616	1171
286.675	1121
286.733	1338
286.791	584
286.850	378
286.908	1254
286.966	1326
287.024	888
287.083	714
287.141	884
287.199	1085
287.257	2018
287.315	1638
287.374	1800
287.432	2964
287.490	3428
287.548	1869
287.606	2391
287.664	1339
287.723	2244
287.781	2118
287.839	3555
287.897	3982
287.955	7667
288.013	12742
288.071	29915
288.129	91268
288.187	197484
288.245	119331
288.303	44512
288.361	24493
288.419	16112
288.477	11596
288.535	8794
288.593	6509
288.651	4551
288.709	2567
288.767	2180
288.825	1474
288.883	2083
288.941	798
288.999	1065
289.057	1260
289.115	974
289.173	1467
289.231	1147
289.289	838
289.346	1143
289.404	772
289.462	1710
289.520	1363
289.578	1846
289.636	346
289.694	1287
289.751	777
289.809	777
289.867	486
289.925	1347
289.983	272
290.040	729
290.098	778
290.156	668
290.214	1251
290.271	613
290.329	838
290.387	674
290.444	211
290.502	695
290.560	641
290.617	382
290.675	-60
290.733	-252
290.790	979
290.848	1760
290.906	-101
290.963	1510
291.021	86
291.078	1033
291.136	602
291.194	534
291.251	1410
291.309	981
291.366	252
291.424	-30
291.481	429
291.539	-267
291.596	-707
291.654	177
291.711	187
291.769	715
291.826	370
291.884	747
291.941	-66
291.999	413
292.056	-316
292.114	1008
292.171	-108
292.228	1067
292.286	269
292.343	672
292.401	489
292.458	78
292.515	-628
292.573	543
292.630	145
292.687	442
292.745	159
292.802	765
292.859	1300
292.917	2040
292.974	1647
293.031	444
293.089	-430
293.146	630
293.203	320
293.260	239
293.318	-1052
293.375	1024
293.432	246
293.489	791
293.546	444
293.604	628
293.661	2055
293.718	8897
293.775	2769
293.832	1462
293.889	370
293.947	888
294.004	-13
294.061	30
294.118	9
294.175	2097
294.232	1765
294.289	1232
294.346	1123
294.403	3423
294.460	577
294.517	1215
294.574	-119
294.631	686
294.688	372
294.745	1585
294.802	7649
294.859	6732
294.916	1541
294.973	1501
295.030	-216
295.087	493
295.144	658
295.201	639
295.258	786
295.315	962
295.372	3148
295.429	5794
295.486	1686
295.542	1641
295.599	2075
295.656	3166
295.713	2898
295.770	4290
295.827	1751
295.883	1513
295.940	692
295.997	1002
296.054	726
296.111	868
296.167	757
296.224	200
296.281	-653
296.338	622
296.394	-310
296.451	863
296.508	1108
296.564	3946
296.621	2312
296.678	8344
296.734	13225
296.791	3825
296.848	1732
296.904	1572
296.961	3230
297.018	5705
297.074	5392
297.131	2087
297.187	1033
297.244	2409
297.301	7592
297.357	15208
297.414	4928
297.470	1930
297.527	454
297.583	1261
297.640	1161
297.696	332
297.753	-107
297.809	1070
297.866	-32
297.922	1048
297.979	-236
298.035	43
298.092	1051
298.148	3025
298.204	2986
298.261	1855
298.317	3357
298.374	11167
298.430	5579
298.486	2459
298.543	1680
298.599	2121
298.656	1522
298.712	5552
298.768	22863
298.824	21025
298.881	5488
298.937	2854
298.993	2233
299.050	2281
299.106	1533
299.162	1135
299.218	1237
299.275	857
299.331	2062
299.387	2477
299.443	9358
299.500	10984
299.556	4395
299.612	2227
299.668	1167
299.724	3866
299.780	3848
299.837	1064
299.893	1524
299.949	4668
300.005	6597
300.061	6173
300.117	13421
300.173	5795
300.229	1353
300.285	1475
300.341	1582
300.397	1226
300.453	51
300.510	426
300.566	-112
300.622	2114
300.678	5244
300.734	10254
300.790	5593
300.845	7971
300.901	3746
300.957	5747
301.013	3578
301.069	1673
301.125	1333
301.181	242
301.237	428
301.293	-59
301.349	508
301.405	132
301.461	1093
301.516	610
301.572	-854
301.628	571
301.684	-119
301.740	1086
301.796	2281
301.851	1759
301.907	1577
301.963	3782
302.019	7754
302.074	27657
302.130	29343
302.186	11746
302.242	4214
302.297	2019
302.353	2585
302.409	3616
302.464	2614
302.520	3416
302.576	5357
302.631	7718
302.687	3083
302.743	2384
302.798	863
302.854	1650
302.910	772
302.965	1750
303.021	1825
303.076	1964
303.132	1714
303.187	2523
303.243	1630
303.299	1676
303.354	1364
303.410	1248
303.465	604
303.521	1410
303.576	838
303.632	1760
303.687	2320
303.743	8355
303.798	6586
303.853	3354
303.909	1698
303.964	881
304.020	1944
304.075	2751
304.130	1389
304.186	2829
304.241	3832
304.297	3280
304.352	1949
304.358	1885
304.407	1365
304.449	1459
304.463	1492
304.518	949
304.539	1065
304.573	1249
304.629	2151
304.630	2148
304.684	2119
304.720	4968
304.739	6404
304.794	10148
304.811	8728
304.850	5305
304.902	2271
304.905	2082
304.960	1725
304.992	2210
305.015	2497
305.071	2875
305.083	2658
305.126	1919
305.173	969
305.181	818
305.236	785
305.264	1110
305.292	1421
305.347	1055
305.354	1075
305.402	1326
305.445	1899
305.457	2010
305.512	3283
305.535	2749
305.567	2064
305.622	1481
305.626	1613
305.678	4314
305.716	8758
305.733	10330
305.788	8703
305.807	7239
305.843	4956
305.897	8215
305.898	8252
305.953	9184
305.988	6119
306.008	4373
306.063	2676
306.078	2159
306.118	1064
306.168	1029
306.173	1029
306.228	632
306.259	957
306.283	1225
306.338	1179
306.349	1384
306.393	2309
306.440	3086
306.448	3164
306.503	3137
306.530	2756
306.558	2604
306.613	3962
306.620	4003
306.668	4090
306.711	5050
306.723	5214
306.778	3144
306.801	2852
306.833	2564
306.888	1704
306.892	1692
306.943	1818
306.982	1356
306.997	1127
307.052	1626
307.072	1441
307.107	1267
307.162	1864
307.163	1861
307.217	1507
307.253	1798
307.272	1988
307.327	1772
307.343	1942
307.381	2387
307.434	2281
307.436	2276
307.491	3204
307.524	3388
307.546	3623
307.600	5090
307.614	4951
307.655	3891
307.704	3707
307.710	3756
307.765	4114
307.795	4691
307.819	5288
307.874	6482
307.885	6853
307.929	9390
307.975	12732
307.984	13835
308.038	23940
308.065	31600
308.093	49873
308.148	97687
308.156	107305
308.202	153141
308.246	180844
308.257	177180
308.312	113550
308.336	82165
308.366	58439
308.421	32187
308.426	30425
308.475	21910
308.517	17104
308.530	15805
308.585	12964
308.607	11714
308.639	10381
308.694	9724
308.697	9677
308.748	8743
308.787	8864
308.803	9033
308.857	9566
308.877	9987
308.912	11393
308.967	14162
308.967	14231
309.021	20595
309.058	26397
309.076	33222
309.130	58967
309.148	70008
309.185	116375
309.238	194713
309.239	195228
309.293	203167
309.328	194749
309.348	175495
309.402	101730
309.418	81928
309.457	57438
309.508	33918
309.511	33008
309.566	24247
309.598	19952
309.620	17962
309.674	14307
309.688	13579
309.729	11538
309.778	9449
309.783	9263
309.837	7635
309.868	7086
309.892	7036
309.946	6842
309.959	7014
310.001	7436
310.049	7694
310.055	7532
310.109	5909
310.139	4658
310.163	3798
310.218	2881
310.229	2677
310.272	2742
310.319	2904
310.326	2837
310.381	2465
310.409	2240
310.435	2377
310.489	2686
310.499	2797
310.543	2730
310.589	2242
310.598	2100
310.652	1808
310.679	1482
310.706	1548
310.760	1691
310.769	1683
310.814	1248
310.859	1239
310.868	1260
310.923	1013
310.948	1030
310.977	1144
311.031	1145
311.038	1175
311.085	1251
311.128	1195
311.139	1232
311.193	1466
311.218	1551
311.247	1439
311.301	1329
311.308	1303
311.356	1138
311.398	1028
311.410	1009
311.464	958
311.488	921
311.518	940
311.572	983
311.578	991
311.626	1182
311.668	1351
311.680	1338
311.734	1265
311.758	1241
311.788	1259
311.842	1268
311.847	1271
311.896	1678
311.937	2062
311.950	1897
312.004	1136
312.027	815
312.058	1026
312.112	1414
312.117	1455
312.165	1283
312.207	1143
312.297	1034
312.386	1555
312.476	1300
312.566	1773
312.656	2472
312.745	934
312.835	1921
312.925	1306
313.015	1930
313.104	959
313.194	1583
313.284	1128
313.374	1539
313.463	1132
313.553	1652
313.643	782
313.732	1564
313.822	1397
313.912	909
314.001	1380
314.091	1988
314.180	492
314.270	2162
314.360	1187
314.449	1571
314.539	1035
314.628	1947
314.718	1284
314.808	1928
314.897	544
314.987	1546
315.076	1814
315.166	1671
315.255	2082
315.345	1324
315.434	1071
315.524	1940
315.613	913
315.703	1422
315.792	2363
315.881	6443
315.971	2268
316.060	1961
316.150	663
316.239	1446
316.328	1209
316.418	599
316.507	783
316.597	1516
316.686	919
316.775	1357
316.865	1627
316.954	1464
317.043	864
317.133	1659
317.222	986
317.311	1682
317.400	-446
317.490	2248
317.579	279
317.668	2125
317.757	1393
317.847	3928
317.936	11626
318.025	4184
318.114	2754
318.203	650
318.293	1408
318.382	890
318.471	1301
318.560	2825
318.649	2304
318.738	1718
318.828	333
318.917	291
319.006	1021
319.095	2074
319.184	3178
319.273	2664
319.362	1285
319.451	1650
319.540	629
319.629	1745
319.718	1231
319.807	1267
319.896	863
319.985	3805
320.074	1698
320.163	700
320.252	1106
320.341	1216
320.430	651
320.519	835
320.608	640
320.697	1799
320.786	494
320.875	1759
320.964	1615
321.053	1349
321.142	2211
321.230	1757
321.319	1843
321.408	2478
321.497	1741
321.586	1498
321.675	997
321.764	1784
321.852	1334
321.941	1712
322.030	1341
322.119	1883
322.207	3047
322.296	1952
322.385	1417
322.474	1501
322.562	2674
322.651	2250
322.740	1137
322.829	2201
322.917	1418
323.006	1377
323.095	1354
323.183	1556
323.272	742
323.361	2327
323.449	3094
323.538	1525
323.626	2187
323.715	1681
323.804	1240
323.892	2217
323.981	903
324.069	2155
324.158	1865
324.246	1757
324.335	1250
324.424	1388
324.512	1318
324.601	1711
324.689	2304
324.778	4477
324.866	1372
324.954	1184
325.043	37
325.131	316
325.220	1793
325.308	873
325.397	1436
325.485	821
325.574	928
325.662	987
325.750	977
325.839	868
325.927	750
326.015	651
326.104	1108
326.192	694
326.280	739
326.369	1447
326.457	691
326.545	1581
326.634	578
326.722	1003
326.810	427
326.898	1006
326.987	644
327.075	712
327.163	1695
327.251	940
327.340	1524
327.428	2698
327.516	1053
327.604	201
327.692	354
327.781	518
327.869	903
327.957	1192
328.045	994
328.133	1318
328.221	804
328.309	1247
328.397	1015
328.485	1590
328.574	663
328.662	2434
328.750	1142
328.838	1202
328.926	1309
329.014	1423
329.102	1475
329.190	1908
329.278	1172
329.366	1653
329.454	1037
329.542	1923
329.630	564
329.718	2399
329.806	2718
329.893	4346
329.981	8100
330.069	23205
330.157	80416
330.245	174985
330.333	98199
330.421	20080
330.509	6706
330.597	5455
330.684	2630
330.772	3513
330.860	1461
330.948	1461
331.036	1285
331.123	1627
331.211	935
331.299	942
331.387	1481
331.475	863
331.562	645
331.650	958
331.738	243
331.825	658
331.913	87
332.001	323
332.089	702
332.176	685
332.264	206
332.352	798
332.439	475
332.527	820
332.614	444
332.702	1517
332.790	218
332.877	597
332.965	696
333.052	360
333.140	272
333.228	1217
333.315	316
333.403	742
333.490	337
333.578	391
333.665	1384
333.753	1187
333.840	259
333.928	820
334.015	1036
334.103	2272
334.190	3585
334.278	2240
334.365	1210
334.452	2356
334.540	1500
334.627	1028
334.715	1224
334.802	1977
334.889	4019
334.977	4518
335.064	1521
335.151	1015
335.239	1318
335.326	1110
335.413	2592
335.501	2531
335.588	1300
335.675	804
335.762	560
335.850	1574
335.937	1899
336.024	4535
336.111	4963
336.199	3874
336.286	2242
336.373	1979
336.460	596
336.547	406
336.635	1538
336.722	561
336.809	-149
336.896	484
336.983	1166
337.070	3496
337.157	3072
337.245	1969
337.332	721
337.419	759
337.506	944
337.593	586
337.680	957
337.767	2414
337.854	409
337.941	763
338.028	993
338.115	17
338.202	915
338.289	1444
338.376	1104
338.463	1074
338.550	1095
338.637	901
338.724	213
338.811	1018
338.898	431
338.984	27
339.071	152
339.158	477
339.245	503
339.332	929
339.419	769
339.506	827
339.593	-50
339.679	514
339.766	145
339.853	-190
339.940	249
340.027	374
340.113	956
340.200	787
340.287	-335
340.374	781
340.460	455
340.547	-53
340.634	591
340.720	2147
340.807	834
340.894	242
340.980	126
341.067	320
341.154	1116
341.240	321
341.327	648
341.414	628
341.500	-435
341.587	957
341.674	-256
341.760	740
341.847	-577
341.933	949
342.020	-128
342.106	190
342.193	53
342.279	891
342.366	-410
342.452	1004
342.539	404
342.625	710
342.712	2679
342.798	1443
342.885	391
342.971	-94
343.058	404
343.144	-255
343.230	814
343.317	30
343.403	-506
343.490	921
343.576	-1286
343.662	-73
343.749	30
343.835	891
343.921	1946
344.008	12239
344.094	26586
344.180	4597
344.267	980
344.353	3479
344.439	3267
344.525	1222
344.612	1851
344.698	2791
344.784	593
344.870	1229
344.957	175
345.043	1558
345.129	-454
345.215	632
345.301	-379
345.387	385
345.474	-358
345.560	115
345.646	123
345.732	163
345.818	105
345.904	585
345.990	37
346.076	927
346.162	367
346.249	1103
346.335	-94
346.421	686
346.507	1810
346.593	6234
346.679	115
346.765	1462
346.851	776
346.937	-95
347.023	1285
347.108	99
347.194	-95
347.280	329
347.366	750
347.452	2452
347.538	8304
347.624	6255
347.710	2780
347.796	396
347.882	778
347.967	508
348.053	342
348.139	636
348.225	363
348.311	337
348.397	563
348.482	1140
348.568	101
348.654	274
348.740	984
348.825	-538
348.911	1587
348.997	4209
349.083	8288
349.168	1380
349.254	-57
349.340	647
349.425	79
349.511	1289
349.597	-40
349.682	1072
349.768	2943
349.854	1952
349.939	156
350.025	8
350.110	473
350.196	29
350.282	-451
350.367	477
350.453	-318
350.538	349
350.624	-428
350.709	493
350.795	-235
350.880	-119
350.966	318
351.051	965
351.137	-284
351.222	595
351.308	971
351.393	1296
351.479	-45
351.564	-269
351.649	382
351.735	700
351.820	168
351.906	-763
351.991	61
352.076	1831
352.162	1933
352.247	334
352.332	319
352.418	716
352.503	113
352.588	3617
352.673	1624
352.759	1509
352.844	-529
352.929	112
353.014	-671
353.100	991
353.185	30
353.270	120
353.355	860
353.441	282
353.526	288
353.611	883
353.696	205
353.781	1731
353.866	-419
353.952	961
354.037	-240
354.122	1439
354.207	752
354.292	223
354.377	245
354.462	336
354.547	296
354.632	450
354.717	64
354.802	30
354.887	-2
354.972	420
355.057	310
355.142	-67
355.227	621
355.312	742
355.397	384
355.482	1837
355.567	-431
355.652	1083
355.737	980
355.822	3576
355.907	1675
355.991	1568
356.076	173
356.161	425
356.246	40
356.331	1214
356.416	-237
356.501	10481
356.585	8640
356.670	118
356.755	1252
356.840	1196
356.924	7410
357.009	27723
357.094	8309
357.179	326
357.263	-59
357.348	1046
357.433	23
357.517	823
357.602	-253
357.687	377
357.771	590
357.856	158
357.941	1911
358.025	8158
358.110	38400
358.195	15887
358.279	1396
358.364	795
358.448	2158
358.533	6399
358.617	3465
358.702	4742
358.787	1324
358.871	711
358.956	621
359.040	426
359.125	-550
359.209	259
359.294	385
359.378	276
359.462	467
359.547	-144
359.631	-251
359.716	-857
359.800	-548
359.885	886
359.969	-484
360.053	612
360.138	182
360.222	-115
360.306	-121
360.391	689
360.475	882
360.559	1380
360.644	887
360.728	1096
360.812	5753
360.896	15128
360.981	3157
361.065	116
361.149	995
361.233	86
361.318	-1168
361.402	561
361.486	553
361.570	630
361.654	1288
361.739	685
361.823	9213
361.907	16144
361.991	1326
362.075	727
362.159	665
362.243	2471
362.327	1773
362.411	4915
362.495	1408
362.580	1030
362.664	863
362.748	295
362.832	983
362.916	2657
363.000	9505
363.084	18449
363.168	20232
363.252	3328
363.336	1595
363.420	2058
363.503	3225
363.587	2682
363.671	787
363.755	-756
363.839	1541
363.923	-58
364.007	933
364.091	1645
364.175	1782
364.258	9300
364.342	10021
364.426	18459
364.510	6714
364.594	3493
364.677	3207
364.761	12306
364.845	8882
364.929	1380
365.013	773
365.096	1625
365.180	612
365.264	2766
365.347	5167
365.431	2173
365.515	-685
365.598	-287
365.682	931
365.766	-545
365.849	389
365.933	-218
366.017	1032
366.100	7
366.184	-732
366.267	1091
366.351	-222
366.435	-120
366.518	-48
366.602	590
366.685	-227
366.769	311
366.852	425
366.936	733
367.019	-338
367.103	-299
367.186	1740
367.270	371
367.353	-651
367.436	642
367.520	-78
367.603	440
367.687	-764
367.770	101
367.853	597
367.937	2750
368.020	4376
368.104	-313
368.187	545
368.270	546
368.353	255
368.437	1286
368.520	1419
368.603	1025
368.687	1655
368.770	4512
368.853	961
368.936	1188
369.020	697
369.103	223
369.186	-312
369.269	-434
369.352	221
369.436	-69
369.519	292
369.602	-1295
369.685	2065
369.768	-420
369.851	885
369.934	-416
370.018	-741
370.101	-588
370.184	1676
370.267	-15
370.350	685
370.433	1220
370.516	5393
370.599	7899
370.682	-286
370.765	2845
370.848	2985
370.931	5866
371.014	2256
371.097	-423
371.180	734
371.263	257
371.346	-1126
371.429	630
371.511	-574
371.594	554
371.677	338
371.760	1231
371.843	1133
371.926	14083
372.009	32970
372.091	9964
372.174	2035
372.257	8096
372.340	1212
372.423	1076
372.505	2162
372.588	-654
372.671	1474
372.754	5928
372.836	2851
372.919	1886
373.002	1514
373.085	-119
373.167	683
373.250	1710
373.332	6945
373.415	18056
373.498	39670
373.580	12963
373.663	20113
373.746	26395
373.828	3101
373.911	2089
373.993	386
374.076	2704
374.159	1188
374.241	1885
374.324	4848
374.406	3878
374.489	9248
374.571	25396
374.654	7713
374.736	4246
374.819	14012
374.901	25350
374.983	25635
375.066	4024
375.148	600
375.231	2271
375.313	2890
375.395	1406
375.478	891
375.560	211
375.643	152
375.725	4510
375.807	17263
375.890	11969
375.972	131
376.054	1619
376.136	284
376.219	506
376.301	4583
376.383	12376
376.465	4001
376.548	218
376.630	2056
376.712	8753
376.794	3631
376.877	576
376.959	-580
377.041	1396
377.123	338
377.205	684
377.287	-1122
377.369	269
377.452	-376
377.534	553
377.616	572
377.698	-653
377.780	-1311
377.862	-276
377.944	819
378.026	-607
378.108	492
378.190	-492
378.272	109
378.354	679
378.436	-602
378.518	-956
378.600	-331
378.682	798
378.764	1579
378.846	2389
378.928	-554
379.010	90
379.091	896
379.173	-291
379.255	-1222
379.337	-235
379.419	1247
379.501	4845
379.583	538
379.664	134
379.746	-124
379.828	3576
379.910	3338
379.991	3325
380.073	-798
380.155	101
380.237	-734
380.318	-327
380.400	-1080
380.482	350
380.564	-91
380.645	218
380.727	-494
380.809	1141
380.890	-867
380.972	-885
381.053	-426
381.135	113
381.217	-408
381.298	2719
381.380	525
381.461	2065
381.543	9255
381.624	10774
381.706	1558
381.787	687
381.869	978
381.951	6271
382.032	26597
382.113	15989
382.195	-605
382.276	1938
382.358	1228
382.439	8782
382.521	12340
382.602	21560
382.684	7333
382.765	9713
382.846	6867
382.928	7158
383.009	2707
383.090	3285
383.172	10074
383.253	15863
383.334	7048
383.416	12109
383.497	5903
383.578	1126
383.659	2186
383.741	10185
383.822	26580
383.903	11629
383.984	5238
384.066	13415
384.147	5509
384.228	1155
384.309	-322
384.390	258
384.471	-369
384.553	43
384.634	299
384.715	829
384.796	-10
384.877	-442
384.958	2178
385.039	2128
385.120	17
385.201	1649
385.282	62
385.363	740
385.444	-735
385.525	1822
385.606	6360
385.687	6337
385.768	797
385.849	1451
385.930	13342
386.011	25003
386.092	4137
386.173	1215
386.254	-104
386.335	1419
386.416	-405
386.496	1748
386.577	2765
386.658	715
386.739	-563
386.820	1332
386.901	-177
386.981	885
387.062	272
387.143	183
387.224	2696
387.304	2172
387.385	1400
387.466	-682
387.547	971
387.627	-113
387.708	1681
387.789	6356
387.869	6762
387.950	2843
388.031	245
388.111	-1516
388.192	1056
388.273	1592
388.353	338
388.434	546
388.514	1123
388.595	10273
388.676	10652
388.756	3602
388.837	3150
388.917	2288
388.998	-855
389.078	918
389.159	429
389.239	-716
389.320	1593
389.400	-1365
389.480	1419
389.561	3237
389.641	2377
389.722	452
389.802	-205
389.883	1534
389.963	5631
390.043	2823
390.124	-164
390.204	1594
390.284	4149
390.365	2943
390.445	12548
390.525	61923
390.605	53311
390.686	6364
390.766	1947
390.846	1574
390.927	-69
391.007	-1201
391.087	1527
391.167	242
391.247	-657
391.328	1716
391.408	718
391.488	609
391.568	-362
391.648	627
391.728	1189
391.808	2002
391.888	326
391.969	2615
392.049	2468
392.129	2869
392.209	2166
392.289	5920
392.369	2510
392.449	2172
392.529	1374
392.609	2827
392.689	2621
392.769	5792
392.849	5011
392.929	6329
393.009	8598
393.089	9407
393.169	14838
393.248	60860
393.328	259838
393.408	260733
393.488	55990
393.568	14224
393.648	7803
393.728	5162
393.807	3928
393.887	5405
393.967	5127
394.047	7484
394.127	10413
394.206	23470
394.286	86006
394.366	299443
394.446	303911
394.525	89060
394.605	24468
394.685	12866
394.764	9276
394.844	7320
394.924	6207
395.003	4136
395.083	3765
395.163	3629
395.242	3276
395.322	3576
395.402	2614
395.481	6382
395.561	4154
395.640	9396
395.720	12785
395.799	14418
395.879	18902
395.958	38211
396.038	131472
396.117	383032
396.197	392993
396.276	142732
396.356	43567
396.435	22049
396.515	15360
396.594	11736
396.673	18003
396.753	72334
396.832	234791
396.912	143812
396.991	24170
397.070	9091
397.150	3347
397.229	4072
397.308	4674
397.388	7578
397.467	5247
397.546	2060
397.625	-390
397.705	2720
397.784	734
397.863	1348
397.942	678
398.022	1132
398.101	747
398.180	2454
398.259	42
398.338	915
398.417	-148
398.497	132
398.576	1267
398.655	-181
398.734	-122
398.813	876
398.892	751
398.971	2962
399.050	-231
399.129	-661
399.208	-151
399.287	1428
399.366	-788
399.445	765
399.524	108
399.603	-1388
399.682	812
399.761	1062
399.840	4169
399.919	2622
399.998	4
400.077	-800
400.156	-894
400.235	2558
400.313	-380
400.392	-855
400.471	1412
400.550	2095
400.629	-394
400.708	1032
400.786	-563
400.865	-296
400.944	-1535
401.023	1379
401.102	-351
401.180	106
401.259	-242
401.338	-212
401.416	-171
401.495	-432
401.574	939
401.652	-1238
401.731	632
401.810	-1023
401.888	-928
401.967	-334
402.046	-462
402.124	-87
402.203	-1118
402.281	871
402.360	-495
402.438	776
402.517	-1106
402.596	-392
402.674	-1103
402.753	-328
402.831	-323
402.910	93
402.988	1067
403.066	4671
403.145	4293
403.223	2780
403.302	4937
403.380	4697
403.459	3090
403.537	1360
403.615	-954
403.694	-1150
403.772	513
403.850	523
403.929	-456
404.007	-819
404.085	498
404.164	478
404.242	99
404.320	6107
404.398	20657
404.477	16262
404.555	16015
404.633	15334
404.711	12541
404.789	8448
404.868	1150
404.946	-191
405.024	-8
405.102	466
405.180	-1560
405.258	-1481
405.336	75
405.415	-1144
405.493	-723
405.571	1357
405.649	-434
405.727	-1106
405.805	293
405.883	268
405.961	-266
406.039	-457
406.117	-1403
406.195	435
406.273	452
406.351	8769
406.429	4623
406.507	-253
406.585	-1518
406.663	668
406.740	-58
406.818	-1286
406.896	-891
406.974	959
407.052	-867
407.130	4040
407.208	5926
407.285	1386
407.363	-1428
407.441	-371
407.519	-348
407.596	1118
407.674	8056
407.752	38696
407.830	25261
407.907	3119
407.985	-603
408.063	-490
408.141	-1090
408.218	499
408.296	-1087
408.373	-1037
408.451	-13
408.529	-538
408.606	-931
408.684	-477
408.762	-851
408.839	-59
408.917	-955
408.994	149
409.072	-1444
409.149	-1015
409.227	-32
409.304	72
409.382	379
409.459	-34
409.537	1105
409.614	1083
409.692	347
409.769	11
409.846	155
409.924	2046
410.001	-1353
410.079	569
410.156	186
410.233	959
410.311	460
410.388	90
410.465	-225
410.543	-1418
410.620	376
410.697	-276
410.775	-1187
410.852	-1198
410.929	-289
411.006	1114
411.083	-774
411.161	-660
411.238	-363
411.315	-1064
411.392	-129
411.469	180
411.547	-220
411.624	-1535
411.701	-556
411.778	-558
411.855	-82
411.932	-286
412.009	-587
412.086	-182
412.163	306
412.240	-662
412.317	-502
412.394	-989
412.471	-311
412.548	0
412.625	-2041
412.702	-381
412.779	-454
412.856	13
412.933	-963
413.010	-874
413.087	173
413.164	397
413.241	422
413.318	-450
413.395	-24
413.471	-772
413.548	-609
413.625	-6
413.702	-1137
413.779	28
413.855	-358
413.932	-1129
414.009	-924
414.086	305
414.162	-307
414.239	-154
414.316	162
414.393	2610
414.469	-722
414.546	-334
414.623	-544
414.699	-474
414.776	-1172
414.853	-1002
414.929	-264
415.006	-265
415.082	-1191
415.159	16
415.236	-731
415.312	394
415.389	-269
415.465	-967
415.542	-294
415.618	-794
415.695	-566
415.771	-631
415.848	-460
415.924	-760
416.000	-387
416.077	803
416.153	-1374
416.230	-1006
416.306	-608
416.383	-1020
416.459	-322
416.535	-510
416.612	-216
416.688	-511
416.764	-1497
416.841	-1212
416.917	-964
416.993	-713
417.069	-187
417.146	-582
417.222	1798
417.298	-431
417.374	-965
417.451	157
417.527	-1152
417.603	-1060
417.679	-674
417.755	-189
417.831	-1050
417.908	357
417.984	-1033
418.060	-1602
418.136	-716
418.212	-676
418.288	-662
418.364	-73
418.440	-1681
418.516	244
418.592	-855
418.668	-934
418.744	-919
418.820	-146
418.896	-557
418.972	-1482
419.048	-1177
419.124	483
419.200	-2049
419.276	-619
419.352	-1289
419.428	3
419.504	-806
419.579	-297
419.655	-294
419.731	-334
419.807	-337
419.883	-309
419.959	-428
420.034	-143
420.110	-247
420.186	1268
420.262	858
420.337	5
420.413	-1159
420.489	-177
420.565	443
420.640	-913
420.716	-191
420.792	-1760
420.867	661
420.943	-614
421.019	-716
421.094	-124
421.170	-119
421.245	-688
421.321	39
421.397	-2
421.472	5888
421.548	21091
421.623	9968
421.699	1586
421.774	-38
421.850	252
421.925	757
422.001	1536
422.076	819
422.152	1315
422.227	1682
422.302	3796
422.378	5666
422.453	11663
422.529	34592
422.604	130989
422.679	239348
422.755	130765
422.830	35279
422.905	13446
422.981	5747
423.056	3793
423.131	3610
423.207	1858
423.282	966
423.357	1148
423.432	7
423.508	1164
423.583	-271
423.658	730
423.733	271
423.808	-214
423.883	16
423.959	-405
424.034	-263
424.109	441
424.184	-834
424.259	-791
424.334	-787
424.409	-851
424.484	-768
424.559	-312
424.634	-1046
424.709	-320
424.784	-902
424.859	-507
424.934	-1683
425.009	638
425.084	859
425.159	-594
425.234	-93
425.309	-1183
425.384	-865
425.459	-1055
425.534	-418
425.609	-1078
425.683	-1127
425.758	-263
425.833	-1155
425.908	-106
425.983	-612
426.058	1839
426.132	-493
426.207	-511
426.282	-201
426.357	-506
426.431	-1514
426.506	291
426.581	-389
426.655	-1002
426.730	-1220
426.805	-429
426.879	-601
426.954	-558
427.029	-743
427.103	1554
427.178	5651
427.253	1877
427.327	-464
427.402	-1043
427.476	-1401
427.551	-265
427.625	-643
427.700	-298
427.774	-639
427.849	175
427.923	-1562
427.998	-1061
428.072	-1101
428.147	1318
428.221	6961
428.296	28170
428.370	14637
428.444	970
428.519	-341
428.593	-770
428.667	-994
428.742	141
428.816	1289
428.890	14758
428.965	24012
429.039	5354
429.113	-950
429.188	-887
429.262	-618
429.336	-351
429.410	-310
429.485	38
429.559	176
429.633	-108
429.707	-732
429.781	1410
429.855	12110
429.930	19329
430.004	3741
430.078	2923
430.152	9677
430.226	49699
430.300	49212
430.374	5530
430.448	1411
430.522	114
430.596	1267
430.670	4133
430.744	22250
430.818	25665
430.892	3398
430.966	113
431.040	-211
431.114	-960
431.188	-1421
431.262	-324
431.336	-1708
431.410	18
431.484	-1364
431.557	-477
431.631	-815
431.705	1183
431.779	5230
431.853	27426
431.927	16671
432.000	1843
432.074	-208
432.148	-362
432.222	-953
432.295	312
432.369	-1252
432.443	-636
432.516	1987
432.590	5769
432.664	894
432.737	-1004
432.811	-1102
432.885	-327
432.958	-364
433.032	-959
433.106	-982
433.179	-151
433.253	-1479
433.326	-1073
433.400	-1665
433.473	-323
433.547	-1504
433.620	-511
433.694	-1216
433.767	-111
433.841	-1254
433.914	-400
433.988	-1498
434.061	-921
434.134	-775
434.208	-1371
434.281	-1234
434.355	-1141
434.428	-1241
434.501	-281
434.575	-1508
434.648	-615
434.721	-965
434.795	-591
434.868	-1036
434.941	-641
435.014	-1694
435.088	-822
435.161	-1455
435.234	-1052
435.307	-1381
435.381	-905
435.454	-1493
435.527	-774
435.600	-867
435.673	-541
435.746	-585
435.819	-517
435.892	-851
435.966	60
436.039	-2090
436.112	-739
436.185	-1523
436.258	-786
436.331	-1242
436.404	-837
436.477	-1351
436.550	-288
436.623	-643
436.696	-1224
436.769	-1004
436.842	-756
436.915	-1175
436.987	-848
437.060	-1053
437.133	-611
437.206	-1348
437.279	254
437.352	-1389
437.425	-846
437.498	-1116
437.570	-373
437.643	-1377
437.716	-368
437.789	-1573
437.861	-884
437.934	-995
438.007	-1020
438.080	-1183
438.152	-854
438.225	-742
438.298	4011
438.370	12288
438.443	3885
438.516	-949
438.588	-414
438.661	-1775
438.734	-662
438.806	-1240
438.879	-565
438.951	-1282
439.024	-500
439.096	-1692
439.169	-382
439.241	-581
439.314	-1066
439.386	-944
439.459	-829
439.531	-521
439.604	-353
439.676	-461
439.749	207
439.821	-1448
439.893	-684
439.966	-1036
440.038	-829
440.110	-1278
440.183	-584
440.255	-1060
440.327	-683
440.400	212
440.472	4978
440.544	2354
440.617	-620
440.689	-739
440.761	-264
440.833	-409
440.905	-638
440.978	-1070
441.050	-880
441.122	-837
441.194	-1855
441.266	-1094
441.338	-686
441.411	-845
441.483	1155
441.555	251
441.627	-701
441.699	-514
441.771	-814
441.843	-1179
441.915	-851
441.987	-1166
442.059	-718
442.131	-285
442.203	-578
442.275	-1043
442.347	-512
442.419	975
442.491	9395
442.563	22968
442.635	8783
442.706	675
442.778	-223
442.850	-1350
442.922	-1303
442.994	-1538
443.066	-361
443.137	-445
443.209	-68
443.281	-229
443.353	1405
443.425	14816
443.496	50933
443.568	42822
443.640	12973
443.711	1134
443.783	-382
443.855	-973
443.926	-1141
443.998	-1477
444.070	-236
444.141	-1600
444.213	-902
444.285	-178
444.356	-1231
444.428	-443
444.499	-1124
444.571	-1503
444.642	-819
444.714	-974
444.785	-834
444.857	-674
444.928	-408
445.000	-714
445.071	184
445.143	-461
445.214	459
445.285	1089
445.357	6414
445.428	36488
445.500	82619
445.571	42245
445.642	19377
445.714	3765
445.785	1201
445.856	-1730
445.928	-331
445.999	-927
446.070	-1454
446.141	-1198
446.213	-122
446.284	-1046
446.355	-167
446.426	-863
446.497	-748
446.569	-1114
446.640	-352
446.711	-747
446.782	-1967
446.853	-919
446.924	-291
446.995	-1357
447.066	-996
447.138	-663
447.209	-819
447.280	-1640
447.351	-1232
447.422	-1919
447.493	-1458
447.564	-470
447.635	-1516
447.706	-1269
447.777	-539
447.847	-812
447.918	-1107
447.989	-1243
448.060	-654
448.131	-445
448.202	-835
448.273	-799
448.344	-3
448.414	-965
448.485	-710
448.556	-1256
448.627	153
448.698	-376
448.768	-1382
448.839	-1144
448.910	-1061
448.981	-98
449.051	26
449.122	-868
449.193	403
449.263	-719
449.334	-287
449.405	-102
449.475	446
449.546	2
449.616	-508
449.687	90
449.758	-164
449.828	-711
449.899	-250
449.969	-546
450.040	-533
450.110	-307
450.181	60
450.251	-306
450.322	-394
450.392	-483
450.463	397
450.533	-212
450.604	-286
450.674	-601
450.744	105
450.815	-1171
450.885	477
450.955	-143
451.026	-47
451.096	-1871
451.166	-664
451.237	-1672
451.307	-300
451.377	-613
451.447	-1130
451.518	-852
451.588	-1286
451.658	-687
451.728	-34
451.799	-63
451.869	-31
451.939	-1335
452.009	-937
452.079	-702
452.149	-225
452.219	-1236
452.289	205
452.360	-375
452.430	-614
452.500	-756
452.570	-178
452.640	816
452.710	547
452.780	1327
452.850	1291
452.920	-275
452.990	28
453.060	-484
453.129	-1293
453.199	-1299
453.269	748
453.339	694
453.409	640
453.479	1233
453.549	1758
453.619	1409
453.688	-338
453.758	-261
453.828	-305
453.898	-1314
453.968	-1276
454.037	-97
454.087	-308
454.107	-406
454.168	-923
454.177	-1015
454.247	-858
454.249	-843
454.316	-804
454.330	-664
454.386	-148
454.411	-485
454.456	-1246
454.492	-706
454.525	-247
454.574	-124
454.595	-73
454.655	-236
454.665	-257
454.734	-641
454.736	-617
454.804	-507
454.817	-225
454.873	542
454.898	594
454.943	581
454.979	-109
455.013	-703
455.060	-571
455.082	-426
455.141	-684
455.152	-751
455.221	1131
455.222	1176
455.291	1362
455.303	1757
455.360	3286
455.384	5124
455.430	7763
455.465	5587
455.499	3611
455.546	1263
455.569	81
455.627	-153
455.638	-166
455.707	-677
455.708	-664
455.777	-275
455.789	-300
455.846	-462
455.869	-566
455.916	-902
455.950	-717
455.985	-489
456.031	-595
456.054	-651
456.112	47
456.124	162
456.193	-434
456.193	-448
456.262	-818
456.274	-718
456.332	-269
456.355	-484
456.401	-1054
456.436	-652
456.470	-204
456.516	-437
456.540	-601
456.597	-532
456.609	-484
456.678	-90
456.678	-100
456.747	-523
456.759	-602
456.817	-682
456.840	-321
456.886	-26
456.920	-115
456.955	-21
457.001	107
457.024	136
457.082	-335
457.093	-434
457.162	161
457.163	172
457.232	-314
457.243	-268
457.301	-259
457.324	-466
457.370	-700
457.405	-84
457.439	503
457.485	-39
457.508	-309
457.566	226
457.577	308
457.646	411
457.647	419
457.715	954
457.727	940
457.784	1048
457.808	1813
457.853	2852
457.889	3640
457.922	3898
457.969	2603
457.991	2423
458.050	2364
458.060	2387
458.129	5393
458.130	5450
458.198	5221
458.211	4862
458.267	2822
458.292	1869
458.336	1016
458.372	978
458.405	1569
458.453	2421
458.474	2981
458.533	4962
458.543	5146
458.611	8101
458.614	8192
458.680	5726
458.694	4691
458.749	2266
458.775	1513
458.818	721
458.855	435
458.887	339
458.936	456
458.955	430
459.016	184
459.024	226
459.093	1158
459.097	1153
459.162	295
459.177	384
459.230	879
459.257	868
459.299	772
459.338	658
459.368	700
459.418	832
459.437	737
459.499	839
459.505	888
459.574	1007
459.579	1003
459.643	476
459.659	347
459.711	267
459.740	480
459.780	476
459.820	178
459.849	206
459.900	693
459.917	823
459.981	1383
459.986	1375
460.054	971
460.061	973
460.123	1424
460.141	1344
460.191	1075
460.222	1037
460.260	1088
460.302	1358
460.328	1589
460.382	1869
460.397	1872
460.462	2026
460.465	2185
460.534	6235
460.543	6745
460.602	24592
460.623	31589
460.671	48680
460.703	65848
460.739	63690
460.783	52431
460.808	42891
460.864	8777
460.876	6058
460.944	2134
460.945	2098
461.013	1721
461.024	1650
461.081	951
461.104	1075
461.150	1441
461.184	1273
461.218	1155
461.264	1156
461.286	1262
461.345	1096
461.355	1035
461.423	1551
461.425	1541
461.491	988
461.505	1065
461.559	2123
461.585	2473
461.628	3945
461.665	5423
461.696	5880
461.745	6193
461.764	5050
461.825	1313
461.832	1308
461.901	1230
461.905	1279
461.969	1374
461.985	1260
462.037	1923
462.065	2456
462.105	2046
462.145	1399
462.173	2131
462.225	3343
462.241	3567
462.305	4481
462.310	4298
462.378	2190
462.385	1845
462.446	1097
462.465	1080
462.514	1534
462.545	1760
462.582	1963
462.625	2038
462.650	1748
462.705	1219
462.718	1309
462.785	2007
462.786	2017
462.854	2093
462.865	2121
462.922	3257
462.945	3785
462.990	2666
463.025	1715
463.058	1842
463.104	1895
463.126	1780
463.184	1800
463.194	1876
463.262	1809
463.264	1831
463.330	2461
463.344	2499
463.398	2818
463.424	2967
463.466	2364
463.504	1945
463.533	2053
463.583	1805
463.601	1782
463.663	2105
463.669	2184
463.737	3199
463.743	3261
463.805	4018
463.823	4246
463.873	5950
463.903	7019
463.940	7426
463.982	7784
464.008	6080
464.062	2410
464.076	2375
464.142	2563
464.144	2574
464.211	2452
464.221	2419
464.279	2334
464.301	2316
464.347	2323
464.381	2477
464.414	2797
464.461	3055
464.482	3013
464.540	3009
464.550	2987
464.617	2581
464.620	2567
464.685	3481
464.699	3665
464.753	5447
464.779	6397
464.820	7450
464.859	8294
464.888	7430
464.938	5941
464.956	6340
465.018	7532
465.023	7422
465.091	5945
465.098	5786
465.158	5798
465.177	5833
465.226	6468
465.257	6745
465.293	6209
465.336	5642
465.361	5799
465.416	6168
465.428	6509
465.495	8114
465.496	8145
465.563	10794
465.575	11268
465.631	12999
465.654	13712
465.698	10594
465.734	7872
465.765	7544
465.813	7041
465.833	7005
465.893	7008
465.900	7102
465.968	7745
465.972	7769
466.035	7387
466.052	7294
466.102	7499
466.131	7576
466.170	7832
466.210	8083
466.237	8767
466.290	10152
466.304	10206
466.369	10221
466.372	10263
466.439	11005
466.449	11084
466.506	10810
466.528	10679
466.573	12866
466.607	14487
466.641	16216
466.687	18585
466.708	19837
466.766	23096
466.775	22032
466.842	13721
466.845	13302
466.909	13736
466.925	13813
466.977	12943
467.004	12433
467.044	12777
467.083	13079
467.111	14030
467.163	15762
467.178	16149
467.242	17625
467.245	17499
467.312	14256
467.321	13804
467.379	13147
467.400	12871
467.446	13184
467.480	13370
467.559	13142
467.638	10553
467.717	10913
467.796	10853
467.875	10193
467.955	10024
468.034	12433
468.113	17724
468.192	24152
468.271	11498
468.350	9590
468.429	8454
468.508	9556
468.588	7957
468.667	8243
468.746	7510
468.825	8175
468.904	6962
468.983	8225
469.062	8767
469.141	9997
469.220	6878
469.299	7925
469.378	8266
469.456	10458
469.535	10544
469.614	8419
469.693	7706
469.772	10055
469.851	9520
469.930	8865
470.009	7678
470.088	7383
470.166	7901
470.245	6751
470.324	7068
470.403	6448
470.482	6419
470.560	6291
470.639	6332
470.718	7566
470.797	6591
470.875	7652
470.954	6454
471.033	6989
471.111	6532
471.190	6783
471.269	5794
471.347	5984
471.426	6085
471.505	8006
471.583	8780
471.662	8328
471.740	6770
471.819	7750
471.898	6619
471.976	8034
472.055	6494
472.133	7784
472.212	9133
472.290	7828
472.369	6417
472.447	5804
472.526	5939
472.604	7045
472.683	5987
472.761	5841
472.839	5453
472.918	5882
472.996	6232
473.075	6141
473.153	6973
473.231	5561
473.310	5793
473.388	6332
473.466	5391
473.545	6593
473.623	7672
473.701	6817
473.780	6917
473.858	4712
473.936	8134
474.014	6401
474.093	5906
474.171	7508
474.249	9306
474.327	6425
474.405	4800
474.484	5655
474.562	4943
474.640	6162
474.718	6624
474.796	7557
474.874	7882
474.952	7798
475.030	6569
475.108	7672
475.187	9883
475.265	10267
475.343	9213
475.421	8723
475.499	6843
475.577	6343
475.655	7066
475.733	9517
475.811	13037
475.889	12467
475.966	8842
476.044	5774
476.122	4737
476.200	5254
476.278	4843
476.356	4575
476.434	5188
476.512	5531
476.590	4487
476.667	5321
476.745	3537
476.823	4901
476.901	4416
476.979	5195
477.056	4214
477.134	4729
477.212	4925
477.290	3841
477.367	4146
477.445	5009
477.523	3353
477.601	4308
477.678	3410
477.756	4848
477.834	4309
477.911	4007
477.989	3634
478.066	4579
478.144	4317
478.222	4245
478.299	4225
478.377	5428
478.454	4889
478.532	4029
478.609	3058
478.687	4259
478.764	3588
478.842	4168
478.919	3007
478.997	3150
479.074	3800
479.152	3795
479.229	4449
479.307	3683
479.384	3324
479.461	4034
479.539	2846
479.616	3558
479.694	3181
479.771	3313
479.848	3919
479.926	3350
480.003	4187
480.080	3918
480.157	3139
480.235	2695
480.312	2327
480.389	2863
480.467	4136
480.544	6033
480.621	4465
480.698	3783
480.775	4205
480.853	3621
480.930	3634
481.007	4536
481.084	5106
481.161	9084
481.238	6562
481.315	2775
481.392	2908
481.470	3286
481.547	3450
481.624	2358
481.701	3361
481.778	3472
481.855	3194
481.932	4423
482.009	6414
482.086	5533
482.163	2756
482.240	3751
482.317	3955
482.393	3628
482.470	2687
482.547	4307
482.624	2630
482.701	4030
482.778	2002
482.855	3479
482.932	2289
483.009	2354
483.085	4213
483.162	5637
483.239	5290
483.316	2405
483.393	2258
483.469	3475
483.546	2607
483.623	3293
483.699	3039
483.776	3144
483.853	3394
483.930	4660
484.006	10027
484.083	19103
484.160	19125
484.236	36211
484.313	29159
484.389	20272
484.466	17714
484.543	16044
484.619	15994
484.696	16679
484.772	15835
484.849	17215
484.925	14537
485.002	15273
485.078	16208
485.155	15530
485.231	14107
485.308	14602
485.384	14573
485.461	15970
485.537	18288
485.614	20614
485.690	13708
485.766	13454
485.843	12354
485.919	12773
485.995	12827
486.072	12394
486.148	12890
486.224	12714
486.301	13529
486.377	13570
486.453	12188
486.530	13962
486.606	20283
486.682	23041
486.758	20916
486.835	21142
486.911	17353
486.987	22547
487.063	18174
487.139	17986
487.215	17787
487.292	17820
487.368	15037
487.444	14589
487.520	15923
487.596	18472
487.672	20882
487.748	30183
487.824	40388
487.900	24930
487.976	14328
488.052	13399
488.128	13525
488.204	11346
488.280	12388
488.356	13372
488.432	17469
488.508	23728
488.584	12513
488.660	10468
488.736	11543
488.812	11156
488.888	13129
488.964	13893
489.039	12700
489.115	15483
489.191	13408
489.267	12676
489.343	11062
489.418	11431
489.494	10005
489.570	9831
489.646	11364
489.722	10562
489.797	10168
489.873	12511
489.949	17628
490.024	16538
490.100	8518
490.176	9799
490.251	8762
490.327	9930
490.403	8474
490.478	9526
490.554	8082
490.629	9483
490.705	8003
490.781	8545
490.856	7776
490.932	9149
491.007	8232
491.083	8558
491.158	7750
491.234	9482
491.309	13780
491.385	13878
491.460	7870
491.536	9598
491.611	8169
491.686	8149
491.762	8456
491.837	8556
491.913	10115
491.988	11757
492.063	11994
492.139	10371
492.214	8407
492.289	6562
492.365	5448
492.440	7276
492.515	5218
492.590	6453
492.666	5812
492.741	7609
492.816	9046
492.891	6357
492.967	6815
493.042	5423
493.117	5869
493.192	6275
493.267	8790
493.342	22072
493.418	30135
493.493	9170
493.568	4593
493.643	4972
493.718	5335
493.793	6837
493.868	7309
493.943	5561
494.018	5142
494.093	5470
494.168	5259
494.243	5812
494.318	4893
494.393	5002
494.468	4570
494.543	4834
494.618	4761
494.693	4900
494.768	4779
494.842	5381
494.917	4830
494.992	5302
495.067	4619
495.142	4761
495.217	5268
495.292	5246
495.366	4586
495.441	6499
495.516	6320
495.591	6479
495.665	8718
495.740	14936
495.815	10647
495.890	7685
495.964	4650
496.039	9598
496.114	8095
496.188	12210
496.263	12230
496.338	8719
496.412	8240
496.487	9603
496.561	8561
496.636	9232
496.710	10501
496.785	11176
496.860	12145
496.934	10818
497.009	11950
497.083	11746
497.158	13547
497.232	14906
497.307	16570
497.381	18461
497.455	20567
497.530	23510
497.604	22663
497.679	25194
497.753	32113
497.827	39741
497.902	43611
497.976	47945
498.050	59605
498.125	124808
498.199	124115
498.273	54997
498.348	53377
498.422	48710
498.496	43868
498.570	37738
498.645	34201
498.719	29372
498.793	28962
498.867	29153
498.941	29597
499.016	49491
499.090	109592
499.164	40773
499.238	15603
499.312	13188
499.386	12336
499.460	11731
499.534	10846
499.609	11933
499.683	13641
499.757	13016
499.831	20055
499.905	65219
499.979	59768
500.053	12030
500.127	11092
500.201	6862
500.275	6544
500.349	7331
500.422	7169
500.496	8667
500.570	9968
500.644	31342
500.718	63408
500.792	14183
500.866	6383
500.940	8097
501.013	7024
501.087	6249
501.161	7195
501.235	8868
501.309	20885
501.382	55375
501.456	44441
501.530	9807
501.603	18349
501.677	7308
501.751	3110
501.825	6131
501.898	8575
501.972	22328
502.046	13496
502.119	3748
502.193	9966
502.266	23134
502.340	10206
502.413	10176
502.487	19656
502.561	10326
502.634	3882
502.708	3727
502.781	2531
502.855	3957
502.928	2731
503.002	2871
503.075	2118
503.149	3265
503.222	3375
503.295	4048
503.369	3558
503.442	5101
503.516	14628
503.589	36955
503.662	22698
503.736	8512
503.809	18939
503.882	13307
503.956	22291
504.029	19199
504.102	11889
504.175	17349
504.249	8825
504.322	6268
504.395	4198
504.468	3542
504.542	2009
504.615	2139
504.688	3008
504.761	1489
504.834	3275
504.907	2749
504.980	2898
505.053	2379
505.127	-9
505.200	6178
505.273	3804
505.346	2101
505.419	1397
505.492	2460
505.565	2454
505.638	2751
505.711	1079
505.784	803
505.857	1175
505.930	3766
506.003	326
506.076	4566
506.149	2646
506.221	2074
506.294	3745
506.367	6733
506.440	28069
506.513	13506
506.586	3566
506.659	1423
506.731	1327
506.804	1041
506.877	1572
506.950	2459
507.022	3334
507.095	1435
507.168	3814
507.241	2761
507.313	424
507.386	90
507.459	3183
507.531	1740
507.604	1244
507.677	1900
507.749	413
507.822	3109
507.894	7228
507.967	14016
508.040	8274
508.112	7452
508.185	6182
508.257	3635
508.330	6654
508.402	4726
508.475	4676
508.547	4765
508.620	4710
508.692	6412
508.765	5792
508.837	3736
508.909	4448
508.982	3875
509.054	4965
509.127	4285
509.199	3165
509.271	4490
509.344	4008
509.416	3966
509.488	3595
509.560	4684
509.633	4016
509.705	3587
509.777	3337
509.849	5226
509.922	3055
509.994	4029
510.066	5324
510.138	4568
510.210	15231
510.283	14715
510.355	10440
510.427	9123
510.499	7633
510.571	6656
510.643	6266
510.715	8052
510.787	5727
510.859	8390
510.931	6562
511.003	7058
511.076	7294
511.148	6229
511.219	4935
511.291	8165
511.363	8528
511.435	6161
511.507	4513
511.579	6159
511.651	6611
511.723	5430
511.795	5299
511.867	5910
511.939	5831
512.010	7815
512.082	7589
512.154	4045
512.226	5620
512.298	9974
512.369	13988
512.441	11873
512.513	9251
512.585	6968
512.656	8065
512.728	6458
512.800	6556
512.871	7422
512.943	6858
513.015	5475
513.086	6783
513.158	6040
513.230	5297
513.301	5760
513.373	7117
513.444	6708
513.516	6026
513.588	5803
513.659	5792
513.731	6241
513.802	3642
513.874	8110
513.945	7116
514.016	4642
514.088	5244
514.159	4805
514.231	6757
514.302	12848
514.374	11327
514.445	8880
514.516	12823
514.588	9864
514.659	8786
514.730	11173
514.802	11633
514.873	15836
514.944	21674
515.016	15614
515.087	11447
515.158	11531
515.229	16095
515.301	19442
515.372	32226
515.443	23377
515.514	15976
515.585	10695
515.656	10925
515.728	8600
515.799	7046
515.870	7443
515.941	6855
516.012	5778
516.083	9512
516.154	9306
516.225	8589
516.296	7839
516.367	6728
516.438	6603
516.509	6642
516.580	6592
516.651	10762
516.722	18780
516.793	13872
516.864	7500
516.935	7416
517.006	8213
517.077	8019
517.148	10336
517.219	22761
517.289	37793
517.360	31044
517.431	13403
517.502	5356
517.573	7205
517.643	6012
517.714	7558
517.785	8072
517.856	6930
517.926	7893
517.997	6861
518.068	6188
518.138	8633
518.209	6890
518.280	15959
518.350	52347
518.421	28213
518.492	8845
518.562	7622
518.633	7348
518.703	6143
518.774	12209
518.845	22651
518.915	24291
518.986	11737
519.056	8576
519.127	10018
519.197	12520
519.268	30765
519.338	19794
519.408	7095
519.479	5224
519.549	4772
519.620	5683
519.690	4287
519.760	5382
519.831	4508
519.901	3799
519.971	5244
520.042	3895
520.112	3212
520.182	4616
520.253	5049
520.323	4132
520.393	4004
520.463	6813
520.534	1899
520.604	6100
520.674	5468
520.744	4116
520.814	4888
520.885	6595
520.955	10384
521.025	36028
521.095	12763
521.165	4765
521.235	3394
521.305	3017
521.375	4592
521.445	4223
521.515	3661
521.585	4058
521.655	1620
521.725	4873
521.795	5621
521.865	1509
521.935	7059
522.005	4005
522.075	3496
522.145	4859
522.215	4002
522.285	4274
522.355	5477
522.424	10070
522.494	7305
522.564	4481
522.634	4595
522.704	7132
522.774	3891
522.843	3417
522.913	3670
522.983	2984
523.053	2175
523.122	2697
523.192	2656
523.262	3455
523.331	4196
523.401	2992
523.471	2651
523.540	3219
523.610	1494
523.680	2087
523.749	3254
523.819	4189
523.888	3357
523.958	1947
524.027	3304
524.097	2881
524.166	2398
524.236	860
524.305	4987
524.375	2337
524.444	2041
524.514	4258
524.583	2789
524.653	2302
524.722	3913
524.791	1681
524.861	4558
524.930	1683
524.999	1239
525.069	3526
525.138	1987
525.207	2573
525.277	2570
525.346	1960
525.415	3165
525.484	3134
525.554	2532
525.623	4159
525.692	5130
525.761	4355
525.830	3879
525.900	3430
525.969	5478
526.038	8956
526.107	14717
526.176	49294
526.245	45620
526.314	15971
526.383	23995
526.452	35453
526.522	58687
526.591	69095
526.660	13371
526.729	6571
526.797	9587
526.867	9126
526.935	34749
527.004	116213
527.073	93801
527.142	10419
527.211	4363
527.280	2752
527.349	2449
527.418	963
527.487	2548
527.555	388
527.624	1832
527.693	581
527.762	2523
527.831	739
527.899	2320
527.968	1622
528.037	-511
528.106	1669
528.174	2101
528.243	2673
528.312	2439
528.380	1820
528.449	1261
528.518	2651
528.586	-340
528.655	2013
528.723	1377
528.792	440
528.861	361
528.929	-357
528.998	2269
529.066	764
529.135	1478
529.203	570
529.272	72
529.340	956
529.409	2220
529.477	-86
529.545	323
529.614	2872
529.682	774
529.751	1709
529.819	4047
529.887	486
529.956	1127
530.024	1705
530.092	-223
530.161	1635
530.229	1453
530.297	1135
530.365	1261
530.434	1875
530.502	-238
530.570	1110
530.638	-302
530.707	1400
530.775	1701
530.843	1187
530.911	545
530.979	1027
531.047	1370
531.115	481
531.183	1211
531.252	1841
531.320	1248
531.388	171
531.456	687
531.524	-1047
531.592	1684
531.660	2243
531.728	195
531.796	125
531.864	1803
531.932	1413
532.000	-412
532.067	1148
532.135	1236
532.203	1999
532.271	562
532.339	2222
532.407	2934
532.475	2505
532.542	2586
532.610	1509
532.678	375
532.746	4950
532.814	10868
532.881	2821
532.949	2075
533.017	1168
533.084	1092
533.152	575
533.220	1195
533.287	-116
533.355	1551
533.423	1975
533.490	246
533.558	502
533.625	1522
533.693	2408
533.761	3137
533.828	1925
533.896	938
533.963	2690
534.031	3505
534.098	3578
534.166	2119
534.233	1201
534.300	3294
534.368	2895
534.435	1402
534.503	2265
534.570	2582
534.637	1309
534.705	2674
534.772	3805
534.840	4169
534.907	21231
534.974	33955
535.041	5250
535.109	2370
535.176	821
535.243	2364
535.310	1360
535.378	1877
535.445	1860
535.512	1961
535.579	1479
535.646	1226
535.714	2289
535.781	4173
535.848	4013
535.915	3914
535.982	3002
536.049	3112
536.116	3880
536.183	3758
536.250	2908
536.317	1921
536.384	3020
536.451	2059
536.518	2992
536.585	268
536.652	3705
536.719	3039
536.786	439
536.853	2331
536.920	3393
536.987	2702
537.053	1145
537.120	6407
537.187	7079
537.254	1211
537.321	2150
537.388	2634
537.454	1028
537.521	1228
537.588	1613
537.654	3929
537.721	3857
537.788	4596
537.855	2353
537.921	2984
537.988	1924
538.055	3539
538.121	769
538.188	2556
538.254	2052
538.321	2507
538.388	2713
538.454	2548
538.521	2223
538.587	2125
538.654	1864
538.720	1399
538.787	1948
538.853	1960
538.920	2418
538.986	1659
539.053	1712
539.119	2342
539.185	1208
539.252	2684
539.318	2673
539.385	4656
539.451	3561
539.517	4717
539.583	3632
539.650	3303
539.716	5634
539.782	4355
539.849	1700
539.915	2961
539.981	2219
540.047	2531
540.114	2103
540.180	3421
540.246	1968
540.312	2581
540.378	3028
540.444	3772
540.510	2687
540.576	5801
540.643	2598
540.709	2249
540.775	2216
540.841	1723
540.907	3506
540.973	5789
541.039	4537
541.105	4501
541.171	2896
541.237	2326
541.303	3532
541.369	5414
541.435	3041
541.500	3430
541.566	1929
541.632	1481
541.698	2576
541.764	3133
541.830	1372
541.896	2039
541.961	3551
542.027	2472
542.093	3043
542.159	3377
542.224	1942
542.290	4644
542.356	3362
542.421	4080
542.487	3001
542.553	2672
542.618	3448
542.684	3046
542.750	2278
542.815	3093
542.881	2074
542.947	4727
543.012	5386
543.078	2595
543.143	933
543.209	4051
543.274	2184
543.340	3254
543.405	3023
543.471	3999
543.536	3269
543.602	3125
543.667	1173
543.732	3532
543.798	2012
543.863	3685
543.928	1710
543.994	2907
544.059	2785
544.124	3108
544.190	2345
544.255	3618
544.320	3131
544.386	2198
544.451	4138
544.516	2574
544.581	2659
544.646	4410
544.712	7226
544.777	4740
544.842	3443
544.907	3914
544.972	3136
545.037	3303
545.102	3981
545.168	2962
545.233	4178
545.298	4739
545.363	3893
545.428	4670
545.493	5431
545.558	4503
545.623	4313
545.688	3382
545.753	3534
545.818	3822
545.883	4615
545.947	3722
546.012	3212
546.077	3031
546.142	4535
546.207	3086
546.272	3742
546.337	3883
546.401	4795
546.466	4955
546.531	3178
546.596	4869
546.661	4134
546.725	5297
546.790	3002
546.855	4681
546.919	3535
546.984	4627
547.049	3730
547.113	5640
547.178	5058
547.243	5962
547.307	5860
547.372	6531
547.436	6441
547.501	6705
547.565	6938
547.630	6523
547.695	6994
547.759	7363
547.823	6366
547.888	7274
547.952	7480
548.017	8047
548.081	11054
548.146	9904
548.210	7988
548.274	7344
548.339	7667
548.403	7550
548.468	7058
548.532	6218
548.596	6752
548.660	7013
548.725	6681
548.789	7010
548.853	9018
548.917	7676
548.982	8026
549.046	7487
549.110	5892
549.174	6070
549.238	6820
549.303	7681
549.367	8874
549.431	6568
549.495	6635
549.559	6223
549.623	7602
549.687	8721
549.751	8352
549.815	9583
549.879	10127
549.943	8050
550.007	9175
550.071	8990
550.135	8324
550.199	8005
550.263	9154
550.327	9150
550.391	9609
550.455	10994
550.519	9277
550.582	10229
550.646	10196
550.710	10920
550.774	11283
550.838	10625
550.901	11007
550.965	12244
551.029	12995
551.093	14363
551.156	16306
551.220	21034
551.284	21851
551.347	16533
551.411	18621
551.475	17606
551.538	12715
551.602	11153
551.666	11113
551.729	9473
551.793	9565
551.856	9109
551.920	8788
551.983	9801
552.047	8239
552.110	9026
552.174	10933
552.237	10398
552.301	8792
552.364	9146
552.428	8647
552.491	8291
552.554	9333
552.618	8750
552.681	9691
552.745	8348
552.808	9166
552.871	10068
552.934	9607
552.998	8333
553.061	8342
553.124	9355
553.187	8669
553.251	9975
553.314	9990
553.377	9759
553.440	13683
553.503	26149
553.567	44893
553.630	14536
553.693	9055
553.756	9482
553.819	8282
553.882	8302
553.945	8836
554.008	9168
554.071	7731
554.134	9252
554.197	7171
554.260	7174
554.323	9128
554.386	8582
554.449	7103
554.512	9625
554.575	7035
554.638	7650
554.701	7022
554.764	7751
554.827	7347
554.889	7966
554.952	6515
555.015	6552
555.078	6507
555.141	6908
555.203	5913
555.266	7698
555.329	6777
555.391	5913
555.454	5956
555.517	7309
555.580	6636
555.642	5776
555.705	5509
555.768	6752
555.830	6078
555.893	5808
555.955	5610
556.018	5676
556.080	5496
556.143	5627
556.206	4744
556.268	5833
556.330	5511
556.393	5710
556.455	5090
556.518	5576
556.580	6104
556.643	4842
556.705	4832
556.767	3187
556.830	4187
556.892	4551
556.955	3954
557.017	5087
557.079	4797
557.142	4669
557.204	3825
557.266	5378
557.328	4975
557.391	3899
557.453	3263
557.515	4814
557.577	4327
557.639	3778
557.701	4057
557.764	3397
557.826	4740
557.888	5010
557.950	4901
558.012	5593
558.074	6385
558.136	14684
558.198	39504
558.260	19242
558.322	5320
558.384	6985
558.446	7653
558.508	9616
558.570	10683
558.632	12984
558.694	16513
558.756	25427
558.818	78808
558.880	239116
558.942	89895
559.003	45260
559.065	26134
559.127	9765
559.189	9221
559.251	10236
559.312	13543
559.374	34072
559.436	129328
559.498	81462
559.559	12384
559.621	9776
559.683	9187
559.744	16624
559.806	50926
559.868	95303
559.929	22111
559.991	9490
560.052	12260
560.114	37021
560.176	27909
560.237	19718
560.299	36599
560.360	11789
560.422	4367
560.483	4787
560.545	3104
560.606	4041
560.667	3069
560.729	3070
560.790	3127
560.852	4344
560.913	2913
560.974	3553
561.036	2184
561.097	2945
561.158	3133
561.220	4259
561.281	2110
561.342	2407
561.403	3058
561.465	2531
561.526	5240
561.587	4707
561.648	3563
561.709	3509
561.771	3020
561.832	3069
561.893	2526
561.954	3951
562.015	2311
562.076	2929
562.137	2927
562.198	2948
562.259	3442
562.320	1965
562.381	2391
562.442	3111
562.503	2693
562.564	2412
562.625	2994
562.686	3399
562.747	2580
562.808	3650
562.869	2420
562.930	4282
562.991	2689
563.051	3258
563.112	3414
563.173	2631
563.234	2414
563.294	3742
563.355	3043
563.416	3580
563.477	3327
563.537	2506
563.598	3932
563.659	3241
563.720	2986
563.780	3296
563.841	2845
563.901	3282
563.962	2696
564.023	3845
564.083	3555
564.144	2453
564.204	3446
564.265	4447
564.325	4158
564.386	6365
564.446	5529
564.507	3815
564.567	3737
564.628	3847
564.688	3829
564.749	3879
564.809	4812
564.869	4938
564.930	3315
564.990	5075
565.050	4481
565.111	4999
565.171	4809
565.231	5207
565.292	5747
565.352	4629
565.412	5402
565.472	5924
565.532	5750
565.593	6007
565.653	5908
565.713	6526
565.773	7081
565.833	7380
565.893	8431
565.953	8131
566.013	7867
566.074	9087
566.134	9666
566.194	10994
566.254	10829
566.314	11450
566.374	10202
566.434	12781
566.494	13269
566.554	14179
566.614	14749
566.673	16817
566.733	17366
566.793	17928
566.853	19584
566.913	21636
566.973	20441
567.033	21525
567.092	20039
567.152	20515
567.212	21562
567.272	22813
567.331	23826
567.391	26025
567.451	28368
567.511	29548
567.570	26971
567.630	24563
567.690	24373
567.749	25323
567.809	28430
567.868	32034
567.928	36369
567.988	43517
568.047	52514
568.107	67290
568.166	93140
568.226	139579
568.285	198238
568.345	194010
568.404	164740
568.464	144787
568.523	131738
568.582	131381
568.642	138726
568.701	166784
568.761	223908
568.820	331101
568.879	356935
568.939	292328
568.998	230792
569.057	183479
569.116	147022
569.176	119280
569.235	98481
569.294	82632
569.353	66873
569.413	60874
569.472	52440
569.531	44762
569.590	39347
569.649	36279
569.708	31644
569.767	29630
569.827	26181
569.886	22604
569.945	21074
570.004	19447
570.063	18222
570.122	16254
570.181	15936
570.240	15771
570.299	14270
570.358	14013
570.417	11349
570.475	11701
570.534	11195
570.593	10637
570.652	10296
570.711	9724
570.770	9129
570.829	9348
570.887	8694
570.946	9260
571.005	7699
571.064	6748
571.122	6899
571.181	7361
571.240	7165
571.299	7867
571.357	6983
571.416	6319
571.475	5834
571.533	6404
571.592	5613
571.650	6058
571.709	4731
571.768	5800
571.826	6411
571.885	5879
571.943	5724
572.002	5466
572.060	6285
572.119	5029
572.177	4607
572.236	5264
572.294	4526
572.352	5143
572.411	4256
572.469	5059
572.528	4386
572.586	4447
572.644	4749
572.703	4995
572.761	4806
572.819	3818
572.877	4355
572.936	4393
572.994	4672
573.052	4462
573.110	3316
573.169	4539
573.227	3873
573.285	3842
573.343	4131
573.401	4392
573.459	4504
573.517	4246
573.576	3696
573.634	4703
573.692	4079
573.750	4498
573.808	3734
573.866	3736
573.924	4311
573.982	4870
574.040	3904
574.098	3898
574.155	3207
574.213	3748
574.271	3055
574.329	3658
574.387	4258
574.445	3550
574.503	3170
574.560	4181
574.618	2897
574.676	3876
574.734	3019
574.792	4470
574.849	3245
574.907	3148
574.965	3340
575.022	3881
575.080	2624
575.138	3932
575.195	3162
575.253	3583
575.311	2907
575.368	3628
575.426	3884
575.483	5281
575.541	4738
575.598	3366
575.656	3295
575.713	4300
575.771	3859
575.828	3436
575.886	3630
575.943	5247
576.001	3505
576.058	4066
576.115	3470
576.173	4090
576.230	3669
576.287	3429
576.345	4179
576.402	4581
576.459	4094
576.517	4350
576.574	4358
576.631	4299
576.688	3038
576.746	3255
576.803	3887
576.860	2891
576.917	4215
576.974	4115
577.031	3820
577.089	4284
577.146	3727
577.203	3917
577.260	4224
577.317	3775
577.374	4406
577.431	4000
577.488	3892
577.545	2980
577.602	5014
577.659	4399
577.716	4722
577.773	4286
577.830	3644
577.886	4266
577.943	4011
578.000	3792
578.057	4715
578.114	5786
578.171	6125
578.227	7077
578.284	6182
578.341	5972
578.398	4767
578.454	5606
578.511	4595
578.568	5511
578.625	5578
578.681	4419
578.738	3710
578.794	4475
578.851	4499
578.908	4334
578.964	4319
579.021	5609
579.077	4174
579.134	4571
579.190	3948
579.247	4675
579.303	5484
579.360	5346
579.416	4506
579.473	4121
579.529	5431
579.586	5942
579.642	4645
579.698	4943
579.755	5288
579.811	5691
579.867	5371
579.924	5779
579.980	5164
580.036	6156
580.093	6675
580.149	8639
580.205	9953
580.261	9097
580.317	7045
580.374	7873
580.430	6382
580.486	6330
580.542	6134
580.598	7377
580.619	6713
580.654	5566
580.692	5906
580.710	6085
580.765	5754
580.767	5751
580.823	5569
580.838	5582
580.879	5603
580.911	5357
580.935	5192
580.984	5252
580.991	5274
581.047	6753
581.057	6635
581.103	6066
581.130	6378
581.159	6712
581.203	6572
581.215	6550
581.270	7208
581.276	7094
581.326	5992
581.349	6008
581.382	6076
581.422	6111
581.438	6146
581.494	6325
581.494	6327
581.550	6786
581.567	6870
581.606	7137
581.640	6698
581.661	6402
581.713	7388
581.717	7476
581.773	6718
581.786	6693
581.829	6574
581.859	6783
581.885	6974
581.932	6894
581.940	6885
581.996	6799
582.004	6827
582.052	7009
582.077	6961
582.107	6933
582.150	6851
582.163	6810
582.219	7212
582.223	7215
582.274	7390
582.296	7269
582.330	7023
582.368	7455
582.386	7695
582.441	7310
582.441	7310
582.497	8214
582.514	8011
582.552	7803
582.587	8211
582.608	8414
582.659	7989
582.663	7940
582.719	8850
582.732	8652
582.774	8299
582.805	8192
582.830	8053
582.877	9208
582.885	9381
582.941	8960
582.950	8984
582.996	9274
583.023	9370
583.052	9594
583.095	9637
583.107	9598
583.162	11089
583.168	11108
583.218	11155
583.240	11047
583.273	10839
583.313	10177
583.328	10019
583.384	10678
583.385	10661
583.439	9761
583.458	9724
583.494	9848
583.531	10005
583.549	10160
583.603	10780
583.605	10783
583.660	10062
583.676	10149
583.715	10676
583.748	10942
583.770	11030
583.820	11215
583.825	11232
583.881	11133
583.893	11031
583.936	10748
583.965	11031
583.991	11300
584.038	11567
584.046	11608
584.101	11387
584.110	11475
584.156	11763
584.183	11853
584.211	12078
584.255	12550
584.266	12604
584.321	12488
584.328	12445
584.376	12351
584.400	12502
584.431	12704
584.472	13456
584.486	13618
584.541	13078
584.545	13103
584.596	13820
584.617	14013
584.651	14449
584.689	14543
584.706	14464
584.761	14835
584.762	14843
584.816	15414
584.834	15299
584.871	15199
584.906	15396
584.926	15441
584.978	15882
584.980	15901
585.035	16579
585.051	16713
585.090	17168
585.123	17893
585.145	18334
585.195	18395
585.200	18413
585.254	19197
585.267	19472
585.309	20232
585.340	20654
585.364	20949
585.412	21470
585.419	21530
585.473	22401
585.484	22601
585.528	23983
585.556	25331
585.583	27518
585.628	32580
585.637	34324
585.692	51353
585.700	54834
585.747	69554
585.772	63452
585.801	50004
585.845	32886
585.856	30192
585.910	26465
585.917	26177
585.965	25734
585.989	25787
586.019	26105
586.061	26358
586.074	26490
586.128	27555
586.133	27611
586.183	27981
586.205	28452
586.237	29110
586.277	29288
586.292	29294
586.346	30461
586.349	30507
586.401	31786
586.421	32236
586.455	32782
586.493	33668
586.509	34169
586.564	36390
586.565	36444
586.618	37911
586.637	38210
586.672	39020
586.709	39546
586.727	39766
586.781	41462
586.781	41461
586.835	43280
586.853	43735
586.889	44504
586.925	45594
586.944	46251
586.996	48422
586.998	48486
587.052	50831
587.068	51702
587.106	53629
587.140	54986
587.161	55757
587.212	58206
587.215	58361
587.269	62006
587.284	62984
587.323	65308
587.356	67822
587.377	69653
587.427	73780
587.431	74090
587.485	78326
587.499	79767
587.539	83723
587.571	86924
587.593	89353
587.643	94260
587.648	94773
587.702	102072
587.715	103970
587.755	110257
587.786	115017
587.810	119173
587.858	128606
587.864	129799
587.917	141967
587.930	144980
587.971	154833
588.001	163449
588.025	171335
588.073	186502
588.079	188716
588.133	211113
588.145	216342
588.187	236564
588.217	251337
588.241	264590
588.288	293249
588.295	297635
588.348	337019
588.360	345810
588.402	384450
588.431	414157
588.456	443849
588.503	503575
588.510	514047
588.564	603734
588.575	623764
588.617	717563
588.646	785384
588.671	861073
588.718	1008815
588.725	1034010
588.778	1228235
588.789	1264958
588.832	1357977
588.861	1397728
588.886	1316118
588.932	1099361
588.939	1077259
588.993	921486
589.004	917930
589.047	1213125
589.075	1394111
589.100	1406483
589.147	1370405
589.154	1351638
589.207	1175540
589.218	1139971
589.261	1065340
589.290	1021967
589.314	1032404
589.361	1066718
589.368	1081862
589.421	1215701
589.433	1242704
589.475	1294399
589.504	1306133
589.528	1219272
589.576	1005798
589.582	1015797
589.635	1203567
589.647	1239843
589.689	1214889
589.718	1161932
589.742	1053232
589.790	824282
589.795	806173
589.849	641668
589.861	605125
589.902	520106
589.932	459263
589.955	427054
590.004	364535
590.009	359830
590.062	311874
590.075	300535
590.115	272089
590.146	251184
590.168	239768
590.218	215019
590.222	213331
590.275	192928
590.289	187733
590.328	175393
590.360	165942
590.381	160357
590.431	147278
590.435	146538
590.488	134471
590.503	131189
590.541	124442
590.574	118499
590.594	115553
590.645	108206
590.647	107915
590.700	100403
590.716	98102
590.753	94543
590.787	91480
590.806	89490
590.859	83723
590.859	83648
590.912	78696
590.930	77181
590.965	74513
591.001	71826
591.018	70961
591.071	68476
591.072	68437
591.124	64882
591.143	63691
591.177	61884
591.214	59839
591.230	59118
591.283	56804
591.285	56692
591.336	54713
591.356	53995
591.389	52913
591.427	51452
591.442	50829
591.495	48690
591.498	48499
591.547	47107
591.569	46558
591.600	45386
591.640	43741
591.653	43524
591.706	42539
591.711	42430
591.759	41079
591.782	40293
591.811	39614
591.853	38641
591.864	38440
591.917	37384
591.924	37193
591.969	36776
591.995	36629
592.022	35670
592.066	33943
592.075	33781
592.127	32676
592.137	32478
592.180	31981
592.208	31632
592.233	31392
592.279	30891
592.285	30816
592.338	30112
592.350	29946
592.390	29150
592.421	28554
592.443	28538
592.491	28468
592.495	28465
592.548	28336
592.562	28289
592.600	27695
592.633	27171
592.653	26801
592.704	25673
592.705	25801
592.775	24859
592.846	24984
592.916	24248
592.987	24000
593.058	23040
593.128	22622
593.199	22127
593.270	21407
593.341	20228
593.411	20638
593.482	19913
593.553	20034
593.623	19917
593.694	19011
593.764	19461
593.835	18183
593.906	18468
593.976	17624
594.047	17223
594.117	17780
594.188	17069
594.258	16768
594.329	16987
594.399	15986
594.470	16097
594.540	16454
594.611	15746
594.681	14743
594.751	15685
594.822	16358
594.892	15374
594.963	14850
595.033	14696
595.103	14203
595.174	14945
595.244	14401
595.314	14615
595.384	13761
595.455	13323
595.525	13966
595.595	12646
595.665	14079
595.736	14443
595.806	13784
595.876	13867
595.946	13712
596.016	13127
596.087	13108
596.157	13252
596.227	12505
596.297	13749
596.367	13345
596.437	13527
596.507	13252
596.577	13364
596.647	12490
596.717	13405
596.787	13026
596.857	13088
596.927	14259
596.997	12676
597.067	12894
597.137	13817
597.207	12783
597.277	13569
597.347	12055
597.417	12418
597.487	13788
597.557	12947
597.626	11822
597.696	13286
597.766	12041
597.836	11973
597.906	11286
597.975	11514
598.045	11026
598.115	11955
598.185	11210
598.254	13061
598.324	13195
598.394	13768
598.464	12761
598.533	12812
598.603	12015
598.672	11862
598.742	12312
598.812	11949
598.881	12277
598.951	11391
599.020	12236
599.090	12968
599.159	13165
599.229	12468
599.299	11667
599.368	12385
599.437	11755
599.507	11889
599.576	10888
599.646	12275
599.715	11153
599.785	10269
599.854	10127
599.924	10740
599.993	9471
600.062	10073
600.132	10924
600.201	10663
600.270	11751
600.340	11702
600.409	12068
600.478	11593
600.547	12384
600.617	11079
600.686	9811
600.755	9180
600.824	8908
600.894	8478
600.963	8612
601.032	8470
601.101	8454
601.170	7692
601.239	8281
601.308	8743
601.378	8393
601.447	7859
601.516	8329
601.585	8706
601.654	8353
601.723	8132
601.792	7895
601.861	8684
601.930	9768
601.999	8106
602.068	8281
602.137	8293
602.206	8207
602.275	8990
602.343	7666
602.412	9161
602.481	8843
602.550	8314
602.619	8413
602.688	8532
602.756	8562
602.825	9131
602.894	9356
602.963	9558
603.032	8265
603.100	8601
603.169	8611
603.238	8719
603.307	9648
603.375	9977
603.444	9333
603.513	9383
603.581	8936
603.650	9697
603.719	8832
603.787	8943
603.856	10144
603.924	9238
603.993	9432
604.061	10046
604.130	10711
604.198	10187
604.267	10205
604.335	10478
604.404	10837
604.472	10796
604.541	11623
604.609	11263
604.678	11058
604.746	10550
604.815	11324
604.883	11438
604.951	11655
605.020	11747
605.088	11010
605.156	11256
605.225	11244
605.293	11765
605.361	12592
605.429	12204
605.498	12350
605.566	12814
605.634	12942
605.702	13461
605.771	13624
605.839	12923
605.907	13283
605.975	12763
606.043	12508
606.111	12834
606.180	13419
606.248	14027
606.316	14064
606.384	11612
606.452	13090
606.520	12493
606.588	12351
606.656	13225
606.724	12032
606.792	11987
606.860	11131
606.928	10474
606.996	9938
607.064	9860
607.132	10243
607.200	10435
607.267	11375
607.335	10289
607.403	11271
607.471	10309
607.539	11404
607.607	11409
607.674	9681
607.742	9151
607.810	9201
607.878	10077
607.946	8098
608.013	10139
608.081	9930
608.149	9163
608.216	10026
608.284	11092
608.352	10555
608.419	10000
608.487	10630
608.555	10273
608.622	11320
608.690	10749
608.757	11974
608.825	12802
608.893	11725
608.960	10444
609.028	10650
609.095	11030
609.163	10297
609.230	10159
609.298	10101
609.365	10064
609.432	9580
609.500	11168
609.567	11492
609.635	13505
609.702	14058
609.769	14186
609.837	11775
609.904	10236
609.971	9561
610.039	12714
610.106	16661
610.173	32307
610.241	77224
610.308	48240
610.375	16787
610.442	11952
610.509	10257
610.577	10939
610.644	10310
610.711	10417
610.778	11320
610.845	10613
610.912	11924
610.980	11383
611.047	13213
611.114	13115
611.181	11805
611.248	10042
611.315	12479
611.382	11580
611.449	12464
611.516	13549
611.583	12942
611.650	12416
611.717	13779
611.784	13261
611.851	14525
611.918	16104
611.984	19898
612.051	32746
612.118	72057
612.185	185066
612.252	117992
612.319	24863
612.386	19152
612.452	16411
612.519	15159
612.586	14655
612.653	14399
612.719	15631
612.786	14591
612.853	12701
612.919	13147
612.986	13806
613.053	11743
613.120	11786
613.186	10737
613.253	13693
613.319	10444
613.386	11629
613.453	10082
613.519	12513
613.586	11228
613.652	12736
613.719	11763
613.785	12764
613.852	12333
613.918	11649
613.985	13859
614.051	13707
614.118	17947
614.184	17630
614.250	11455
614.317	12184
614.383	12013
614.449	11917
614.516	12305
614.582	12799
614.648	11908
614.715	11940
614.781	12005
614.847	12512
614.914	12538
614.980	12247
615.046	11910
615.112	13986
615.179	15537
615.245	19366
615.311	29816
615.377	58606
615.443	67628
615.509	33532
615.575	21471
615.642	17339
615.708	18153
615.774	19193
615.840	24758
615.906	34144
615.972	64880
616.038	137282
616.104	192642
616.170	276871
616.236	223913
616.302	48622
616.368	27445
616.434	20188
616.500	18031
616.565	18336
616.631	22061
616.697	18390
616.763	17979
616.829	26881
616.895	45877
616.961	45456
617.026	20006
617.092	13201
617.158	13272
617.224	12364
617.289	11166
617.355	10209
617.421	9028
617.487	11460
617.552	9851
617.618	9681
617.684	8138
617.749	11746
617.815	9883
617.880	8673
617.946	9208
618.012	9277
618.077	9270
618.143	9659
618.208	10002
618.274	9496
618.339	9028
618.405	7443
618.470	9160
618.536	8374
618.601	8419
618.667	7048
618.732	7786
618.798	7335
618.863	7489
618.928	6574
618.994	8219
619.059	7937
619.124	7681
619.190	6563
619.255	5855
619.320	7137
619.386	6221
619.451	6582
619.516	7524
619.581	7123
619.647	6976
619.712	7194
619.777	6686
619.842	6447
619.907	6781
619.972	6310
620.038	6451
620.103	6560
620.168	5735
620.233	7086
620.298	5806
620.363	6836
620.428	7537
620.493	6414
620.558	7064
620.623	6880
620.688	7179
620.753	7542
620.818	7021
620.883	6767
620.948	7422
621.013	6570
621.078	6831
621.143	5510
621.207	8352
621.272	7527
621.337	6798
621.402	6988
621.467	7175
621.532	6507
621.596	6800
621.661	6761
621.726	6109
621.791	5717
621.855	6778
621.920	5958
621.985	7001
622.049	6597
622.114	6122
622.179	7008
622.243	6690
622.308	7006
622.373	8159
622.437	7259
622.502	6849
622.566	6766
622.631	5609
622.695	8320
622.760	5869
622.824	7064
622.889	6437
622.953	6109
623.018	7221
623.082	7016
623.147	7523
623.211	6897
623.276	6640
623.340	5997
623.404	6993
623.469	5895
623.533	6705
623.597	5257
623.662	5932
623.726	6064
623.790	5980
623.854	4393
623.919	6100
623.983	6029
624.047	5777
624.111	5331
624.176	5918
624.240	5685
624.304	7022
624.368	5812
624.432	6064
624.496	6353
624.560	6671
624.625	5476
624.689	7039
624.753	6432
624.817	6939
624.881	5965
624.945	6107
625.009	5620
625.073	5926
625.137	5139
625.201	5222
625.265	6471
625.329	6099
625.393	5827
625.456	5159
625.520	6915
625.584	4954
625.648	6270
625.712	6616
625.776	7078
625.839	6740
625.903	4729
625.967	4266
626.031	7246
626.095	6157
626.158	5999
626.222	3988
626.286	4844
626.349	3130
626.413	3203
626.477	5136
626.540	3376
626.604	3453
626.668	4503
626.731	4791
626.795	3139
626.858	3715
626.922	2554
626.986	3136
627.049	3385
627.113	4568
627.176	3746
627.240	3479
627.303	3817
627.366	3205
627.430	3738
627.493	3907
627.557	1709
627.620	4833
627.684	3579
627.747	4198
627.810	1821
627.874	3259
627.937	2388
628.000	4227
628.064	3385
628.127	1598
628.190	3014
628.253	2833
628.317	3011
628.380	3674
628.443	2320
628.506	2287
628.569	3536
628.632	1623
628.696	2859
628.759	2706
628.822	2217
628.885	2249
628.948	2186
629.011	2066
629.074	1740
629.137	1758
629.200	1190
629.263	2829
629.326	1024
629.389	1967
629.452	2488
629.515	2451
629.578	1455
629.641	2509
629.704	1691
629.767	1459
629.830	2445
629.892	2039
629.955	1104
630.018	3632
630.081	386
630.144	2025
630.207	622
630.269	3453
630.332	1284
630.395	1462
630.458	2269
630.520	1009
630.583	3168
630.646	2388
630.708	2074
630.771	706
630.834	2093
630.896	508
630.959	1266
631.021	692
631.084	1696
631.146	1959
631.209	2670
631.272	1691
631.334	1937
631.397	1110
631.459	1277
631.522	1980
631.584	2672
631.646	2488
631.709	2313
631.771	1519
631.834	2434
631.896	3008
631.958	1808
632.021	2954
632.083	1195
632.145	2141
632.208	1787
632.270	2543
632.332	1318
632.395	698
632.457	2122
632.519	1396
632.581	2056
632.643	1080
632.706	2614
632.768	583
632.830	1652
632.892	1690
632.954	1398
633.016	1496
633.078	1541
633.141	1836
633.203	1442
633.265	1562
633.327	2251
633.389	755
633.451	2173
633.513	1146
633.575	1699
633.637	1473
633.698	1391
633.760	1842
633.822	2251
633.884	2205
633.946	2396
634.008	2147
634.070	2730
634.132	2064
634.193	2380
634.255	2915
634.317	1543
634.379	2741
634.441	1881
634.502	2037
634.564	2244
634.626	1394
634.687	1179
634.749	1406
634.811	1561
634.873	904
634.934	1960
634.996	1551
635.057	1427
635.119	890
635.181	860
635.242	1683
635.304	-148
635.365	3391
635.427	727
635.488	1051
635.550	773
635.611	2146
635.673	-27
635.734	2806
635.796	2068
635.857	2583
635.918	2055
635.980	3448
636.041	1764
636.102	2727
636.164	2391
636.225	3584
636.286	1154
636.348	2453
636.409	1693
636.470	943
636.531	1325
636.593	1159
636.654	1870
636.715	2218
636.776	888
636.838	616
636.899	1808
636.960	1468
637.021	1300
637.082	702
637.143	1710
637.204	327
637.265	1005
637.326	1667
637.387	1197
637.448	597
637.509	2093
637.570	871
637.631	1897
637.692	29
637.753	121
637.814	1472
637.875	746
637.936	1429
637.997	641
638.058	1272
638.119	2179
638.179	487
638.240	306
638.301	1799
638.362	-6
638.423	679
638.483	1796
638.544	-420
638.605	1595
638.666	568
638.726	1054
638.787	1615
638.848	572
638.908	1501
638.969	932
639.030	1117
639.090	-502
639.151	664
639.211	635
639.272	-67
639.332	1089
639.393	1257
639.453	648
639.514	1289
639.574	1476
639.635	-73
639.695	1347
639.756	60
639.816	1167
639.877	173
639.937	1802
639.997	1173
640.058	-432
640.118	329
640.178	1838
640.239	760
640.299	659
640.359	720
640.420	1559
640.480	1485
640.540	544
640.600	436
640.661	2005
640.721	849
640.781	4263
640.841	2519
640.901	1807
640.961	1218
641.021	862
641.082	-1099
641.142	598
641.202	1647
641.262	-812
641.322	943
641.382	-807
641.442	1060
641.502	675
641.562	629
641.622	540
641.682	603
641.742	979
641.802	523
641.861	1752
641.921	-132
641.981	1914
642.041	222
642.101	1727
642.161	-663
642.221	172
642.280	14
642.340	1261
642.400	-215
642.460	1546
642.519	554
642.579	-11
642.639	1540
642.698	-1748
642.758	2755
642.818	1192
642.877	-291
642.937	898
642.997	727
643.056	904
643.116	-280
643.175	2211
643.235	772
643.294	1067
643.354	1183
643.414	1081
643.473	1676
643.532	1960
643.592	3132
643.651	7908
643.711	14416
643.770	30702
643.830	76082
643.889	163898
643.948	36143
644.008	4740
644.067	3265
644.126	986
644.186	888
644.245	1241
644.304	-216
644.363	2273
644.423	-949
644.482	646
644.541	1245
644.600	-1075
644.659	1377
644.719	1005
644.778	2166
644.837	4719
644.896	12470
644.955	28064
645.014	9747
645.073	2178
645.132	845
645.191	1448
645.250	710
645.309	2936
645.368	1120
645.427	2365
645.486	1771
645.545	5560
645.604	661
645.663	1283
645.722	1221
645.781	1972
645.840	1667
645.898	2406
645.957	4316
646.016	5080
646.075	12846
646.134	26304
646.192	70448
646.251	107546
646.310	14351
646.369	3174
646.427	1882
646.486	501
646.545	645
646.603	1309
646.662	1261
646.721	1189
646.779	626
646.838	-154
646.896	1565
646.955	2002
647.014	2988
647.072	5311
647.131	17339
647.189	8097
647.248	579
647.306	725
647.365	1015
647.423	-1314
647.481	1703
647.540	-286
647.598	374
647.657	96
647.715	621
647.773	-226
647.832	1196
647.890	-829
647.948	-21
648.007	1280
648.065	-262
648.123	-177
648.181	1335
648.240	958
648.298	-491
648.356	-176
648.414	136
648.472	45
648.531	663
648.589	-32
648.647	-147
648.705	521
648.763	319
648.821	455
648.879	141
648.937	1015
648.995	910
649.053	500
649.111	2869
649.169	5180
649.227	9078
649.285	18414
649.343	55388
649.401	26034
649.459	4158
649.516	2596
649.574	887
649.632	3189
649.690	4263
649.748	2322
649.806	1976
649.863	5724
649.921	12255
649.979	7122
650.037	578
650.094	-1468
650.152	345
650.210	262
650.268	1288
650.325	1313
650.383	1775
650.440	-446
650.498	309
650.556	751
650.613	-1015
650.671	666
650.728	-393
650.786	-338
650.843	246
650.901	-1391
650.958	638
651.016	-417
651.073	-226
651.131	-835
651.188	-878
651.246	220
651.303	-705
651.360	117
651.418	-296
651.475	-188
651.532	-851
651.590	530
651.647	-476
651.704	-486
651.762	-385
651.819	-538
651.876	-1078
651.933	-529
651.990	375
652.048	-929
652.105	-461
652.162	88
652.219	-833
652.276	-201
652.333	962
652.390	-1737
652.448	-684
652.505	-254
652.562	-269
652.619	-253
652.676	-425
652.733	1947
652.790	-245
652.847	-1258
652.904	1
652.961	-963
653.017	-1064
653.074	62
653.131	-801
653.188	-958
653.245	-630
653.302	-53
653.359	-347
653.415	-85
653.472	-643
653.529	564
653.586	-921
653.642	-692
653.699	150
653.756	-752
653.813	-1077
653.869	761
653.926	-334
653.983	-870
654.039	-153
654.096	-161
654.152	463
654.209	-1224
654.266	-239
654.322	-927
654.379	105
654.435	32
654.492	-1435
654.548	-1174
654.605	-612
654.661	897
654.717	-307
654.774	-753
654.830	-269
654.887	215
654.943	-205
655.000	387
655.056	450
655.112	279
655.168	-1509
655.225	-727
655.281	-341
655.337	-731
655.394	-1536
655.450	-231
655.506	-241
655.562	-1310
655.618	816
655.675	-1195
655.731	-1295
655.787	-247
655.843	423
655.899	-584
655.955	916
656.011	719
656.067	-923
656.123	408
656.179	63
656.235	1440
656.291	-682
656.347	250
656.403	-153
656.459	-967
656.515	19
656.571	-882
656.627	332
656.683	-362
656.739	483
656.795	-422
656.850	-584
656.906	206
656.962	130
657.018	-441
657.074	-1087
657.129	-507
657.185	336
657.241	586
657.297	-22
657.352	-66
657.408	-893
657.464	-35
657.519	-867
657.575	-753
657.630	-700
657.686	-765
657.742	-1246
657.797	-905
657.853	-554
657.908	33
657.964	-1018
658.019	-892
658.075	-687
658.130	-1011
658.186	-1221
658.241	-223
658.297	-996
658.352	-201
658.407	-238
658.463	-1193
658.518	210
658.573	-334
658.629	-1272
658.684	-687
658.739	630
658.795	-974
658.850	-120
658.905	-810
658.960	-1198
659.016	-1059
659.071	-818
659.126	-759
659.181	-910
659.236	198
659.291	-553
659.346	-1059
659.401	-1136
659.457	312
659.512	-770
659.567	922
659.622	-592
659.677	-813
659.732	-1556
659.787	-634
659.842	-1586
659.897	-505
659.952	-37
660.007	-504
660.061	-304
660.116	-1258
660.171	-1101
660.226	-271
660.281	-453
660.336	-911
660.391	54
660.445	-1098
660.500	-255
660.555	-739
660.610	-1025
660.664	-55
660.719	-490
660.774	-758
660.828	-897
660.883	-663
660.938	-283
660.992	-1280
661.047	-436
661.101	-973
661.156	-490
661.211	-1452
661.265	-1582
661.320	-1159
661.374	-688
661.429	-407
661.483	448
661.538	-1134
661.592	-364
661.647	-165
661.701	643
661.755	-499
661.810	-284
661.864	-1158
661.919	-1016
661.973	-773
662.027	-955
662.081	-1703
662.136	-1442
662.190	-713
662.244	-272
662.299	-982
662.353	-1079
662.407	-982
662.461	-1474
662.515	-1567
662.569	-1161
662.624	-667
662.678	-164
662.732	-1294
662.786	-1178
662.840	-743
662.894	-684
662.948	-501
663.002	-866
663.056	-961
663.110	-1204
663.164	-851
663.218	-1150
663.272	-427
663.326	-964
663.380	-732
663.434	-984
663.488	-1136
663.542	-1721
663.595	-1202
663.649	-871
663.703	-306
663.757	-1056
663.811	-1485
663.864	2
663.918	-527
663.972	-676
664.026	-135
664.079	-725
664.133	-195
664.187	-490
664.240	-863
664.294	-1188
664.348	-551
664.401	-210
664.455	-1449
664.508	-902
664.562	-176
664.615	-598
664.669	-1254
664.722	-652
664.776	-1586
664.829	-1164
664.883	-381
664.936	-1597
664.990	-1110
665.043	-327
665.097	-1141
665.150	-158
665.203	-1365
665.257	-685
665.310	-887
665.363	-1702
665.417	-908
665.470	-1200
665.523	-787
665.576	-818
665.630	-925
665.683	-1224
665.736	-1234
665.789	-1426
665.842	-1128
665.895	-277
665.949	-1082
666.002	-247
666.055	-945
666.108	-466
666.161	-566
666.214	-1151
666.267	-804
666.320	-621
666.373	-580
666.426	-1537
666.479	-1519
666.532	-1018
666.585	-1217
666.638	-498
666.691	-981
666.744	-1043
666.796	-1561
666.849	-774
666.902	-752
666.955	-1190
667.008	-566
667.060	-1008
667.113	-754
667.166	-810
667.219	-80
667.271	-501
667.324	-1009
667.377	-755
667.430	-950
667.482	-1446
667.535	-403
667.587	-988
667.640	-696
667.693	-813
667.745	-766
667.798	-640
667.850	-1607
667.903	-919
667.955	-929
668.008	-970
668.060	-863
668.113	-726
668.165	-498
668.218	-423
668.270	-1122
668.322	-1127
668.375	-942
668.427	-668
668.479	-843
668.532	-1136
668.584	-149
668.636	-1270
668.689	-522
668.741	-1197
668.793	-910
668.845	-737
668.898	-1022
668.950	-1151
669.002	-746
669.054	-1642
669.106	-1699
669.158	-604
669.211	-252
669.263	-946
669.315	140
669.367	-669
669.419	-902
669.471	50
669.523	293
669.575	973
669.627	194
669.679	-715
669.731	-205
669.783	-410
669.835	-136
669.886	-273
669.938	326
669.990	-1064
670.042	-1369
670.094	-614
670.146	-175
670.197	-741
670.249	-294
670.301	-469
670.353	290
670.404	382
670.456	1402
670.508	4092
670.560	7626
670.611	13617
670.663	24838
670.715	63896
670.766	102126
670.818	27067
670.869	3454
670.921	873
670.972	321
671.024	-219
671.075	-136
671.127	-601
671.178	-622
671.230	-737
671.281	-945
671.333	-1377
671.384	-1162
671.436	-1107
671.487	109
671.538	-225
671.590	1275
671.641	945
671.692	3066
671.744	5536
671.795	4008
671.846	761
671.897	-1069
671.949	-516
672.000	-438
672.051	-178
672.102	-290
672.153	-1714
672.204	-1333
672.256	-601
672.307	-87
672.358	-1392
672.409	-682
672.460	-1178
672.511	-669
672.562	-1329
672.613	-680
672.664	-660
672.715	-1126
672.766	-1059
672.817	-731
672.868	-1066
672.919	-369
672.970	-970
673.021	-1341
673.071	-1861
673.122	-785
673.173	-1288
673.224	-258
673.275	-963
673.326	-1019
673.376	-1380
673.427	-891
673.478	-1302
673.528	-1199
673.579	-968
673.630	-1631
673.680	-928
673.731	-1460
673.782	-966
673.832	-1003
673.883	-938
673.934	-1035
673.984	-1401
674.035	-1028
674.085	-762
674.136	-829
674.186	-1647
674.237	-1047
674.287	-1508
674.338	-955
674.388	-769
674.438	-1155
674.489	-467
674.539	-1028
674.589	-166
674.640	-999
674.690	-624
674.740	-961
674.791	-1038
674.841	-458
674.891	-708
674.942	-321
674.992	-1759
675.042	-683
675.092	-995
675.142	-1324
675.193	-1596
675.243	-520
675.293	-1368
675.343	-1549
675.393	-1980
675.443	-1152
675.493	-1059
675.543	-1349
675.593	-445
675.643	-1849
675.693	-994
675.743	-890
675.793	-1235
675.843	-1327
675.893	-1520
675.943	-480
675.993	-2162
676.043	-697
676.093	-410
676.142	-1549
676.192	-1699
676.242	-1507
676.292	-462
676.341	-1367
676.391	-1217
676.441	-1213
676.491	-1119
676.540	-1362
676.590	-935
676.640	-1613
676.689	-1558
676.739	-1198
676.789	-1178
676.838	-1409
676.888	-705
676.937	-1263
676.987	-1713
677.037	-747
677.086	-1120
677.136	-945
677.185	-1573
677.235	-1129
677.284	-611
677.333	-781
677.383	-1174
677.432	-1338
677.482	-1283
677.531	-753
677.580	-1527
677.630	-1527
677.679	-1379
677.728	-1808
677.778	-1149
677.827	-1269
677.876	-638
677.925	-2151
677.975	-676
678.024	-1911
678.073	-821
678.122	-1798
678.171	-928
678.220	-1714
678.269	-363
678.319	-1635
678.368	-795
678.417	-1346
678.466	-1474
678.515	-861
678.564	-2029
678.613	-1519
678.662	-1188
678.711	-1150
678.760	-1057
678.809	-297
678.857	-2135
678.906	-426
678.955	-383
679.004	-580
679.053	-1022
679.102	-1481
679.151	-1139
679.199	-1600
679.248	-472
679.297	-471
679.346	-1086
679.394	-1435
679.443	-1478
679.492	-927
679.540	-576
679.589	-712
679.638	-1762
679.686	-1101
679.735	-1424
679.784	-1281
679.832	-1175
679.881	-1405
679.929	-1534
679.978	-1847
680.026	-1815
680.075	-471
680.123	-2175
680.172	-1862
680.220	-1470
680.268	-888
680.317	-1392
680.365	-1520
680.414	-743
680.462	-1189
680.510	-764
680.559	-1495
680.607	-1282
680.655	-1952
680.703	-1840
680.752	-1879
680.800	-1315
680.848	-1561
680.896	-1941
680.945	-1143
680.993	-1138
681.041	-1576
681.089	-1497
681.137	-1139
681.185	-301
681.233	-1105
681.258	-1129
681.281	-1157
681.329	-2070
681.377	-1269
681.380	-1252
681.425	-998
681.473	-1051
681.502	-1108
681.521	-1166
681.569	-1373
681.617	-1357
681.624	-1354
681.665	-1348
681.713	-1025
681.745	-1403
681.761	-1590
681.809	-639
681.857	-884
681.867	-945
681.904	-1171
681.952	-1207
681.989	-1123
682.000	-1103
682.048	-1476
682.096	-773
682.111	-947
682.143	-1349
682.191	-1271
682.233	-690
682.239	-605
682.286	-1254
682.334	-1259
682.354	-1138
682.382	-997
682.430	-463
682.476	-950
682.477	-964
682.525	-701
682.572	-1323
682.598	-1041
682.620	-800
682.667	-529
682.715	-676
682.720	-679
682.763	-791
682.810	-1172
682.841	-1149
682.857	-1110
682.905	-1375
682.952	-972
682.963	-1010
683.000	-1220
683.047	-1207
683.085	-505
683.095	-304
683.142	-1402
683.190	-968
683.206	-554
683.237	138
683.284	-667
683.328	-650
683.332	-649
683.379	-1295
683.426	-1379
683.449	-1250
683.473	-1129
683.521	-688
683.568	-620
683.571	-657
683.615	-1158
683.662	-1578
683.693	-1454
683.709	-1425
683.757	-1536
683.804	-1170
683.814	-1072
683.851	-655
683.898	-1055
683.936	-824
683.945	-802
683.992	-666
684.039	-1265
684.057	-1354
684.086	-1393
684.133	-1231
684.179	-1023
684.180	-1023
684.227	-424
684.274	-397
684.300	-421
684.321	-412
684.368	-1229
684.415	-378
684.422	-478
684.462	-1087
684.509	-1185
684.543	-445
684.556	-198
684.603	-689
684.649	-1334
684.665	-1093
684.696	-605
684.743	-808
684.786	-550
684.790	-522
684.837	-971
684.883	-799
684.908	-908
684.930	-1042
684.977	-388
685.023	-614
685.029	-622
685.070	-758
685.117	-672
685.150	-901
685.164	-992
685.210	-681
685.257	-677
685.272	-745
685.303	-806
685.350	-723
685.393	-490
685.396	-488
685.443	-661
685.490	-551
685.514	-563
685.536	-474
685.583	-256
685.629	-592
685.636	-550
685.675	-488
685.722	-534
685.757	-852
685.768	-904
685.815	-716
685.861	-16
685.878	-238
685.908	-763
685.954	-983
686.000	-931
686.000	-928
686.047	-675
686.093	-288
686.121	-203
686.139	-186
686.185	-535
686.232	-426
686.242	-389
686.278	-236
686.324	-61
686.363	-574
686.370	-685
686.416	-504
686.463	-389
686.484	-507
686.509	-577
686.555	-546
686.601	-492
686.606	-510
686.647	-683
686.693	-544
686.727	-379
686.739	-301
686.785	155
686.831	-551
686.848	-252
686.877	99
686.923	-786
686.969	-68
686.969	-63
687.015	-146
687.061	-157
687.090	-396
687.107	-625
687.153	-668
687.199	-898
687.211	-898
687.245	-655
687.291	-318
687.332	-219
687.336	-229
687.382	-128
687.428	-526
687.453	-496
687.474	-438
687.520	61
687.565	145
687.574	116
687.611	44
687.657	297
687.695	41
687.702	44
687.748	728
687.794	1793
687.816	1606
687.839	931
687.885	202
687.931	-128
687.937	-237
687.976	-271
688.022	51
688.058	183
688.067	171
688.113	-600
688.158	-447
688.179	-190
688.204	273
688.249	65
688.295	468
688.300	453
688.340	-18
688.386	124
688.421	-294
688.431	-329
688.477	-37
688.522	-244
688.542	-154
688.567	-113
688.613	-37
688.658	-151
688.663	-123
688.703	171
688.749	-345
688.784	562
688.794	792
688.839	381
688.884	650
688.905	428
688.930	218
688.975	397
689.020	278
689.026	301
689.065	259
689.110	-750
689.146	-321
689.155	-111
689.201	389
689.246	481
689.267	693
689.291	600
689.336	687
689.381	301
689.388	180
689.426	-46
689.471	429
689.509	963
689.516	1018
689.561	608
689.606	27
689.630	191
689.651	374
689.696	-206
689.741	-85
689.750	-55
689.785	119
689.830	185
689.871	286
689.875	301
689.920	450
689.965	536
689.992	387
690.010	221
690.054	396
690.099	156
690.112	206
690.144	493
690.189	5
690.233	393
690.233	397
690.278	129
690.323	314
690.354	132
690.367	156
690.412	831
690.457	835
690.474	921
690.501	852
690.546	441
690.590	681
690.595	687
690.635	1090
690.680	890
690.716	1107
690.724	1125
690.769	1542
690.813	1384
690.836	1445
690.857	1869
690.902	2418
690.946	3585
690.957	3837
690.991	5528
691.035	7789
691.077	9841
691.080	9824
691.124	8488
691.168	7539
691.198	6829
691.213	6250
691.257	4599
691.301	2581
691.318	1948
691.346	1798
691.390	1780
691.434	1126
691.439	1092
691.478	962
691.522	1069
691.559	810
691.567	815
691.611	890
691.655	965
691.680	1016
691.699	897
691.743	916
691.787	672
691.800	544
691.831	535
691.875	838
691.919	723
691.921	729
691.964	845
692.008	857
692.041	725
692.052	753
692.096	684
692.139	1147
692.162	1183
692.183	1051
692.227	1030
692.271	798
692.282	741
692.315	797
692.359	719
692.402	1087
692.403	1093
692.447	846
692.490	864
692.523	687
692.534	747
692.578	902
692.622	1214
692.643	1171
692.666	858
692.709	776
692.753	441
692.763	401
692.797	728
692.840	989
692.884	1222
692.884	1227
692.928	1124
692.971	998
693.004	732
693.015	763
693.059	1383
693.102	1545
693.124	1632
693.146	1507
693.189	1251
693.233	884
693.245	879
693.276	1204
693.320	1427
693.363	1837
693.365	1830
693.407	1682
693.450	1928
693.485	1951
693.493	2079
693.537	3163
693.580	3527
693.605	3851
693.624	4509
693.667	6204
693.710	8296
693.725	8893
693.753	12415
693.797	17832
693.840	23931
693.845	24490
693.883	21827
693.926	18913
693.966	16119
693.970	15747
694.013	11825
694.056	8048
694.086	5367
694.099	5064
694.142	3835
694.185	3025
694.206	2460
694.229	2286
694.272	2227
694.315	1907
694.326	1910
694.358	1882
694.401	1418
694.444	1322
694.446	1292
694.487	1295
694.530	1650
694.566	1831
694.573	1798
694.616	1325
694.659	1178
694.686	1104
694.702	1278
694.745	1472
694.787	1814
694.806	1968
694.830	1799
694.873	1416
694.916	1120
694.926	963
694.959	1019
695.002	1656
695.044	1787
695.046	1796
695.087	1291
695.130	536
695.166	-53
695.172	56
695.215	724
695.258	1626
695.286	1983
695.301	1799
695.343	1538
695.386	1200
695.406	911
695.428	927
695.471	1282
695.514	1590
695.526	1607
695.556	1477
695.599	1537
695.641	1645
695.646	1601
695.684	1500
695.726	1696
695.766	1779
695.769	1758
695.811	1584
695.854	1310
695.886	802
695.896	845
695.938	1324
695.981	1698
696.005	1935
696.023	1797
696.065	1470
696.108	1093
696.125	966
696.150	1087
696.192	1067
696.235	1274
696.245	1294
696.277	1292
696.319	1212
696.361	1473
696.365	1445
696.404	1444
696.446	1806
696.485	1991
696.488	1997
696.530	1911
696.572	2006
696.604	1950
696.614	1936
696.656	1963
696.698	1886
696.724	1784
696.740	1730
696.783	1662
696.825	1657
696.844	1615
696.867	1663
696.909	1733
696.951	1732
696.964	1775
696.992	1647
697.034	1361
697.076	1019
697.083	953
697.118	1194
697.160	1595
697.202	1871
697.203	1872
697.244	1734
697.286	1473
697.323	1205
697.327	1241
697.369	1491
697.411	1833
697.442	2045
697.453	1961
697.494	1555
697.536	1147
697.562	957
697.578	1190
697.620	1674
697.661	2182
697.682	2429
697.703	2392
697.744	2250
697.786	2239
697.801	2166
697.828	2253
697.869	2429
697.911	2675
697.921	2705
697.952	2288
697.994	1729
698.035	1202
698.040	1131
698.077	1587
698.118	2074
698.160	2582
698.160	2574
698.201	2293
698.243	2069
698.279	1748
698.284	1742
698.325	1695
698.367	1590
698.399	1537
698.408	1580
698.449	1680
698.491	1822
698.518	1905
698.532	1916
698.573	1943
698.614	1958
698.638	1945
698.656	1857
698.697	1646
698.738	1438
698.757	1328
698.779	1455
698.820	1680
698.862	1923
698.877	2003
698.903	2058
698.944	2135
698.985	2208
698.996	2221
699.026	2227
699.067	2227
699.116	2218
699.235	1709
699.354	2025
699.474	1458
699.593	2857
699.713	2538
699.832	2970
699.951	1747
700.070	2389
700.190	1947
700.309	2241
700.428	1040
700.547	2985
700.667	1060
700.786	2642
700.905	1336
701.024	2381
701.143	1119
701.262	1961
701.381	1399
701.500	1884
701.619	1528
701.738	2162
701.857	1824
701.976	2722
702.095	1374
702.214	2338
702.333	1829
702.452	2104
702.571	1682
702.690	2161
702.809	1507
702.928	1784
703.047	1427
703.165	2140
703.284	1567
703.403	2146
703.522	1587
703.640	2185
703.759	1547
703.878	1827
703.997	1338
704.115	2307
704.234	1457
704.353	2121
704.471	952
704.590	1808
704.708	1762
704.827	1432
704.946	1483
705.064	2458
705.183	1588
705.301	1732
705.420	1887
705.538	2332
705.656	1268
705.775	1875
705.893	2885
706.012	4503
706.130	1053
706.249	1048
706.367	721
706.485	1916
706.604	535
706.722	1620
706.840	1706
706.958	6377
707.077	3307
707.195	1651
707.313	483
707.431	2110
707.549	625
707.668	2278
707.786	1290
707.904	1981
708.022	1143
708.140	1846
708.258	1442
708.376	1858
708.494	1747
708.612	2483
708.730	1644
708.848	2655
708.966	600
709.084	2169
709.202	1709
709.320	1829
709.438	910
709.556	1894
709.674	1055
709.791	1947
709.909	1064
710.027	1909
710.145	1814
710.263	2895
710.380	836
710.498	1762
710.616	985
710.733	2478
710.851	589
710.969	2139
711.086	967
711.204	1257
711.322	1268
711.439	1364
711.557	601
711.674	1863
711.792	668
711.909	2231
712.027	1185
712.144	949
712.262	878
712.379	1375
712.497	1890
712.614	1752
712.732	1517
712.849	1565
712.966	717
713.084	1942
713.201	948
713.318	742
713.436	1765
713.553	1974
713.670	817
713.787	1598
713.905	595
714.022	1627
714.139	628
714.256	2061
714.373	1922
714.490	3696
714.608	11066
714.725	52203
714.842	45913
714.959	4400
715.076	1553
715.193	2232
715.310	590
715.427	631
715.544	853
715.661	1905
715.778	811
715.895	1375
716.011	1075
716.128	984
716.245	1587
716.362	1903
716.479	1131
716.596	2162
716.713	658
716.829	2186
716.946	1945
717.063	1022
717.180	77
717.296	967
717.413	1365
717.530	1646
717.646	654
717.763	1475
717.880	852
717.996	768
718.113	487
718.229	2057
718.346	590
718.462	1594
718.579	-202
718.695	1199
718.812	1252
718.928	704
719.045	935
719.161	1031
719.277	905
719.394	1727
719.510	1435
719.626	1220
719.743	1307
719.859	1996
719.975	3305
720.092	12299
720.208	24997
720.324	3438
720.440	564
720.557	1608
720.673	1710
720.789	1075
720.905	832
721.021	1129
721.137	745
721.253	1079
721.369	296
721.486	1744
721.602	998
721.718	545
721.834	903
721.950	1630
722.066	452
722.181	1133
722.297	118
722.413	2229
722.529	-97
722.645	1464
722.761	-305
722.877	947
722.993	737
723.108	1515
723.224	1478
723.340	1445
723.456	162
723.571	1427
723.687	282
723.803	1437
723.918	157
724.034	849
724.150	817
724.265	1043
724.381	921
724.497	812
724.612	577
724.728	750
724.843	-284
724.959	1283
725.074	308
725.190	1642
725.305	252
725.421	494
725.536	727
725.651	764
725.767	633
725.882	1116
725.997	211
726.113	-157
726.228	769
726.343	1617
726.459	34
726.574	945
726.689	220
726.804	1746
726.920	626
727.035	693
727.150	-460
727.265	469
727.380	220
727.495	954
727.610	152
727.725	1346
727.841	293
727.956	2104
728.071	1163
728.186	824
728.301	209
728.416	959
728.531	199
728.645	234
728.760	173
728.875	1328
728.990	409
729.105	1654
729.220	399
729.335	776
729.449	409
729.564	393
729.679	-72
729.794	1597
729.908	-123
730.023	946
730.138	-121
730.253	122
730.367	-229
730.482	414
730.596	517
730.711	1359
730.826	1209
730.940	1530
731.055	541
731.169	905
731.284	242
731.398	1263
731.513	747
731.627	1279
731.742	209
731.856	723
731.970	-123
732.085	1416
732.199	404
732.313	2550
732.428	4486
732.542	13480
732.656	5860
732.771	1639
732.885	-111
732.999	503
733.113	931
733.227	1050
733.342	731
733.456	1263
733.570	496
733.684	564
733.798	-456
733.912	936
734.026	360
734.140	563
734.254	-486
734.368	790
734.482	1054
734.596	819
734.710	1099
734.824	1009
734.938	744
735.052	388
735.166	780
735.280	721
735.393	-245
735.507	1099
735.621	-306
735.735	447
735.849	546
735.962	1258
736.076	-64
736.190	713
736.303	769
736.417	1680
736.531	-392
736.644	1169
736.758	290
736.872	1550
736.985	345
737.099	1471
737.212	53
737.326	1131
737.439	399
737.553	797
737.666	-175
737.780	1895
737.893	-97
738.007	439
738.120	727
738.233	1060
738.347	529
738.460	1280
738.573	289
738.687	433
738.800	129
738.913	1472
739.026	-53
739.140	1112
739.253	204
739.366	1086
739.479	24
739.592	813
739.705	433
739.818	870
739.932	-272
740.045	928
740.158	-66
740.271	1956
740.384	220
740.497	1498
740.610	172
740.723	971
740.836	472
740.949	877
741.062	21
741.174	1346
741.287	-119
741.400	901
741.513	748
741.626	473
741.739	-386
741.851	1237
741.964	-112
742.077	535
742.189	807
742.302	1474
742.415	795
742.527	1043
742.640	40
742.753	704
742.865	382
742.978	458
743.090	110
743.203	117
743.316	908
743.428	347
743.541	540
743.653	254
743.766	-250
743.878	296
743.990	20
744.103	1884
744.215	1197
744.327	157
744.440	335
744.552	-185
744.664	-170
744.777	530
744.889	-288
745.001	562
745.113	-144
745.226	531
745.338	687
745.450	616
745.562	194
745.674	645
745.786	-538
745.898	591
746.010	-107
746.122	88
746.234	429
746.347	1084
746.459	242
746.570	978
746.682	211
746.794	2209
746.906	-209
747.018	190
747.130	967
747.242	631
747.354	75
747.466	1512
747.577	-240
747.689	281
747.801	-9
747.913	1258
748.024	267
748.136	362
748.248	-470
748.359	749
748.471	40
748.583	326
748.694	-624
748.806	729
748.918	-430
749.029	185
749.141	375
749.252	987
749.364	287
749.475	-181
749.587	-472
749.698	-114
749.809	81
749.921	1051
750.032	181
750.144	44
750.255	-377
750.366	-262
750.478	440
750.589	903
750.700	56
750.811	792
750.923	472
751.034	914
751.145	621
751.256	589
751.367	166
751.479	903
751.590	4
751.701	-309
751.812	-354
751.923	116
752.034	297
752.145	871
752.256	-522
752.367	15
752.478	-531
752.589	199
752.700	-646
752.811	773
752.922	-142
753.032	60
753.143	-640
753.254	678
753.365	995
753.476	394
753.586	-327
753.697	549
753.808	314
753.919	348
754.029	-151
754.140	509
754.251	-351
754.361	288
754.472	-124
754.582	119
754.693	-210
754.804	364
754.914	-190
755.025	219
755.135	-867
755.246	1196
755.356	-477
755.466	736
755.577	41
755.687	1096
755.798	273
755.908	494
756.018	613
756.129	372
756.239	974
756.349	1103
756.460	-604
756.570	727
756.680	107
756.790	397
756.900	-411
757.011	534
757.121	140
757.231	210
757.341	483
757.451	241
757.561	-739
757.671	754
757.781	-556
757.891	659
758.001	-491
758.111	397
758.221	1181
758.331	387
758.441	381
758.551	-3
758.661	-182
758.771	624
758.880	-54
758.990	443
759.100	-150
759.210	375
759.320	-60
759.429	317
759.539	539
759.649	297
759.758	105
759.868	1171
759.978	-13
760.087	1109
760.197	675
760.307	662
760.416	-151
760.526	-185
760.635	628
760.745	1228
760.854	4
760.964	912
761.073	521
761.182	-39
761.292	667
761.401	753
761.511	424
761.620	835
761.729	625
761.839	727
761.948	332
762.057	1181
762.166	952
762.276	270
762.385	1478
762.494	1512
762.603	1674
762.712	1755
762.822	472
762.931	2022
763.040	784
763.149	1435
763.258	521
763.367	2590
763.476	747
763.585	1445
763.694	1447
763.803	2604
763.912	2559
764.021	2998
764.130	2518
764.238	3597
764.347	1655
764.456	3266
764.565	3409
764.674	4144
764.783	4089
764.891	5000
765.000	5926
765.109	7549
765.217	7816
765.326	9744
765.435	10917
765.543	14389
765.652	16807
765.761	25076
765.869	33566
765.978	55138
766.086	92199
766.195	172779
766.303	346648
766.412	478743
766.520	419996
766.629	263480
766.737	121523
766.846	70228
766.954	44926
767.062	31769
767.171	22833
767.279	18759
767.387	14014
767.496	12230
767.604	10038
767.712	9280
767.820	7222
767.928	7511
768.037	5641
768.145	7463
768.253	6083
768.361	5297
768.469	5273
768.577	6285
768.685	5726
768.793	7186
768.901	7301
769.009	9210
769.117	9648
769.225	14024
769.333	21980
769.441	35396
769.549	64063
769.657	142235
769.765	323889
769.873	398077
769.981	249505
770.088	94624
770.196	45804
770.304	29213
770.412	19147
770.519	13649
770.627	9884
770.735	8558
770.842	5894
770.950	6662
771.058	4073
771.165	5511
771.273	4378
771.380	4188
771.488	2784
771.595	2931
771.703	2014
771.810	2782
771.918	2029
772.025	3057
772.133	1093
772.240	1868
772.348	1078
772.455	2427
772.562	1323
772.670	1762
772.777	539
772.884	2257
772.991	1175
773.099	837
773.206	-425
773.313	1894
773.420	975
773.528	921
773.635	692
773.742	1013
773.849	1071
773.956	1229
774.063	334
774.170	1294
774.277	494
774.384	1053
774.491	-301
774.598	571
774.705	477
774.812	1176
774.919	513
775.026	632
775.133	122
775.239	1000
775.346	199
775.453	526
775.560	6
775.667	1109
775.773	176
775.880	554
775.987	4
776.093	414
776.200	-194
776.307	543
776.413	217
776.520	-117
776.627	467
776.733	477
776.840	-1045
776.946	2467
777.053	1162
777.159	4255
777.266	-168
777.372	4173
777.478	2042
777.585	1263
777.691	-485
777.798	-120
777.904	328
778.010	888
778.117	236
778.223	-276
778.329	-127
778.435	142
778.542	142
778.648	829
778.754	-719
778.860	-1
778.966	-318
779.072	100
779.178	236
779.284	-6
779.391	305
779.497	-282
779.603	2209
779.708	3233
779.815	11761
779.920	48679
780.026	74758
780.132	8858
780.238	453
780.344	743
780.450	-6
780.556	1030
780.661	-415
780.767	1094
780.873	-704
780.979	-162
781.085	-627
781.190	-325
781.296	-477
781.402	641
781.507	-995
781.613	370
781.719	-783
781.824	828
781.930	555
782.035	200
782.141	-647
782.246	8
782.352	-1467
782.457	159
782.563	-670
782.668	351
782.773	-896
782.879	-465
782.984	-80
783.090	-94
783.195	-410
783.300	-167
783.405	-729
783.511	-105
783.616	-217
783.721	-260
783.826	-678
783.932	245
784.037	-550
784.142	227
784.247	-753
784.352	-987
784.457	-879
784.562	65
784.667	-95
784.772	-798
784.877	-810
784.982	396
785.087	-1399
785.192	289
785.297	-1695
785.402	-210
785.507	-995
785.611	81
785.716	-637
785.821	247
785.926	-1056
786.031	-163
786.135	-1437
786.240	-570
786.345	-1764
786.450	207
786.554	-912
786.659	-505
786.763	-1450
786.868	280
786.973	-1024
787.077	-55
787.182	-1053
787.286	-145
787.391	-1265
787.495	-411
787.600	-941
787.704	-591
787.809	-540
787.913	-750
788.017	203
788.122	412
788.226	-617
788.330	-834
788.435	-1350
788.539	-486
788.643	-885
788.747	-220
788.852	-1266
788.956	-329
789.060	111
789.164	236
789.268	-1359
789.372	67
789.476	-981
789.580	-771
789.684	-1580
789.788	-306
789.892	-1722
789.996	36
790.100	-795
790.204	-453
790.308	-704
790.412	-572
790.516	-841
790.620	-807
790.724	-836
790.828	-267
790.931	-2135
791.035	1360
791.139	-1088
791.242	-1450
791.346	-33
791.450	-630
791.554	-734
791.657	-1128
791.761	-5
791.864	518
791.968	-961
792.072	-467
792.175	-999
792.279	-694
792.382	-1133
792.486	-685
792.589	-1424
792.693	153
792.796	-1526
792.899	-615
793.003	-274
793.106	-868
793.209	-1694
793.313	614
793.416	-2195
793.519	343
793.623	-373
793.726	230
793.829	-946
793.932	291
794.035	-975
794.138	750
794.242	319
794.345	-82
794.448	1801
794.551	4653
794.654	24032
794.757	42996
794.860	4574
794.963	70
795.066	-725
795.169	525
795.272	-1807
795.375	-710
795.477	-1695
795.580	430
795.683	-1305
795.786	-517
795.889	-1737
795.991	1159
796.094	15
796.197	-1614
796.300	123
796.402	-752
796.505	-1698
796.608	-909
796.710	-975
796.813	-830
796.915	-884
797.018	285
797.120	-1027
797.223	-1588
797.326	-763
797.428	-1089
797.530	-1281
797.633	-459
797.735	-960
797.838	-1057
797.940	-671
798.042	-968
798.145	-905
798.247	268
798.349	-1640
798.452	831
798.554	-2198
798.656	-1421
798.758	-462
798.860	110
798.962	-979
799.065	-728
799.167	-1883
799.269	92
799.371	-167
799.473	-446
799.575	-2048
799.677	-870
799.779	477
799.881	-1344
799.983	-369
800.085	108
800.187	-808
800.289	-1262
800.390	-608
800.492	339
800.594	-206
800.696	-982
800.798	-666
800.899	-1247
801.001	-911
801.103	-252
801.205	-1422
801.306	-656
801.408	-2097
801.509	-271
801.611	-691
801.713	-289
801.814	-2186
801.916	-1005
802.017	-1099
802.119	-922
802.220	-429
802.322	-2359
802.423	472
802.525	-1665
802.626	-738
802.727	-225
802.829	-332
802.930	-2680
803.031	-361
803.133	-651
803.234	-961
803.335	-104
803.436	-2255
803.538	-517
803.639	-1767
803.740	-799
803.841	-1647
803.942	-958
804.043	-609
804.144	-674
804.245	-1338
804.346	-528
804.447	-1060
804.548	-952
804.649	-232
804.750	-950
804.851	-1581
804.952	-385
805.053	-1051
805.154	-1302
805.255	-466
805.355	-445
805.456	-1649
805.557	-1269
805.658	-2032
805.758	-418
805.859	-831
805.960	-668
806.061	-650
806.161	-1547
806.262	-1468
806.362	-521
806.463	-1296
806.564	-573
806.664	-1078
806.765	-1680
806.865	-868
806.966	-1942
807.066	-1583
807.166	485
807.267	-441
807.367	-643
807.468	-459
807.568	-2166
807.668	1
807.769	9
807.869	-1077
807.969	-299
808.069	-1108
808.170	-1212
808.270	-1318
808.370	-402
808.470	-1050
808.570	-1427
808.670	-1217
808.770	-1133
808.870	-1363
808.970	-664
809.070	-1671
809.170	-1178
809.271	-1091
809.370	-1093
809.470	-1185
809.570	-2030
809.670	-1968
809.770	-393
809.870	-244
809.970	-814
810.070	-1379
810.169	-514
810.269	-2475
810.369	-257
810.469	-1049
810.568	-432
810.668	-1286
810.768	-845
810.867	-887
810.967	-913
811.066	-1510
811.166	-791
811.265	-236
811.365	-1039
811.464	-1747
811.564	-276
811.663	-1145
811.763	-2015
811.862	-1377
811.962	344
812.061	-1242
812.160	-972
812.260	-1180
812.359	-610
812.458	-1663
812.557	-76
812.657	-1063
812.756	131
812.855	-1295
812.954	-1338
813.053	-1093
813.153	-617
813.252	-1223
813.351	-728
813.450	-1099
813.549	-59
813.648	-876
813.747	-186
813.846	-520
813.945	-806
814.044	-615
814.143	63
814.242	-927
814.341	-791
814.439	-480
814.538	-190
814.637	-901
814.736	862
814.835	-387
814.933	-858
815.032	-615
815.131	-67
815.229	-1052
815.328	56
815.427	-1073
815.525	119
815.624	-422
815.722	-1016
815.821	-116
815.919	515
816.018	-871
816.116	1156
816.215	-529
816.313	-403
816.412	221
816.510	1226
816.609	1429
816.707	975
816.805	570
816.904	990
817.002	1841
817.100	2881
817.198	2913
817.296	3474
817.395	3412
817.493	5239
817.591	4586
817.689	9313
817.787	11736
817.885	21035
817.983	38395
818.081	77615
818.179	170787
818.277	344416
818.375	279462
818.473	103722
818.571	45625
818.669	30171
818.767	24862
818.865	25880
818.963	30688
819.061	43953
819.158	71552
819.256	138973
819.354	277427
819.452	439435
819.549	306403
819.647	133110
819.745	62696
819.842	38189
819.940	24743
820.038	17945
820.135	13576
820.233	11621
820.330	7600
820.428	5963
820.525	5801
820.623	4851
820.720	2611
820.818	3041
820.915	2036
821.012	2585
821.110	807
821.207	2515
821.304	1108
821.402	1641
821.499	2086
821.596	2729
821.693	118
821.791	1189
821.888	-219
821.985	580
822.082	-353
822.179	1041
822.276	327
822.373	364
822.470	-347
822.567	693
822.664	-1470
822.761	591
822.858	-1722
822.955	-246
823.052	-401
823.149	136
823.246	-1166
823.343	-783
823.440	-55
823.536	-788
823.633	-1383
823.730	-353
823.827	-253
823.923	-921
824.020	20
824.117	-570
824.213	-1746
824.310	220
824.407	-1109
824.503	-257
824.600	220
824.696	-684
824.793	-752
824.889	-456
824.986	-1027
825.082	-592
825.179	-578
825.275	-218
825.371	-2170
825.468	-824
825.564	-1157
825.660	-334
825.757	-1134
825.853	348
825.949	-1893
826.045	-740
826.142	-2641
826.238	-617
826.334	-681
826.430	-1842
826.526	-1045
826.622	-1247
826.718	-1032
826.814	447
826.910	-209
827.006	-916
827.102	-1597
827.198	194
827.294	-1418
827.390	-653
827.486	-966
827.582	-1682
827.678	-1381
827.774	-510
827.869	-1796
827.965	-673
828.061	-2083
828.157	-698
828.252	-873
828.348	-2094
828.444	-443
828.539	-1279
828.635	-1346
828.731	904
828.826	-1932
828.922	-380
829.017	-1702
829.113	32
829.208	-1332
829.304	-1301
829.399	-670
829.495	-1498
829.590	-490
829.685	-1632
829.781	-1184
829.876	-1176
829.971	-2168
830.066	-964
830.162	-1635
830.257	-1868
830.352	-1414
830.447	-1033
830.543	-1263
830.638	-2516
830.733	-1120
830.828	-1669
830.923	-1199
831.018	-788
831.113	-1164
831.208	-1694
831.303	-1764
831.398	-865
831.493	-2104
831.588	-918
831.683	-1437
831.778	-558
831.873	-1444
831.967	-20
832.062	-2042
832.157	-2170
832.252	-1183
832.346	-996
832.441	-2130
832.536	-352
832.631	-1069
832.725	-734
832.820	-1813
832.914	-908
833.009	-1339
833.104	-1412
833.198	-1271
833.293	-1395
833.387	-1330
833.482	-1517
833.576	-1798
833.670	-578
833.765	-1546
833.859	-1754
833.954	-1316
834.048	-1439
834.142	-2316
834.237	-1962
834.331	-1943
834.425	-1076
834.519	-2158
834.613	-723
834.708	-1771
834.802	-304
834.896	-2117
834.990	-1145
835.084	-1807
835.178	-1501
835.272	-1459
835.366	-1428
835.460	-1138
835.554	-1430
835.648	-1335
835.742	-1706
835.836	-1591
835.930	-2196
836.024	-2164
836.117	-567
836.211	-1246
836.305	-686
836.399	-1632
836.493	-1058
836.586	-1014
836.680	-1296
836.774	-2093
836.867	-470
836.961	-2748
837.055	-1428
837.148	-2401
837.242	-990
837.335	-2320
837.429	-997
837.522	-1797
837.616	-1173
837.709	-1575
837.803	-1660
837.896	-1485
837.989	-2057
838.083	-1674
838.176	-1010
838.269	-2768
838.363	-112
838.456	-1969
838.549	-586
838.642	-2216
838.735	-342
838.829	-1289
838.922	-1102
839.015	-1204
839.108	-693
839.201	-1085
839.294	-884
839.387	-1520
839.480	-1296
839.573	-1655
839.666	-1685
839.759	-2136
839.852	-1319
839.945	-1336
840.038	-784
840.131	-1438
840.223	-1395
840.316	-1111
840.409	-1780
840.502	-1887
840.594	-456
840.687	-2776
840.780	-923
840.873	-2917
840.965	-1612
841.058	-978
841.150	-580
841.243	-2353
841.336	-452
841.428	-1673
841.521	-1067
841.613	-1455
841.706	-435
841.798	-1906
841.890	-924
841.983	-2069
842.075	-304
842.167	-1589
842.260	-953
842.352	-1303
842.444	-2346
842.537	-2248
842.629	-325
842.721	-2056
842.813	-812
842.905	-1961
842.997	-640
843.090	-1997
843.182	-461
843.274	-2101
843.366	-836
843.458	-1797
843.550	-120
843.642	-1727
843.734	-946
843.826	-1861
843.918	-765
844.009	-1206
844.101	-1490
844.193	-1699
844.285	-1354
844.377	-1299
844.469	-969
844.560	-1657
844.652	-1716
844.744	-1198
844.835	-1204
844.927	-854
845.019	-1462
845.110	-1351
845.202	-1654
845.293	-1931
845.385	-1889
845.476	-924
845.568	-465
845.659	-1987
845.751	-479
845.842	-1527
845.934	-2044
846.025	-1116
846.116	-793
846.208	-1802
846.299	-1882
846.390	-2015
846.482	-980
846.573	-1567
846.664	-601
846.755	-1507
846.846	-1365
846.937	-2218
847.029	-1656
847.120	-2067
847.211	-1082
847.302	-1049
847.393	-1690
847.484	-784
847.575	-1052
847.666	-2400
847.757	-1091
847.847	-1072
847.938	221
848.029	-1427
848.120	-1070
848.211	-1268
848.302	-1652
848.392	-1408
848.483	-1432
848.574	-1873
848.664	-1258
848.755	-1341
848.846	-1478
848.936	-1621
849.027	-981
849.118	-1672
849.208	-1554
849.299	-1311
849.389	-1047
849.480	-738
849.570	-673
849.661	-416
849.751	767
849.841	-1798
849.932	-1023
850.022	-2266
850.112	-1136
850.203	-1821
850.293	-1099
850.383	-2432
850.474	-1536
850.564	-1857
850.654	-1252
850.744	-2669
850.834	-985
850.924	-1909
851.014	-1618
851.104	-2014
851.194	-849
851.284	-1754
851.374	-855
851.464	-1838
851.554	-1070
851.644	-2169
851.734	-1087
851.824	-2221
851.914	-1205
852.004	-2329
852.094	-1296
852.183	-1286
852.273	-1467
852.363	-2338
852.452	-1605
852.542	-2192
852.632	-1574
852.721	-1341
852.811	-1224
852.901	-1477
852.990	-1697
853.080	-2011
853.169	-1180
853.259	-2376
853.348	-1971
853.438	-2013
853.527	-28
853.617	-2332
853.706	-193
853.795	-1715
853.885	2046
853.974	3110
854.063	9643
854.152	13627
854.242	3718
854.331	-1202
854.420	-823
854.509	-2273
854.598	-854
854.687	-1972
854.777	-1180
854.866	-1783
854.955	-1494
855.044	-1989
855.133	-1301
855.222	-2253
855.311	-1204
855.400	-1427
855.488	-1790
855.577	-2449
855.666	-772
855.755	-1353
855.844	-932
855.933	-2443
856.021	-1402
856.110	-1825
856.199	-1558
856.288	-2253
856.376	-894
856.465	-2187
856.554	-1028
856.642	-2243
856.731	-889
856.819	-1795
856.908	-1326
856.996	-2105
857.085	-1276
857.173	-1655
857.262	-1697
857.350	-1914
857.438	-1039
857.527	-1137
857.615	-1337
857.703	-1697
857.792	-1289
857.880	-1711
857.968	-1577
858.056	-1161
858.145	-1877
858.233	-2359
858.321	-1527
858.409	-1969
858.497	-1101
858.585	-2883
858.673	-1256
858.761	-1667
858.849	-1763
858.937	-1420
859.025	-697
859.113	-1143
859.201	-1856
859.289	-1634
859.377	-1330
859.465	-1748
859.552	-1617
859.640	-2506
859.728	-928
859.816	-2746
859.903	-982
859.991	-2580
860.079	-1442
860.166	-2906
860.254	-1552
860.342	-2200
860.429	-1644
860.517	-2002
860.604	-1449
860.692	-1266
860.779	-1700
860.867	-2152
860.954	-1900
861.042	-2152
861.129	-826
861.216	-1733
861.304	-1791
861.391	-1924
861.478	-1385
861.565	-1458
861.653	-542
861.740	-3263
861.827	-1690
861.914	-1446
862.001	-1358
862.089	-1680
862.176	-994
862.263	-2422
862.350	-1114
862.437	-1886
862.524	-1667
862.611	-2080
862.698	-342
862.785	-1755
862.871	-1374
862.958	-2050
863.045	-2126
863.132	-1753
863.219	-1941
863.306	-2584
863.392	-1302
863.479	-2493
863.566	-932
863.652	-1580
863.739	-1458
863.826	-1574
863.912	-1657
863.999	-2774
864.086	-1084
864.172	-2124
864.259	-1126
864.345	-2680
864.432	-907
864.518	-1480
864.604	-1216
864.691	-1854
864.777	-1096
864.863	-1536
864.950	-1259
865.036	-2209
865.122	-533
865.209	-1318
865.295	-817
865.381	-1686
865.467	-1054
865.553	-1448
865.639	-1603
865.726	-1898
865.812	739
865.898	238
865.984	1392
866.070	4239
866.156	5690
866.242	-572
866.328	-1391
866.414	-2012
866.499	-834
866.585	-2319
866.671	-1804
866.757	-1468
866.843	-485
866.928	-1685
867.014	-859
867.100	-1383
867.186	-2186
867.271	-2125
867.357	-876
867.442	-2009
867.528	-1831
867.614	-1640
867.699	-1639
867.785	-945
867.870	-1158
867.956	-2028
868.041	-832
868.127	-1532
868.212	-1704
868.297	-1386
868.383	-1616
868.468	-1852
868.553	-338
868.639	-1856
868.724	-1710
868.809	-1521
868.894	-1019
868.979	-1978
869.065	-1097
869.150	-2330
869.235	-2131
869.320	-2271
869.405	-1024
869.490	-1948
869.575	-1224
869.660	-1406
869.745	-1496
869.830	-1877
869.915	-1029
870.000	-1936
870.085	-1086
870.169	-2206
870.254	-628
870.339	-2180
870.424	-1704
870.509	-1622
870.593	-2158
870.678	-1637
870.763	-1981
870.847	-1926
870.932	-2016
871.016	-1431
871.101	-1287
871.186	-1158
871.270	-388
871.355	-1891
871.439	-719
871.523	-2354
871.608	-1532
871.692	-2485
871.777	-779
871.861	-1460
871.945	-1111
872.030	-1971
872.114	-1990
872.198	-2242
872.282	-1582
872.367	-1986
872.451	-1412
872.535	-2403
872.619	-1965
872.703	-2498
872.787	-1021
872.871	-1664
872.955	-1799
873.039	-1516
873.123	-1643
873.207	-2238
873.291	-1769
873.375	-1992
873.459	-1163
873.543	-1874
873.627	-1661
873.711	-2730
873.794	-1638
873.878	-2340
873.962	-2136
874.045	-1719
874.129	-1849
874.137	-1844
874.213	-1797
874.245	-1929
874.296	-2150
874.352	-1949
874.380	-1851
874.460	-2096
874.464	-2107
874.547	-1727
874.568	-1708
874.631	-1666
874.676	-1980
874.714	-2223
874.784	-941
874.798	-699
874.881	-1066
874.892	-1110
874.965	-1378
874.999	-1502
875.048	-1688
875.107	-1368
875.131	-1239
875.215	-1906
875.215	-1906
875.298	-1324
875.323	-1423
875.381	-1695
875.430	-1474
875.465	-1302
875.538	-2279
875.548	-2418
875.631	-1371
875.646	-1539
875.714	-2351
875.753	-1887
875.798	-1336
875.861	-1684
875.881	-1790
875.964	-1567
875.968	-1557
876.047	-1411
876.076	-1258
876.130	-907
876.183	-1188
876.213	-1362
876.291	-1236
876.296	-1237
876.379	-2003
876.398	-1919
876.462	-1494
876.506	-1813
876.545	-2116
876.613	-1812
876.628	-1737
876.711	-1855
876.721	-1752
876.794	-1044
876.828	-1464
876.877	-2027
876.935	-1100
876.960	-727
877.043	-1759
877.043	-1756
877.125	-920
877.150	-980
877.208	-1011
877.258	-776
877.291	-635
877.365	-1121
877.374	-1174
877.456	-1042
877.472	-1091
877.539	-1254
877.579	-985
877.622	-854
877.687	-1365
877.704	-1466
877.787	-1027
877.794	-1112
877.869	-1905
877.901	-1547
877.952	-969
878.008	-891
878.034	-921
878.115	-1120
878.117	-1123
878.199	-1550
878.222	-1374
878.282	-859
878.329	-1289
878.364	-1553
878.437	-1050
878.447	-966
878.529	-1554
878.544	-1405
878.611	-1217
878.651	-1612
878.694	-1744
878.758	-1159
878.776	-978
878.858	-1045
878.865	-931
878.941	117
878.972	-473
879.023	-1486
879.078	-1437
879.105	-1272
879.185	-627
879.187	-621
879.269	-1128
879.292	-1299
879.351	-1498
879.399	-1114
879.433	-843
879.506	-583
879.516	-556
879.598	-930
879.613	-977
879.680	-1152
879.720	-819
879.762	-586
879.827	-1488
879.844	-1649
879.926	-1131
879.933	-1113
880.007	-1278
880.040	-1324
880.089	-1035
880.147	-1329
880.171	-1589
880.253	-588
880.254	-593
880.335	-1259
880.360	-1146
880.417	-920
880.467	-1274
880.499	-1421
880.574	-742
880.580	-682
880.662	-1214
880.680	-1140
880.744	-1089
880.787	-1247
880.825	-1319
880.893	-1096
880.907	-1053
880.989	-1231
881.000	-1214
881.070	-647
881.106	-660
881.152	-997
881.213	-718
881.233	-648
881.315	-1205
881.319	-1186
881.396	-346
881.426	-498
881.478	-1038
881.532	-903
881.559	-772
881.639	-1371
881.641	-1389
881.722	-1218
881.745	-1431
881.803	-1336
881.852	-756
881.885	-679
881.958	-1299
881.966	-1345
882.047	-653
882.064	-847
882.129	-1555
882.171	-1395
882.210	-1181
882.277	-1214
882.291	-1220
882.372	-757
882.383	-813
882.454	-1082
882.489	-925
882.535	-871
882.596	-765
882.616	-684
882.697	-716
882.702	-731
882.778	-1069
882.808	-1011
882.859	-703
882.914	-612
882.940	-753
883.020	-1176
883.021	-1170
883.102	-1172
883.127	-983
883.183	-785
883.233	-632
883.264	-705
883.339	-650
883.345	-608
883.426	-1261
883.445	-1141
883.507	-710
883.551	-755
883.587	-853
883.657	-688
883.668	-649
883.749	-594
883.763	-595
883.830	-599
883.869	-703
883.910	-667
883.975	-277
883.991	-277
884.072	-909
884.081	-895
884.152	-217
884.187	-202
884.233	-661
884.292	-772
884.314	-664
884.394	-838
884.398	-842
884.475	-790
884.504	-836
884.555	-776
884.610	-459
884.636	-487
884.716	-821
884.716	-815
884.797	-365
884.821	-327
884.877	-170
884.927	-31
884.958	-109
885.033	-300
885.038	-308
885.118	-434
885.139	-563
885.199	-726
885.244	-537
885.279	-395
885.350	-715
885.359	-753
885.439	-322
885.456	-418
885.520	-727
885.561	-514
885.600	-493
885.667	-946
885.680	-929
885.760	-416
885.773	-377
885.840	-130
885.878	-22
885.920	-237
885.984	-845
886.000	-954
886.080	-897
886.089	-926
886.160	-488
886.195	-220
886.240	-345
886.300	-544
886.320	-555
886.400	-675
886.406	-699
886.480	-790
886.511	-647
886.560	-443
886.616	-609
886.640	-527
886.720	107
886.722	109
886.800	-438
886.827	-490
886.879	-115
886.932	-74
886.959	-26
887.038	532
887.039	531
887.119	-492
887.143	-644
887.198	-21
887.248	295
887.278	-19
887.354	-758
887.358	-734
887.437	-429
887.459	-253
887.517	-16
887.564	-84
887.596	-145
887.669	6
887.676	-20
887.755	-512
887.774	-654
887.835	-429
887.880	-272
887.914	-389
887.985	-499
887.994	-504
888.073	-827
888.090	-829
888.153	-301
888.195	-56
888.232	-286
888.300	-642
888.311	-607
888.391	-582
888.405	-539
888.470	-550
888.510	-644
888.549	-431
888.615	114
888.628	103
888.708	-219
888.720	-251
888.787	-321
888.825	-422
888.866	-333
888.930	-158
888.945	-155
889.024	-160
889.035	-162
889.103	-493
889.140	-697
889.182	-559
889.245	-303
889.261	-202
889.340	197
889.349	246
889.419	125
889.454	37
889.498	-8
889.559	-45
889.577	-242
889.656	-1136
889.664	-1222
889.735	-269
889.768	182
889.814	109
889.873	11
889.978	113
890.083	47
890.187	1
890.292	-524
890.397	-156
890.501	200
890.606	-96
890.710	159
890.815	-478
890.919	579
891.024	-1146
891.128	840
891.233	440
891.337	6
891.442	-785
891.546	23
891.650	-641
891.755	178
891.859	199
891.963	558
892.068	435
892.172	-175
892.276	62
892.380	-116
892.484	29
892.589	94
892.693	780
892.797	-566
892.901	371
893.005	-154
893.109	-717
893.213	-256
893.317	-188
893.421	737
893.525	212
893.629	103
893.733	-352
893.837	760
893.941	-160
894.045	-228
894.148	-109
894.252	64
894.356	-20
894.460	-669
894.564	-237
894.667	-296
894.771	-685
894.875	539
894.978	-345
895.082	88
895.186	-70
895.289	271
895.393	-410
895.496	666
895.600	-469
895.703	-609
895.807	-587
895.910	418
896.014	-322
896.117	123
896.221	60
896.324	-341
896.427	256
896.531	115
896.634	-763
896.737	833
896.840	282
896.944	-23
897.047	393
897.150	347
897.253	34
897.356	540
897.460	-586
897.563	-263
897.666	-59
897.769	-225
897.872	83
897.975	460
898.078	-328
898.181	140
898.284	-728
898.387	475
898.490	-127
898.593	-36
898.695	-712
898.798	164
898.901	13
899.004	8
899.107	-266
899.209	-33
899.312	-199
899.415	-72
899.518	-100
899.620	-322
899.723	-514
899.826	-386
899.928	442
900.031	-366
900.133	57
900.236	-160
900.338	-14
900.441	-120
900.543	-457
900.646	112
900.748	488
900.851	663
900.953	18
901.055	278
901.158	988
901.260	-683
901.362	97
901.465	39
901.567	-290
901.669	453
901.771	-172
901.873	826
901.976	-395
902.078	-895
902.180	-299
902.282	327
902.384	-476
902.486	25
902.588	-235
902.690	438
902.792	-308
902.894	11
902.996	935
903.098	-167
903.200	551
903.302	-191
903.404	-816
903.505	-518
903.607	180
903.709	350
903.811	76
903.913	353
904.014	210
904.116	423
904.218	73
904.319	-44
904.421	24
904.523	1455
904.624	516
904.726	453
904.827	635
904.929	263
905.030	778
905.132	743
905.233	166
905.335	-778
905.436	75
905.537	301
905.639	256
905.740	212
905.841	556
905.943	1061
906.044	681
906.145	474
906.247	23
906.348	754
906.449	-311
906.550	-129
906.651	244
906.752	725
906.854	-251
906.955	-574
907.056	-269
907.157	298
907.258	-550
907.359	3
907.460	-196
907.561	611
907.662	565
907.762	-834
907.863	-77
907.964	-18
908.065	674
908.166	292
908.267	42
908.367	217
908.468	499
908.569	-474
908.670	-132
908.770	455
908.871	685
908.971	-317
909.072	265
909.173	249
909.273	49
909.374	-310
909.474	-233
909.575	205
909.675	73
909.776	288
909.876	561
909.977	-427
910.077	185
910.177	218
910.278	83
910.378	-212
910.478	-335
910.579	186
910.679	-290
910.779	-105
910.879	-914
910.980	-91
911.080	-834
911.180	66
911.280	-563
911.380	-579
911.480	27
911.580	86
911.680	-519
911.780	471
911.880	296
911.980	78
912.080	219
912.180	433
912.280	644
912.380	512
912.480	-453
912.580	338
912.679	222
912.779	446
912.879	-879
912.979	-319
913.078	-103
913.178	176
913.278	522
913.377	417
913.477	259
913.577	-416
913.676	-80
913.776	-406
913.875	399
913.975	1003
914.074	179
914.174	80
914.273	-631
914.373	948
914.472	363
914.572	-102
914.671	291
914.770	-135
914.870	-457
914.969	64
915.068	-58
915.167	120
915.267	-468
915.366	318
915.465	422
915.564	197
915.663	-540
915.763	-41
915.862	0
915.961	160
916.060	-480
916.159	100
916.258	-626
916.357	-298
916.456	67
916.555	0
916.654	-4
916.752	676
916.851	-368
916.950	465
917.049	242
917.148	-56
917.247	24
917.345	-462
917.444	-27
917.543	-705
917.642	-23
917.740	622
917.839	-151
917.937	-76
918.036	-352
918.135	-41
918.233	-138
918.332	-449
918.430	-33
918.529	511
918.627	132
918.726	-365
918.824	127
918.923	-218
919.021	-435
919.119	558
919.218	263
919.316	-345
919.414	442
919.512	583
919.611	126
919.709	-260
919.807	-284
919.905	-140
920.003	-497
920.102	-178
920.200	-103
920.298	483
920.396	-711
920.494	-176
920.592	-227
920.690	396
920.788	-82
920.886	733
920.984	-553
921.082	43
921.180	-161
921.277	-440
921.375	236
921.473	-33
921.571	-185
921.669	-99
921.766	-826
921.864	591
921.962	78
922.060	-31
922.157	-224
922.255	421
922.352	-76
922.450	1121
922.548	266
922.645	-552
922.743	-997
922.840	12
922.938	151
923.035	863
923.133	562
923.230	-82
923.327	643
923.425	440
923.522	450
923.619	291
923.717	38
923.814	116
923.911	-642
924.008	923
924.106	570
924.203	580
924.300	-54
924.397	416
924.494	538
924.591	-60
924.688	-218
924.786	641
924.883	-619
924.979	-759
925.077	-108
925.173	541
925.270	341
925.367	-566
925.464	447
925.561	511
925.658	617
925.755	167
925.852	701
925.948	259
926.045	742
926.142	198
926.239	1319
926.335	1115
926.432	698
926.529	1445
926.625	1109
926.722	1901
926.818	517
926.915	44
927.011	1022
927.108	-180
927.204	-480
927.301	249
927.397	25
927.494	-63
927.590	-359
927.687	-95
927.783	134
927.879	237
927.976	379
928.072	507
928.168	270
928.264	4
928.361	-293
928.457	-14
928.553	-335
928.649	-267
928.745	333
928.841	-230
928.937	-199
929.033	554
929.129	566
929.225	162
929.321	737
929.417	450
929.513	-102
929.609	-130
929.705	-943
929.801	111
929.897	-220
929.993	209
930.089	-97
930.184	-108
930.280	-354
930.376	8
930.471	323
930.567	-357
930.663	296
930.758	727
930.854	-496
930.950	112
931.045	-117
931.141	-638
931.236	281
931.332	264
931.427	-98
931.523	43
931.618	23
931.714	-72
931.809	-356
931.905	8
932.000	-547
932.095	-209
932.191	-71
932.286	-557
932.381	422
932.476	-384
932.572	-128
932.667	-430
932.762	381
932.857	177
932.952	118
933.047	-197
933.142	-499
933.237	437
933.332	-48
933.427	78
933.522	29
933.617	-317
933.712	514
933.807	-689
933.902	-106
933.997	356
934.092	-308
934.187	-462
934.282	-238
934.376	-515
934.471	28
934.566	-392
934.661	-176
934.755	303
934.850	-608
934.945	424
935.039	287
935.134	-771
935.228	33
935.323	-30
935.417	722
935.512	250
935.606	169
935.701	-600
935.795	-313
935.890	163
935.984	590
936.079	395
936.173	230
936.267	619
936.362	-1213
936.456	96
936.550	-235
936.644	273
936.738	-388
936.833	-192
936.927	-391
937.021	-165
937.115	-969
937.209	-694
937.303	-264
937.397	22
937.491	-342
937.585	262
937.679	-346
937.773	-457
937.867	-92
937.961	-83
938.055	-59
938.149	227
938.243	-444
938.337	-132
938.430	421
938.524	1173
938.618	1105
938.712	1031
938.805	-129
938.899	-846
938.993	869
939.086	816
939.180	980
939.274	1874
939.367	228
939.461	244
939.554	-787
939.648	-117
939.741	-305
939.835	72
939.928	637
940.022	-504
940.115	7
940.208	-50
940.302	412
940.395	-676
940.488	79
940.582	794
940.675	-762
940.768	-109
940.861	-391
940.954	-32
941.048	533
941.141	-126
941.234	-25
941.327	282
941.420	979
941.513	-307
941.606	-40
941.699	148
941.792	-522
941.885	526
941.978	815
942.071	-142
942.164	-912
942.257	-538
942.349	-903
942.442	108
942.535	-166
942.628	-287
942.721	-501
942.813	-1169
942.906	1108
942.999	-943
943.091	-497
943.184	84
943.277	-224
943.369	300
943.462	438
943.554	-461
943.647	-623
943.739	-74
943.832	-310
943.924	-321
944.017	-346
944.109	53
944.201	219
944.294	-498
944.386	-462
944.478	-463
944.571	-75
944.663	-383
944.755	80
944.847	-712
944.940	350
945.032	-965
945.124	-251
945.216	483
945.308	-426
945.400	-120
945.492	-97
945.584	-448
945.676	-290
945.768	-199
945.860	-68
945.952	-39
946.044	377
946.136	-522
946.228	-1113
946.320	205
946.412	-412
946.503	-513
946.595	358
946.687	-86
946.779	-1064
946.870	-518
946.962	-686
947.054	-72
947.145	-410
947.237	-432
947.329	-294
947.420	130
947.512	311
947.603	-237
947.695	-275
947.786	-81
947.878	-367
947.969	-246
948.061	-705
948.152	-841
948.243	-173
948.335	-615
948.426	-151
948.517	-731
948.609	-346
948.700	-467
948.791	110
948.882	353
948.973	-1115
949.065	-61
949.156	609
949.247	-627
949.338	-131
949.429	-677
949.520	636
949.611	-500
949.702	214
949.793	943
949.884	-731
949.975	230
950.066	-733
950.157	95
950.247	-696
950.338	-579
950.429	25
950.520	-459
950.611	-112
950.701	-447
950.792	-500
950.883	202
950.973	-695
951.064	326
951.155	-671
951.245	-401
951.336	-37
951.427	-405
951.517	-216
951.608	-504
951.698	-1174
951.788	-430
951.879	-296
951.969	81
952.060	-729
952.150	-347
952.240	-297
952.331	-1683
952.421	117
952.511	162
952.602	-628
952.692	-519
952.782	-374
952.872	187
952.962	-189
953.052	241
953.143	-422
953.233	37
953.323	-60
953.413	-341
953.503	-610
953.593	-794
953.683	-6
953.773	-841
953.863	-527
953.953	-608
954.042	-58
954.132	-1018
954.222	-639
954.312	-487
954.402	-867
954.492	308
954.581	-204
954.671	-895
954.761	-1101
954.850	-410
954.940	-761
955.030	-96
955.119	-586
955.209	-1025
955.298	-586
955.388	230
955.477	306
955.567	-531
955.656	-296
955.746	-202
955.835	-472
955.925	-603
956.014	-710
956.103	-166
956.193	-28
956.282	-312
956.371	-428
956.461	-688
956.550	-410
956.639	-537
956.728	-908
956.817	-135
956.906	-947
956.995	-114
957.085	-917
957.174	-253
957.263	-779
957.352	-65
957.441	-228
957.530	-30
957.619	115
957.708	-867
957.796	-1078
957.885	-472
957.974	-1063
958.063	-339
958.152	-1218
958.241	-609
958.329	-447
958.418	-551
958.507	-1689
958.596	-144
958.684	-1375
958.773	-344
958.861	-257
958.950	327
959.039	-397
959.127	-563
959.216	-24
959.304	-979
959.393	-606
959.481	-120
959.570	187
959.658	-698
959.746	-671
959.835	-22
959.923	-861
960.011	-1134
960.100	109
960.188	-275
960.276	-505
960.365	-654
960.453	-701
960.541	-1336
960.629	-71
960.717	-142
960.805	-1544
960.893	-787
960.981	-828
961.069	481
961.158	-1028
961.245	-899
961.333	-794
961.421	-861
961.509	-683
961.597	-17
961.685	-1242
961.773	-784
961.861	-908
961.949	194
962.036	-1182
962.124	107
962.212	-1370
962.299	-1026
962.387	-1075
962.475	-154
962.562	-1640
962.650	-1040
962.738	-773
962.825	-165
962.913	-517
963.000	-900
963.088	-898
963.175	-400
963.263	-450
963.350	-1148
963.438	-627
963.525	-720
963.612	-1096
963.700	-538
963.787	1386
963.874	67
963.962	-919
964.049	-1790
964.136	-815
964.223	-513
964.310	-449
964.398	-397
964.485	-1333
964.572	-900
964.659	-384
964.746	-324
964.833	-490
964.920	-1418
965.007	-714
965.094	-178
965.181	-675
965.268	-719
965.355	-582
965.441	-1017
965.528	-1169
965.615	62
965.702	-1209
965.789	-1430
965.875	-690
965.962	-1343
966.049	-1285
966.136	-941
966.222	-1266
966.309	-913
966.395	-543
966.482	-384
966.569	-1150
966.655	-806
966.742	-1043
966.828	-583
966.915	-1173
967.001	-687
967.087	-1062
967.174	-908
967.260	-759
967.347	-261
967.433	41
967.519	1253
967.605	-1695
967.692	-990
967.778	-677
967.864	43
967.950	-1166
968.036	-1628
968.123	-1084
968.209	-1629
968.295	-1395
968.381	633
968.467	-24
968.553	-1248
968.639	208
968.725	-1382
968.811	-298
968.897	427
968.983	-528
969.069	-1474
969.154	-61
969.240	168
969.326	-1340
969.412	-1557
969.497	-171
969.583	-1456
969.669	-289
969.755	-1137
969.840	-641
969.926	-660
970.012	-600
970.097	-430
970.183	-582
970.268	-970
970.354	-452
970.439	-1434
970.525	188
970.610	-143
970.696	-335
970.781	-1978
970.866	-1625
970.952	-45
971.037	-1473
971.122	-1233
971.208	-315
971.293	-1021
971.378	-1732
971.463	-465
971.549	-865
971.634	-495
971.719	-1034
971.804	-804
971.889	90
971.974	-728
972.059	-1079
972.144	-581
972.229	-187
972.314	-1231
972.399	-1337
972.484	-1678
972.569	-288
972.654	-1249
972.739	829
972.824	-389
972.908	-1000
972.993	-1567
973.078	-627
973.163	-1403
973.247	-710
973.332	-1819
973.417	-31
973.501	-890
973.586	-428
973.671	-1080
973.755	-808
973.840	-465
973.924	-54
974.009	-852
974.093	-1818
974.178	673
974.262	-433
974.346	-1334
974.431	-588
974.515	-973
974.600	-1668
974.684	-232
974.768	-1474
974.852	-405
974.937	-1799
975.021	-72
975.105	-512
975.189	-621
975.273	-105
975.358	-1189
975.442	-1460
975.526	-208
975.610	-1323
975.694	-1188
975.778	-157
975.862	-467
975.946	-2054
976.030	474
976.114	-1214
976.198	-1389
976.281	-1036
976.365	369
976.449	-837
976.533	-133
976.617	-1316
976.700	-958
976.784	-584
976.868	-1569
976.951	-482
977.035	-1365
977.119	20
977.202	-548
977.286	-692
977.369	-848
977.453	-307
977.536	-731
977.620	-370
977.703	-609
977.787	-921
977.870	-660
977.953	288
978.037	-1506
978.120	-117
978.203	-1934
978.287	-43
978.370	-460
978.453	-1356
978.536	-598
978.620	260
978.703	-808
978.786	-1231
978.869	-1076
978.952	-1462
979.035	379
979.118	-454
979.201	-1233
979.284	-138
979.367	-870
979.450	-1013
979.533	-895
979.616	-865
979.699	-947
979.782	-836
979.865	-700
979.948	-1092
980.030	-1253
980.113	-1060
980.196	-2006
980.279	-901
980.361	-994
980.444	-1711
980.526	-537
980.609	-70
980.692	-527
980.774	-637
980.857	-2035
980.939	-389
981.022	-958
981.104	-1150
981.187	-655
981.269	-1225
981.352	-676
981.434	-1194
981.516	-967
981.599	-188
981.681	-1364
981.763	-940
981.846	-970
981.928	-1021
982.010	-763
982.092	-1083
982.174	-1161
982.256	-914
982.339	-1811
982.421	-739
982.503	363
982.585	-2131
982.667	-524
982.749	-187
982.831	-240
982.913	-1182
982.995	-663
983.077	-732
983.158	-891
983.240	-2132
983.322	-1023
983.404	-993
983.486	-1753
983.568	-1058
983.649	-1403
983.731	-604
983.813	-1214
983.894	-978
983.976	-1015
984.058	-950
984.139	93
984.221	-1341
984.302	-488
984.384	-811
984.465	-1286
984.547	-1419
984.628	-2456
984.710	-687
984.791	-1785
984.872	-939
984.954	-796
985.035	-1214
985.116	-1424
985.198	-1599
985.279	78
985.360	-1092
985.441	-1225
985.522	-6
985.604	-1601
985.685	-2184
985.766	-540
985.847	61
985.928	-1342
986.009	-1439
986.090	-1745
986.171	-575
986.252	-1332
986.333	-2020
986.414	-1528
986.495	-388
986.576	-619
986.656	-1064
986.737	-658
986.818	-1544
986.899	-462
986.980	-812
987.060	-433
987.141	-1929
987.222	-771
987.302	-833
987.383	-1470
987.464	-1448
987.544	-1069
987.625	-1603
987.705	-585
987.786	-1238
987.866	-1209
987.947	-630
988.027	-1326
988.108	-1910
988.188	-734
988.268	-797
988.349	-918
988.429	-1445
988.509	-995
988.589	-1088
988.670	-2197
988.750	-477
988.830	-1486
988.910	-1540
988.990	-1158
989.070	-1545
989.151	-898
989.231	-1970
989.311	-497
989.391	-1106
989.471	-656
989.551	-1084
989.631	-869
989.711	-536
989.791	-1857
989.870	-1478
989.950	-295
990.030	-1752
990.110	-1101
990.190	-1684
990.269	-1375
990.349	-1101
990.429	-1189
990.509	-757
990.588	-1189
990.668	-1924
990.747	-1156
990.827	-1270
990.907	-1087
990.986	-1039
991.066	-1327
991.145	-1611
991.225	-1199
991.304	-1368
991.383	-1256
991.463	-1013
991.542	-856
991.622	-1388
991.701	-1190
991.780	-1470
991.859	-2498
991.939	-1892
992.018	-1168
992.097	-1591
992.176	-1456
992.256	-1567
992.335	-1507
992.414	-530
992.493	-900
992.572	-1956
992.651	-666
992.730	-1598
992.809	-1436
992.888	-1695
992.967	-1641
993.046	-890
993.125	-1972
993.203	-1887
993.282	-1319
993.361	-1691
993.440	-1230
993.519	-2399
993.597	-1279
993.676	-1591
993.755	-1161
993.834	-1942
993.912	-2205
993.991	-296
994.069	-1971
994.148	-2349
994.226	-806
994.305	-1326
994.384	-2337
994.462	33
994.540	-2051
994.619	-1528
994.697	-1266
994.776	-1591
994.854	-800
994.932	-1373
995.011	-1436
995.089	-2518
995.167	-1634
995.245	-1067
995.324	-2065
995.402	-946
995.480	-2035
995.558	-1962
995.636	-1897
995.714	-1450
995.792	-1040
995.870	-1697
995.948	-1857
996.026	-1436
996.104	-2523
996.182	-1562
996.260	-1928
996.338	-1368
996.416	-2414
996.494	-2161
996.572	-1031
996.649	-1446
996.727	-2772
996.805	-1089
996.883	-1894
996.960	-1732
997.038	-1112
997.116	-1491
997.193	-1613
997.271	-1074
997.348	-1256
997.426	-1558
997.504	-1645
997.581	-915
997.658	-740
997.736	-2023
997.813	-1735
997.891	-1866
997.968	-779
998.046	-2258
998.123	-1829
998.200	-1810
998.277	-1776
998.355	-509
998.432	-2414
998.509	-2437
998.586	-1769
998.663	-1163
998.741	-1234
998.818	-2108
998.895	-1590
998.972	-1843
999.049	-1210
999.126	-1752
999.203	-996
999.280	-1260
999.357	-1983
999.434	-2087
999.511	-1233
999.587	-1053
999.664	-1505
999.741	-2340
999.818	-1612
999.895	-2270
999.971	-2329
1000.048	-1551
1000.125	-1301
1000.202	-1628
1000.278	-1337
1000.355	-1358
1000.431	-1644
1000.508	-2424
1000.584	-1590
1000.661	-768
1000.738	-2517
1000.814	-2225
1000.890	-1414
1000.967	-2011
1001.043	-1778
1001.120	-2578
1001.196	-1510
1001.272	-2211
1001.349	-1713
1001.425	-1714
1001.501	-1720
1001.577	-2400
1001.654	-1548
1001.730	-1700
1001.806	-1582
1001.882	-1828
1001.958	-1519
1002.034	-1984
1002.110	-1289
1002.186	-2778
1002.262	-1927
1002.338	-1931
1002.414	-1078
1002.490	-1506
1002.566	-2849
1002.642	-2215
1002.718	-1344
1002.794	-1765
1002.870	-2004
1002.945	-1470
1003.021	-2134
1003.097	-1739
1003.173	-608
1003.248	-2026
1003.324	-1067
1003.400	-1247
1003.475	-2213
1003.551	-1473
1003.626	-2066
1003.702	-1585
1003.777	-714
1003.853	-1762
1003.928	-1400
1004.004	-903
1004.079	-843
1004.155	-1824
1004.230	-2573
1004.305	-1134
1004.381	-2029
1004.456	-1509
1004.531	-2424
1004.607	-1881
1004.682	-1338
1004.757	-1750
1004.832	-1359
1004.907	-2357
1004.982	-1429
1005.057	-1878
1005.133	-2726
1005.208	-1049
1005.283	-1936
1005.358	-1489
1005.433	-2216
1005.508	-2061
1005.583	-2442
1005.657	-1844
1005.732	-1250
1005.807	-2169
1005.882	-1521
1005.957	-1698
1006.032	-1122
1006.106	-1353
1006.181	-1493
1006.256	-1773
1006.331	-1870
1006.405	-1749
1006.480	-1815
1006.554	-1486
1006.629	-1846
1006.704	-1804
1006.778	-1750
1006.853	-1675
1006.927	-1543
1007.002	-2574
1007.076	-2052
1007.150	-1446
1007.225	-1924
1007.299	-2553
1007.373	-2296
1007.448	-1982
1007.522	-1196
1007.596	-2043
1007.671	-1692
1007.745	-1241
1007.819	-2272
1007.893	-1800
1007.967	-1398
1008.041	-2855
1008.115	-281
1008.190	-1747
1008.264	-1382
1008.338	-2908
1008.412	-2481
1008.486	-1456
1008.560	-1934
1008.633	-2051
1008.707	-2388
1008.781	-2046
1008.855	-1317
1008.929	-1164
1009.003	-2083
1009.076	-1757
1009.150	-1052
1009.224	-1730
1009.298	-1605
1009.371	-2564
1009.445	-836
1009.519	-1717
1009.592	-2366
1009.666	-1710
1009.739	-1762
1009.813	-2450
1009.886	-792
1009.960	-2518
1010.033	-1163
1010.107	-1155
1010.180	-1873
1010.253	-1747
1010.327	-1857
1010.400	-1189
1010.473	-2261
1010.547	-915
1010.620	-1336
1010.693	-1529
1010.766	-1793
1010.840	-1356
1010.913	-1813
1010.986	-1751
1011.059	-1079
1011.132	-1669
1011.205	-1193
1011.278	-2139
1011.351	-2172
1011.424	-1321
1011.497	-1371
1011.570	-1743
1011.643	-1978
1011.716	-1402
1011.789	-1472
1011.862	-1727
1011.934	-1087
1012.007	-2761
1012.080	-1319
1012.153	-1873
1012.225	-1734
1012.298	-2227
1012.371	-1393
1012.443	-887
1012.516	-2235
1012.588	-1297
1012.661	-1344
1012.733	-1643
1012.806	-1883
1012.879	-1367
1012.951	-2108
1013.023	-1725
1013.096	-1463
1013.168	-2470
1013.241	-540
1013.313	-1558
1013.385	-2004
1013.458	-1594
1013.530	-1354
1013.602	-2814
1013.674	-481
1013.746	-2093
1013.819	-2000
1013.891	-687
1013.963	-2661
1014.035	-1742
1014.107	-1301
1014.179	-1587
1014.251	-2112
1014.323	-1297
1014.395	-1545
1014.467	-1404
1014.539	-1516
1014.611	-1569
1014.683	-1511
1014.754	-719
1014.826	-1706
1014.898	-1352
1014.970	-2441
1015.042	-2091
1015.113	-1111
1015.185	-1575
1015.257	-2172
1015.328	-2012
1015.400	-2501
1015.471	-1313
1015.543	-1693
1015.615	-1195
1015.686	-1677
1015.757	-1467
1015.829	-1541
1015.901	-1501
1015.972	-1429
1016.043	-2161
1016.115	-1590
1016.186	-1185
1016.257	-2318
1016.328	-1504
1016.400	-452
1016.471	-2310
1016.542	-1427
1016.613	-2288
1016.685	-1500
1016.756	-1859
1016.827	-1444
1016.898	-2324
1016.969	-1597
1017.040	-2216
1017.111	-2192
1017.182	-2605
1017.253	-1579
1017.324	-1969
1017.395	-1253
1017.466	-1633
1017.537	-2329
1017.608	-1331
1017.678	-1742
1017.749	-2249
1017.820	-1868
1017.891	-2239
1017.961	-1988
1018.032	-1783
1018.103	-904
1018.173	-2075
1018.244	-2003
1018.315	-1645
1018.385	-975
1018.456	-2605
1018.526	-1761
1018.597	-2305
1018.667	-1695
1018.738	-1855
1018.808	-2734
1018.878	-1836
1018.949	-1223
1019.019	-2209
1019.089	-1381
1019.160	-1309
1019.230	-2422
1019.300	-689
1019.371	-2126
1019.441	-1412
1019.511	-1508
1019.581	-2508
1019.651	-1534
1019.721	-1948
1019.791	-1817
1019.861	-2534
1019.931	-1937
1020.001	-2435
1020.071	-1549
1020.141	-1559
1020.211	-1593
1020.281	-2145
1020.351	-1576
1020.421	-1868
1020.491	-1803
1020.560	-1852
1020.630	-2874
1020.700	-2125
1020.770	-2316
1020.839	-2213
1020.909	-1876
1020.979	-2477
1021.048	-2732
1021.118	-1639
1021.187	-2183
1021.257	-1793
1021.326	-1312
1021.396	-2325
1021.465	-2560
1021.535	-1911
1021.604	-2098
1021.674	-2295
1021.743	-1999
1021.812	-1463
1021.882	-1852
1021.951	-1650
1022.020	-2653
1022.089	-2019
1022.159	-2107
1022.228	-1959
1022.297	-2267
1022.366	-2206
1022.435	-1904
1022.504	-2154
1022.573	-2230
1022.642	-1862
1022.711	-2029
1022.781	-1916
1022.849	-2220
1022.918	-1897
1022.987	-2148
1023.056	-2306
1023.125	-2324
1023.194	-1638
1023.263	-2041
1023.331	-2206
1023.400	-1980
1023.469	-2752
1023.538	-1273
1023.606	-2128
1023.675	-1822
1023.744	-2059
1023.812	-2621
1023.881	-1668
1023.949	-1814
1024.018	-1588
1024.086	-1901
1024.155	-1887
1024.223	-2178
1024.292	-1819
1024.360	-1789
1024.429	-2373
1024.497	-2301
1024.565	-2457
1024.634	-1742
1024.702	-1515
1024.770	-1592
1024.838	-3569
1024.907	-1611
1024.975	-2240
1025.043	-1924
1025.111	-3409
1025.179	-1865
1025.247	-1701
1025.315	-2234
1025.383	-2095
1025.451	-2044
1025.519	-1902
1025.587	-2250
1025.655	-1748
1025.723	-2071
1025.791	-1107
1025.859	-1869
1025.927	-1604
1025.995	-2479
1026.062	-2169
1026.130	-2374
1026.198	-2443
1026.266	-2954
1026.333	-1186
1026.401	-1673
1026.469	-2009
1026.536	-2312
1026.604	-2273
1026.671	-1696
1026.739	-2284
1026.806	-1996
1026.874	-2205
1026.941	-1980
1027.009	-1957
1027.076	-2946
1027.144	-1743
1027.211	-2498
1027.278	-2644
1027.345	-1478
1027.413	-2188
1027.480	-1801
1027.547	-1619
1027.614	-2241
1027.682	-1459
1027.749	-2562
1027.816	-2531
1027.883	-2325
1027.950	-2772
1028.017	-2021
1028.084	-2321
1028.151	-3138
1028.218	-1993
1028.285	-1996
1028.352	-1946
1028.419	-1945
1028.486	-2652
1028.553	-2418
1028.619	-2792
1028.686	-2330
1028.753	-2327
1028.820	-2728
1028.886	-1873
1028.953	-2642
1029.020	-2700
1029.086	-2066
1029.153	-2469
1029.220	-2616
1029.286	-1559
1029.353	-1641
1029.419	-2547
1029.486	-2749
1029.552	-1423
1029.619	-2089
1029.685	-2053
1029.751	-2046
1029.818	-1437
1029.884	-2447
1029.951	-1125
1030.017	-1395
1030.083	-2184
1030.149	-2599
1030.216	-2546
1030.282	-2491
1030.348	-2234
1030.414	-2966
1030.480	-2309
1030.546	-1934
1030.612	-1962
1030.678	-2169
1030.744	-2222
1030.810	-2141
1030.876	-2346
1030.942	-2637
1031.008	-2277
1031.074	-2345
1031.140	-1613
1031.206	-2634
1031.272	-1813
1031.337	-2603
1031.403	-2246
1031.469	-2859
1031.534	-2452
1031.600	-2011
1031.666	-2660
1031.731	-2150
1031.797	-2108
1031.863	-2363
1031.928	-2219
1031.994	-2573
1032.059	-2079
1032.125	-2809
1032.190	-2797
1032.256	-2956
1032.321	-2886
1032.386	-2632
1032.452	-1957
1032.517	-2636
1032.582	-2595
1032.647	-2026
1032.713	-2549
1032.778	-1913
1032.843	-2281
1032.908	-2781
1032.974	-2040
1033.039	-2638
1033.104	-2250
1033.169	-2439
1033.234	-2408
1033.299	-2300
1033.364	-2556
1033.429	-2792
1033.494	-2323
1033.559	-2563
1033.624	-2307
1033.688	-1944
1033.753	-2536
1033.818	-2160
1033.883	-2742
1033.948	-2131
1034.013	-2240
1034.077	-2080
1034.142	-2346
1034.207	-3105
1034.271	-2404
1034.336	-2563
1034.400	-2512
1034.465	-2162
1034.530	-3362
1034.594	-2950
1034.658	-2349
1034.723	-2273
1034.787	-3184
1034.852	-2835
1034.916	-2910
1034.981	-2654
1035.045	-2272
1035.109	-3052
1035.173	-2070
1035.238	-2772
1035.302	-2361
1035.366	-1976
1035.430	-2757
1035.495	-2673
1035.559	-1822
1035.623	-2266
1035.687	-2649
1035.751	-2090
1035.815	-2682
1035.879	-2525
1035.943	-2428
1036.007	-2415
1036.071	-2238
1036.135	-2266
1036.198	-1721
1036.262	-2841
1036.326	-2394
1036.390	-3075
1036.454	-1970
1036.517	-2827
1036.581	-3419
1036.645	-2891
1036.709	-3018
1036.772	-2547
1036.836	-3010
1036.900	-2729
1036.963	-2197
1037.026	-2208
1037.090	-3033
1037.154	-2593
1037.217	-2887
1037.280	-3271
1037.344	-2671
1037.407	-2822
1037.471	-2530
1037.534	-2821
1037.597	-2227
1037.661	-2490
1037.724	-3173
1037.787	-2665
1037.850	-2884
1037.913	-2468
1037.977	-1935
1038.040	-2758
1038.103	-2808
1038.166	-2911
1038.229	-3136
1038.292	-2338
1038.355	-2581
1038.418	-2225
1038.481	-2171
1038.544	-2599
1038.607	-2828
1038.670	-2369
1038.732	-2037
1038.795	-1942
1038.858	-2840
1038.921	-2497
1038.984	-1774
1039.046	-3601
1039.109	-2403
1039.172	-2045
1039.234	-2755
1039.297	-2796
1039.360	-2783
1039.422	-2337
1039.485	-2749
1039.547	-3021
1039.610	-3249
1039.672	-2787
1039.734	-2657
1039.797	-2680
1039.859	-2032
1039.922	-1965
1039.984	-2890
1040.046	-2025
1040.109	-3011
1040.171	-3127
1040.233	-2256
1040.295	-2279
1040.358	-2429
1040.420	-2932
1040.482	-2831
1040.544	-2404
1040.606	-1987
1040.668	-2752
1040.730	-2007
1040.792	-2425
1040.854	-3230
1040.916	-2855
1040.978	-2335
1041.040	-1727
1041.102	-2379
1041.164	-3072
1041.225	-3054
1041.287	-2685
1041.349	-2401
1041.411	-2576
1041.472	-2109
1041.534	-2574
1041.596	-3156
1041.657	-2001
1041.719	-2855
1041.781	-2915
1041.842	-2521
1041.904	-3026
1041.965	-2390
1042.027	-2602
1042.088	-2326
1042.150	-2219
1042.211	-2773
1042.272	-2645
1042.334	-2041
1042.395	-3126
1042.456	-2829
1042.518	-2610
1042.579	-2116
1042.640	-2433
1042.701	-1814
1042.763	-3435
1042.824	-3465
1042.885	-2998
1042.946	-2955
1043.007	-2635
1043.068	-3090
1043.129	-1632
1043.190	-2843
1043.251	-2230
1043.312	-2816
1043.373	-2684
1043.434	-2457
1043.495	-2462
1043.556	-2438
1043.616	-2456
1043.677	-2963
1043.738	-2674
1043.799	-2359
1043.859	-3298
1043.920	-3171
1043.981	-2935
1044.041	-2155
1044.102	-2446
1044.162	-2289
1044.223	-2353
1044.284	-2977
1044.344	-2101
1044.405	-2645
1044.465	-2496
1044.525	-2913
1044.586	-1939
1044.646	-2757
1044.707	-1324
1044.767	-2996
1044.827	-2389
1044.887	-2787
1044.948	-2158
1045.008	-2004
1045.068	-2515
1045.128	-2214
1045.188	-2542
1045.249	-1130
1045.309	-2857
1045.369	-2102
1045.429	-2192
1045.489	-2173
1045.549	-2943
1045.609	-3132
1045.669	-2849
1045.729	-2435
1045.789	-2566
1045.848	-2267
1045.908	-2535
1045.968	-1848
1046.028	-1902
1046.088	-1850
1046.147	-2185
1046.207	-1660
1046.267	-2385
1046.326	-2102
1046.386	-2493
1046.446	-2237
1046.505	-1363
1046.565	-1032
1046.624	-1452
1046.684	-1807
1046.743	-1319
1046.803	-1665
1046.862	-648
1046.922	0
