'Start Wavelength	183.907
'End Wavelength	1046.922
'Gate Delay	5.000
'Gate Width (ms)	1.050
'Laser Output Level	0.000
'X Position	0.000
'Y Position	0.000
'Z Position	0.000
'Grid Point Number	1.000
'Shot Number	100.000
183.907	-141.000
183.977	-330.000
184.047	-216
184.116	330
184.186	466
184.256	-641
184.325	130
184.395	-676
184.465	-238
184.534	-145
184.604	-322
184.674	259
184.743	257
184.813	-263
184.883	-468
184.952	-248
185.022	329
185.092	-638
185.161	321
185.231	77
185.301	-19
185.370	495
185.440	-401
185.509	-514
185.579	-413
185.649	-196
185.718	336
185.788	-618
185.857	196
185.927	-133
185.996	193
186.066	406
186.136	286
186.205	-162
186.275	244
186.344	218
186.414	749
186.483	-1118
186.553	266
186.622	1317
186.692	-115
186.761	-145
186.831	67
186.900	245
186.970	574
187.039	18
187.109	1668
187.178	-84
187.248	2
187.317	-680
187.387	-46
187.456	1136
187.526	431
187.595	689
187.664	29
187.734	100
187.803	698
187.873	179
187.942	945
188.012	201
188.081	198
188.150	21
188.220	901
188.289	216
188.358	426
188.428	375
188.497	23
188.567	194
188.636	363
188.705	-125
188.775	746
188.844	-261
188.913	688
188.983	-93
189.052	83
189.121	-46
189.191	447
189.260	1358
189.329	1127
189.399	749
189.468	241
189.537	280
189.606	523
189.676	467
189.745	656
189.814	799
189.883	437
189.953	-15
190.022	1243
190.091	3271
190.161	3526
190.230	1665
190.299	638
190.368	445
190.437	295
190.507	414
190.576	682
190.645	529
190.714	50
190.783	462
190.853	581
190.922	89
190.991	645
191.060	342
191.129	320
191.198	603
191.268	124
191.337	-129
191.406	276
191.475	376
191.544	-584
191.613	871
191.682	543
191.752	239
191.821	869
191.890	586
191.959	958
192.028	35
192.097	41
192.166	99
192.235	490
192.304	937
192.373	-172
192.442	-96
192.511	143
192.580	-278
192.650	743
192.719	293
192.788	1282
192.857	1028
192.926	629
192.995	475
193.064	1753
193.133	1778
193.202	2517
193.271	2132
193.340	1958
193.409	2128
193.478	2955
193.547	2753
193.615	4345
193.684	3702
193.753	2365
193.822	2167
193.891	1651
193.960	971
194.029	1354
194.098	699
194.167	1409
194.236	1511
194.305	762
194.374	714
194.443	762
194.512	598
194.580	623
194.649	1300
194.718	1178
194.787	632
194.856	136
194.925	1638
194.994	305
195.062	610
195.131	621
195.200	620
195.269	1096
195.338	871
195.407	413
195.475	1053
195.544	1363
195.613	1131
195.682	1000
195.751	1182
195.819	435
195.888	334
195.957	1437
196.026	753
196.094	1227
196.163	1557
196.232	920
196.301	912
196.369	838
196.438	1185
196.507	883
196.576	589
196.644	1267
196.713	1212
196.782	414
196.850	1385
196.919	751
196.988	756
197.056	1258
197.125	977
197.194	967
197.262	856
197.331	1028
197.400	665
197.468	693
197.537	1289
197.606	1443
197.674	2447
197.743	4193
197.812	1800
197.880	4083
197.949	3060
198.017	3465
198.086	2116
198.155	1948
198.223	2444
198.292	4933
198.360	2217
198.429	2075
198.497	1559
198.566	3049
198.635	5391
198.703	2057
198.772	2039
198.840	4837
198.909	4949
198.977	2321
199.046	1212
199.114	2398
199.183	2317
199.251	1648
199.320	1312
199.388	1040
199.457	582
199.525	1017
199.594	820
199.662	1624
199.731	806
199.799	1773
199.867	1020
199.936	1495
200.004	1099
200.073	1662
200.141	1105
200.210	1056
200.278	1481
200.346	1722
200.415	829
200.483	2060
200.552	1706
200.620	939
200.688	1473
200.757	1200
200.825	2059
200.893	1333
200.962	893
201.030	1137
201.098	849
201.167	1982
201.235	1448
201.303	1525
201.372	1977
201.440	1089
201.508	1287
201.577	1406
201.645	1881
201.713	1743
201.781	832
201.850	2583
201.918	814
201.986	1313
202.055	1623
202.123	1624
202.191	1056
202.259	2212
202.327	1397
202.396	1026
202.464	1034
202.532	2306
202.600	3921
202.669	2575
202.737	1694
202.805	1084
202.873	1446
202.941	1841
203.009	1887
203.078	1915
203.146	1875
203.214	1038
203.282	859
203.350	1760
203.418	1832
203.487	1679
203.555	2027
203.623	1702
203.691	2540
203.759	1525
203.827	906
203.895	2470
203.963	1837
204.031	1811
204.099	1882
204.168	1907
204.236	1177
204.304	1597
204.372	1762
204.440	1777
204.508	1354
204.576	1675
204.644	1989
204.712	2367
204.780	1843
204.848	2025
204.916	1637
204.984	1842
205.052	2216
205.120	1948
205.188	1674
205.256	1656
205.324	2067
205.392	1758
205.460	1971
205.528	3083
205.596	2081
205.664	1736
205.732	2675
205.799	5905
205.867	9662
205.935	4450
206.003	3418
206.071	2503
206.139	2297
206.207	3067
206.275	1193
206.343	1596
206.411	2991
206.478	2317
206.546	2492
206.614	2221
206.682	1103
206.750	2912
206.818	3386
206.885	3054
206.953	2666
207.021	2422
207.089	2530
207.157	1965
207.225	2967
207.292	2614
207.360	3505
207.428	2845
207.496	2258
207.563	2011
207.631	3238
207.699	2275
207.767	2041
207.834	2201
207.902	2331
207.970	3190
208.038	2385
208.105	2300
208.173	2705
208.241	4158
208.309	3722
208.376	3293
208.444	5131
208.512	3148
208.579	2167
208.647	3615
208.715	3958
208.782	2810
208.850	2849
208.918	3136
208.985	3347
209.053	2762
209.120	2636
209.188	2369
209.256	2165
209.323	2895
209.391	2585
209.459	3919
209.526	3007
209.594	2081
209.661	3400
209.729	3883
209.796	3107
209.864	3306
209.932	1726
209.999	4340
210.067	3101
210.134	3010
210.202	3015
210.269	4105
210.337	3427
210.404	3018
210.472	2416
210.539	3623
210.607	3285
210.674	3444
210.742	3590
210.809	3527
210.877	3611
210.944	3924
211.012	2933
211.079	4390
211.146	3294
211.214	3274
211.281	4075
211.349	4222
211.416	3632
211.484	3045
211.551	3816
211.618	3480
211.686	3456
211.753	2988
211.821	3624
211.888	3145
211.955	3756
212.023	3444
212.090	2922
212.157	3850
212.225	4436
212.292	7788
212.359	12092
212.427	24858
212.494	13593
212.561	6983
212.629	5193
212.696	5287
212.763	5054
212.831	3858
212.898	4795
212.965	3862
213.032	4527
213.100	4066
213.167	3382
213.234	4886
213.301	3305
213.369	3933
213.436	3705
213.503	3180
213.570	4288
213.638	3884
213.705	3697
213.772	3492
213.839	3749
213.906	4498
213.973	4528
214.041	3255
214.108	3836
214.175	4168
214.242	4246
214.309	3541
214.376	3585
214.444	3630
214.511	4772
214.578	3079
214.645	4007
214.712	4619
214.779	4212
214.846	4099
214.913	4852
214.980	5193
215.048	4752
215.115	4653
215.182	4140
215.249	4396
215.316	3436
215.383	4067
215.450	3841
215.517	3322
215.584	3543
215.651	4100
215.718	3980
215.785	3749
215.852	3164
215.919	4520
215.986	2970
216.053	3528
216.120	3366
216.187	3875
216.254	3710
216.321	3632
216.388	3096
216.455	3935
216.522	3896
216.589	4639
216.656	5760
216.722	6310
216.789	6000
216.856	5993
216.923	6308
216.990	5726
217.057	5145
217.124	6625
217.191	6487
217.258	8108
217.324	8221
217.391	8600
217.458	7576
217.525	6388
217.592	6089
217.659	3911
217.725	5139
217.792	5892
217.859	5406
217.926	3677
217.993	3523
218.059	4117
218.126	4006
218.193	3202
218.260	4316
218.327	3257
218.393	3331
218.460	3002
218.527	3053
218.594	3879
218.660	4392
218.727	5601
218.794	3143
218.860	3737
218.927	3603
218.994	3069
219.061	2638
219.127	3171
219.194	4590
219.261	3585
219.327	2686
219.394	3556
219.461	3208
219.527	3273
219.594	3660
219.661	2935
219.727	1928
219.794	4149
219.860	2056
219.927	4326
219.994	4181
220.060	6666
220.127	5547
220.193	5958
220.260	5659
220.326	9167
220.393	12495
220.460	14284
220.526	10680
220.593	8736
220.659	9126
220.726	9389
220.792	16054
220.859	16534
220.925	20322
220.992	23883
221.058	23081
221.125	23127
221.191	16702
221.258	8899
221.324	7276
221.391	5678
221.457	4563
221.524	5372
221.590	7062
221.657	17493
221.723	13664
221.789	11162
221.856	10796
221.922	7305
221.989	5544
222.055	5577
222.121	3855
222.188	4761
222.254	4671
222.321	3496
222.387	2674
222.453	3027
222.520	3364
222.586	2743
222.652	2734
222.719	2570
222.785	3158
222.851	2342
222.918	3175
222.984	3100
223.050	2617
223.116	2432
223.183	2919
223.249	2248
223.315	2278
223.382	2667
223.448	2513
223.514	2747
223.580	2719
223.647	2743
223.713	1833
223.779	2259
223.845	2576
223.911	3502
223.978	1903
224.044	2371
224.110	1866
224.176	2420
224.242	3008
224.309	1974
224.375	1888
224.441	2432
224.507	1998
224.573	1523
224.639	3400
224.705	1745
224.772	2095
224.838	2466
224.904	1950
224.970	2385
225.036	2455
225.102	2436
225.168	3347
225.234	2586
225.300	1838
225.366	2437
225.432	2161
225.499	3195
225.565	2549
225.631	3327
225.697	3546
225.763	4652
225.829	5833
225.895	5956
225.961	6241
226.027	6791
226.093	6063
226.159	9149
226.225	13909
226.291	26004
226.357	36284
226.423	21928
226.489	13054
226.554	9572
226.620	9273
226.686	10505
226.752	15401
226.818	25940
226.884	44284
226.950	40825
227.016	21285
227.082	13218
227.148	8574
227.214	7641
227.279	6353
227.345	5226
227.411	4532
227.477	4624
227.543	7042
227.609	8784
227.674	6009
227.740	3783
227.806	4096
227.872	4603
227.938	4379
228.003	5006
228.069	2934
228.135	3197
228.201	4234
228.267	2899
228.332	3588
228.398	3650
228.464	3598
228.530	2664
228.595	2906
228.661	2008
228.727	3910
228.792	3984
228.858	3426
228.924	1995
228.990	4907
229.055	2328
229.121	3866
229.187	2723
229.252	1793
229.318	2184
229.384	2135
229.449	3008
229.515	528
229.581	1920
229.646	3015
229.712	2813
229.777	4516
229.843	5184
229.909	4684
229.974	5088
230.040	5177
230.105	4050
230.171	3911
230.236	7092
230.302	8963
230.368	5761
230.433	4402
230.499	3106
230.564	5018
230.630	3382
230.695	4028
230.761	4534
230.826	2367
230.892	4793
230.957	2281
231.023	3811
231.088	3272
231.154	3503
231.219	3593
231.284	3561
231.350	5046
231.415	2794
231.481	3914
231.546	2362
231.612	3062
231.677	2265
231.742	2504
231.808	3436
231.873	2631
231.939	745
232.004	4214
232.069	4270
232.135	2791
232.200	3296
232.265	2546
232.331	2127
232.396	2876
232.461	2422
232.527	2478
232.592	1958
232.657	2727
232.723	3489
232.788	2836
232.853	2915
232.918	2838
232.984	2046
233.049	1993
233.114	2667
233.179	3271
233.245	3342
233.310	4359
233.375	1535
233.440	2289
233.506	2153
233.571	1373
233.636	3304
233.701	2233
233.766	3388
233.832	2787
233.897	2148
233.962	1158
234.027	3864
234.092	1970
234.157	2357
234.222	2791
234.288	3058
234.353	7700
234.418	7710
234.483	5417
234.548	4883
234.613	4354
234.678	4413
234.743	4517
234.808	9028
234.873	5862
234.938	5074
235.004	4753
235.069	4099
235.134	4015
235.199	3987
235.264	3502
235.329	2741
235.394	3631
235.459	4445
235.524	2973
235.589	3719
235.654	3664
235.719	1954
235.784	3398
235.849	3887
235.913	5624
235.978	5641
236.043	6143
236.108	5284
236.173	3571
236.238	5136
236.303	3056
236.368	4511
236.433	6826
236.498	8281
236.563	10244
236.627	21332
236.692	57846
236.757	54168
236.822	24015
236.887	15615
236.952	13593
237.017	11300
237.081	11588
237.146	14989
237.211	33040
237.276	61035
237.341	81875
237.405	49537
237.470	22197
237.535	15204
237.600	10619
237.664	9039
237.729	6461
237.794	8898
237.859	19407
237.923	12167
237.988	6550
238.053	7064
238.118	6170
238.182	13570
238.247	12724
238.312	5915
238.376	5668
238.441	3495
238.506	4956
238.570	2348
238.635	4009
238.700	3327
238.764	3631
238.829	6175
238.893	6697
238.958	4359
239.023	3819
239.087	3268
239.152	4046
239.216	2347
239.281	3371
239.346	3968
239.410	2589
239.475	3599
239.539	10906
239.604	8926
239.668	4527
239.733	3921
239.797	5159
239.862	11861
239.926	10632
239.991	4568
240.055	3351
240.120	3761
240.184	3532
240.249	2070
240.313	2693
240.378	2322
240.442	5839
240.507	10165
240.571	4154
240.635	4472
240.700	5730
240.764	3326
240.829	3297
240.893	1976
240.957	2745
241.022	5507
241.086	8965
241.151	4113
241.215	1818
241.279	4434
241.344	5080
241.408	5359
241.472	3981
241.537	5485
241.601	4429
241.665	3877
241.730	3781
241.794	5346
241.858	4114
241.922	4394
241.987	4569
242.051	3989
242.115	3548
242.179	4014
242.244	3440
242.308	4380
242.372	4814
242.436	3870
242.501	4984
242.565	3932
242.629	3790
242.693	5025
242.757	3102
242.822	4003
242.886	4358
242.950	4761
243.014	3693
243.078	3968
243.142	4105
243.206	4675
243.271	5458
243.335	5417
243.399	10824
243.463	34787
243.527	83953
243.591	29965
243.655	11366
243.719	6492
243.783	6921
243.847	10738
243.911	14431
243.975	8768
244.040	5571
244.104	5811
244.168	4457
244.232	5003
244.296	7562
244.360	12543
244.424	4673
244.488	4408
244.552	4041
244.615	2556
244.679	3943
244.743	4006
244.807	2872
244.871	3241
244.935	3291
244.999	1493
245.063	2624
245.127	4543
245.191	9021
245.255	8362
245.319	3876
245.383	2325
245.446	4760
245.510	2102
245.574	2948
245.638	2448
245.702	2038
245.766	6640
245.829	5159
245.893	3478
245.957	3269
246.021	3913
246.085	4278
246.149	4295
246.212	9091
246.276	13764
246.340	6262
246.404	4627
246.467	5154
246.531	5294
246.595	4897
246.659	4390
246.722	2420
246.786	4020
246.850	4949
246.913	5648
246.977	2650
247.041	4070
247.104	3881
247.168	4366
247.232	7170
247.295	18262
247.359	8852
247.423	4392
247.486	5723
247.550	4872
247.614	3683
247.677	4438
247.741	3784
247.804	3420
247.868	5691
247.932	6952
247.995	17395
248.059	6692
248.122	3341
248.186	4783
248.249	7502
248.313	28088
248.376	28775
248.440	17891
248.503	7000
248.567	7904
248.630	5897
248.694	10263
248.757	13543
248.821	33036
248.884	18178
248.948	16136
249.011	23316
249.075	37193
249.138	31293
249.202	12231
249.265	8608
249.328	9782
249.392	7658
249.455	8297
249.519	6772
249.582	6920
249.645	10375
249.709	8857
249.772	8781
249.835	8005
249.899	7615
249.962	7299
250.025	6751
250.089	12983
250.152	16650
250.215	9547
250.279	7364
250.342	8233
250.405	8177
250.468	7787
250.532	11508
250.595	22337
250.658	78500
250.721	127551
250.785	44870
250.848	22685
250.911	14369
250.974	12808
251.038	14351
251.101	24807
251.164	14064
251.227	14168
251.290	14989
251.354	30164
251.417	108709
251.480	113116
251.543	87234
251.606	191030
251.669	150416
251.732	63803
251.795	48177
251.859	54083
251.922	121810
251.985	74110
252.048	28540
252.111	19893
252.174	15222
252.237	21813
252.300	44647
252.363	63636
252.426	143411
252.489	63248
252.552	27073
252.615	18131
252.678	19257
252.741	39692
252.804	67818
252.867	153783
252.930	80119
252.993	33889
253.056	20919
253.119	14287
253.182	13410
253.245	27123
253.308	18074
253.371	10151
253.434	9158
253.497	8959
253.559	17147
253.622	10687
253.685	9307
253.748	7896
253.811	5903
253.874	8041
253.937	6176
254.000	5152
254.062	10522
254.125	17407
254.188	12748
254.251	9434
254.314	5510
254.376	7895
254.439	8845
254.502	6722
254.565	9770
254.628	18698
254.690	8148
254.753	4917
254.816	4814
254.878	4653
254.941	12183
255.004	12767
255.067	5617
255.129	3985
255.192	2927
255.255	2212
255.317	3461
255.380	3439
255.443	2572
255.505	2391
255.568	2279
255.631	1456
255.693	3080
255.756	2587
255.819	2972
255.881	2452
255.944	2690
256.006	2473
256.069	2689
256.132	3035
256.194	3963
256.257	7741
256.319	6533
256.382	5381
256.444	5885
256.507	4950
256.569	4895
256.632	6091
256.694	10675
256.757	34676
256.819	101775
256.882	47198
256.944	17253
257.007	11582
257.069	9034
257.132	7326
257.194	7573
257.257	6436
257.319	6488
257.381	10927
257.444	27746
257.506	108017
257.569	118921
257.631	43312
257.693	21231
257.756	12938
257.818	9465
257.880	6797
257.943	6453
258.005	4818
258.067	4552
258.130	4537
258.192	4839
258.254	6403
258.317	5878
258.379	4339
258.441	8649
258.503	9551
258.566	10706
258.628	13268
258.690	4415
258.753	5360
258.815	6499
258.877	5033
258.939	4573
259.001	5364
259.064	4031
259.126	4245
259.188	5386
259.250	5356
259.312	5602
259.375	8271
259.437	5340
259.499	4532
259.561	3984
259.623	4819
259.685	3338
259.747	4538
259.809	9809
259.872	16981
259.934	27472
259.996	23311
260.058	7575
260.120	4084
260.182	4208
260.244	3514
260.306	2606
260.368	3837
260.430	2787
260.492	5532
260.554	8221
260.616	5295
260.678	11180
260.740	16071
260.802	4649
260.864	3504
260.926	3242
260.988	3901
261.050	3277
261.112	6608
261.174	18619
261.236	13943
261.298	5429
261.359	7784
261.421	9759
261.483	3168
261.545	4408
261.607	2091
261.669	3189
261.731	4793
261.793	9920
261.854	4208
261.916	3661
261.978	3122
262.040	3011
262.102	2928
262.164	3337
262.225	4134
262.287	3014
262.349	5224
262.411	4674
262.472	4088
262.534	4385
262.596	8958
262.658	4034
262.719	2385
262.781	3867
262.843	8281
262.904	4367
262.966	5664
263.028	8978
263.090	37825
263.151	105344
263.213	31521
263.275	11887
263.336	6518
263.398	5394
263.459	3507
263.521	3504
263.583	5865
263.644	3901
263.706	2177
263.767	959
263.829	2044
263.891	2072
263.952	1974
264.014	1461
264.075	2756
264.137	6050
264.198	3769
264.260	1175
264.321	2647
264.383	4158
264.444	10546
264.506	3517
264.567	3039
264.629	5497
264.690	7498
264.752	4180
264.813	2824
264.875	1687
264.936	3071
264.998	3039
265.059	2427
265.120	4119
265.182	9361
265.243	53190
265.305	59539
265.366	14294
265.427	7592
265.489	5453
265.550	3904
265.611	3436
265.673	3811
265.734	3476
265.795	2811
265.857	3289
265.918	5245
265.979	16226
266.040	85711
266.102	78190
266.163	20837
266.224	10208
266.286	7041
266.347	4176
266.408	4792
266.469	2555
266.530	2472
266.592	3092
266.653	3314
266.714	5494
266.775	3194
266.836	3047
266.898	1680
266.959	3847
267.020	2682
267.081	2997
267.142	2307
267.203	2741
267.264	1245
267.326	2900
267.387	2466
267.448	1778
267.509	3241
267.570	1876
267.631	2935
267.692	2308
267.753	2800
267.814	1925
267.875	4026
267.936	8943
267.997	7381
268.058	6593
268.119	3422
268.180	2974
268.241	1614
268.302	3016
268.363	1643
268.424	1532
268.485	2540
268.546	1572
268.607	2038
268.668	1842
268.729	1417
268.790	1882
268.851	2573
268.912	3837
268.972	4701
269.033	2364
269.094	1606
269.155	1969
269.216	1746
269.277	2166
269.338	2528
269.398	2382
269.459	2411
269.520	3200
269.581	3867
269.642	3351
269.702	3191
269.763	3177
269.824	3266
269.885	2482
269.945	4272
270.006	2723
270.067	1835
270.128	2253
270.188	1539
270.249	1233
270.310	1637
270.370	2438
270.431	1813
270.492	2443
270.553	2674
270.613	3727
270.674	6593
270.734	2555
270.795	2127
270.856	3249
270.916	2303
270.977	2313
271.038	2429
271.098	2787
271.159	2803
271.219	2800
271.280	2417
271.340	1724
271.401	1739
271.462	3362
271.522	3058
271.583	2197
271.643	1870
271.704	2468
271.764	2946
271.825	5715
271.885	21884
271.946	34589
272.006	9562
272.066	15040
272.127	29044
272.187	9107
272.248	4224
272.308	4891
272.369	18186
272.429	9941
272.489	4958
272.550	4720
272.610	4554
272.671	3514
272.731	3547
272.791	5446
272.852	2978
272.912	3325
272.972	2424
273.033	2169
273.093	2385
273.153	3322
273.214	2690
273.274	2850
273.334	9673
273.394	21939
273.455	6557
273.515	6938
273.575	16288
273.635	6212
273.696	9621
273.756	23962
273.816	8633
273.876	4671
273.936	8213
273.997	13423
274.057	4101
274.117	3269
274.177	5520
274.237	25095
274.297	22026
274.358	12090
274.418	15524
274.478	10321
274.538	3733
274.598	3360
274.658	11051
274.718	12404
274.778	5311
274.838	3156
274.898	6239
274.958	19616
275.018	24263
275.078	14883
275.138	4211
275.198	2657
275.258	1641
275.318	2065
275.378	3636
275.438	3869
275.498	3301
275.558	9379
275.618	19113
275.678	13315
275.738	6481
275.798	5194
275.858	3131
275.918	877
275.978	2444
276.038	2060
276.098	1983
276.157	2724
276.217	9283
276.277	4510
276.337	3231
276.397	1813
276.457	2539
276.517	2411
276.576	1738
276.636	693
276.696	2195
276.756	5447
276.815	4814
276.875	2212
276.935	1676
276.995	2501
277.055	1396
277.114	1762
277.174	2380
277.234	8511
277.293	4042
277.353	1878
277.413	1466
277.472	1005
277.532	1739
277.592	1918
277.651	9773
277.711	17767
277.771	6071
277.830	19033
277.890	16337
277.950	13471
278.009	44928
278.069	15996
278.128	13377
278.188	17860
278.248	8023
278.307	20014
278.367	12798
278.426	3131
278.486	3323
278.545	2036
278.605	2898
278.664	3023
278.724	3451
278.783	8300
278.843	25699
278.902	8147
278.962	3726
279.021	4263
279.081	6423
279.140	5371
279.199	4822
279.259	4805
279.318	5495
279.378	8164
279.437	14930
279.496	48045
279.556	154723
279.615	117948
279.675	29062
279.734	16179
279.793	20603
279.853	32123
279.912	12807
279.971	6743
280.031	5479
280.090	10581
280.149	21170
280.208	20017
280.268	96938
280.327	101669
280.386	20672
280.445	12672
280.505	10055
280.564	5625
280.623	4328
280.682	6179
280.742	8123
280.801	3189
280.860	2831
280.919	2407
280.978	1685
281.037	2183
281.097	1075
281.156	2542
281.215	2052
281.274	2517
281.333	13108
281.392	10161
281.451	2523
281.510	1921
281.569	2349
281.628	2640
281.688	1981
281.747	2783
281.806	1802
281.865	1044
281.924	1540
281.983	535
282.042	1600
282.101	814
282.160	1748
282.219	1311
282.278	598
282.337	4787
282.396	3712
282.454	1584
282.513	1749
282.572	7161
282.631	4432
282.690	2198
282.749	1026
282.808	1594
282.867	1274
282.926	1588
282.985	1274
283.043	1277
283.102	1388
283.161	2212
283.220	4103
283.279	10144
283.338	3800
283.396	1455
283.455	1671
283.514	2418
283.573	2682
283.631	2186
283.690	1759
283.749	1047
283.808	3512
283.866	4278
283.925	2310
283.984	1978
284.043	2829
284.101	2787
284.160	1542
284.219	3261
284.277	2952
284.336	3422
284.395	10988
284.453	10053
284.512	3814
284.570	4307
284.629	3868
284.688	3925
284.746	4465
284.805	4747
284.863	5247
284.922	7676
284.981	9667
285.039	15142
285.098	29736
285.156	77426
285.215	210649
285.273	212739
285.332	98917
285.390	47140
285.449	27840
285.507	18979
285.566	14147
285.624	10083
285.683	7511
285.741	5414
285.799	5310
285.858	4414
285.916	3609
285.975	3130
286.033	3216
286.091	3362
286.150	2064
286.208	2454
286.267	2902
286.325	2838
286.383	4312
286.442	2494
286.500	1853
286.558	1558
286.616	1717
286.675	2982
286.733	2959
286.791	1627
286.850	2791
286.908	2332
286.966	4480
287.024	1694
287.083	2531
287.141	1952
287.199	2281
287.257	2769
287.315	2560
287.374	3052
287.432	6308
287.490	4653
287.548	2578
287.606	3017
287.664	3898
287.723	3759
287.781	5153
287.839	4701
287.897	6423
287.955	10886
288.013	19963
288.071	49095
288.129	159677
288.187	361946
288.245	193757
288.303	68270
288.361	37807
288.419	25217
288.477	18521
288.535	13549
288.593	9854
288.651	6520
288.709	4523
288.767	4318
288.825	3298
288.883	3034
288.941	2307
288.999	2554
289.057	2304
289.115	1408
289.173	2024
289.231	2136
289.289	1814
289.346	1791
289.404	2163
289.462	2900
289.520	3244
289.578	1416
289.636	1561
289.694	1325
289.751	2057
289.809	949
289.867	1669
289.925	1428
289.983	1832
290.040	1567
290.098	1970
290.156	1368
290.214	1691
290.271	921
290.329	96
290.387	1058
290.444	982
290.502	107
290.560	1008
290.617	74
290.675	591
290.733	591
290.790	579
290.848	1702
290.906	415
290.963	344
291.021	1067
291.078	819
291.136	1178
291.194	3764
291.251	9033
291.309	2563
291.366	1226
291.424	1095
291.481	362
291.539	282
291.596	782
291.654	-236
291.711	1065
291.769	882
291.826	1834
291.884	1375
291.941	1052
291.999	1234
292.056	767
292.114	670
292.171	832
292.228	1146
292.286	1039
292.343	1289
292.401	2326
292.458	1046
292.515	940
292.573	1484
292.630	1336
292.687	1127
292.745	1113
292.802	1871
292.859	4951
292.917	9399
292.974	4797
293.031	1493
293.089	298
293.146	661
293.203	682
293.260	575
293.318	1894
293.375	2141
293.432	1268
293.489	420
293.546	1343
293.604	2436
293.661	7886
293.718	24784
293.775	10421
293.832	3507
293.889	2366
293.947	2516
294.004	1673
294.061	1488
294.118	3608
294.175	7929
294.232	11628
294.289	4011
294.346	3367
294.403	4183
294.460	3295
294.517	1082
294.574	735
294.631	1024
294.688	2905
294.745	6737
294.802	25888
294.859	24647
294.916	7736
294.973	3996
295.030	3389
295.087	1876
295.144	2770
295.201	2582
295.258	1330
295.315	2829
295.372	8842
295.429	18969
295.486	6848
295.542	3752
295.599	9498
295.656	15466
295.713	10974
295.770	15180
295.827	5974
295.883	3374
295.940	2397
295.997	3793
296.054	2496
296.111	1585
296.167	1499
296.224	321
296.281	1148
296.338	787
296.394	1404
296.451	1958
296.508	5734
296.564	11992
296.621	9158
296.678	21560
296.734	35019
296.791	10297
296.848	5209
296.904	4465
296.961	8946
297.018	17519
297.074	14650
297.131	5125
297.187	3609
297.244	6352
297.301	21742
297.357	43429
297.414	13888
297.470	5678
297.527	3199
297.583	2463
297.640	2121
297.696	1817
297.753	1529
297.809	1315
297.866	476
297.922	729
297.979	359
298.035	470
298.092	2593
298.148	8581
298.204	8027
298.261	4515
298.317	9285
298.374	29366
298.430	16508
298.486	5305
298.543	2971
298.599	3609
298.656	5398
298.712	10631
298.768	39934
298.824	34640
298.881	9925
298.937	4329
298.993	4138
299.050	2973
299.106	2921
299.162	2703
299.218	2436
299.275	1913
299.331	3594
299.387	7153
299.443	23989
299.500	26565
299.556	10422
299.612	4392
299.668	3409
299.724	6229
299.780	6357
299.837	3698
299.893	4685
299.949	15377
300.005	19449
300.061	16539
300.117	35946
300.173	15236
300.229	6686
300.285	5115
300.341	5788
300.397	2588
300.453	1945
300.510	1619
300.566	2093
300.622	4078
300.678	12412
300.734	19788
300.790	15755
300.845	23996
300.901	12962
300.957	15568
301.013	10525
301.069	3216
301.125	2330
301.181	1699
301.237	1745
301.293	649
301.349	1055
301.405	980
301.461	621
301.516	262
301.572	1126
301.628	2109
301.684	2952
301.740	4030
301.796	7839
301.851	5130
301.907	8025
301.963	12326
302.019	23899
302.074	71801
302.130	71708
302.186	28914
302.242	11173
302.297	6957
302.353	6796
302.409	10677
302.464	9463
302.520	7176
302.576	18314
302.631	22200
302.687	10646
302.743	4442
302.798	3162
302.854	2545
302.910	2196
302.965	2289
303.021	4588
303.076	4025
303.132	3635
303.187	5616
303.243	3283
303.299	1869
303.354	2440
303.410	1958
303.465	1920
303.521	1632
303.576	1764
303.632	2637
303.687	6672
303.743	21557
303.798	19811
303.853	6678
303.909	3766
303.964	2897
304.020	3258
304.075	4654
304.130	3752
304.186	6738
304.241	7751
304.297	5724
304.352	3014
304.358	2987
304.407	2773
304.449	2325
304.463	2174
304.518	1337
304.539	1394
304.573	1493
304.629	3259
304.630	3310
304.684	5764
304.720	12268
304.739	15512
304.794	27564
304.811	22771
304.850	11277
304.902	4907
304.905	4513
304.960	3420
304.992	4786
305.015	5716
305.071	4816
305.083	4321
305.126	2599
305.173	2063
305.181	1979
305.236	972
305.264	1189
305.292	1416
305.347	2140
305.354	2143
305.402	2320
305.445	3256
305.457	3450
305.512	5185
305.535	4848
305.567	4506
305.622	4084
305.626	4321
305.678	9579
305.716	19613
305.733	23114
305.788	24790
305.807	20904
305.843	14662
305.897	22350
305.898	22430
305.953	22382
305.988	14894
306.008	10847
306.063	5835
306.078	5133
306.118	3719
306.168	2175
306.173	2042
306.228	2526
306.259	2122
306.283	1859
306.338	2667
306.349	2743
306.393	3263
306.440	4848
306.448	5051
306.503	4194
306.530	4209
306.558	5128
306.613	9519
306.620	10094
306.668	12990
306.711	15349
306.723	15401
306.778	12404
306.801	9341
306.833	6031
306.888	3501
306.892	3411
306.943	2717
306.982	2155
306.997	2040
307.052	2469
307.072	2704
307.107	3359
307.162	3758
307.163	3769
307.217	5302
307.253	6757
307.272	7137
307.327	7118
307.343	6667
307.381	5746
307.434	5235
307.436	5349
307.491	9571
307.524	13401
307.546	14253
307.600	14046
307.614	12722
307.655	8928
307.704	6651
307.710	6665
307.765	8045
307.795	9486
307.819	11054
307.874	16444
307.885	16862
307.929	16188
307.975	17050
307.984	18386
308.038	30745
308.065	41108
308.093	68570
308.148	139731
308.156	154938
308.202	224692
308.246	263398
308.257	257416
308.312	149442
308.336	103994
308.366	73064
308.421	40715
308.426	38517
308.475	26885
308.517	20951
308.530	19633
308.585	16463
308.607	15270
308.639	14170
308.694	13427
308.697	13499
308.748	18833
308.787	23863
308.803	23431
308.857	19559
308.877	17759
308.912	17294
308.967	18685
308.967	18743
309.021	27155
309.058	34819
309.076	44870
309.130	82698
309.148	98486
309.185	172215
309.238	300166
309.239	300872
309.293	314318
309.328	288384
309.348	254134
309.402	133505
309.418	103574
309.457	71567
309.508	42307
309.511	41232
309.566	31790
309.598	27690
309.620	27067
309.674	26436
309.688	26840
309.729	24905
309.778	20951
309.783	20453
309.837	15643
309.868	13169
309.892	13873
309.946	16564
309.959	17720
310.001	21361
310.049	23817
310.055	23031
310.109	14578
310.139	9719
310.163	8008
310.218	5705
310.229	5287
310.272	5017
310.319	4982
310.326	4892
310.381	4311
310.409	4015
310.435	3806
310.489	3548
310.499	3471
310.543	3559
310.589	3914
310.598	3877
310.652	3500
310.679	3279
310.706	3088
310.760	2550
310.769	2523
310.814	2459
310.859	2136
310.868	2177
310.923	2625
310.948	2795
310.977	3039
311.031	3462
311.038	3532
311.085	3142
311.128	2630
311.139	2657
311.193	2873
311.218	2966
311.247	2983
311.301	2915
311.308	2908
311.356	2990
311.398	2980
311.410	2897
311.464	2592
311.488	2423
311.518	2303
311.572	2024
311.578	1996
311.626	2413
311.668	2781
311.680	2890
311.734	3276
311.758	3491
311.788	3395
311.842	3115
311.847	3086
311.896	4046
311.937	4858
311.950	4731
312.004	4132
312.027	3857
312.058	3529
312.112	2944
312.117	2881
312.165	2867
312.207	2850
312.297	3511
312.386	3365
312.476	2421
312.566	3387
312.656	2106
312.745	2643
312.835	3197
312.925	3124
313.015	2661
313.104	3401
313.194	2641
313.284	2913
313.374	2587
313.463	1958
313.553	2752
313.643	1579
313.732	2412
313.822	1876
313.912	2133
314.001	2998
314.091	2790
314.180	3336
314.270	3236
314.360	4134
314.449	3375
314.539	1995
314.628	1963
314.718	2651
314.808	3554
314.897	1925
314.987	2950
315.076	3199
315.166	3479
315.255	4081
315.345	3296
315.434	3280
315.524	3811
315.613	3131
315.703	4200
315.792	7929
315.881	24878
315.971	7161
316.060	6366
316.150	9142
316.239	9604
316.328	3953
316.418	2309
316.507	1626
316.597	3463
316.686	2581
316.775	5497
316.865	10625
316.954	3149
317.043	1924
317.133	1932
317.222	1992
317.311	2107
317.400	1530
317.490	3472
317.579	3866
317.668	3644
317.757	5323
317.847	13717
317.936	42296
318.025	14467
318.114	8425
318.203	4197
318.293	4842
318.382	6703
318.471	6111
318.560	8678
318.649	22917
318.738	4997
318.828	3631
318.917	4086
319.006	5826
319.095	12315
319.184	29464
319.273	14437
319.362	6557
319.451	3116
319.540	3034
319.629	4832
319.718	7296
319.807	5247
319.896	9397
319.985	37466
320.074	12137
320.163	4393
320.252	5962
320.341	4742
320.430	3295
320.519	4570
320.608	2755
320.697	2078
320.786	2388
320.875	3671
320.964	3842
321.053	5384
321.142	7431
321.230	7631
321.319	6631
321.408	13538
321.497	6114
321.586	6115
321.675	9323
321.764	8639
321.852	5274
321.941	7908
322.030	5905
322.119	6808
322.207	14787
322.296	13281
322.385	7621
322.474	7616
322.562	17098
322.651	9875
322.740	8159
322.829	10576
322.917	13009
323.006	6554
323.095	4993
323.183	6103
323.272	7794
323.361	13393
323.449	46724
323.538	14864
323.626	29512
323.715	19177
323.804	7758
323.892	26671
323.981	13451
324.069	4820
324.158	14696
324.246	12766
324.335	3668
324.424	4805
324.512	2762
324.601	3132
324.689	4724
324.778	7906
324.866	9915
324.954	2927
325.043	2690
325.131	6348
325.220	11351
325.308	12124
325.397	8826
325.485	5260
325.574	2138
325.662	2003
325.750	1643
325.839	2871
325.927	2373
326.015	3244
326.104	5042
326.192	8109
326.280	1923
326.369	1759
326.457	2957
326.545	4330
326.634	2502
326.722	1518
326.810	1278
326.898	1479
326.987	1859
327.075	3659
327.163	5889
327.251	2630
327.340	2425
327.428	3283
327.516	1891
327.604	2261
327.692	2550
327.781	2981
327.869	4563
327.957	2827
328.045	2448
328.133	2558
328.221	3074
328.309	2293
328.397	2363
328.485	2333
328.574	3704
328.662	9749
328.750	7017
328.838	3949
328.926	2062
329.014	2595
329.102	2733
329.190	6127
329.278	3977
329.366	2024
329.454	2680
329.542	2080
329.630	2480
329.718	2846
329.806	3333
329.893	4627
329.981	6498
330.069	18899
330.157	70126
330.245	164157
330.333	80934
330.421	14891
330.509	7980
330.597	12340
330.684	8047
330.772	4617
330.860	4778
330.948	6780
331.036	2851
331.123	1723
331.211	1029
331.299	2587
331.387	4762
331.475	7639
331.562	2581
331.650	2274
331.738	2286
331.825	2843
331.913	1275
332.001	1826
332.089	2356
332.176	5239
332.264	12904
332.352	9645
332.439	2758
332.527	2012
332.614	1829
332.702	2583
332.790	1915
332.877	5891
332.965	11801
333.052	3279
333.140	3174
333.228	7488
333.315	2586
333.403	2902
333.490	8185
333.578	6024
333.665	7978
333.753	4622
333.840	2208
333.928	2900
334.015	8506
334.103	13952
334.190	43407
334.278	10149
334.365	5174
334.452	3752
334.540	3089
334.627	3901
334.715	5086
334.802	11662
334.889	56115
334.977	54334
335.064	7846
335.151	3425
335.239	2782
335.326	4234
335.413	19352
335.501	24998
335.588	4141
335.675	3117
335.762	4037
335.850	5756
335.937	5869
336.024	15234
336.111	56608
336.199	21867
336.286	4745
336.373	2889
336.460	1733
336.547	2267
336.635	2961
336.722	2735
336.809	1841
336.896	3542
336.983	10533
337.070	26320
337.157	41627
337.245	34654
337.332	23868
337.419	2930
337.506	2100
337.593	2261
337.680	7502
337.767	22975
337.854	6033
337.941	7299
338.028	9511
338.115	3214
338.202	4306
338.289	8813
338.376	32541
338.463	10346
338.550	13761
338.637	14034
338.724	5727
338.811	8491
338.898	2629
338.984	1369
339.071	2224
339.158	2211
339.245	4257
339.332	3121
339.419	6451
339.506	5907
339.593	789
339.679	1335
339.766	1165
339.853	2077
339.940	3919
340.027	1673
340.113	1622
340.200	2644
340.287	2350
340.374	1982
340.460	2513
340.547	989
340.634	3734
340.720	10250
340.807	5624
340.894	1578
340.980	1510
341.067	1274
341.154	2193
341.240	2379
341.327	4739
341.414	1898
341.500	1789
341.587	2010
341.674	1873
341.760	3480
341.847	4029
341.933	1174
342.020	482
342.106	1209
342.193	1216
342.279	2990
342.366	2672
342.452	2777
342.539	1905
342.625	4073
342.712	10748
342.798	3938
342.885	1803
342.971	154
343.058	896
343.144	233
343.230	1558
343.317	1371
343.403	1127
343.490	1065
343.576	1622
343.662	1447
343.749	1398
343.835	2577
343.921	7341
344.008	40730
344.094	82049
344.180	16006
344.267	4640
344.353	16319
344.439	17402
344.525	6229
344.612	3228
344.698	3037
344.784	1909
344.870	1448
344.957	1321
345.043	2306
345.129	1221
345.215	3289
345.301	1253
345.387	1213
345.474	994
345.560	1746
345.646	2106
345.732	1273
345.818	1691
345.904	1466
345.990	1749
346.076	2117
346.162	3017
346.249	2032
346.335	1445
346.421	1937
346.507	8152
346.593	23955
346.679	4517
346.765	2478
346.851	1327
346.937	1331
347.023	1914
347.108	1570
347.194	2080
347.280	938
347.366	1892
347.452	9583
347.538	33106
347.624	20493
347.710	14582
347.796	2922
347.882	2017
347.967	1370
348.053	1970
348.139	1869
348.225	901
348.311	1242
348.397	1893
348.482	1646
348.568	2231
348.654	1280
348.740	2249
348.825	1360
348.911	4417
348.997	16139
349.083	29522
349.168	4372
349.254	1603
349.340	627
349.425	1547
349.511	1985
349.597	1558
349.682	4050
349.768	12899
349.854	5982
349.939	1727
350.025	1704
350.110	1944
350.196	1810
350.282	981
350.367	1251
350.453	3456
350.538	2805
350.624	1486
350.709	1841
350.795	718
350.880	780
350.966	2341
351.051	2857
351.137	2205
351.222	1381
351.308	4180
351.393	9362
351.479	2100
351.564	1113
351.649	1417
351.735	1600
351.820	968
351.906	1181
351.991	1757
352.076	7053
352.162	9314
352.247	2841
352.332	1855
352.418	2442
352.503	3638
352.588	14405
352.673	11112
352.759	2974
352.844	1491
352.929	1689
353.014	1882
353.100	1884
353.185	3400
353.270	3307
353.355	4504
353.441	2669
353.526	2190
353.611	4178
353.696	3810
353.781	2662
353.866	1060
353.952	2023
354.037	3232
354.122	7640
354.207	6259
354.292	2874
354.377	1826
354.462	1152
354.547	2077
354.632	2710
354.717	2599
354.802	2521
354.887	1253
354.972	2145
355.057	998
355.142	889
355.227	1439
355.312	1535
355.397	5068
355.482	12484
355.567	4828
355.652	4978
355.737	4449
355.822	16075
355.907	12235
355.991	2472
356.076	1187
356.161	1444
356.246	1265
356.331	2093
356.416	4822
356.501	38846
356.585	34702
356.670	3422
356.755	4116
356.840	4504
356.924	26950
357.009	92100
357.094	29163
357.179	4513
357.263	3260
357.348	4081
357.433	3116
357.517	3476
357.602	2112
357.687	1035
357.771	2434
357.856	4535
357.941	5357
358.025	25485
358.110	106200
358.195	42074
358.279	4731
358.364	3521
358.448	10602
358.533	27094
358.617	18221
358.702	19624
358.787	6419
358.871	3310
358.956	2748
359.040	1175
359.125	591
359.209	1400
359.294	2318
359.378	2392
359.462	2444
359.547	2311
359.631	1085
359.716	345
359.800	1375
359.885	2531
359.969	1126
360.053	851
360.138	1381
360.222	1451
360.306	3461
360.391	2373
360.475	3623
360.559	7798
360.644	10076
360.728	7257
360.812	20997
360.896	55410
360.981	17550
361.065	7316
361.149	3152
361.233	2279
361.318	2121
361.402	1485
361.486	2846
361.570	1293
361.654	1799
361.739	6464
361.823	37474
361.907	55584
361.991	8435
362.075	3533
362.159	6569
362.243	7092
362.327	5679
362.411	9865
362.495	4378
362.580	2544
362.664	1798
362.748	1702
362.832	2556
362.916	5049
363.000	19375
363.084	49329
363.168	67110
363.252	14577
363.336	4320
363.420	6248
363.503	26307
363.587	29660
363.671	4894
363.755	1905
363.839	4348
363.923	1189
364.007	4066
364.091	5509
364.175	11009
364.258	47974
364.342	33869
364.426	35071
364.510	16078
364.594	8414
364.677	11461
364.761	49557
364.845	31884
364.929	6909
365.013	4760
365.096	4838
365.180	5386
365.264	12280
365.347	46347
365.431	17144
365.515	2759
365.598	716
365.682	2347
365.766	2711
365.849	3772
365.933	1967
366.017	4151
366.100	1426
366.184	553
366.267	1958
366.351	845
366.435	881
366.518	409
366.602	863
366.685	955
366.769	540
366.852	2430
366.936	4394
367.019	2154
367.103	1054
367.186	5642
367.270	1328
367.353	10
367.436	927
367.520	424
367.603	1774
367.687	1311
367.770	4246
367.853	2891
367.937	11450
368.020	17347
368.104	3077
368.187	3656
368.270	3788
368.353	2856
368.437	6902
368.520	20245
368.603	10323
368.687	11638
368.770	20683
368.853	4957
368.936	4476
369.020	4333
369.103	1662
369.186	825
369.269	787
369.352	2801
369.436	3462
369.519	2153
369.602	-480
369.685	2754
369.768	949
369.851	1650
369.934	1098
370.018	1249
370.101	2281
370.184	4072
370.267	2420
370.350	3892
370.433	6229
370.516	22347
370.599	28448
370.682	5911
370.765	9988
370.848	14453
370.931	27891
371.014	11228
371.097	1408
371.180	1882
371.263	1785
371.346	-335
371.429	801
371.511	467
371.594	1990
371.677	4325
371.760	5554
371.843	5717
371.926	39579
372.009	84129
372.091	22515
372.174	12246
372.257	30703
372.340	9946
372.423	6082
372.505	8267
372.588	3941
372.671	8340
372.754	27454
372.836	12497
372.919	10045
373.002	20376
373.085	5255
373.167	4814
373.250	11591
373.332	29693
373.415	54015
373.498	112135
373.580	37291
373.663	59880
373.746	74378
373.828	12590
373.911	5176
373.993	5406
374.076	21820
374.159	19488
374.241	7954
374.324	21775
374.406	16067
374.489	32065
374.571	82655
374.654	27713
374.736	15187
374.819	49879
374.901	77600
374.983	78846
375.066	11501
375.148	4529
375.231	19623
375.313	34073
375.395	8886
375.478	2458
375.560	2451
375.643	3326
375.725	15606
375.807	65637
375.890	48240
375.972	17423
376.054	8748
376.136	16344
376.219	7553
376.301	17024
376.383	48874
376.465	16721
376.548	7768
376.630	11453
376.712	37395
376.794	15490
376.877	2222
376.959	702
377.041	1703
377.123	3239
377.205	4003
377.287	978
377.369	1856
377.452	1243
377.534	660
377.616	821
377.698	196
377.780	-466
377.862	499
377.944	2033
378.026	-84
378.108	1529
378.190	520
378.272	1403
378.354	232
378.436	104
378.518	1792
378.600	7509
378.682	7131
378.764	13686
378.846	10943
378.928	2820
379.010	2571
379.091	2718
379.173	1685
379.255	453
379.337	1242
379.419	6380
379.501	21763
379.583	7409
379.664	3180
379.746	4084
379.828	13720
379.910	18547
379.991	15227
380.073	2240
380.155	2111
380.237	1521
380.318	797
380.400	574
380.482	3187
380.564	4501
380.645	3324
380.727	2950
380.809	2625
380.890	706
380.972	865
381.053	1435
381.135	2480
381.217	3906
381.298	14442
381.380	6790
381.461	7416
381.543	40188
381.624	45815
381.706	7778
381.787	3793
381.869	5169
381.951	22760
382.032	85649
382.113	46653
382.195	5916
382.276	5182
382.358	11407
382.439	34772
382.521	47160
382.602	72884
382.684	28229
382.765	45123
382.846	46623
382.928	61336
383.009	33570
383.090	28081
383.172	100885
383.253	139736
383.334	50275
383.416	56933
383.497	27915
383.578	12457
383.659	24443
383.741	96284
383.822	226571
383.903	106700
383.984	37971
384.066	59183
384.147	32339
384.228	7620
384.309	5077
384.390	3535
384.471	2872
384.553	3157
384.634	3878
384.715	4031
384.796	2290
384.877	3860
384.958	14088
385.039	14738
385.120	4553
385.201	3662
385.282	3450
385.363	3850
385.444	2885
385.525	7669
385.606	27291
385.687	23017
385.768	5440
385.849	6390
385.930	41634
386.011	68133
386.092	15295
386.173	3220
386.254	3143
386.335	2746
386.416	2616
386.496	8567
386.577	12672
386.658	5050
386.739	3364
386.820	3778
386.901	1962
386.981	2974
387.062	2447
387.143	2201
387.224	14150
387.304	13223
387.385	4614
387.466	1994
387.547	4380
387.627	2121
387.708	6034
387.789	27305
387.869	34180
387.950	9738
388.031	2435
388.111	393
388.192	5879
388.273	7572
388.353	4311
388.434	2876
388.514	7272
388.595	37034
388.676	39813
388.756	14610
388.837	12048
388.917	6911
388.998	69
389.078	2536
389.159	1968
389.239	980
389.320	3622
389.400	1847
389.480	6241
389.561	14447
389.641	7800
389.722	3160
389.802	3303
389.883	7587
389.963	21700
390.043	13191
390.124	3029
390.204	5365
390.284	16231
390.365	11151
390.445	29792
390.525	109914
390.605	88967
390.686	14342
390.766	4894
390.846	3522
390.927	1634
391.007	1471
391.087	1887
391.167	1581
391.247	730
391.328	4549
391.408	5200
391.488	3977
391.568	633
391.648	2515
391.728	3483
391.808	4032
391.888	3305
391.969	9019
392.049	11951
392.129	6976
392.209	7572
392.289	20169
392.369	10431
392.449	9210
392.529	6029
392.609	6781
392.689	7929
392.769	21179
392.849	17892
392.929	15423
393.009	31148
393.089	26956
393.169	36408
393.248	151241
393.328	577403
393.408	539029
393.488	116733
393.568	29841
393.648	15527
393.728	10070
393.807	7436
393.887	8691
393.967	8956
394.047	9544
394.127	13712
394.206	29986
394.286	125809
394.366	447114
394.446	417200
394.525	102744
394.605	27818
394.685	15548
394.764	17922
394.844	25072
394.924	18510
395.003	7765
395.083	6412
395.163	5715
395.242	5609
395.322	6978
395.402	4301
395.481	8591
395.561	12640
395.640	28952
395.720	26663
395.799	37666
395.879	37466
395.958	47638
396.038	188292
396.117	576934
396.197	548159
396.276	166361
396.356	50869
396.435	28762
396.515	20763
396.594	19518
396.673	37797
396.753	173671
396.832	509811
396.912	299287
396.991	52699
397.070	16988
397.150	8307
397.229	7856
397.308	9265
397.388	13401
397.467	8127
397.546	3800
397.625	1399
397.705	4749
397.784	3425
397.863	2288
397.942	1298
398.022	1933
398.101	8158
398.180	22757
398.259	10353
398.338	3231
398.417	1346
398.497	1284
398.576	2346
398.655	142
398.734	1323
398.813	1621
398.892	7853
398.971	25749
399.050	11862
399.129	666
399.208	1616
399.287	1817
399.366	989
399.445	926
399.524	1372
399.603	-501
399.682	2390
399.761	6772
399.840	30209
399.919	21429
399.998	2631
400.077	267
400.156	674
400.235	2929
400.313	224
400.392	1216
400.471	6694
400.550	10317
400.629	1854
400.708	1846
400.786	580
400.865	3695
400.944	3496
401.023	3347
401.102	472
401.180	176
401.259	988
401.338	648
401.416	1585
401.495	586
401.574	1423
401.652	969
401.731	1328
401.810	544
401.888	72
401.967	52
402.046	270
402.124	1014
402.203	388
402.281	1335
402.360	879
402.438	4936
402.517	3210
402.596	1285
402.674	943
402.753	575
402.831	736
402.910	880
402.988	3666
403.066	13074
403.145	8248
403.223	5390
403.302	11006
403.380	8454
403.459	6291
403.537	2533
403.615	554
403.694	-974
403.772	1583
403.850	414
403.929	925
404.007	-45
404.085	2300
404.164	998
404.242	794
404.320	6188
404.398	17062
404.477	19861
404.555	54140
404.633	43525
404.711	12836
404.789	6486
404.868	1161
404.946	132
405.024	409
405.102	-556
405.180	-376
405.258	-27
405.336	1251
405.415	-345
405.493	2119
405.571	2050
405.649	144
405.727	-382
405.805	1979
405.883	1843
405.961	1202
406.039	644
406.117	-311
406.195	2411
406.273	8447
406.351	37945
406.429	21178
406.507	2358
406.585	77
406.663	778
406.740	1258
406.818	317
406.896	187
406.974	1824
407.052	2172
407.130	20167
407.208	27839
407.285	5093
407.363	28
407.441	-117
407.519	164
407.596	3565
407.674	17181
407.752	63349
407.830	42539
407.907	6839
407.985	604
408.063	1358
408.141	116
408.218	1581
408.296	751
408.373	712
408.451	969
408.529	664
408.606	-884
408.684	-226
408.762	0
408.839	528
408.917	-346
408.994	429
409.072	-514
409.149	278
409.227	1894
409.304	2233
409.382	1655
409.459	1033
409.537	2745
409.614	1552
409.692	1504
409.769	1563
409.846	2216
409.924	3823
410.001	138
410.079	1840
410.156	2139
410.233	1741
410.311	899
410.388	447
410.465	1169
410.543	48
410.620	1213
410.697	51
410.775	-131
410.852	-1090
410.929	1320
411.006	1995
411.083	148
411.161	1289
411.238	1929
411.315	871
411.392	-160
411.469	586
411.547	1193
411.624	-1065
411.701	-42
411.778	1326
411.855	1293
411.932	-411
412.009	10
412.086	578
412.163	117
412.240	-225
412.317	1251
412.394	834
412.471	430
412.548	-105
412.625	-70
412.702	660
412.779	1565
412.856	585
412.933	-723
413.010	361
413.087	246
413.164	5169
413.241	7409
413.318	785
413.395	2229
413.471	1215
413.548	841
413.625	957
413.702	-57
413.779	621
413.855	215
413.932	-205
414.009	-1088
414.086	69
414.162	474
414.239	1438
414.316	5827
414.393	13230
414.469	3375
414.546	35
414.623	158
414.699	56
414.776	-72
414.853	-20
414.929	881
415.006	-11
415.082	741
415.159	314
415.236	591
415.312	-68
415.389	1343
415.465	976
415.542	213
415.618	-358
415.695	1246
415.771	114
415.848	-654
415.924	770
416.000	505
416.077	446
416.153	-1270
416.230	-766
416.306	201
416.383	367
416.459	66
416.535	-626
416.612	-316
416.688	221
416.764	-146
416.841	-1275
416.917	-117
416.993	-191
417.069	164
417.146	1459
417.222	3522
417.298	253
417.374	-1031
417.451	71
417.527	-481
417.603	210
417.679	-72
417.755	194
417.831	-713
417.908	511
417.984	-232
418.060	-1275
418.136	1011
418.212	1527
418.288	180
418.364	137
418.440	-807
418.516	1111
418.592	479
418.668	2281
418.744	2634
418.820	2424
418.896	172
418.972	-747
419.048	-85
419.124	1663
419.200	-73
419.276	381
419.352	-188
419.428	-677
419.504	-590
419.579	301
419.655	421
419.731	362
419.807	2257
419.883	3875
419.959	2364
420.034	546
420.110	1367
420.186	7285
420.262	6297
420.337	830
420.413	418
420.489	207
420.565	62
420.640	-313
420.716	70
420.792	-425
420.867	1177
420.943	-884
421.019	486
421.094	558
421.170	-140
421.245	-331
421.321	1223
421.397	1260
421.472	11961
421.548	34480
421.623	16935
421.699	2469
421.774	1879
421.850	1083
421.925	3186
422.001	1661
422.076	2220
422.152	1902
422.227	4261
422.302	6595
422.378	9240
422.453	18861
422.529	60091
422.604	218782
422.679	362216
422.755	180303
422.830	47263
422.905	17647
422.981	9130
423.056	6314
423.131	4395
423.207	2897
423.282	2046
423.357	2938
423.432	2408
423.508	2154
423.583	3372
423.658	2400
423.733	1502
423.808	1254
423.883	1647
423.959	885
424.034	657
424.109	1264
424.184	21
424.259	446
424.334	678
424.409	-556
424.484	466
424.559	105
424.634	128
424.709	-155
424.784	641
424.859	573
424.934	619
425.009	4717
425.084	8422
425.159	2132
425.234	915
425.309	-88
425.384	49
425.459	-1050
425.534	472
425.609	-839
425.683	-894
425.758	-333
425.833	-181
425.908	923
425.983	1919
426.058	8797
426.132	3253
426.207	-159
426.282	983
426.357	61
426.431	-729
426.506	375
426.581	-741
426.655	148
426.730	274
426.805	-417
426.879	-41
426.954	-268
427.029	952
427.103	10811
427.178	27893
427.253	10322
427.327	157
427.402	315
427.476	1247
427.551	-471
427.625	413
427.700	276
427.774	-547
427.849	842
427.923	-495
427.998	-338
428.072	-369
428.147	2896
428.221	17237
428.296	50287
428.370	22650
428.444	1210
428.519	1372
428.593	3306
428.667	3498
428.742	4616
428.816	6090
428.890	31862
428.965	41191
429.039	9268
429.113	4200
429.188	726
429.262	-387
429.336	527
429.410	3575
429.485	2041
429.559	3580
429.633	2013
429.707	314
429.781	4913
429.855	29534
429.930	38624
430.004	15513
430.078	21635
430.152	30048
430.226	86364
430.300	72581
430.374	8630
430.448	2049
430.522	7790
430.596	22146
430.670	17688
430.744	47731
430.818	57211
430.892	9576
430.966	1133
431.040	820
431.114	-330
431.188	-814
431.262	-766
431.336	-278
431.410	1977
431.484	4420
431.557	2900
431.631	733
431.705	615
431.779	12143
431.853	46985
431.927	26535
432.000	2448
432.074	476
432.148	103
432.222	-733
432.295	-37
432.369	-240
432.443	1093
432.516	11185
432.590	29640
432.664	9632
432.737	104
432.811	-1340
432.885	-1084
432.958	-7
433.032	-699
433.106	-577
433.179	-60
433.253	-389
433.326	-965
433.400	-408
433.473	16
433.547	-961
433.620	-167
433.694	214
433.767	-268
433.841	-1032
433.914	93
433.988	-538
434.061	-272
434.134	-1277
434.208	-742
434.281	-668
434.355	-1183
434.428	-163
434.501	-354
434.575	-792
434.648	-743
434.721	-632
434.795	-939
434.868	-1167
434.941	-572
435.014	-1133
435.088	-423
435.161	-327
435.234	191
435.307	-129
435.381	695
435.454	-588
435.527	575
435.600	455
435.673	466
435.746	403
435.819	310
435.892	-439
435.966	-410
436.039	82
436.112	-330
436.185	-280
436.258	-674
436.331	-1089
436.404	223
436.477	-999
436.550	-522
436.623	-485
436.696	-462
436.769	-1158
436.842	-846
436.915	-1217
436.987	-90
437.060	-1340
437.133	-1092
437.206	-1273
437.279	108
437.352	-525
437.425	-447
437.498	364
437.570	477
437.643	-159
437.716	-113
437.789	-461
437.861	-556
437.934	456
438.007	315
438.080	-294
438.152	97
438.225	2055
438.298	18373
438.370	51151
438.443	16259
438.516	1248
438.588	-350
438.661	-927
438.734	-467
438.806	-322
438.879	-444
438.951	-310
439.024	-608
439.096	-565
439.169	-602
439.241	-383
439.314	-555
439.386	-461
439.459	787
439.531	1254
439.604	210
439.676	-391
439.749	-677
439.821	-1115
439.893	301
439.966	-447
440.038	-974
440.110	-494
440.183	-641
440.255	-1467
440.327	519
440.400	5105
440.472	23623
440.544	14056
440.617	700
440.689	472
440.761	-114
440.833	880
440.905	64
440.978	-550
441.050	-468
441.122	-380
441.194	-99
441.266	-1169
441.338	-1199
441.411	318
441.483	5118
441.555	7271
441.627	1335
441.699	-522
441.771	-8
441.843	-1174
441.915	-981
441.987	-1183
442.059	-962
442.131	78
442.203	-375
442.275	388
442.347	1068
442.419	3037
442.491	18576
442.563	39137
442.635	13474
442.706	5131
442.778	2525
442.850	-154
442.922	-549
442.994	-424
443.066	547
443.137	507
443.209	-869
443.281	771
443.353	4575
443.425	26380
443.496	88913
443.568	70170
443.640	21096
443.711	3034
443.783	666
443.855	-533
443.926	-168
443.998	-689
444.070	-294
444.141	168
444.213	-167
444.285	784
444.356	316
444.428	1129
444.499	-740
444.571	-1146
444.642	-837
444.714	-837
444.785	67
444.857	319
444.928	2466
445.000	1402
445.071	2928
445.143	2156
445.214	1966
445.285	3874
445.357	14086
445.428	67980
445.500	136738
445.571	68284
445.642	30015
445.714	8983
445.785	6046
445.856	641
445.928	714
445.999	843
446.070	218
446.141	-113
446.213	142
446.284	-42
446.355	149
446.426	-691
446.497	-565
446.569	-380
446.640	247
446.711	83
446.782	-654
446.853	43
446.924	-378
446.995	-975
447.066	560
447.138	479
447.209	49
447.280	-1104
447.351	-1456
447.422	-997
447.493	-879
447.564	-416
447.635	-467
447.706	-602
447.777	-991
447.847	-1601
447.918	-1086
447.989	-1052
448.060	231
448.131	1438
448.202	710
448.273	-479
448.344	-188
448.414	-603
448.485	-793
448.556	-342
448.627	-1093
448.698	-524
448.768	-1132
448.839	-809
448.910	119
448.981	577
449.051	-731
449.122	-651
449.193	-774
449.263	-1260
449.334	-1137
449.405	751
449.475	928
449.546	782
449.616	1166
449.687	531
449.758	294
449.828	-239
449.899	-1152
449.969	-422
450.040	-762
450.110	15
450.181	454
450.251	-1142
450.322	-228
450.392	-319
450.463	-583
450.533	-378
450.604	-448
450.674	-441
450.744	-451
450.815	-126
450.885	-236
450.955	-146
451.026	-1134
451.096	-696
451.166	-1009
451.237	570
451.307	3090
451.377	696
451.447	-829
451.518	-897
451.588	-375
451.658	-108
451.728	116
451.799	2973
451.869	3841
451.939	-40
452.009	-867
452.079	-1093
452.149	-331
452.219	-373
452.289	4511
452.360	2021
452.430	-39
452.500	-456
452.570	156
452.640	581
452.710	3975
452.780	5333
452.850	2734
452.920	1062
452.990	817
453.060	92
453.129	103
453.199	450
453.269	5131
453.339	12234
453.409	19371
453.479	18081
453.549	26072
453.619	25611
453.688	9813
453.758	751
453.828	-170
453.898	-575
453.968	-538
454.037	-596
454.087	-361
454.107	-276
454.168	-863
454.177	-966
454.247	-743
454.249	-711
454.316	-317
454.330	-386
454.386	-721
454.411	-180
454.456	575
454.492	1508
454.525	2323
454.574	869
454.595	228
454.655	-972
454.665	-1183
454.734	187
454.736	218
454.804	640
454.817	1146
454.873	2981
454.898	3476
454.943	4230
454.979	2572
455.013	1111
455.060	169
455.082	-223
455.141	269
455.152	364
455.221	2674
455.222	2756
455.291	6986
455.303	7466
455.360	8646
455.384	12619
455.430	18483
455.465	13228
455.499	8485
455.546	5482
455.569	4122
455.627	2829
455.638	2675
455.707	231
455.708	246
455.777	204
455.789	157
455.846	-107
455.869	-292
455.916	-642
455.950	-492
455.985	-390
456.031	-155
456.054	-81
456.112	-38
456.124	-31
456.193	-567
456.193	-582
456.262	-136
456.274	73
456.332	1207
456.355	1024
456.401	396
456.436	344
456.470	310
456.516	-506
456.540	-883
456.597	-280
456.609	-209
456.678	-155
456.678	-163
456.747	202
456.759	153
456.817	-94
456.840	-26
456.886	-152
456.920	-244
456.955	-156
457.001	-145
457.024	-274
457.082	-249
457.093	-190
457.162	493
457.163	509
457.232	1489
457.243	1442
457.301	1018
457.324	693
457.370	24
457.405	239
457.439	650
457.485	735
457.508	756
457.566	798
457.577	774
457.646	707
457.647	724
457.715	2235
457.727	2439
457.784	3933
457.808	5105
457.853	6388
457.889	7448
457.922	7052
457.969	4480
457.991	4684
458.050	6746
458.060	7099
458.129	11741
458.130	11870
458.198	10931
458.211	9890
458.267	4731
458.292	3076
458.336	2169
458.372	2196
458.405	3353
458.453	4666
458.474	5842
458.533	11338
458.543	11932
458.611	19188
458.614	19316
458.680	10786
458.694	8480
458.749	4144
458.775	2829
458.818	1684
458.855	1169
458.887	925
458.936	861
458.955	776
459.016	782
459.024	784
459.093	737
459.097	732
459.162	555
459.177	633
459.230	1202
459.257	1312
459.299	1171
459.338	1264
459.368	1350
459.418	1543
459.437	1560
459.499	1034
459.505	1001
459.574	1410
459.579	1411
459.643	1393
459.659	1390
459.711	1196
459.740	1247
459.780	1298
459.820	1254
459.849	1137
459.900	1106
459.917	1297
459.981	1863
459.986	1832
460.054	1219
460.061	1189
460.123	1410
460.141	1533
460.191	2090
460.222	2331
460.260	2289
460.302	2416
460.328	2629
460.382	3074
460.397	3206
460.462	3238
460.465	3422
460.534	8867
460.543	9517
460.602	34152
460.623	43651
460.671	67804
460.703	90344
460.739	84188
460.783	65908
460.808	52075
460.864	9109
460.876	6301
460.944	2394
460.945	2357
461.013	2247
461.024	2165
461.081	1938
461.104	2133
461.150	2083
461.184	1947
461.218	2140
461.264	2145
461.286	2062
461.345	1749
461.355	1715
461.423	2010
461.425	2010
461.491	1220
461.505	1175
461.559	2846
461.585	3509
461.628	4821
461.665	6222
461.696	6901
461.745	8475
461.764	7647
461.825	3284
461.832	3178
461.901	1884
461.905	1887
461.969	1673
461.985	1500
462.037	2000
462.065	2358
462.105	2059
462.145	1745
462.173	2490
462.225	4151
462.241	4472
462.305	5961
462.310	5852
462.378	3675
462.385	3345
462.446	2288
462.465	2116
462.514	2233
462.545	2361
462.582	2044
462.625	1876
462.650	2038
462.705	1893
462.718	1858
462.785	2153
462.786	2167
462.854	2641
462.865	2750
462.922	3533
462.945	3995
462.990	3753
463.025	2900
463.058	2289
463.104	1975
463.126	1956
463.184	1832
463.194	1899
463.262	2191
463.264	2208
463.330	2360
463.344	2345
463.398	2262
463.424	2242
463.466	2336
463.504	2591
463.533	2607
463.583	2348
463.601	2361
463.663	2475
463.669	2486
463.737	2533
463.743	2538
463.805	4056
463.823	4537
463.873	6387
463.903	7586
463.940	8173
463.982	8745
464.008	7331
464.062	4175
464.076	4000
464.142	2589
464.144	2582
464.211	2520
464.221	2527
464.279	2523
464.301	2514
464.347	2777
464.381	3064
464.414	3335
464.461	3591
464.482	3436
464.540	3044
464.550	3052
464.617	2990
464.620	2981
464.685	4707
464.699	5120
464.753	6970
464.779	7835
464.820	9260
464.859	10643
464.888	9687
464.938	7977
464.956	8108
465.018	8310
465.023	8293
465.091	7874
465.098	7828
465.158	6845
465.177	6543
465.226	6989
465.257	7181
465.293	7167
465.336	7220
465.361	7564
465.416	8243
465.428	8463
465.495	9659
465.496	9690
465.563	11790
465.575	12166
465.631	13725
465.654	14401
465.698	11490
465.734	8841
465.765	8759
465.813	8488
465.833	8600
465.893	9271
465.900	9319
465.968	9451
465.972	9438
466.035	8944
466.052	8843
466.102	9462
466.131	9705
466.170	10378
466.210	11096
466.237	11466
466.290	12196
466.304	12336
466.369	12704
466.372	12729
466.439	12777
466.449	12760
466.506	13434
466.528	13645
466.573	15584
466.607	16981
466.641	18818
466.687	21351
466.708	22689
466.766	26239
466.775	25372
466.842	18528
466.845	18164
466.909	16659
466.925	16282
466.977	16147
467.004	16043
467.044	16573
467.083	17045
467.111	18173
467.163	20197
467.178	20540
467.242	21775
467.245	21663
467.312	18466
467.321	18006
467.379	16878
467.400	16419
467.446	16400
467.480	16329
467.559	15546
467.638	13851
467.717	13173
467.796	12987
467.875	12370
467.955	12874
468.034	13348
468.113	19074
468.192	24594
468.271	13195
468.350	11463
468.429	12313
468.508	12577
468.588	11598
468.667	9454
468.746	10002
468.825	9835
468.904	8884
468.983	9607
469.062	11508
469.141	11783
469.220	9270
469.299	8972
469.378	9433
469.456	13618
469.535	12192
469.614	11479
469.693	10766
469.772	12105
469.851	12057
469.930	10668
470.009	10804
470.088	9575
470.166	10518
470.245	10724
470.324	11038
470.403	11071
470.482	9686
470.560	9079
470.639	8897
470.718	9445
470.797	8812
470.875	9155
470.954	9370
471.033	10252
471.111	7719
471.190	8022
471.269	7813
471.347	7458
471.426	7833
471.505	9141
471.583	10991
471.662	11204
471.740	8520
471.819	9132
471.898	8715
471.976	8866
472.055	9254
472.133	9201
472.212	10995
472.290	10375
472.369	8935
472.447	8609
472.526	7356
472.604	8748
472.683	7796
472.761	7514
472.839	8245
472.918	7330
472.996	8204
473.075	8143
473.153	7890
473.231	6182
473.310	7596
473.388	7803
473.466	6774
473.545	8607
473.623	10622
473.701	9220
473.780	7679
473.858	6174
473.936	8398
474.014	7339
474.093	9121
474.171	10496
474.249	11012
474.327	8019
474.405	6814
474.484	7122
474.562	7152
474.640	7774
474.718	8531
474.796	9628
474.874	9965
474.952	8262
475.030	7868
475.108	9155
475.187	12231
475.265	11867
475.343	11678
475.421	10386
475.499	8781
475.577	8214
475.655	8521
475.733	10452
475.811	15212
475.889	14314
475.966	10152
476.044	5840
476.122	5499
476.200	7026
476.278	6338
476.356	5790
476.434	6424
476.512	6178
476.590	7068
476.667	7669
476.745	5163
476.823	5836
476.901	4962
476.979	5343
477.056	5662
477.134	5719
477.212	6701
477.290	5514
477.367	5944
477.445	5307
477.523	5067
477.601	5311
477.678	5085
477.756	6042
477.834	5948
477.911	5646
477.989	5231
478.066	5111
478.144	4651
478.222	5386
478.299	5441
478.377	7975
478.454	6076
478.532	4122
478.609	4052
478.687	5738
478.764	4147
478.842	4011
478.919	4331
478.997	5434
479.074	4846
479.152	4804
479.229	5996
479.307	3525
479.384	4727
479.461	4361
479.539	3834
479.616	4271
479.694	3842
479.771	4373
479.848	4346
479.926	4335
480.003	6521
480.080	4422
480.157	4041
480.235	4637
480.312	3628
480.389	4410
480.467	4860
480.544	7089
480.621	5192
480.698	4431
480.775	4098
480.853	4369
480.930	3489
481.007	4525
481.084	6064
481.161	10377
481.238	7254
481.315	3708
481.392	4004
481.470	4559
481.547	3630
481.624	3401
481.701	3579
481.778	3704
481.855	4305
481.932	4940
482.009	7103
482.086	5913
482.163	4088
482.240	3885
482.317	6719
482.393	5863
482.470	4136
482.547	3223
482.624	3545
482.701	3699
482.778	2484
482.855	2890
482.932	3860
483.009	2772
483.085	4044
483.162	7287
483.239	6619
483.316	2581
483.393	4127
483.469	3574
483.546	3593
483.623	4563
483.699	3990
483.776	4028
483.853	4357
483.930	5696
484.006	12425
484.083	21181
484.160	27384
484.236	48544
484.313	37829
484.389	26441
484.466	23946
484.543	20749
484.619	21642
484.696	23164
484.772	21841
484.849	21435
484.925	19112
485.002	20197
485.078	20557
485.155	19953
485.231	18903
485.308	18440
485.384	19493
485.461	20065
485.537	22995
485.614	25306
485.690	17668
485.766	17678
485.843	17289
485.919	19419
485.995	18807
486.072	16179
486.148	16469
486.224	16100
486.301	16074
486.377	16734
486.453	16541
486.530	18905
486.606	26951
486.682	30488
486.758	27309
486.835	26351
486.911	22403
486.987	26809
487.063	28723
487.139	30290
487.215	28388
487.292	22845
487.368	20466
487.444	19331
487.520	22050
487.596	24881
487.672	30922
487.748	57574
487.824	82809
487.900	41985
487.976	20946
488.052	17567
488.128	18768
488.204	16751
488.280	17052
488.356	16293
488.432	21483
488.508	28240
488.584	17346
488.660	13946
488.736	15577
488.812	14623
488.888	17368
488.964	18938
489.039	23545
489.115	31437
489.191	25364
489.267	15881
489.343	14138
489.418	13664
489.494	14103
489.570	12531
489.646	14259
489.722	12660
489.797	12812
489.873	14055
489.949	21942
490.024	21661
490.100	12031
490.176	12196
490.251	12572
490.327	13681
490.403	11502
490.478	12367
490.554	10653
490.629	10705
490.705	10193
490.781	11539
490.856	10889
490.932	11992
491.007	10576
491.083	11464
491.158	10899
491.234	12411
491.309	17112
491.385	16999
491.460	10964
491.536	10494
491.611	10303
491.686	9793
491.762	11925
491.837	14312
491.913	21534
491.988	25686
492.063	30401
492.139	14831
492.214	11997
492.289	8981
492.365	7603
492.440	10222
492.515	7607
492.590	9485
492.666	7328
492.741	9341
492.816	11966
492.891	8459
492.967	9533
493.042	7700
493.117	8102
493.192	8694
493.267	13859
493.342	39747
493.418	58122
493.493	14641
493.568	7556
493.643	6171
493.718	8278
493.793	7665
493.868	10566
493.943	6932
494.018	7311
494.093	7749
494.168	5837
494.243	6138
494.318	6923
494.393	6788
494.468	5326
494.543	5609
494.618	6117
494.693	6874
494.768	6412
494.842	6221
494.917	4984
494.992	6451
495.067	6507
495.142	5496
495.217	6854
495.292	5895
495.366	6590
495.441	7245
495.516	8518
495.591	9708
495.665	20229
495.740	44063
495.815	26100
495.890	8075
495.964	5827
496.039	10513
496.114	9349
496.188	12636
496.263	13434
496.338	7860
496.412	7876
496.487	10898
496.561	9577
496.636	11501
496.710	11189
496.785	11710
496.860	13102
496.934	11308
497.009	12507
497.083	12653
497.158	14764
497.232	14564
497.307	18885
497.381	19001
497.455	21275
497.530	24898
497.604	25587
497.679	25801
497.753	35619
497.827	46895
497.902	52268
497.976	54065
498.050	65865
498.125	146678
498.199	168854
498.273	69901
498.348	64804
498.422	56287
498.496	48282
498.570	41535
498.645	35764
498.719	30829
498.793	28887
498.867	29879
498.941	29839
499.016	54339
499.090	126590
499.164	63361
499.238	15935
499.312	13206
499.386	14794
499.460	13160
499.534	12116
499.609	12312
499.683	13461
499.757	13860
499.831	21362
499.905	72376
499.979	81813
500.053	14597
500.127	12792
500.201	9923
500.275	8276
500.349	8049
500.422	8279
500.496	8925
500.570	15481
500.644	38102
500.718	74614
500.792	23642
500.866	7879
500.940	8220
501.013	7866
501.087	6077
501.161	8925
501.235	9962
501.309	21102
501.382	58242
501.456	59937
501.530	13767
501.603	18684
501.677	9681
501.751	3701
501.825	6786
501.898	10412
501.972	22435
502.046	17921
502.119	4975
502.193	10291
502.266	23843
502.340	15060
502.413	12305
502.487	22026
502.561	12944
502.634	6083
502.708	5158
502.781	2662
502.855	4264
502.928	2734
503.002	3863
503.075	2740
503.149	3699
503.222	3945
503.295	3828
503.369	5501
503.442	5694
503.516	15832
503.589	41826
503.662	30782
503.736	10469
503.809	20475
503.882	19066
503.956	23932
504.029	26416
504.102	26752
504.175	39140
504.249	17171
504.322	8662
504.395	6227
504.468	4199
504.542	3189
504.615	3295
504.688	3825
504.761	1699
504.834	3821
504.907	4796
504.980	5285
505.053	2977
505.127	2389
505.200	7041
505.273	4381
505.346	3057
505.419	2644
505.492	3216
505.565	1558
505.638	2881
505.711	2251
505.784	1856
505.857	2486
505.930	3262
506.003	816
506.076	4138
506.149	2962
506.221	2510
506.294	4731
506.367	7274
506.440	27761
506.513	18975
506.586	4543
506.659	2690
506.731	2540
506.804	2380
506.877	2505
506.950	3614
507.022	2726
507.095	1631
507.168	3528
507.241	2975
507.313	1916
507.386	1924
507.459	3528
507.531	2973
507.604	1287
507.677	3524
507.749	1773
507.822	4600
507.894	9988
507.967	17372
508.040	10924
508.112	9522
508.185	7604
508.257	6023
508.330	8112
508.402	5461
508.475	6328
508.547	6620
508.620	6803
508.692	7914
508.765	6299
508.837	5019
508.909	6208
508.982	5880
509.054	5834
509.127	4905
509.199	5004
509.271	4996
509.344	4431
509.416	5165
509.488	4499
509.560	6089
509.633	4971
509.705	5512
509.777	5153
509.849	6631
509.922	4779
509.994	4611
510.066	5994
510.138	6246
510.210	18495
510.283	16914
510.355	12752
510.427	10164
510.499	9383
510.571	8469
510.643	8644
510.715	10941
510.787	8087
510.859	9228
510.931	8711
511.003	9429
511.076	9006
511.148	7058
511.219	7093
511.291	9397
511.363	10429
511.435	6618
511.507	7150
511.579	8312
511.651	8280
511.723	6607
511.795	6461
511.867	6332
511.939	7169
512.010	9303
512.082	10326
512.154	5893
512.226	8615
512.298	12770
512.369	18729
512.441	14490
512.513	11993
512.585	9462
512.656	10523
512.728	9687
512.800	8347
512.871	8905
512.943	8474
513.015	7391
513.086	9096
513.158	8963
513.230	8121
513.301	9047
513.373	10632
513.444	8592
513.516	7595
513.588	7186
513.659	7783
513.731	8684
513.802	6457
513.874	10716
513.945	13555
514.016	8303
514.088	7688
514.159	7301
514.231	9600
514.302	15716
514.374	14244
514.445	9926
514.516	15210
514.588	12020
514.659	9846
514.730	13793
514.802	15617
514.873	18427
514.944	23934
515.016	16531
515.087	12993
515.158	12718
515.229	17644
515.301	22285
515.372	35830
515.443	25587
515.514	16008
515.585	10984
515.656	11603
515.728	9568
515.799	8178
515.870	8434
515.941	8256
516.012	8478
516.083	11595
516.154	12498
516.225	11625
516.296	11455
516.367	10538
516.438	9807
516.509	10700
516.580	13686
516.651	30375
516.722	95532
516.793	58208
516.864	14774
516.935	14277
517.006	15917
517.077	18712
517.148	32194
517.219	113671
517.289	216838
517.360	63893
517.431	23057
517.502	8613
517.573	9524
517.643	9222
517.714	10894
517.785	11886
517.856	9690
517.926	12985
517.997	14416
518.068	15776
518.138	21416
518.209	25389
518.280	80896
518.350	325135
518.421	172877
518.492	22674
518.562	13925
518.633	12545
518.703	12311
518.774	21759
518.845	47934
518.915	52052
518.986	19910
519.056	12762
519.127	14781
519.197	19916
519.268	36561
519.338	29179
519.408	8924
519.479	8876
519.549	7096
519.620	8095
519.690	5643
519.760	5580
519.831	5178
519.901	5344
519.971	5930
520.042	5479
520.112	4734
520.182	6885
520.253	6611
520.323	5809
520.393	5563
520.463	8788
520.534	3299
520.604	9369
520.674	7615
520.744	5991
520.814	7033
520.885	9487
520.955	12230
521.025	39700
521.095	22115
521.165	7258
521.235	5757
521.305	4519
521.375	5261
521.445	5768
521.515	5254
521.585	6812
521.655	4934
521.725	6322
521.795	6396
521.865	2794
521.935	8480
522.005	4852
522.075	3738
522.145	6353
522.215	4155
522.285	7061
522.355	6668
522.424	11739
522.494	10503
522.564	6954
522.634	8666
522.704	22233
522.774	11539
522.843	5435
522.913	3749
522.983	4676
523.053	4181
523.122	4180
523.192	3804
523.262	10901
523.331	12916
523.401	6043
523.471	2958
523.540	3815
523.610	2968
523.680	3562
523.749	3969
523.819	4826
523.888	4315
523.958	3517
524.027	3564
524.097	3665
524.166	3583
524.236	2371
524.305	5813
524.375	3256
524.444	2162
524.514	5670
524.583	2620
524.653	3480
524.722	4632
524.791	2327
524.861	4814
524.930	2366
524.999	2823
525.069	5214
525.138	3831
525.207	4643
525.277	4426
525.346	2525
525.415	4401
525.484	4811
525.554	3312
525.623	5831
525.692	6648
525.761	6204
525.830	5702
525.900	7336
525.969	11149
526.038	16976
526.107	31570
526.176	103787
526.245	96140
526.314	30364
526.383	50738
526.452	75809
526.522	122094
526.591	142959
526.660	29339
526.729	16615
526.797	17644
526.867	24129
526.935	95804
527.004	267656
527.073	197005
527.142	19887
527.211	8073
527.280	6275
527.349	4513
527.418	2325
527.487	4261
527.555	2299
527.624	1960
527.693	1171
527.762	3794
527.831	1471
527.899	2539
527.968	2002
528.037	620
528.106	3284
528.174	4622
528.243	3970
528.312	4747
528.380	6893
528.449	2157
528.518	3101
528.586	1070
528.655	2878
528.723	1785
528.792	1263
528.861	292
528.929	689
528.998	2568
529.066	1719
529.135	1673
529.203	1397
529.272	299
529.340	3010
529.409	3386
529.477	1233
529.545	1679
529.614	4744
529.682	758
529.751	2323
529.819	4587
529.887	2752
529.956	2409
530.024	2443
530.092	819
530.161	1984
530.229	3482
530.297	2200
530.365	2700
530.434	2589
530.502	435
530.570	2374
530.638	110
530.707	2234
530.775	3642
530.843	838
530.911	1629
530.979	2003
531.047	1195
531.115	2507
531.183	1889
531.252	2101
531.320	1513
531.388	1241
531.456	2200
531.524	-575
531.592	2367
531.660	4122
531.728	495
531.796	1226
531.864	2288
531.932	1766
532.000	1609
532.067	1045
532.135	2011
532.203	2774
532.271	1368
532.339	4403
532.407	8351
532.475	6586
532.542	4271
532.610	4039
532.678	3506
532.746	15615
532.814	43316
532.881	12555
532.949	2785
533.017	2361
533.084	1970
533.152	2407
533.220	1694
533.287	1546
533.355	2240
533.423	2160
533.490	521
533.558	1792
533.625	1681
533.693	3160
533.761	3409
533.828	3143
533.896	1733
533.963	5141
534.031	4606
534.098	6723
534.166	3262
534.233	2907
534.300	3511
534.368	3868
534.435	2840
534.503	2610
534.570	3581
534.637	3417
534.705	4567
534.772	4605
534.840	8657
534.907	44835
534.974	69313
535.041	9861
535.109	3507
535.176	2234
535.243	2841
535.310	1747
535.378	1847
535.445	3471
535.512	1647
535.579	2733
535.646	1389
535.714	2720
535.781	5540
535.848	5049
535.915	4761
535.982	3188
536.049	3645
536.116	4068
536.183	2755
536.250	3041
536.317	2760
536.384	3227
536.451	4520
536.518	4331
536.585	2666
536.652	6340
536.719	5668
536.786	2805
536.853	2719
536.920	5025
536.987	6414
537.053	5093
537.120	19678
537.187	21390
537.254	3309
537.321	1831
537.388	3757
537.454	1881
537.521	2712
537.588	2384
537.654	3457
537.721	6331
537.788	5674
537.855	3377
537.921	4053
537.988	3520
538.055	3455
538.121	2783
538.188	2717
538.254	4642
538.321	6393
538.388	5810
538.454	2615
538.521	3081
538.587	2635
538.654	2559
538.720	2356
538.787	3170
538.853	2921
538.920	3579
538.986	4039
539.053	3376
539.119	2250
539.185	3486
539.252	3670
539.318	5203
539.385	6376
539.451	4979
539.517	6020
539.583	5981
539.650	7305
539.716	17102
539.782	7158
539.849	2500
539.915	3913
539.981	2711
540.047	3787
540.114	4049
540.180	5041
540.246	3102
540.312	4316
540.378	6970
540.444	8447
540.510	7630
540.576	17305
540.643	7576
540.709	1952
540.775	3354
540.841	2638
540.907	4790
540.973	6889
541.039	6864
541.105	6304
541.171	4981
541.237	2659
541.303	4626
541.369	6137
541.435	4934
541.500	7115
541.566	4489
541.632	2588
541.698	3758
541.764	3669
541.830	3390
541.896	2687
541.961	3385
542.027	3599
542.093	4142
542.159	4334
542.224	3270
542.290	7794
542.356	7463
542.421	8015
542.487	5161
542.553	4420
542.618	4387
542.684	3713
542.750	3197
542.815	3940
542.881	4904
542.947	14581
543.012	13957
543.078	3450
543.143	3130
543.209	4288
543.274	3749
543.340	3947
543.405	6663
543.471	9833
543.536	5146
543.602	3811
543.667	2826
543.732	5336
543.798	3014
543.863	4087
543.928	3658
543.994	2973
544.059	3907
544.124	3540
544.190	3452
544.255	4207
544.320	3916
544.386	3184
544.451	5028
544.516	4708
544.581	5222
544.646	10093
544.712	17934
544.777	6953
544.842	5220
544.907	4106
544.972	4234
545.037	4046
545.102	5576
545.168	4390
545.233	5054
545.298	5425
545.363	5033
545.428	6065
545.493	8343
545.558	13724
545.623	8564
545.688	4574
545.753	4887
545.818	4324
545.883	5310
545.947	5070
546.012	5417
546.077	5013
546.142	6263
546.207	4085
546.272	6162
546.337	5858
546.401	6364
546.466	5812
546.531	5301
546.596	6540
546.661	6059
546.725	6473
546.790	4920
546.855	5885
546.919	4871
546.984	7163
547.049	6900
547.113	8617
547.178	7226
547.243	9130
547.307	10587
547.372	11009
547.436	10454
547.501	10235
547.565	11588
547.630	11324
547.695	11428
547.759	12133
547.823	10894
547.888	11290
547.952	11780
548.017	13398
548.081	16014
548.146	15124
548.210	12867
548.274	11866
548.339	12325
548.403	12677
548.468	10554
548.532	10588
548.596	11154
548.660	11100
548.725	12161
548.789	12867
548.853	13801
548.917	11618
548.982	13034
549.046	12024
549.110	9416
549.174	10579
549.238	10973
549.303	11422
549.367	13714
549.431	12392
549.495	11129
549.559	10844
549.623	11890
549.687	13760
549.751	15138
549.815	16058
549.879	16739
549.943	14161
550.007	16536
550.071	15932
550.135	14802
550.199	14103
550.263	13596
550.327	13803
550.391	16062
550.455	16891
550.519	15449
550.582	15795
550.646	19088
550.710	18920
550.774	19058
550.838	18077
550.901	18232
550.965	20406
551.029	20901
551.093	24057
551.156	27617
551.220	36710
551.284	41420
551.347	27563
551.411	27695
551.475	28485
551.538	20732
551.602	18767
551.666	17357
551.729	15413
551.793	16196
551.856	15461
551.920	15683
551.983	14703
552.047	14248
552.110	15399
552.174	15860
552.237	15005
552.301	14295
552.364	13460
552.428	13159
552.491	12807
552.554	14012
552.618	14297
552.681	14304
552.745	13660
552.808	16954
552.871	20989
552.934	17954
552.998	14218
553.061	14263
553.124	13911
553.187	13784
553.251	14298
553.314	14495
553.377	14407
553.440	18478
553.503	35782
553.567	58626
553.630	20201
553.693	14541
553.756	15114
553.819	13307
553.882	12040
553.945	13115
554.008	12508
554.071	11494
554.134	12814
554.197	12686
554.260	11655
554.323	12973
554.386	12534
554.449	11985
554.512	12101
554.575	11109
554.638	11631
554.701	12525
554.764	11093
554.827	11665
554.889	10473
554.952	9754
555.015	9011
555.078	10332
555.141	10706
555.203	9915
555.266	9543
555.329	10362
555.391	8633
555.454	9349
555.517	9629
555.580	9081
555.642	8419
555.705	8246
555.768	8152
555.830	9163
555.893	8112
555.955	8904
556.018	7504
556.080	7089
556.143	8384
556.206	8013
556.268	7702
556.330	8708
556.393	7960
556.455	7982
556.518	9304
556.580	9665
556.643	6791
556.705	6781
556.767	6276
556.830	7519
556.892	7021
556.955	7893
557.017	7776
557.079	6982
557.142	5765
557.204	6405
557.266	9450
557.328	9547
557.391	5737
557.453	5406
557.515	6180
557.577	6192
557.639	7451
557.701	5887
557.764	5525
557.826	6189
557.888	7932
557.950	7226
558.012	8253
558.074	12610
558.136	26591
558.198	79455
558.260	34028
558.322	10904
558.384	10899
558.446	14224
558.508	15504
558.570	19818
558.632	25528
558.694	34625
558.756	49450
558.818	159191
558.880	473631
558.942	169794
559.003	88725
559.065	50554
559.127	19227
559.189	16827
559.251	17721
559.312	26320
559.374	67924
559.436	262295
559.498	156577
559.559	23935
559.621	17736
559.683	18520
559.744	29520
559.806	101717
559.868	190944
559.929	39056
559.991	16918
560.052	23902
560.114	72630
560.176	54424
560.237	39026
560.299	74179
560.360	18006
560.422	5882
560.483	4647
560.545	4599
560.606	4457
560.667	3662
560.729	3573
560.790	3905
560.852	3379
560.913	3486
560.974	3467
561.036	4114
561.097	4001
561.158	3628
561.220	4280
561.281	3179
561.342	3067
561.403	4403
561.465	4016
561.526	7515
561.587	12814
561.648	4972
561.709	3254
561.771	2751
561.832	3676
561.893	3768
561.954	3537
562.015	2696
562.076	2878
562.137	2711
562.198	3073
562.259	3714
562.320	3296
562.381	3732
562.442	3571
562.503	4568
562.564	3738
562.625	3367
562.686	3351
562.747	2952
562.808	2219
562.869	3225
562.930	3191
562.991	3315
563.051	3497
563.112	2816
563.173	2786
563.234	2559
563.294	3910
563.355	2239
563.416	3840
563.477	3265
563.537	3017
563.598	3057
563.659	3133
563.720	2856
563.780	3227
563.841	3429
563.901	3810
563.962	3489
564.023	3263
564.083	4533
564.144	4494
564.204	3287
564.265	2705
564.325	4271
564.386	6956
564.446	7720
564.507	4621
564.567	3315
564.628	4084
564.688	3242
564.749	3543
564.809	4802
564.869	5528
564.930	3446
564.990	4704
565.050	4472
565.111	5084
565.171	5091
565.231	4836
565.292	5759
565.352	4824
565.412	4928
565.472	5913
565.532	5649
565.593	5370
565.653	5942
565.713	5729
565.773	6400
565.833	6146
565.893	8062
565.953	6464
566.013	6924
566.074	7254
566.134	9399
566.194	10080
566.254	11620
566.314	10864
566.374	8623
566.434	10034
566.494	11208
566.554	11528
566.614	12878
566.673	13501
566.733	14529
566.793	16162
566.853	16718
566.913	16928
566.973	18516
567.033	17908
567.092	17807
567.152	16956
567.212	17702
567.272	19604
567.331	19705
567.391	22248
567.451	24356
567.511	25316
567.570	25109
567.630	22251
567.690	20810
567.749	21638
567.809	23651
567.868	28469
567.928	31979
567.988	38679
568.047	48058
568.107	60996
568.166	87960
568.226	139429
568.285	203265
568.345	189850
568.404	152950
568.464	129328
568.523	117531
568.582	116741
568.642	125340
568.701	153000
568.761	220015
568.820	344469
568.879	362608
568.939	280503
568.998	208611
569.057	159659
569.116	123747
569.176	98939
569.235	79656
569.294	66328
569.353	55656
569.413	46753
569.472	39854
569.531	35799
569.590	31606
569.649	28354
569.708	24864
569.767	22495
569.827	20948
569.886	18781
569.945	16947
570.004	15927
570.063	14253
570.122	14513
570.181	12975
570.240	12582
570.299	12237
570.358	10201
570.417	10899
570.475	9168
570.534	9260
570.593	8917
570.652	8112
570.711	7595
570.770	7879
570.829	8867
570.887	8340
570.946	7256
571.005	6384
571.064	6537
571.122	6255
571.181	5659
571.240	5641
571.299	5569
571.357	6781
571.416	5282
571.475	6189
571.533	5861
571.592	5253
571.650	4956
571.709	5264
571.768	5723
571.826	4796
571.885	3932
571.943	4585
572.002	4187
572.060	4253
572.119	4113
572.177	4390
572.236	3411
572.294	4302
572.352	4231
572.411	3890
572.469	3973
572.528	3051
572.586	3918
572.644	3847
572.703	3557
572.761	3929
572.819	3370
572.877	3374
572.936	3051
572.994	3892
573.052	3986
573.110	4077
573.169	3842
573.227	2833
573.285	3455
573.343	3318
573.401	3622
573.459	3750
573.517	3418
573.576	3120
573.634	2875
573.692	2890
573.750	3227
573.808	3485
573.866	3368
573.924	3757
573.982	3868
574.040	3192
574.098	3553
574.155	2902
574.213	2718
574.271	3119
574.329	3784
574.387	2305
574.445	1844
574.503	2850
574.560	2788
574.618	1923
574.676	2651
574.734	3316
574.792	2208
574.849	2341
574.907	3067
574.965	3213
575.022	3085
575.080	2081
575.138	2848
575.195	3233
575.253	3135
575.311	2045
575.368	2992
575.426	2919
575.483	4348
575.541	2711
575.598	3134
575.656	2662
575.713	2811
575.771	2921
575.828	2969
575.886	2604
575.943	3701
576.001	3007
576.058	2189
576.115	2817
576.173	3551
576.230	3772
576.287	3908
576.345	3057
576.402	3303
576.459	3655
576.517	3332
576.574	3628
576.631	3219
576.688	2747
576.746	2673
576.803	2880
576.860	2569
576.917	2763
576.974	3118
577.031	2722
577.089	2637
577.146	2720
577.203	3320
577.260	3483
577.317	3123
577.374	3813
577.431	3382
577.488	2936
577.545	2623
577.602	3529
577.659	3589
577.716	3004
577.773	3987
577.830	3252
577.886	4258
577.943	3672
578.000	3737
578.057	3048
578.114	4328
578.171	4033
578.227	4222
578.284	4356
578.341	4956
578.398	3189
578.454	3142
578.511	4169
578.568	4081
578.625	3628
578.681	4065
578.738	4056
578.794	2866
578.851	3972
578.908	3439
578.964	3560
579.021	3364
579.077	3738
579.134	3440
579.190	4260
579.247	3669
579.303	4299
579.360	3528
579.416	3353
579.473	2954
579.529	3327
579.586	4069
579.642	4348
579.698	3396
579.755	4280
579.811	4330
579.867	4049
579.924	3806
579.980	3994
580.036	4648
580.093	5776
580.149	5801
580.205	7767
580.261	6452
580.317	6016
580.374	4940
580.430	4827
580.486	4249
580.542	4308
580.598	4238
580.619	4298
580.654	4406
580.692	4413
580.710	4424
580.765	4309
580.767	4309
580.823	4516
580.838	4318
580.879	3832
580.911	3762
580.935	3705
580.984	4668
580.991	4809
581.047	4462
581.057	4582
581.103	5115
581.130	4887
581.159	4676
581.203	4692
581.215	4693
581.270	5022
581.276	4916
581.326	3983
581.349	4390
581.382	4966
581.422	4735
581.438	4672
581.494	3986
581.494	3987
581.550	4101
581.567	4515
581.606	5511
581.640	4613
581.661	4056
581.713	5662
581.717	5795
581.773	4878
581.786	4753
581.829	4339
581.859	4757
581.885	5135
581.932	5259
581.940	5278
581.996	5664
582.004	5637
582.052	5484
582.077	5130
582.107	4741
582.150	5814
582.163	6128
582.219	4855
582.223	4911
582.274	5736
582.296	5661
582.330	5522
582.368	5816
582.386	5931
582.441	5808
582.441	5809
582.497	5525
582.514	5284
582.552	4826
582.587	5666
582.608	6149
582.659	5704
582.663	5670
582.719	6078
582.732	6150
582.774	6502
582.805	6226
582.830	5926
582.877	6182
582.885	6242
582.941	5476
582.950	5551
582.996	5963
583.023	6187
583.052	6493
583.095	7020
583.107	7100
583.162	7494
583.168	7477
583.218	7548
583.240	7501
583.273	7199
583.313	6777
583.328	6756
583.384	6382
583.385	6388
583.439	6195
583.458	6235
583.494	6466
583.531	6673
583.549	6752
583.603	7117
583.605	7125
583.660	7000
583.676	6983
583.715	7012
583.748	7178
583.770	7296
583.820	7739
583.825	7767
583.881	7263
583.893	7189
583.936	7082
583.965	7077
583.991	7023
584.038	7267
584.046	7329
584.101	8108
584.110	8047
584.156	7660
584.183	7792
584.211	7859
584.255	7935
584.266	8013
584.321	8397
584.328	8456
584.376	8801
584.400	8747
584.431	8595
584.472	8270
584.486	8097
584.541	8511
584.545	8505
584.596	8967
584.617	8893
584.651	8749
584.689	9511
584.706	9682
584.761	9710
584.762	9709
584.816	9251
584.834	9442
584.871	10002
584.906	10413
584.926	10682
584.978	10874
584.980	10855
585.035	10526
585.051	10751
585.090	11750
585.123	11953
585.145	12045
585.195	12379
585.200	12406
585.254	13120
585.267	13520
585.309	14829
585.340	15519
585.364	16010
585.412	16262
585.419	16273
585.473	16913
585.484	17181
585.528	18730
585.556	20769
585.583	23837
585.628	32312
585.637	35113
585.692	65045
585.700	71322
585.747	98326
585.772	82995
585.801	57592
585.845	29268
585.856	24327
585.910	18236
585.917	17801
585.965	16839
585.989	16899
586.019	16801
586.061	16482
586.074	16480
586.128	16622
586.133	16709
586.183	17513
586.205	17444
586.237	17424
586.277	18446
586.292	18729
586.346	18039
586.349	18112
586.401	19499
586.421	19616
586.455	19600
586.493	20710
586.509	21501
586.564	22553
586.565	22620
586.618	24330
586.637	24710
586.672	24756
586.709	24375
586.727	24266
586.781	24680
586.781	24662
586.835	24824
586.853	25158
586.889	25700
586.925	25918
586.944	26269
586.996	27741
586.998	27737
587.052	28636
587.068	28964
587.106	30364
587.140	31633
587.161	31919
587.212	32418
587.215	32489
587.269	35008
587.284	35632
587.323	36154
587.356	37152
587.377	38210
587.427	40946
587.431	41069
587.485	42828
587.499	43554
587.539	45697
587.571	47513
587.593	49077
587.643	52892
587.648	53213
587.702	57937
587.715	59114
587.755	62370
587.786	65118
587.810	67150
587.858	72309
587.864	72919
587.917	80166
587.930	81993
587.971	88480
588.001	93699
588.025	97928
588.073	108869
588.079	110281
588.133	123221
588.145	126722
588.187	139320
588.217	149074
588.241	157923
588.288	177785
588.295	180470
588.348	207966
588.360	214562
588.402	242638
588.431	264354
588.456	283564
588.503	326105
588.510	333083
588.564	398939
588.575	414948
588.617	485685
588.646	541851
588.671	605388
588.718	739206
588.725	764970
588.778	992749
588.789	1041062
588.832	1257812
588.861	1385332
588.886	1423898
588.932	1394844
588.939	1374739
588.993	1213564
589.004	1218924
589.047	1364737
589.075	1419816
589.100	1340392
589.147	1108249
589.154	1078770
589.207	859258
589.218	820226
589.261	745708
589.290	711792
589.314	719886
589.361	762342
589.368	779182
589.421	952426
589.433	994059
589.475	1191299
589.504	1304210
589.528	1308522
589.576	1236166
589.582	1223630
589.635	1229015
589.647	1217388
589.689	1024760
589.718	852228
589.742	732305
589.790	511886
589.795	495495
589.849	370424
589.861	344856
589.902	288353
589.932	251817
589.955	231211
590.004	193560
590.009	190260
590.062	161598
590.075	155521
590.115	139798
590.146	128873
590.168	122152
590.218	108868
590.222	107748
590.275	96754
590.289	94305
590.328	87609
590.360	82575
590.381	79482
590.431	72898
590.435	72399
590.488	66822
590.503	65377
590.541	61505
590.574	58647
590.594	56840
590.645	52508
590.647	52283
590.700	49356
590.716	48515
590.753	46442
590.787	44903
590.806	44127
590.859	42114
590.859	41995
590.912	38971
590.930	38054
590.965	37220
591.001	36641
591.018	35919
591.071	33858
591.072	33890
591.124	32312
591.143	31851
591.177	30883
591.214	30016
591.230	29605
591.283	28380
591.285	28376
591.336	27135
591.356	26683
591.389	26420
591.427	26363
591.442	25898
591.495	24168
591.498	24082
591.547	23949
591.569	23942
591.600	23162
591.640	22127
591.653	22044
591.706	21958
591.711	21967
591.759	21635
591.782	21530
591.811	21177
591.853	20731
591.864	20596
591.917	19978
591.924	19918
591.969	19256
591.995	18900
592.022	18703
592.066	18486
592.075	18487
592.127	18604
592.137	18658
592.180	18613
592.208	18546
592.233	17891
592.279	16825
592.285	16807
592.338	16744
592.350	16779
592.390	16515
592.421	16294
592.443	16154
592.491	15941
592.495	15910
592.548	15765
592.562	15741
592.600	15205
592.633	14796
592.653	14525
592.704	13806
592.705	13879
592.775	13644
592.846	14236
592.916	13172
592.987	13303
593.058	12936
593.128	12354
593.199	11973
593.270	11933
593.341	12066
593.411	12549
593.482	11140
593.553	11649
593.623	10998
593.694	11699
593.764	11674
593.835	11271
593.906	10965
593.976	11273
594.047	10921
594.117	11447
594.188	10085
594.258	10855
594.329	9302
594.399	10014
594.470	9994
594.540	11105
594.611	10612
594.681	9962
594.751	10254
594.822	11303
594.892	9888
594.963	11014
595.033	11143
595.103	9801
595.174	10643
595.244	11847
595.314	12329
595.384	10459
595.455	9668
595.525	10901
595.595	10340
595.665	10986
595.736	10262
595.806	10156
595.876	10049
595.946	10101
596.016	9687
596.087	9955
596.157	9660
596.227	10326
596.297	10109
596.367	10467
596.437	10096
596.507	12148
596.577	12608
596.647	10857
596.717	11059
596.787	11806
596.857	10542
596.927	10778
596.997	10717
597.067	11148
597.137	10999
597.207	11224
597.277	11279
597.347	10672
597.417	10853
597.487	11869
597.557	10259
597.626	10740
597.696	9849
597.766	11315
597.836	12116
597.906	9819
597.975	9252
598.045	10005
598.115	9151
598.185	10181
598.254	12555
598.324	11996
598.394	12559
598.464	12459
598.533	11981
598.603	10836
598.672	10301
598.742	11481
598.812	10133
598.881	11501
598.951	10981
599.020	10122
599.090	11953
599.159	11837
599.229	11400
599.299	11234
599.368	9992
599.437	11142
599.507	9517
599.576	10423
599.646	10414
599.715	10869
599.785	9174
599.854	9661
599.924	9472
599.993	10440
600.062	10075
600.132	9767
600.201	10192
600.270	11494
600.340	10923
600.409	11572
600.478	10590
600.547	11843
600.617	10408
600.686	9808
600.755	8098
600.824	8985
600.894	7785
600.963	8808
601.032	8301
601.101	8889
601.170	7658
601.239	7596
601.308	8109
601.378	8105
601.447	7145
601.516	7694
601.585	7198
601.654	7077
601.723	6842
601.792	8341
601.861	7746
601.930	9814
601.999	8396
602.068	8002
602.137	8164
602.206	9160
602.275	7907
602.343	8403
602.412	7361
602.481	7792
602.550	7716
602.619	8202
602.688	8538
602.756	8091
602.825	8186
602.894	8349
602.963	8379
603.032	8345
603.100	8715
603.169	8852
603.238	8440
603.307	10175
603.375	7819
603.444	9720
603.513	9155
603.581	9674
603.650	9392
603.719	8622
603.787	8079
603.856	9569
603.924	9241
603.993	9759
604.061	8835
604.130	11127
604.198	10372
604.267	10789
604.335	11040
604.404	10887
604.472	10884
604.541	11163
604.609	11150
604.678	11075
604.746	11431
604.815	11558
604.883	11081
604.951	11614
605.020	11966
605.088	12721
605.156	11750
605.225	11857
605.293	11921
605.361	12129
605.429	11913
605.498	12296
605.566	12512
605.634	14000
605.702	14173
605.771	14042
605.839	13823
605.907	13969
605.975	13117
606.043	13677
606.111	13253
606.180	12973
606.248	13028
606.316	14736
606.384	11994
606.452	13623
606.520	12822
606.588	13866
606.656	12140
606.724	12257
606.792	12556
606.860	11381
606.928	9350
606.996	9907
607.064	9235
607.132	9395
607.200	10423
607.267	10686
607.335	10055
607.403	11630
607.471	9953
607.539	11274
607.607	10356
607.674	9666
607.742	9509
607.810	9557
607.878	9143
607.946	9291
608.013	9488
608.081	10806
608.149	10173
608.216	10753
608.284	10874
608.352	11089
608.419	9641
608.487	12373
608.555	9350
608.622	10331
608.690	10412
608.757	11923
608.825	12550
608.893	12935
608.960	11629
609.028	11377
609.095	12158
609.163	11313
609.230	9249
609.298	9449
609.365	9445
609.432	10378
609.500	10821
609.567	13237
609.635	14052
609.702	15553
609.769	13906
609.837	12192
609.904	10208
609.971	11465
610.039	14207
610.106	19298
610.173	35855
610.241	89511
610.308	57113
610.375	21587
610.442	11896
610.509	10071
610.577	10935
610.644	10544
610.711	10984
610.778	11477
610.845	11198
610.912	12383
610.980	12990
611.047	14026
611.114	13174
611.181	11888
611.248	10215
611.315	13432
611.382	12067
611.449	12033
611.516	13245
611.583	12810
611.650	13068
611.717	14146
611.784	13547
611.851	16582
611.918	18447
611.984	22154
612.051	37568
612.118	79258
612.185	206287
612.252	124598
612.319	24626
612.386	19307
612.452	16909
612.519	14978
612.586	15401
612.653	15774
612.719	15197
612.786	13852
612.853	12629
612.919	13176
612.986	13983
613.053	11607
613.120	11413
613.186	11079
613.253	11795
613.319	12430
613.386	11477
613.453	11747
613.519	12790
613.586	11621
613.652	13495
613.719	12506
613.785	11892
613.852	11508
613.918	11511
613.985	13634
614.051	14902
614.118	21769
614.184	19811
614.250	12051
614.317	11777
614.383	11729
614.449	11477
614.516	11908
614.582	12429
614.648	11912
614.715	11118
614.781	11827
614.847	11036
614.914	11884
614.980	10750
615.046	12172
615.112	12474
615.179	14496
615.245	14735
615.311	20013
615.377	35877
615.443	38434
615.509	21962
615.575	17176
615.642	14747
615.708	17409
615.774	17638
615.840	22218
615.906	30428
615.972	48691
616.038	95670
616.104	150505
616.170	287038
616.236	231248
616.302	47222
616.368	28742
616.434	19049
616.500	18266
616.565	18970
616.631	23382
616.697	19363
616.763	19887
616.829	30071
616.895	53081
616.961	50071
617.026	21137
617.092	13791
617.158	13585
617.224	12492
617.289	11279
617.355	10273
617.421	9785
617.487	10866
617.552	9637
617.618	9609
617.684	9164
617.749	11591
617.815	9152
617.880	9293
617.946	9578
618.012	8184
618.077	8835
618.143	8809
618.208	9375
618.274	8423
618.339	9784
618.405	7076
618.470	8504
618.536	7442
618.601	8334
618.667	6619
618.732	7344
618.798	6452
618.863	7331
618.928	6709
618.994	7268
619.059	7816
619.124	8134
619.190	7556
619.255	6761
619.320	7337
619.386	6677
619.451	5658
619.516	6614
619.581	6813
619.647	7435
619.712	6816
619.777	7047
619.842	5983
619.907	7141
619.972	6838
620.038	6638
620.103	6423
620.168	5516
620.233	7068
620.298	5882
620.363	6811
620.428	8088
620.493	6671
620.558	6991
620.623	6188
620.688	7047
620.753	7073
620.818	7371
620.883	6453
620.948	7695
621.013	6520
621.078	7517
621.143	5130
621.207	9206
621.272	6118
621.337	6451
621.402	7013
621.467	8417
621.532	6848
621.596	7450
621.661	6926
621.726	7123
621.791	6551
621.855	6876
621.920	6469
621.985	6616
622.049	7346
622.114	6844
622.179	7590
622.243	6893
622.308	6948
622.373	9532
622.437	7883
622.502	6380
622.566	7631
622.631	6882
622.695	7885
622.760	8117
622.824	6947
622.889	7483
622.953	5947
623.018	8009
623.082	7939
623.147	7191
623.211	6363
623.276	7966
623.340	5924
623.404	6971
623.469	6736
623.533	7793
623.597	6546
623.662	6697
623.726	6004
623.790	5650
623.854	5250
623.919	5990
623.983	5485
624.047	5721
624.111	5733
624.176	6534
624.240	5061
624.304	6872
624.368	5620
624.432	6600
624.496	6952
624.560	6946
624.625	5936
624.689	6907
624.753	6161
624.817	6964
624.881	6338
624.945	5641
625.009	5295
625.073	6043
625.137	5243
625.201	6634
625.265	6647
625.329	6256
625.393	5643
625.456	6361
625.520	6069
625.584	7411
625.648	7178
625.712	8703
625.776	14774
625.839	16321
625.903	7470
625.967	6158
626.031	8142
626.095	10861
626.158	5607
626.222	3794
626.286	3909
626.349	3468
626.413	2829
626.477	4737
626.540	3466
626.604	3631
626.668	5064
626.731	3737
626.795	3481
626.858	4234
626.922	2723
626.986	4174
627.049	2709
627.113	3846
627.176	3439
627.240	3351
627.303	3243
627.366	4110
627.430	3493
627.493	4375
627.557	2729
627.620	4822
627.684	3410
627.747	3363
627.810	1847
627.874	3822
627.937	1474
628.000	5012
628.064	3433
628.127	2115
628.190	3216
628.253	3114
628.317	1880
628.380	2147
628.443	2733
628.506	2783
628.569	2335
628.632	1966
628.696	1931
628.759	1929
628.822	1036
628.885	1336
628.948	1731
629.011	2761
629.074	2175
629.137	2178
629.200	891
629.263	3908
629.326	935
629.389	1975
629.452	1945
629.515	2031
629.578	1200
629.641	3025
629.704	893
629.767	2183
629.830	1783
629.892	2483
629.955	346
630.018	3501
630.081	946
630.144	2328
630.207	398
630.269	2773
630.332	1518
630.395	1365
630.458	1245
630.520	979
630.583	2074
630.646	1763
630.708	1317
630.771	1542
630.834	1789
630.896	956
630.959	1345
631.021	660
631.084	1138
631.146	2167
631.209	2376
631.272	1518
631.334	1391
631.397	1140
631.459	973
631.522	2282
631.584	1441
631.646	2497
631.709	1632
631.771	3035
631.834	2138
631.896	2077
631.958	855
632.021	2020
632.083	258
632.145	1828
632.208	1244
632.270	2659
632.332	611
632.395	497
632.457	1798
632.519	1286
632.581	2212
632.643	1124
632.706	1090
632.768	1626
632.830	1595
632.892	1443
632.954	1213
633.016	1816
633.078	1228
633.141	2094
633.203	601
633.265	1993
633.327	1596
633.389	1360
633.451	851
633.513	2309
633.575	1110
633.637	1953
633.698	761
633.760	2019
633.822	1927
633.884	2149
633.946	1571
634.008	1956
634.070	1392
634.132	2562
634.193	1637
634.255	2349
634.317	1507
634.379	3477
634.441	1105
634.502	1923
634.564	1771
634.626	1737
634.687	2150
634.749	1099
634.811	1758
634.873	1825
634.934	2156
634.996	2058
635.057	1378
635.119	977
635.181	1294
635.242	1932
635.304	134
635.365	3773
635.427	441
635.488	1921
635.550	1255
635.611	2107
635.673	-1277
635.734	3052
635.796	1564
635.857	2786
635.918	1414
635.980	4136
636.041	1465
636.102	3176
636.164	1309
636.225	2891
636.286	463
636.348	2284
636.409	1081
636.470	1127
636.531	1012
636.593	1658
636.654	1633
636.715	2059
636.776	517
636.838	683
636.899	764
636.960	656
637.021	988
637.082	1271
637.143	1803
637.204	-119
637.265	268
637.326	1418
637.387	1051
637.448	210
637.509	597
637.570	744
637.631	2073
637.692	-333
637.753	-70
637.814	1602
637.875	924
637.936	1805
637.997	-114
638.058	1795
638.119	1331
638.179	206
638.240	829
638.301	423
638.362	-553
638.423	719
638.483	737
638.544	235
638.605	-175
638.666	179
638.726	1022
638.787	2142
638.848	933
638.908	1041
638.969	-21
639.030	782
639.090	-740
639.151	5
639.211	381
639.272	1553
639.332	1336
639.393	1357
639.453	-292
639.514	728
639.574	1024
639.635	-18
639.695	1123
639.756	-948
639.816	512
639.877	482
639.937	1492
639.997	1352
640.058	147
640.118	-77
640.178	920
640.239	1221
640.299	41
640.359	191
640.420	619
640.480	1340
640.540	991
640.600	487
640.661	907
640.721	-20
640.781	2571
640.841	1452
640.901	1577
640.961	1532
641.021	957
641.082	-342
641.142	426
641.202	2389
641.262	-1088
641.322	684
641.382	-703
641.442	1113
641.502	-22
641.562	1654
641.622	-368
641.682	323
641.742	-848
641.802	997
641.861	820
641.921	90
641.981	519
642.041	1459
642.101	466
642.161	-495
642.221	-457
642.280	1645
642.340	-165
642.400	-473
642.460	1172
642.519	952
642.579	-68
642.639	1094
642.698	-1714
642.758	2865
642.818	-62
642.877	-79
642.937	247
642.997	1349
643.056	-30
643.116	-369
643.175	1201
643.235	462
643.294	760
643.354	1457
643.414	1264
643.473	2494
643.532	2544
643.592	4823
643.651	10104
643.711	17710
643.770	34067
643.830	82105
643.889	181827
643.948	45224
644.008	4700
644.067	2871
644.126	848
644.186	1857
644.245	1798
644.304	-363
644.363	1921
644.423	130
644.482	804
644.541	1426
644.600	-1489
644.659	2402
644.719	952
644.778	3378
644.837	5381
644.896	13631
644.955	32156
645.014	11160
645.073	2542
645.132	643
645.191	645
645.250	405
645.309	1977
645.368	1272
645.427	1780
645.486	1473
645.545	5743
645.604	831
645.663	832
645.722	1466
645.781	1673
645.840	1709
645.898	1975
645.957	5872
646.016	7192
646.075	15431
646.134	29735
646.192	77713
646.251	121408
646.310	16833
646.369	3221
646.427	2897
646.486	51
646.545	1389
646.603	574
646.662	1005
646.721	693
646.779	424
646.838	133
646.896	1195
646.955	1855
647.014	3753
647.072	5982
647.131	18355
647.189	8551
647.248	11
647.306	1007
647.365	868
647.423	-1163
647.481	1607
647.540	-1745
647.598	-112
647.657	-570
647.715	1089
647.773	-614
647.832	1118
647.890	-747
647.948	-366
648.007	680
648.065	-1328
648.123	-510
648.181	1580
648.240	723
648.298	494
648.356	-535
648.414	776
648.472	678
648.531	1083
648.589	452
648.647	531
648.705	-134
648.763	-92
648.821	-295
648.879	-667
648.937	1045
648.995	1394
649.053	1304
649.111	3468
649.169	5366
649.227	9718
649.285	20760
649.343	61503
649.401	32668
649.459	5492
649.516	3445
649.574	1062
649.632	5763
649.690	5981
649.748	2450
649.806	1748
649.863	6080
649.921	13779
649.979	8321
650.037	1560
650.094	-1194
650.152	683
650.210	-1373
650.268	519
650.325	927
650.383	763
650.440	-906
650.498	1154
650.556	384
650.613	-141
650.671	-286
650.728	238
650.786	-534
650.843	570
650.901	-1309
650.958	-102
651.016	-408
651.073	-19
651.131	-1013
651.188	-1459
651.246	505
651.303	-834
651.360	-1109
651.418	-400
651.475	-409
651.532	-703
651.590	-702
651.647	-632
651.704	-677
651.762	-653
651.819	-771
651.876	-265
651.933	-654
651.990	710
652.048	-1219
652.105	-642
652.162	-447
652.219	-824
652.276	186
652.333	-250
652.390	-1955
652.448	-307
652.505	-692
652.562	-167
652.619	-714
652.676	687
652.733	511
652.790	-168
652.847	-1724
652.904	-245
652.961	-1322
653.017	-993
653.074	-367
653.131	-92
653.188	-1437
653.245	-457
653.302	-1066
653.359	-568
653.415	-1237
653.472	-53
653.529	416
653.586	-1419
653.642	-1465
653.699	241
653.756	-1250
653.813	-562
653.869	-417
653.926	-807
653.983	-1128
654.039	1226
654.096	-1131
654.152	298
654.209	-1654
654.266	-89
654.322	-1766
654.379	450
654.435	66
654.492	-378
654.548	-476
654.605	-369
654.661	266
654.717	-961
654.774	-686
654.830	-599
654.887	-524
654.943	-565
655.000	-357
655.056	505
655.112	-500
655.168	-1119
655.225	-940
655.281	233
655.337	296
655.394	596
655.450	-278
655.506	-368
655.562	44
655.618	1640
655.675	-751
655.731	692
655.787	-404
655.843	1465
655.899	322
655.955	1989
656.011	717
656.067	236
656.123	2009
656.179	2851
656.235	4049
656.291	637
656.347	2289
656.403	1332
656.459	503
656.515	1549
656.571	1021
656.627	888
656.683	-119
656.739	544
656.795	-156
656.850	-82
656.906	-91
656.962	126
657.018	-496
657.074	-710
657.129	-830
657.185	721
657.241	-490
657.297	334
657.352	-280
657.408	-168
657.464	149
657.519	-622
657.575	-808
657.630	-75
657.686	-468
657.742	-1278
657.797	-703
657.853	-631
657.908	-380
657.964	-445
658.019	-1246
658.075	277
658.130	-223
658.186	-1362
658.241	-952
658.297	-1083
658.352	-1190
658.407	447
658.463	-1860
658.518	-616
658.573	-1005
658.629	-846
658.684	-1805
658.739	368
658.795	-1348
658.850	-114
658.905	-1378
658.960	-582
659.016	-1822
659.071	-291
659.126	-1480
659.181	-474
659.236	-249
659.291	1109
659.346	-806
659.401	-332
659.457	-553
659.512	-76
659.567	194
659.622	-631
659.677	-199
659.732	-1962
659.787	-1036
659.842	-664
659.897	-901
659.952	-151
660.007	-912
660.061	-425
660.116	-1262
660.171	-1382
660.226	-424
660.281	-391
660.336	-1612
660.391	512
660.445	-1154
660.500	-651
660.555	-1250
660.610	-843
660.664	-744
660.719	-830
660.774	-542
660.828	-32
660.883	-1093
660.938	-892
660.992	-1717
661.047	21
661.101	-1181
661.156	-1127
661.211	-2178
661.265	592
661.320	-1245
661.374	-432
661.429	-885
661.483	57
661.538	-1432
661.592	-866
661.647	-897
661.701	435
661.755	-108
661.810	-893
661.864	-811
661.919	-1138
661.973	-537
662.027	-928
662.081	-1413
662.136	-312
662.190	-1199
662.244	-1020
662.299	-985
662.353	-78
662.407	-1351
662.461	-939
662.515	-1360
662.569	-1402
662.624	-883
662.678	-1300
662.732	-860
662.786	-673
662.840	-904
662.894	-367
662.948	-1058
663.002	-470
663.056	-694
663.110	-1066
663.164	-1598
663.218	-953
663.272	-857
663.326	-497
663.380	-1297
663.434	-505
663.488	-1567
663.542	-889
663.595	-943
663.649	-716
663.703	-244
663.757	-439
663.811	-1280
663.864	-644
663.918	-560
663.972	-572
664.026	-1286
664.079	-457
664.133	-665
664.187	-836
664.240	-585
664.294	-1142
664.348	6
664.401	-471
664.455	-1197
664.508	-405
664.562	-730
664.615	-644
664.669	-922
664.722	-186
664.776	-980
664.829	-715
664.883	-1065
664.936	-1392
664.990	-1416
665.043	-444
665.097	-1049
665.150	474
665.203	-1148
665.257	-467
665.310	-1247
665.363	-1150
665.417	-36
665.470	-541
665.523	-732
665.576	-250
665.630	-811
665.683	-305
665.736	-1173
665.789	-639
665.842	-1107
665.895	-566
665.949	-1296
666.002	-115
666.055	-829
666.108	102
666.161	-1437
666.214	-19
666.267	-1275
666.320	-448
666.373	-406
666.426	-200
666.479	-1049
666.532	-1022
666.585	-1345
666.638	-282
666.691	-1350
666.744	-696
666.796	-1448
666.849	-761
666.902	-779
666.955	-1198
667.008	-1386
667.060	-1081
667.113	-1071
667.166	-516
667.219	-595
667.271	-468
667.324	-562
667.377	-394
667.430	-557
667.482	549
667.535	-1039
667.587	-1193
667.640	-1325
667.693	-1230
667.745	-1003
667.798	-155
667.850	-1020
667.903	-929
667.955	-828
668.008	-1145
668.060	-1461
668.113	-1076
668.165	-1461
668.218	-362
668.270	-749
668.322	-288
668.375	-826
668.427	-525
668.479	-1044
668.532	-195
668.584	-497
668.636	-583
668.689	-1285
668.741	-1084
668.793	-1596
668.845	-135
668.898	-1104
668.950	-870
669.002	-834
669.054	-1334
669.106	-1047
669.158	-453
669.211	-964
669.263	-424
669.315	-720
669.367	-103
669.419	-347
669.471	1073
669.523	-402
669.575	1600
669.627	-682
669.679	-841
669.731	-504
669.783	69
669.835	76
669.886	-669
669.938	-507
669.990	-220
670.042	-1792
670.094	-744
670.146	-1035
670.197	-6
670.249	467
670.301	-25
670.353	1786
670.404	3955
670.456	5277
670.508	10099
670.560	16961
670.611	28345
670.663	48315
670.715	118267
670.766	202403
670.818	65919
670.869	7958
670.921	4419
670.972	2335
671.024	787
671.075	600
671.127	838
671.178	-489
671.230	75
671.281	-487
671.333	-408
671.384	-1187
671.436	-220
671.487	258
671.538	1216
671.590	1062
671.641	2073
671.692	3428
671.744	8984
671.795	5580
671.846	930
671.897	-226
671.949	-564
672.000	-1207
672.051	-1088
672.102	172
672.153	-743
672.204	-1373
672.256	-757
672.307	-800
672.358	-245
672.409	-1123
672.460	299
672.511	-1074
672.562	-897
672.613	-1792
672.664	-1371
672.715	-1512
672.766	-995
672.817	-1220
672.868	-846
672.919	-1567
672.970	-998
673.021	-1308
673.071	-1084
673.122	-193
673.173	-182
673.224	-926
673.275	-544
673.326	-1915
673.376	-223
673.427	-1469
673.478	-1574
673.528	-878
673.579	-681
673.630	-1569
673.680	-244
673.731	-929
673.782	-867
673.832	-1745
673.883	-305
673.934	-1383
673.984	-590
674.035	-1498
674.085	-934
674.136	-1166
674.186	-1227
674.237	-1375
674.287	-484
674.338	-1094
674.388	-999
674.438	-1863
674.489	-679
674.539	-899
674.589	-729
674.640	-905
674.690	-1138
674.740	-1619
674.791	-1462
674.841	-1386
674.891	-760
674.942	-821
674.992	-1062
675.042	-1354
675.092	-1677
675.142	-1259
675.193	-1067
675.243	-850
675.293	-991
675.343	-1407
675.393	-1324
675.443	-935
675.493	-866
675.543	-1705
675.593	-1279
675.643	-1248
675.693	-1370
675.743	-1202
675.793	-1067
675.843	-1050
675.893	-1279
675.943	-448
675.993	-755
676.043	-1021
676.093	-468
676.142	-1674
676.192	-1016
676.242	-2255
676.292	-1523
676.341	-1601
676.391	-852
676.441	-1522
676.491	-860
676.540	-1806
676.590	-407
676.640	-1305
676.689	-866
676.739	-1222
676.789	-849
676.838	-2207
676.888	-1203
676.937	-1366
676.987	-829
677.037	-1547
677.086	-1441
677.136	-628
677.185	-964
677.235	-2245
677.284	-1877
677.333	-1807
677.383	-1771
677.432	-1443
677.482	-717
677.531	-1287
677.580	-773
677.630	-1736
677.679	-1401
677.728	-1717
677.778	-1502
677.827	-1801
677.876	-284
677.925	-1601
677.975	-781
678.024	-1005
678.073	-1240
678.122	-1018
678.171	-1565
678.220	-1649
678.269	-335
678.319	-1668
678.368	-773
678.417	-987
678.466	-598
678.515	-1302
678.564	-1408
678.613	-2144
678.662	-1836
678.711	-1643
678.760	-970
678.809	-1528
678.857	-2084
678.906	-1296
678.955	-1371
679.004	-1127
679.053	-1168
679.102	-1479
679.151	-971
679.199	-1641
679.248	-1472
679.297	-1463
679.346	-889
679.394	-2167
679.443	-1314
679.492	-1160
679.540	-1488
679.589	-893
679.638	-1289
679.686	-1720
679.735	-840
679.784	-1733
679.832	-1198
679.881	-1252
679.929	-973
679.978	-1314
680.026	-1447
680.075	-1659
680.123	-1484
680.172	-1488
680.220	-1000
680.268	-2177
680.317	-1739
680.365	-862
680.414	-1830
680.462	-1381
680.510	-1193
680.559	-1847
680.607	-511
680.655	-1735
680.703	-1095
680.752	-2048
680.800	-1045
680.848	-1658
680.896	-1614
680.945	-2090
680.993	-2154
681.041	-1242
681.089	-943
681.137	-2032
681.185	-1052
681.233	-1161
681.258	-1314
681.281	-1466
681.329	-1458
681.377	-1253
681.380	-1233
681.425	-963
681.473	-1059
681.502	-1635
681.521	-2055
681.569	-1285
681.617	-1618
681.624	-1572
681.665	-1307
681.713	-1437
681.745	-1398
681.761	-1394
681.809	-2066
681.857	-1353
681.867	-1138
681.904	-410
681.952	-646
681.989	-1151
682.000	-1314
682.048	-1320
682.096	-2083
682.111	-1841
682.143	-1346
682.191	-2019
682.233	-954
682.239	-796
682.286	-742
682.334	-1005
682.354	-1136
682.382	-1342
682.430	-318
682.476	-840
682.477	-858
682.525	-923
682.572	-2024
682.598	-1639
682.620	-1317
682.667	-2051
682.715	-415
682.720	-517
682.763	-1510
682.810	-1394
682.841	-1655
682.857	-1780
682.905	-1189
682.952	-1120
682.963	-972
683.000	-571
683.047	-1795
683.085	-610
683.095	-287
683.142	-1384
683.190	-732
683.206	-884
683.237	-1163
683.284	-230
683.328	-1652
683.332	-1774
683.379	-437
683.426	-1592
683.449	-1222
683.473	-823
683.521	-1173
683.568	-1057
683.571	-1047
683.615	-1091
683.662	-157
683.693	-403
683.709	-542
683.757	-957
683.804	-1399
683.814	-1205
683.851	-555
683.898	-1315
683.936	-973
683.945	-878
683.992	-743
684.039	-873
684.057	-1058
684.086	-1402
684.133	-594
684.179	-1281
684.180	-1308
684.227	-352
684.274	-708
684.300	-711
684.321	-672
684.368	-1351
684.415	-724
684.422	-673
684.462	-498
684.509	-487
684.543	-760
684.556	-842
684.603	-535
684.649	-420
684.665	-451
684.696	-544
684.743	-988
684.786	-511
684.790	-471
684.837	-1004
684.883	-182
684.908	-316
684.930	-464
684.977	145
685.023	-1329
685.029	-1225
685.070	-471
685.117	-1144
685.150	-189
685.164	177
685.210	-845
685.257	-167
685.272	-236
685.303	-441
685.350	-133
685.393	-1134
685.396	-1209
685.443	-570
685.490	-123
685.514	-137
685.536	-116
685.583	-928
685.629	109
685.636	34
685.675	-561
685.722	-243
685.757	-681
685.768	-818
685.815	-562
685.861	-158
685.878	-399
685.908	-748
685.954	-797
686.000	-74
686.000	-66
686.047	-718
686.093	-435
686.121	-524
686.139	-575
686.185	254
686.232	-383
686.242	-353
686.278	-331
686.324	-791
686.363	-318
686.370	-213
686.416	-134
686.463	12
686.484	142
686.509	259
686.555	42
686.601	163
686.606	208
686.647	611
686.693	-281
686.727	129
686.739	270
686.785	-40
686.831	30
686.848	-36
686.877	-164
686.923	-120
686.969	13
686.969	14
687.015	33
687.061	-132
687.090	-77
687.107	-10
687.153	-0
687.199	388
687.211	268
687.245	-101
687.291	68
687.332	-299
687.336	-334
687.382	602
687.428	81
687.453	269
687.474	363
687.520	-44
687.565	257
687.574	153
687.611	43
687.657	715
687.695	661
687.702	634
687.748	1266
687.794	1143
687.816	1332
687.839	1371
687.885	670
687.931	849
687.937	858
687.976	843
688.022	115
688.058	-129
688.067	-120
688.113	-107
688.158	205
688.179	406
688.204	574
688.249	-138
688.295	730
688.300	721
688.340	710
688.386	1203
688.421	551
688.431	360
688.477	392
688.522	292
688.542	432
688.567	687
688.613	299
688.658	1228
688.663	1143
688.703	320
688.749	561
688.784	673
688.794	714
688.839	963
688.884	444
688.905	514
688.930	578
688.975	-45
689.020	560
689.026	526
689.065	419
689.110	237
689.146	456
689.155	543
689.201	974
689.246	811
689.267	970
689.291	998
689.336	377
689.381	1032
689.388	974
689.426	716
689.471	450
689.509	773
689.516	845
689.561	722
689.606	247
689.630	452
689.651	645
689.696	535
689.741	823
689.750	734
689.785	457
689.830	1026
689.871	468
689.875	398
689.920	329
689.965	464
689.992	461
690.010	574
690.054	538
690.099	842
690.112	902
690.144	865
690.189	560
690.233	-129
690.233	-127
690.278	535
690.323	628
690.354	926
690.367	1012
690.412	1163
690.457	1561
690.474	1311
690.501	803
690.546	1236
690.590	496
690.595	500
690.635	983
690.680	797
690.716	1306
690.724	1398
690.769	1336
690.813	1812
690.836	1764
690.857	1853
690.902	2459
690.946	2251
690.957	2412
690.991	4103
691.035	6160
691.077	8303
691.080	8304
691.124	7242
691.168	6606
691.198	5726
691.213	5124
691.257	4408
691.301	2704
691.318	2364
691.346	2406
691.390	1724
691.434	1442
691.439	1389
691.478	1358
691.522	1614
691.559	1393
691.567	1343
691.611	1764
691.655	1432
691.680	1468
691.699	1443
691.743	1273
691.787	1155
691.800	964
691.831	731
691.875	1057
691.919	1094
691.921	1086
691.964	1200
692.008	1500
692.041	1913
692.052	1952
692.096	1555
692.139	1544
692.162	1424
692.183	1336
692.227	1539
692.271	1246
692.282	1229
692.315	1396
692.359	1296
692.402	1774
692.403	1782
692.447	1379
692.490	1665
692.523	1283
692.534	1194
692.578	1470
692.622	1547
692.643	1716
692.666	1784
692.709	1269
692.753	1181
692.763	1109
692.797	1130
692.840	1393
692.884	1214
692.884	1221
692.928	1570
692.971	1717
693.004	1841
693.015	1815
693.059	1284
693.102	1075
693.124	965
693.146	1168
693.189	1398
693.233	1625
693.245	1825
693.276	2111
693.320	2019
693.363	1779
693.365	1774
693.407	1986
693.450	2314
693.485	2094
693.493	2120
693.537	2937
693.580	2692
693.605	3217
693.624	4051
693.667	5478
693.710	7085
693.725	7590
693.753	10023
693.797	13904
693.840	18210
693.845	18610
693.883	17111
693.926	14853
693.966	13486
693.970	13228
694.013	9763
694.056	7083
694.086	4783
694.099	4507
694.142	3823
694.185	2966
694.206	2574
694.229	2516
694.272	2317
694.315	2519
694.326	2492
694.358	2453
694.401	2394
694.444	2150
694.446	2147
694.487	2483
694.530	2433
694.566	2675
694.573	2696
694.616	2464
694.659	2375
694.686	2222
694.702	2173
694.745	2393
694.787	2280
694.806	2179
694.830	2048
694.873	2005
694.916	2046
694.926	1992
694.959	1930
695.002	1851
695.044	1761
695.046	1760
695.087	2163
695.130	2222
695.166	2424
695.172	2426
695.215	2086
695.258	2225
695.286	1975
695.301	1921
695.343	2019
695.386	2141
695.406	2180
695.428	2250
695.471	2103
695.514	2339
695.526	2322
695.556	2384
695.599	2787
695.641	2618
695.646	2646
695.684	2542
695.726	1980
695.766	1842
695.769	1868
695.811	1809
695.854	1985
695.886	1885
695.896	1830
695.938	1826
695.981	1571
696.005	1530
696.023	1682
696.065	2074
696.108	2482
696.125	2507
696.150	2470
696.192	2715
696.235	2804
696.245	2828
696.277	2589
696.319	2034
696.361	1904
696.365	1853
696.404	1911
696.446	2247
696.485	2478
696.488	2511
696.530	2601
696.572	2830
696.604	3080
696.614	2984
696.656	2446
696.698	1891
696.724	1498
696.740	1580
696.783	1926
696.825	2123
696.844	2261
696.867	2316
696.909	2164
696.951	2260
696.964	2262
696.992	2426
697.034	2631
697.076	2832
697.083	2848
697.118	2613
697.160	2393
697.202	2125
697.203	2106
697.244	2161
697.286	2280
697.323	2388
697.327	2399
697.369	2442
697.411	2416
697.442	2405
697.453	2448
697.494	2481
697.536	2737
697.562	2759
697.578	2681
697.620	2527
697.661	2307
697.682	2188
697.703	2292
697.744	2514
697.786	2865
697.801	2901
697.828	2935
697.869	3035
697.911	3166
697.921	3204
697.952	2967
697.994	2486
698.035	2088
698.040	2026
698.077	2128
698.118	2243
698.160	2316
698.160	2303
698.201	2454
698.243	2537
698.279	2639
698.284	2629
698.325	2365
698.367	2153
698.399	1945
698.408	1996
698.449	2227
698.491	2433
698.518	2560
698.532	2542
698.573	2440
698.614	2375
698.638	2304
698.656	2260
698.697	2141
698.738	2039
698.757	1978
698.779	2234
698.820	2684
698.862	3163
698.877	3324
698.903	3361
698.944	3399
698.985	3439
698.996	3441
699.026	3166
699.067	2762
699.116	2275
699.235	2814
699.354	2731
699.474	2301
699.593	2805
699.713	3401
699.832	3533
699.951	3299
700.070	3132
700.190	3170
700.309	2192
700.428	2653
700.547	3118
700.667	2295
700.786	3218
700.905	2662
701.024	2598
701.143	2224
701.262	2556
701.381	2473
701.500	2509
701.619	2488
701.738	3139
701.857	3112
701.976	2554
702.095	2188
702.214	3136
702.333	2978
702.452	2393
702.571	2652
702.690	2132
702.809	2207
702.928	2814
703.047	3183
703.165	3005
703.284	1729
703.403	1924
703.522	3178
703.640	2918
703.759	2584
703.878	3463
703.997	3367
704.115	1906
704.234	2544
704.353	2279
704.471	2895
704.590	2153
704.708	1953
704.827	2453
704.946	2312
705.064	2942
705.183	2482
705.301	2051
705.420	3924
705.538	2815
705.656	2193
705.775	2153
705.893	5307
706.012	6754
706.130	2807
706.249	3070
706.367	2652
706.485	3156
706.604	3371
706.722	2693
706.840	3947
706.958	5787
707.077	3615
707.195	2010
707.313	3124
707.431	2193
707.549	2715
707.668	1580
707.786	3193
707.904	3026
708.022	2348
708.140	1900
708.258	2604
708.376	3396
708.494	2076
708.612	1964
708.730	3112
708.848	2672
708.966	2480
709.084	2758
709.202	2459
709.320	2160
709.438	2253
709.556	2205
709.674	2428
709.791	3252
709.909	2501
710.027	3037
710.145	3257
710.263	2989
710.380	2170
710.498	3306
710.616	3120
710.733	2432
710.851	2810
710.969	2867
711.086	2684
711.204	2659
711.322	2740
711.439	2327
711.557	2408
711.674	2431
711.792	3087
711.909	2225
712.027	3373
712.144	2363
712.262	2608
712.379	2566
712.497	4324
712.614	3122
712.732	2965
712.849	3133
712.966	3269
713.084	2988
713.201	2475
713.318	2545
713.436	2494
713.553	2688
713.670	2874
713.787	2442
713.905	3795
714.022	2812
714.139	2545
714.256	3594
714.373	3988
714.490	6732
714.608	17648
714.725	77909
714.842	65311
714.959	5436
715.076	3305
715.193	3525
715.310	3369
715.427	2420
715.544	2843
715.661	2956
715.778	2460
715.895	2707
716.011	3118
716.128	2646
716.245	2953
716.362	3143
716.479	2063
716.596	2601
716.713	2399
716.829	2348
716.946	2754
717.063	2298
717.180	2176
717.296	1672
717.413	2321
717.530	2649
717.646	2354
717.763	1503
717.880	2205
717.996	1544
718.113	1672
718.229	2496
718.346	1740
718.462	2277
718.579	2886
718.695	3177
718.812	3314
718.928	2578
719.045	2083
719.161	2199
719.277	1848
719.394	2682
719.510	3441
719.626	1888
719.743	3132
719.859	3059
719.975	5607
720.092	20300
720.208	37124
720.324	4799
720.440	2098
720.557	2679
720.673	2859
720.789	4970
720.905	7852
721.021	2788
721.137	1702
721.253	2456
721.369	1797
721.486	2759
721.602	1994
721.718	1958
721.834	2088
721.950	2002
722.066	1406
722.181	1161
722.297	2294
722.413	1663
722.529	1157
722.645	1737
722.761	1271
722.877	1915
722.993	1520
723.108	2094
723.224	2416
723.340	1345
723.456	1803
723.571	2204
723.687	1208
723.803	2525
723.918	2089
724.034	1618
724.150	1622
724.265	2162
724.381	2645
724.497	3203
724.612	1012
724.728	2158
724.843	1586
724.959	1418
725.074	3596
725.190	3496
725.305	1568
725.421	1257
725.536	817
725.651	1058
725.767	1817
725.882	1720
725.997	1695
726.113	1751
726.228	1207
726.343	1563
726.459	1403
726.574	1167
726.689	1533
726.804	1668
726.920	1373
727.035	1054
727.150	1706
727.265	586
727.380	1455
727.495	2161
727.610	718
727.725	1687
727.841	1260
727.956	2736
728.071	1823
728.186	683
728.301	916
728.416	2034
728.531	887
728.645	1931
728.760	1315
728.875	1673
728.990	1658
729.105	1093
729.220	1116
729.335	1076
729.449	1010
729.564	1214
729.679	1240
729.794	650
729.908	1239
730.023	1232
730.138	1218
730.253	1817
730.367	1393
730.482	949
730.596	1766
730.711	1206
730.826	1114
730.940	1440
731.055	1042
731.169	758
731.284	431
731.398	1113
731.513	1977
731.627	953
731.742	1719
731.856	1357
731.970	1011
732.085	1375
732.199	1516
732.313	2813
732.428	7727
732.542	20823
732.656	10574
732.771	1723
732.885	1587
732.999	2192
733.113	2163
733.227	2138
733.342	1659
733.456	1591
733.570	980
733.684	783
733.798	1241
733.912	730
734.026	1403
734.140	1215
734.254	1352
734.368	2147
734.482	1994
734.596	1075
734.710	1071
734.824	587
734.938	996
735.052	442
735.166	1999
735.280	2293
735.393	566
735.507	935
735.621	1192
735.735	1434
735.849	1013
735.962	953
736.076	1254
736.190	1037
736.303	1622
736.417	1377
736.531	2256
736.644	285
736.758	1348
736.872	837
736.985	879
737.099	1150
737.212	-348
737.326	2072
737.439	1799
737.553	1176
737.666	588
737.780	250
737.893	922
738.007	841
738.120	789
738.233	653
738.347	1118
738.460	1598
738.573	1264
738.687	931
738.800	701
738.913	1104
739.026	799
739.140	1092
739.253	581
739.366	828
739.479	344
739.592	865
739.705	867
739.818	824
739.932	929
740.045	403
740.158	720
740.271	590
740.384	1124
740.497	1412
740.610	1903
740.723	786
740.836	1121
740.949	1224
741.062	1139
741.174	1168
741.287	747
741.400	1141
741.513	906
741.626	1096
741.739	1029
741.851	684
741.964	1312
742.077	495
742.189	2053
742.302	3649
742.415	2254
742.527	1431
742.640	824
742.753	546
742.865	1217
742.978	1009
743.090	599
743.203	543
743.316	1105
743.428	972
743.541	973
743.653	342
743.766	43
743.878	1651
743.990	1186
744.103	3750
744.215	5982
744.327	1493
744.440	1654
744.552	1689
744.664	851
744.777	526
744.889	173
745.001	1555
745.113	-325
745.226	949
745.338	764
745.450	1336
745.562	55
745.674	833
745.786	332
745.898	192
746.010	728
746.122	18
746.234	581
746.347	1017
746.459	1222
746.570	1278
746.682	3845
746.794	8488
746.906	2426
747.018	1114
747.130	1214
747.242	965
747.354	750
747.466	675
747.577	799
747.689	1091
747.801	397
747.913	196
748.024	98
748.136	944
748.248	378
748.359	862
748.471	561
748.583	203
748.694	367
748.806	1244
748.918	584
749.029	1314
749.141	766
749.252	871
749.364	144
749.475	1144
749.587	784
749.698	968
749.809	1966
749.921	236
750.032	-124
750.144	-682
750.255	450
750.366	362
750.478	1083
750.589	20
750.700	-180
750.811	325
750.923	905
751.034	1290
751.145	2203
751.256	-290
751.367	721
751.479	-92
751.590	846
751.701	-318
751.812	648
751.923	1507
752.034	1127
752.145	301
752.256	1018
752.367	365
752.478	2
752.589	1115
752.700	500
752.811	893
752.922	21
753.032	-391
753.143	238
753.254	177
753.365	289
753.476	-319
753.586	1006
753.697	790
753.808	397
753.919	190
754.029	838
754.140	264
754.251	484
754.361	378
754.472	675
754.582	58
754.693	401
754.804	639
754.914	47
755.025	814
755.135	-333
755.246	654
755.356	18
755.466	756
755.577	723
755.687	365
755.798	824
755.908	64
756.018	445
756.129	1086
756.239	560
756.349	87
756.460	282
756.570	32
756.680	1354
756.790	127
756.900	697
757.011	-403
757.121	417
757.231	25
757.341	305
757.451	418
757.561	614
757.671	368
757.781	-398
757.891	1156
758.001	131
758.111	1032
758.221	998
758.331	204
758.441	1314
758.551	-453
758.661	80
758.771	149
758.880	194
758.990	627
759.100	-655
759.210	84
759.320	1077
759.429	378
759.539	1198
759.649	689
759.758	658
759.868	48
759.978	167
760.087	568
760.197	756
760.307	585
760.416	1047
760.526	127
760.635	302
760.745	1246
760.854	1074
760.964	864
761.073	1938
761.182	1120
761.292	905
761.401	1288
761.511	388
761.620	763
761.729	594
761.839	632
761.948	898
762.057	433
762.166	1066
762.276	-301
762.385	1704
762.494	715
762.603	1314
762.712	1329
762.822	807
762.931	750
763.040	331
763.149	1404
763.258	1405
763.367	1667
763.476	1460
763.585	1569
763.694	1141
763.803	2255
763.912	1456
764.021	2781
764.130	2170
764.238	2121
764.347	2371
764.456	1494
764.565	2540
764.674	2626
764.783	2543
764.891	2936
765.000	4953
765.109	4838
765.217	4326
765.326	5647
765.435	7460
765.543	9154
765.652	10727
765.761	15641
765.869	23260
765.978	37521
766.086	62890
766.195	124046
766.303	285535
766.412	512257
766.520	411109
766.629	184226
766.737	80112
766.846	44451
766.954	28595
767.062	21384
767.171	15305
767.279	12245
767.387	9475
767.496	7742
767.604	7156
767.712	6741
767.820	4680
767.928	4577
768.037	4268
768.145	4644
768.253	4562
768.361	3619
768.469	2983
768.577	3953
768.685	4030
768.793	4234
768.901	4817
769.009	5968
769.117	7015
769.225	8879
769.333	14543
769.441	23625
769.549	46448
769.657	107453
769.765	292037
769.873	411602
769.981	191595
770.088	60183
770.196	28054
770.304	18692
770.412	13017
770.519	9025
770.627	7211
770.735	5588
770.842	5113
770.950	3612
771.058	3373
771.165	3750
771.273	2550
771.380	3225
771.488	2245
771.595	2077
771.703	2029
771.810	2637
771.918	1751
772.025	1687
772.133	996
772.240	1939
772.348	1476
772.455	2041
772.562	1100
772.670	1544
772.777	1602
772.884	1832
772.991	571
773.099	884
773.206	668
773.313	1122
773.420	695
773.528	1028
773.635	-24
773.742	1329
773.849	1719
773.956	928
774.063	636
774.170	217
774.277	588
774.384	837
774.491	-77
774.598	775
774.705	901
774.812	612
774.919	941
775.026	161
775.133	931
775.239	697
775.346	575
775.453	-149
775.560	642
775.667	924
775.773	-627
775.880	783
775.987	860
776.093	643
776.200	255
776.307	243
776.413	549
776.520	845
776.627	1204
776.733	1244
776.840	80
776.946	3808
777.053	8252
777.159	16672
777.266	6804
777.372	13843
777.478	10707
777.585	3597
777.691	1222
777.798	499
777.904	423
778.010	1112
778.117	440
778.223	152
778.329	100
778.435	239
778.542	868
778.648	670
778.754	166
778.860	-19
778.966	-45
779.072	-754
779.178	697
779.284	877
779.391	140
779.497	-349
779.603	1888
779.708	1290
779.815	5875
779.920	23412
780.026	37991
780.132	4385
780.238	454
780.344	1003
780.450	627
780.556	320
780.661	124
780.767	176
780.873	70
780.979	937
781.085	-973
781.190	-328
781.296	-317
781.402	-487
781.507	-496
781.613	-617
781.719	152
781.824	-287
781.930	659
782.035	503
782.141	-568
782.246	975
782.352	-217
782.457	47
782.563	408
782.668	-1055
782.773	-418
782.879	-417
782.984	805
783.090	492
783.195	466
783.300	-610
783.405	399
783.511	-163
783.616	886
783.721	171
783.826	356
783.932	-113
784.037	-49
784.142	-62
784.247	-692
784.352	-136
784.457	339
784.562	-93
784.667	-546
784.772	-546
784.877	-407
784.982	-409
785.087	657
785.192	-66
785.297	-1042
785.402	-391
785.507	-73
785.611	422
785.716	23
785.821	202
785.926	-686
786.031	-589
786.135	385
786.240	-116
786.345	-882
786.450	965
786.554	-275
786.659	-506
786.763	-767
786.868	66
786.973	-108
787.077	-700
787.182	250
787.286	-458
787.391	-223
787.495	-666
787.600	-353
787.704	-381
787.809	-77
787.913	-117
788.017	54
788.122	184
788.226	-400
788.330	-481
788.435	-541
788.539	-321
788.643	-543
788.747	-315
788.852	-243
788.956	-1261
789.060	538
789.164	804
789.268	-970
789.372	378
789.476	-290
789.580	-73
789.684	317
789.788	-465
789.892	-705
789.996	67
790.100	419
790.204	-887
790.308	-205
790.412	-778
790.516	-627
790.620	-1086
790.724	-865
790.828	-206
790.931	-658
791.035	729
791.139	152
791.242	-1003
791.346	865
791.450	-50
791.554	-165
791.657	-1139
791.761	914
791.864	792
791.968	257
792.072	-244
792.175	-674
792.279	-497
792.382	-282
792.486	-81
792.589	-672
792.693	-788
792.796	-1020
792.899	44
793.003	365
793.106	-1822
793.209	-436
793.313	629
793.416	-1488
793.519	642
793.623	6
793.726	-801
793.829	-310
793.932	41
794.035	-1422
794.138	110
794.242	874
794.345	-917
794.448	288
794.551	1419
794.654	11498
794.757	19124
794.860	2521
794.963	63
795.066	-181
795.169	509
795.272	-665
795.375	739
795.477	-844
795.580	-129
795.683	-1434
795.786	-423
795.889	-885
795.991	106
796.094	256
796.197	-1020
796.300	437
796.402	-979
796.505	-1157
796.608	-1352
796.710	176
796.813	-942
796.915	-459
797.018	-551
797.120	-296
797.223	-1666
797.326	879
797.428	-727
797.530	-1098
797.633	-727
797.735	-9
797.838	-1055
797.940	-321
798.042	-836
798.145	-900
798.247	-749
798.349	-1283
798.452	-230
798.554	-275
798.656	-542
798.758	-31
798.860	-632
798.962	-293
799.065	-984
799.167	-1419
799.269	106
799.371	378
799.473	-320
799.575	-718
799.677	-84
799.779	784
799.881	-2017
799.983	-406
800.085	-344
800.187	-296
800.289	-1578
800.390	-703
800.492	-335
800.594	105
800.696	-799
800.798	-476
800.899	-918
801.001	-1039
801.103	-614
801.205	-1197
801.306	-982
801.408	-1191
801.509	-854
801.611	-618
801.713	-208
801.814	-720
801.916	-897
802.017	-558
802.119	-1150
802.220	-84
802.322	-1341
802.423	403
802.525	-2015
802.626	155
802.727	38
802.829	-175
802.930	-2105
803.031	819
803.133	-708
803.234	-1120
803.335	-647
803.436	-1063
803.538	-470
803.639	-1627
803.740	-436
803.841	-396
803.942	-512
804.043	-34
804.144	-678
804.245	-942
804.346	-277
804.447	-397
804.548	-1082
804.649	179
804.750	-1208
804.851	-1130
804.952	-804
805.053	-566
805.154	-785
805.255	-523
805.355	178
805.456	-937
805.557	-1399
805.658	-1621
805.758	197
805.859	-634
805.960	-132
806.061	-1620
806.161	-990
806.262	-1238
806.362	-959
806.463	-602
806.564	-298
806.664	59
806.765	-965
806.865	-462
806.966	-1526
807.066	-802
807.166	-186
807.267	-112
807.367	-1258
807.468	-61
807.568	-1781
807.668	-578
807.769	-355
807.869	-917
807.969	-945
808.069	-305
808.170	-802
808.270	-933
808.370	-773
808.470	-1300
808.570	-1564
808.670	-1502
808.770	-179
808.870	-1002
808.970	-616
809.070	-522
809.170	-1024
809.271	-597
809.370	-1575
809.470	-668
809.570	-781
809.670	-1009
809.770	-716
809.870	-402
809.970	-267
810.070	-1544
810.169	-720
810.269	-2404
810.369	58
810.469	-444
810.568	-1389
810.668	-1118
810.768	-1426
810.867	-1359
810.967	-1136
811.066	-876
811.166	-1237
811.265	-707
811.365	-1039
811.464	-771
811.564	-12
811.663	-706
811.763	-1789
811.862	64
811.962	201
812.061	-129
812.160	-1363
812.260	-902
812.359	-1011
812.458	-869
812.557	725
812.657	528
812.756	-180
812.855	-828
812.954	-1387
813.053	-344
813.153	-941
813.252	-990
813.351	-555
813.450	-453
813.549	-866
813.648	-1050
813.747	-1766
813.846	-57
813.945	-1457
814.044	-210
814.143	-652
814.242	-468
814.341	-976
814.439	-267
814.538	-307
814.637	-188
814.736	-1346
814.835	139
814.933	-862
815.032	-167
815.131	-410
815.229	-176
815.328	320
815.427	-389
815.525	-296
815.624	-86
815.722	-331
815.821	-483
815.919	204
816.018	-1377
816.116	1518
816.215	-552
816.313	746
816.412	295
816.510	-171
816.609	2121
816.707	712
816.805	-4
816.904	780
817.002	402
817.100	1487
817.198	1471
817.296	1096
817.395	1922
817.493	3022
817.591	3051
817.689	5403
817.787	7630
817.885	14191
817.983	26763
818.081	59049
818.179	138138
818.277	295964
818.375	212410
818.473	66524
818.571	27771
818.669	19726
818.767	16919
818.865	16234
818.963	18441
819.061	29298
819.158	53344
819.256	109702
819.354	241995
819.452	414979
819.549	241065
819.647	85516
819.745	37207
819.842	23896
819.940	14302
820.038	10503
820.135	8532
820.233	7418
820.330	3815
820.428	3546
820.525	3581
820.623	2821
820.720	2109
820.818	2361
820.915	2647
821.012	2410
821.110	651
821.207	2038
821.304	584
821.402	1014
821.499	3069
821.596	5596
821.693	2455
821.791	1394
821.888	368
821.985	1206
822.082	-712
822.179	2023
822.276	1536
822.373	511
822.470	-84
822.567	-241
822.664	-315
822.761	489
822.858	-783
822.955	181
823.052	-644
823.149	-798
823.246	-230
823.343	-704
823.440	152
823.536	-676
823.633	-291
823.730	-459
823.827	-309
823.923	-890
824.020	538
824.117	396
824.213	778
824.310	906
824.407	-338
824.503	-348
824.600	-231
824.696	-968
824.793	154
824.889	-1706
824.986	-504
825.082	-945
825.179	161
825.275	-1204
825.371	-1405
825.468	-497
825.564	-1344
825.660	405
825.757	-405
825.853	-636
825.949	-995
826.045	-156
826.142	-671
826.238	-478
826.334	-376
826.430	-995
826.526	-184
826.622	-1405
826.718	-1069
826.814	-493
826.910	-304
827.006	-844
827.102	-804
827.198	-458
827.294	-895
827.390	-557
827.486	-312
827.582	-1977
827.678	-998
827.774	-407
827.869	-1616
827.965	101
828.061	-1256
828.157	-730
828.252	-639
828.348	-282
828.444	390
828.539	-1605
828.635	-930
828.731	422
828.826	-1226
828.922	-776
829.017	-1383
829.113	-494
829.208	-1443
829.304	-1455
829.399	385
829.495	-760
829.590	-724
829.685	-1715
829.781	-431
829.876	-1174
829.971	-1141
830.066	-1092
830.162	-1373
830.257	-1823
830.352	-1346
830.447	-207
830.543	-656
830.638	-1415
830.733	-766
830.828	-1219
830.923	-171
831.018	-1431
831.113	-581
831.208	-1417
831.303	-443
831.398	-1123
831.493	-815
831.588	-974
831.683	-1399
831.778	-469
831.873	-579
831.967	-931
832.062	-1594
832.157	-1480
832.252	45
832.346	-1025
832.441	-366
832.536	-497
832.631	117
832.725	-1602
832.820	-1295
832.914	-1558
833.009	-1250
833.104	-1100
833.198	-930
833.293	-1837
833.387	-570
833.482	-1359
833.576	-1366
833.670	-712
833.765	-1524
833.859	-1397
833.954	-413
834.048	-1037
834.142	-1593
834.237	-1000
834.331	-976
834.425	-1384
834.519	-1640
834.613	-713
834.708	-934
834.802	35
834.896	-1252
834.990	-1516
835.084	-1250
835.178	-1468
835.272	-1338
835.366	-1434
835.460	-1428
835.554	-1322
835.648	-973
835.742	-1439
835.836	-869
835.930	-1898
836.024	-1509
836.117	-370
836.211	-1572
836.305	-910
836.399	-513
836.493	-2748
836.586	-688
836.680	-1288
836.774	-1140
836.867	-470
836.961	-1775
837.055	-1517
837.148	-1213
837.242	-1197
837.335	-1760
837.429	-1441
837.522	-1240
837.616	-755
837.709	53
837.803	-1114
837.896	-1205
837.989	-870
838.083	-706
838.176	-96
838.269	-1038
838.363	-1016
838.456	-1999
838.549	-843
838.642	-1316
838.735	-758
838.829	-554
838.922	-1473
839.015	-803
839.108	-1688
839.201	-911
839.294	-695
839.387	-1329
839.480	-1123
839.573	-1519
839.666	-1286
839.759	-1092
839.852	-2471
839.945	-16
840.038	-1454
840.131	-1538
840.223	-1322
840.316	-394
840.409	-1317
840.502	-1365
840.594	-216
840.687	-2310
840.780	-1140
840.873	-741
840.965	-492
841.058	-963
841.150	-837
841.243	-1268
841.336	-927
841.428	-1047
841.521	-1233
841.613	-1162
841.706	-590
841.798	-869
841.890	-933
841.983	-2354
842.075	-729
842.167	-805
842.260	-1055
842.352	-872
842.444	-1488
842.537	-209
842.629	-623
842.721	-1205
842.813	-1238
842.905	-1595
842.997	-835
843.090	-1153
843.182	-1625
843.274	-1510
843.366	-117
843.458	1130
843.550	696
843.642	-1719
843.734	-424
843.826	-1866
843.918	-12
844.009	-644
844.101	-857
844.193	-1288
844.285	-796
844.377	-455
844.469	1332
844.560	1322
844.652	528
844.744	-723
844.835	-1852
844.927	-876
845.019	-1733
845.110	-1059
845.202	-887
845.293	-205
845.385	-2081
845.476	-1887
845.568	-27
845.659	-1960
845.751	-237
845.842	-712
845.934	-812
846.025	-1248
846.116	-774
846.208	-1416
846.299	-1311
846.390	-930
846.482	-1085
846.573	-1660
846.664	-288
846.755	-1247
846.846	-487
846.937	-2316
847.029	-783
847.120	-867
847.211	-1798
847.302	-794
847.393	-1679
847.484	-1228
847.575	-2165
847.666	-693
847.757	-2089
847.847	-1035
847.938	-227
848.029	-1045
848.120	-1377
848.211	-500
848.302	-1890
848.392	-1590
848.483	-1634
848.574	-1483
848.664	-1249
848.755	-1646
848.846	-1080
848.936	-1184
849.027	-805
849.118	-950
849.208	-1701
849.299	-999
849.389	-587
849.480	-1102
849.570	456
849.661	2136
849.751	4316
849.841	324
849.932	-1479
850.022	-1892
850.112	-1373
850.203	-1223
850.293	-2000
850.383	-1463
850.474	-1357
850.564	-1763
850.654	-1384
850.744	-548
850.834	-1162
850.924	-809
851.014	-862
851.104	-1448
851.194	-1856
851.284	-1120
851.374	-838
851.464	-1809
851.554	-1104
851.644	-1557
851.734	-77
851.824	-1652
851.914	-1840
852.004	-334
852.094	-1600
852.183	-1524
852.273	-1435
852.363	-954
852.452	-1267
852.542	-753
852.632	-750
852.721	-1365
852.811	-1628
852.901	-1439
852.990	-1057
853.080	-906
853.169	-1152
853.259	-1358
853.348	-1663
853.438	-485
853.527	-579
853.617	-1225
853.706	917
853.795	1888
853.885	7758
853.974	12849
854.063	27193
854.152	37956
854.242	10188
854.331	376
854.420	-1064
854.509	-846
854.598	-1425
854.687	-882
854.777	-1590
854.866	-1317
854.955	-1517
855.044	-1000
855.133	-1548
855.222	-1177
855.311	-720
855.400	-1081
855.488	-1060
855.577	-1158
855.666	-1727
855.755	183
855.844	-1118
855.933	-1262
856.021	-1384
856.110	-1158
856.199	-1332
856.288	-1969
856.376	-1989
856.465	-1478
856.554	-1300
856.642	-1432
856.731	-817
856.819	-1212
856.908	-810
856.996	-1564
857.085	-2042
857.173	-1060
857.262	-645
857.350	-1553
857.438	-1650
857.527	-750
857.615	-1159
857.703	-787
857.792	-2099
857.880	-2131
857.968	-1496
858.056	-832
858.145	-1185
858.233	-1947
858.321	-1638
858.409	-152
858.497	-1140
858.585	-2021
858.673	-914
858.761	-2426
858.849	-1493
858.937	-1083
859.025	-1287
859.113	-1274
859.201	-1498
859.289	-77
859.377	-617
859.465	-1067
859.552	-1811
859.640	-1671
859.728	-1706
859.816	-850
859.903	-1130
859.991	-2393
860.079	-1623
860.166	-1081
860.254	-1057
860.342	-2285
860.429	-1372
860.517	-1895
860.604	-1135
860.692	-1038
860.779	-1463
860.867	-1359
860.954	-870
861.042	-1585
861.129	-1220
861.216	-1252
861.304	-718
861.391	-1521
861.478	-1919
861.565	-1276
861.653	168
861.740	-1615
861.827	-778
861.914	-1791
862.001	-1540
862.089	-901
862.176	-1713
862.263	-1270
862.350	-958
862.437	-1856
862.524	-1955
862.611	-1136
862.698	-941
862.785	-520
862.871	-199
862.958	-650
863.045	-818
863.132	-686
863.219	-1528
863.306	-1655
863.392	-1422
863.479	-1634
863.566	-1648
863.652	-1170
863.739	-1695
863.826	-967
863.912	-972
863.999	-2047
864.086	-963
864.172	-542
864.259	-762
864.345	-717
864.432	-1006
864.518	-1610
864.604	-1822
864.691	-1313
864.777	-1274
864.863	-935
864.950	-1501
865.036	-1659
865.122	-1399
865.209	-1501
865.295	-1147
865.381	-568
865.467	-686
865.553	-542
865.639	162
865.726	69
865.812	1991
865.898	5080
865.984	8697
866.070	18154
866.156	16414
866.242	2654
866.328	-119
866.414	-1160
866.499	-888
866.585	-1273
866.671	-1919
866.757	-1469
866.843	-1389
866.928	-2313
867.014	-1129
867.100	-462
867.186	-1039
867.271	-1203
867.357	-958
867.442	-1467
867.528	-1515
867.614	-883
867.699	-554
867.785	890
867.870	1815
867.956	2749
868.041	1137
868.127	843
868.212	514
868.297	644
868.383	-177
868.468	-510
868.553	-276
868.639	-421
868.724	-701
868.809	-936
868.894	-1345
868.979	-1249
869.065	-931
869.150	-1802
869.235	-1255
869.320	-1948
869.405	-775
869.490	-857
869.575	-1772
869.660	-1331
869.745	-967
869.830	-1977
869.915	-1490
870.000	-1102
870.085	-1206
870.169	-995
870.254	-933
870.339	-1524
870.424	-1231
870.509	-632
870.593	-944
870.678	-1516
870.763	-405
870.847	-640
870.932	-698
871.016	-489
871.101	-1359
871.186	-1547
871.270	-1274
871.355	-1836
871.439	-533
871.523	-1496
871.608	-1455
871.692	-805
871.777	-834
871.861	-511
871.945	-1262
872.030	-1097
872.114	-1938
872.198	-876
872.282	-1423
872.367	-1079
872.451	-1985
872.535	-1379
872.619	-2082
872.703	-1246
872.787	-1805
872.871	-742
872.955	-1236
873.039	-1277
873.123	-1420
873.207	-783
873.291	-813
873.375	-1084
873.459	-1624
873.543	-1702
873.627	-1263
873.711	-1388
873.794	-1282
873.878	-1395
873.962	-1038
874.045	-1072
874.129	-2067
874.137	-2007
874.213	-1404
874.245	-1558
874.296	-1809
874.352	-1757
874.380	-1732
874.460	-880
874.464	-847
874.547	-1948
874.568	-1669
874.631	-831
874.676	-1283
874.714	-1672
874.784	-1283
874.798	-1203
874.881	-219
874.892	-393
874.965	-1589
874.999	-1326
875.048	-987
875.107	-1498
875.131	-1705
875.215	-986
875.215	-985
875.298	-535
875.323	-906
875.381	-1797
875.430	-1439
875.465	-1181
875.538	-1256
875.548	-1265
875.631	-1642
875.646	-1600
875.714	-1437
875.753	-1029
875.798	-547
875.861	-1111
875.881	-1313
875.964	-1782
875.968	-1789
876.047	-1728
876.076	-1336
876.130	-656
876.183	-875
876.213	-982
876.291	-1206
876.296	-1231
876.379	-1255
876.398	-1261
876.462	-1191
876.506	-969
876.545	-742
876.613	-1295
876.628	-1437
876.711	-634
876.721	-651
876.794	-728
876.828	-564
876.877	-286
876.935	-617
876.960	-803
877.043	-747
877.043	-748
877.125	-651
877.150	-477
877.208	-257
877.258	-377
877.291	-394
877.365	-434
877.374	-449
877.456	-231
877.472	-359
877.539	-807
877.579	-711
877.622	-684
877.687	-732
877.704	-708
877.787	-588
877.794	-645
877.869	-1262
877.901	-1032
877.952	-824
878.008	-841
878.034	-759
878.115	-516
878.117	-507
878.199	-670
878.222	-526
878.282	-485
878.329	-451
878.364	-278
878.437	-530
878.447	-597
878.529	-734
878.544	-742
878.611	-512
878.651	-522
878.694	-647
878.758	-810
878.776	-801
878.858	-802
878.865	-798
878.941	-898
878.972	-582
879.023	-46
879.078	-384
879.105	-529
879.185	-628
879.187	-627
879.269	-651
879.292	-747
879.351	-1058
879.399	-976
879.433	-883
879.506	-404
879.516	-337
879.598	-905
879.613	-882
879.680	-646
879.720	-376
879.762	-337
879.827	-340
879.844	-283
879.926	-797
879.933	-784
880.007	-632
880.040	-773
880.089	-955
880.147	-850
880.171	-701
880.253	182
880.254	182
880.335	111
880.360	22
880.417	168
880.467	504
880.499	805
880.574	1135
880.580	1069
880.662	-18
880.680	-216
880.744	-352
880.787	-535
880.825	-758
880.893	-1074
880.907	-1076
880.989	-266
881.000	-349
881.070	-1060
881.106	-975
881.152	-672
881.213	-407
881.233	-468
881.315	-383
881.319	-427
881.396	-336
881.426	-226
881.478	-613
881.532	-709
881.559	-433
881.639	-223
881.641	-239
881.722	-895
881.745	-967
881.803	-478
881.852	-342
881.885	-418
881.958	-487
881.966	-502
882.047	-865
882.064	-925
882.129	-869
882.171	-661
882.210	-561
882.277	-466
882.291	-379
882.372	-373
882.383	-306
882.454	-16
882.489	-61
882.535	-301
882.596	-585
882.616	-534
882.697	-46
882.702	-29
882.778	-104
882.808	-151
882.859	-45
882.914	121
882.940	69
883.020	-270
883.021	-268
883.102	-613
883.127	-533
883.183	-439
883.233	-399
883.264	-143
883.339	311
883.345	307
883.426	-61
883.445	-53
883.507	154
883.551	108
883.587	-194
883.657	-505
883.668	-371
883.749	129
883.763	270
883.830	-262
883.869	-818
883.910	-650
883.975	171
883.991	152
884.072	-268
884.081	-305
884.152	-75
884.187	-144
884.233	-265
884.292	-62
884.314	-8
884.394	-48
884.398	-58
884.475	-112
884.504	-124
884.555	-129
884.610	-168
884.636	-215
884.716	-357
884.716	-352
884.797	-192
884.821	-129
884.877	-23
884.927	-142
884.958	-58
885.033	237
885.038	194
885.118	-418
885.139	-652
885.199	-398
885.244	-108
885.279	-155
885.350	-352
885.359	-346
885.439	-124
885.456	-171
885.520	-164
885.561	-10
885.600	-20
885.667	-132
885.680	-163
885.760	-177
885.773	-184
885.840	136
885.878	206
885.920	64
885.984	-70
886.000	-77
886.080	-628
886.089	-626
886.160	-334
886.195	-290
886.240	-244
886.300	-140
886.320	-122
886.400	-67
886.406	-68
886.480	313
886.511	404
886.560	64
886.616	-239
886.640	-40
886.720	502
886.722	508
886.800	-264
886.827	-463
886.879	284
886.932	769
886.959	632
887.038	697
887.039	700
887.119	27
887.143	-87
887.198	-135
887.248	-287
887.278	-63
887.354	490
887.358	481
887.437	152
887.459	56
887.517	438
887.564	830
887.596	418
887.669	-721
887.676	-656
887.755	278
887.774	486
887.835	433
887.880	359
887.914	312
887.985	200
887.994	210
888.073	269
888.090	255
888.153	682
888.195	1040
888.232	432
888.300	-764
888.311	-602
888.391	554
888.405	752
888.470	647
888.510	594
888.549	533
888.615	394
888.628	320
888.708	-208
888.720	-279
888.787	371
888.825	691
888.866	340
888.930	-205
888.945	-90
889.024	575
889.035	651
889.103	260
889.140	39
889.182	341
889.245	799
889.261	732
889.340	395
889.349	350
889.419	355
889.454	353
889.498	403
889.559	467
889.577	495
889.656	605
889.664	614
889.735	492
889.768	430
889.814	762
889.873	1199
889.978	474
890.083	734
890.187	283
890.292	285
890.397	484
890.501	647
890.606	499
890.710	1006
890.815	721
890.919	465
891.024	54
891.128	320
891.233	1032
891.337	748
891.442	316
891.546	252
891.650	-379
891.755	324
891.859	1151
891.963	525
892.068	1224
892.172	1125
892.276	-474
892.380	206
892.484	-342
892.589	326
892.693	228
892.797	137
892.901	-156
893.005	859
893.109	-124
893.213	589
893.317	498
893.421	210
893.525	-83
893.629	459
893.733	-48
893.837	391
893.941	-77
894.045	817
894.148	-61
894.252	601
894.356	412
894.460	505
894.564	41
894.667	429
894.771	-39
894.875	827
894.978	144
895.082	224
895.186	300
895.289	1272
895.393	239
895.496	236
895.600	189
895.703	-25
895.807	400
895.910	724
896.014	222
896.117	465
896.221	-306
896.324	344
896.427	-32
896.531	851
896.634	-157
896.737	433
896.840	-620
896.944	182
897.047	-304
897.150	599
897.253	5
897.356	714
897.460	-401
897.563	121
897.666	-267
897.769	207
897.872	-109
897.975	-63
898.078	-256
898.181	488
898.284	295
898.387	28
898.490	214
898.593	745
898.695	-765
898.798	1090
898.901	151
899.004	858
899.107	203
899.209	-78
899.312	493
899.415	252
899.518	-1219
899.620	-177
899.723	-390
899.826	819
899.928	121
900.031	1
900.133	-692
900.236	23
900.338	-209
900.441	72
900.543	-454
900.646	601
900.748	-450
900.851	825
900.953	-255
901.055	1097
901.158	-424
901.260	148
901.362	95
901.465	368
901.567	-25
901.669	354
901.771	419
901.873	517
901.976	832
902.078	-37
902.180	516
902.282	10
902.384	239
902.486	595
902.588	394
902.690	565
902.792	329
902.894	763
902.996	-268
903.098	1540
903.200	-54
903.302	370
903.404	275
903.505	-150
903.607	252
903.709	1355
903.811	777
903.913	294
904.014	-263
904.116	-219
904.218	-240
904.319	643
904.421	1105
904.523	2267
904.624	-162
904.726	948
904.827	1586
904.929	1881
905.030	626
905.132	522
905.233	661
905.335	320
905.436	15
905.537	1469
905.639	71
905.740	909
905.841	798
905.943	1493
906.044	735
906.145	1323
906.247	794
906.348	845
906.449	-662
906.550	627
906.651	500
906.752	302
906.854	-493
906.955	-24
907.056	155
907.157	940
907.258	610
907.359	487
907.460	134
907.561	921
907.662	329
907.762	1019
907.863	-33
907.964	1447
908.065	-239
908.166	103
908.267	-218
908.367	12
908.468	57
908.569	-267
908.670	141
908.770	760
908.871	739
908.971	-357
909.072	-750
909.173	405
909.273	-447
909.374	98
909.474	-164
909.575	-193
909.675	-444
909.776	104
909.876	-528
909.977	-248
910.077	-548
910.177	-581
910.278	-674
910.378	-333
910.478	-343
910.579	812
910.679	48
910.779	-348
910.879	-179
910.980	922
911.080	-774
911.180	25
911.280	-342
911.380	7
911.480	-6
911.580	-265
911.680	69
911.780	697
911.880	-504
911.980	217
912.080	-633
912.180	81
912.280	212
912.380	520
912.480	-812
912.580	214
912.679	-484
912.779	345
912.879	-463
912.979	-126
913.078	51
913.178	-127
913.278	348
913.377	-409
913.477	4
913.577	416
913.676	259
913.776	-74
913.875	-78
913.975	-378
914.074	-143
914.174	-111
914.273	-428
914.373	294
914.472	-171
914.572	-444
914.671	141
914.770	-277
914.870	-186
914.969	116
915.068	413
915.167	303
915.267	-106
915.366	-125
915.465	110
915.564	227
915.663	363
915.763	-127
915.862	-754
915.961	303
916.060	-712
916.159	100
916.258	-829
916.357	-494
916.456	-124
916.555	522
916.654	-390
916.752	109
916.851	-375
916.950	-301
917.049	-116
917.148	-472
917.247	-256
917.345	-764
917.444	-94
917.543	569
917.642	-563
917.740	-70
917.839	-252
917.937	-36
918.036	-65
918.135	-277
918.233	-143
918.332	-111
918.430	-70
918.529	-33
918.627	100
918.726	600
918.824	-1028
918.923	-678
919.021	-399
919.119	-330
919.218	-1531
919.316	-84
919.414	-321
919.512	-147
919.611	-30
919.709	238
919.807	-431
919.905	-369
920.003	-65
920.102	452
920.200	-591
920.298	-190
920.396	-59
920.494	483
920.592	-1335
920.690	361
920.788	-215
920.886	369
920.984	-933
921.082	197
921.180	-195
921.277	-367
921.375	-367
921.473	364
921.571	-551
921.669	191
921.766	144
921.864	348
921.962	-240
922.060	186
922.157	-477
922.255	560
922.352	-826
922.450	838
922.548	-907
922.645	-83
922.743	-319
922.840	333
922.938	-102
923.035	489
923.133	-204
923.230	-19
923.327	2
923.425	329
923.522	588
923.619	-28
923.717	656
923.814	-121
923.911	144
924.008	920
924.106	445
924.203	-11
924.300	-579
924.397	399
924.494	598
924.591	492
924.688	-635
924.786	752
924.883	-137
924.979	323
925.077	-257
925.173	427
925.270	-419
925.367	396
925.464	913
925.561	1310
925.658	-163
925.755	351
925.852	933
925.948	818
926.045	1536
926.142	2289
926.239	2344
926.335	2690
926.432	2167
926.529	2223
926.625	2465
926.722	1908
926.818	1182
926.915	655
927.011	1
927.108	285
927.204	-449
927.301	787
927.397	-88
927.494	40
927.590	-912
927.687	614
927.783	-179
927.879	-583
927.976	-501
928.072	346
928.168	269
928.264	327
928.361	82
928.457	-811
928.553	-854
928.649	-198
928.745	-355
928.841	660
928.937	-953
929.033	-105
929.129	-719
929.225	224
929.321	-278
929.417	-193
929.513	-819
929.609	836
929.705	241
929.801	413
929.897	-1003
929.993	-146
930.089	-567
930.184	628
930.280	-1146
930.376	-169
930.471	18
930.567	299
930.663	-485
930.758	93
930.854	-744
930.950	-775
931.045	-369
931.141	3
931.236	201
931.332	206
931.427	-783
931.523	51
931.618	71
931.714	-937
931.809	-762
931.905	-503
932.000	-649
932.095	-68
932.191	-406
932.286	78
932.381	-752
932.476	-165
932.572	4
932.667	18
932.762	-302
932.857	1054
932.952	-745
933.047	227
933.142	-1082
933.237	-156
933.332	-90
933.427	680
933.522	-894
933.617	-379
933.712	-661
933.807	-547
933.902	-1093
933.997	29
934.092	-422
934.187	-521
934.282	-459
934.376	-1008
934.471	-1036
934.566	-642
934.661	-1246
934.755	213
934.850	-641
934.945	111
935.039	-1287
935.134	26
935.228	-908
935.323	378
935.417	-1073
935.512	-187
935.606	-924
935.701	446
935.795	-989
935.890	-600
935.984	-1390
936.079	-411
936.173	-887
936.267	-933
936.362	-1068
936.456	81
936.550	-647
936.644	-578
936.738	-1072
936.833	-56
936.927	-783
937.021	-100
937.115	-858
937.209	-1510
937.303	-403
937.397	-324
937.491	-623
937.585	52
937.679	-858
937.773	-604
937.867	-240
937.961	-431
938.055	26
938.149	281
938.243	-489
938.337	62
938.430	307
938.524	1781
938.618	2914
938.712	2007
938.805	191
938.899	674
938.993	-613
939.086	791
939.180	4468
939.274	5668
939.367	239
939.461	-239
939.554	-851
939.648	448
939.741	-944
939.835	42
939.928	-924
940.022	432
940.115	-1582
940.208	70
940.302	-116
940.395	-303
940.488	-1270
940.582	119
940.675	-1222
940.768	-261
940.861	-1042
940.954	143
941.048	-846
941.141	-459
941.234	-164
941.327	180
941.420	180
941.513	38
941.606	-397
941.699	2
941.792	-633
941.885	-1076
941.978	-466
942.071	-751
942.164	-252
942.257	-543
942.349	-1600
942.442	-600
942.535	-976
942.628	-252
942.721	-999
942.813	-1428
942.906	-719
942.999	-142
943.091	-1015
943.184	-1088
943.277	-993
943.369	-761
943.462	-1255
943.554	-681
943.647	-1877
943.739	297
943.832	-1521
943.924	-1462
944.017	-1078
944.109	-1905
944.201	-1254
944.294	-194
944.386	-773
944.478	-403
944.571	-1071
944.663	-1035
944.755	-1211
944.847	-1127
944.940	-829
945.032	-1172
945.124	-1995
945.216	18
945.308	-599
945.400	-971
945.492	-1367
945.584	-629
945.676	-1396
945.768	-381
945.860	-10
945.952	-504
946.044	-51
946.136	-599
946.228	-1524
946.320	-997
946.412	-1510
946.503	-738
946.595	99
946.687	-653
946.779	-990
946.870	-551
946.962	-1524
947.054	-1114
947.145	-850
947.237	-918
947.329	-775
947.420	-1039
947.512	-1887
947.603	-319
947.695	-845
947.786	-941
947.878	-973
947.969	-67
948.061	-1892
948.152	-928
948.243	-1406
948.335	-999
948.426	-1257
948.517	-579
948.609	-1182
948.700	-1294
948.791	-994
948.882	-595
948.973	-1165
949.065	-1421
949.156	-619
949.247	-925
949.338	-1703
949.429	-592
949.520	-645
949.611	-1403
949.702	-732
949.793	-845
949.884	-1474
949.975	-839
950.066	-1543
950.157	-1058
950.247	-1337
950.338	-396
950.429	-901
950.520	-1060
950.611	-1305
950.701	-1276
950.792	-977
950.883	-864
950.973	-1669
951.064	-1020
951.155	-1642
951.245	-577
951.336	-1262
951.427	-1384
951.517	-708
951.608	-915
951.698	-1872
951.788	-833
951.879	-1899
951.969	-1478
952.060	-2162
952.150	-429
952.240	-352
952.331	-1048
952.421	-645
952.511	-202
952.602	-1707
952.692	-1114
952.782	-1661
952.872	-1334
952.962	-1373
953.052	-1074
953.143	-1462
953.233	559
953.323	-706
953.413	-1327
953.503	-527
953.593	-900
953.683	-1226
953.773	-1472
953.863	-1660
953.953	-1313
954.042	-685
954.132	-1599
954.222	-604
954.312	5
954.402	-2194
954.492	-1431
954.581	-363
954.671	-750
954.761	-1637
954.850	-466
954.940	-1977
955.030	-1418
955.119	-1682
955.209	-341
955.298	-1390
955.388	-926
955.477	-990
955.567	-1761
955.656	-967
955.746	-1128
955.835	-1898
955.925	-1980
956.014	-1627
956.103	-702
956.193	-781
956.282	-87
956.371	-1191
956.461	-1250
956.550	-1216
956.639	-233
956.728	-2200
956.817	-282
956.906	-1381
956.995	-1006
957.085	-2128
957.174	-1363
957.263	-1078
957.352	-1413
957.441	-1947
957.530	-1796
957.619	-1727
957.708	-1043
957.796	-1273
957.885	-930
957.974	-2195
958.063	-487
958.152	-2073
958.241	-107
958.329	-1575
958.418	-1078
958.507	-2037
958.596	-257
958.684	-2400
958.773	-237
958.861	-1486
958.950	-1029
959.039	-1360
959.127	-957
959.216	-1438
959.304	-926
959.393	-1484
959.481	-1453
959.570	-866
959.658	-1445
959.746	-1365
959.835	-612
959.923	-1806
960.011	-1845
960.100	-1023
960.188	-1149
960.276	-1508
960.365	-1012
960.453	-2482
960.541	-1325
960.629	-1140
960.717	-1605
960.805	-2009
960.893	-320
960.981	-2383
961.069	-864
961.158	-2409
961.245	-905
961.333	-1489
961.421	-1242
961.509	-2006
961.597	-1006
961.685	-1596
961.773	-1109
961.861	-2369
961.949	-1563
962.036	-2127
962.124	-238
962.212	-1691
962.299	-1996
962.387	-2099
962.475	-1768
962.562	-2370
962.650	-498
962.738	-2066
962.825	-1379
962.913	-2240
963.000	-1378
963.088	-2031
963.175	-1235
963.263	-2091
963.350	-940
963.438	-2119
963.525	-1744
963.612	-1342
963.700	-1344
963.787	-391
963.874	-728
963.962	-1952
964.049	-1224
964.136	-1254
964.223	-1506
964.310	-2453
964.398	-1204
964.485	-2388
964.572	-1728
964.659	-1176
964.746	-1334
964.833	-1508
964.920	-1331
965.007	-1552
965.094	-1352
965.181	-1267
965.268	-886
965.355	-2124
965.441	-1280
965.528	-3062
965.615	-1396
965.702	-1099
965.789	-1849
965.875	-1412
965.962	-792
966.049	-2302
966.136	-1401
966.222	-2093
966.309	-1097
966.395	-1430
966.482	-910
966.569	-2290
966.655	-1183
966.742	-1918
966.828	-1720
966.915	-2142
967.001	-757
967.087	-2914
967.174	-1283
967.260	-1940
967.347	-1490
967.433	-960
967.519	-785
967.605	-2225
967.692	-2668
967.778	-2006
967.864	-988
967.950	-1587
968.036	-1968
968.123	-1461
968.209	-2098
968.295	-2037
968.381	-974
968.467	-1791
968.553	-2064
968.639	-790
968.725	-1717
968.811	-1101
968.897	-624
968.983	-1386
969.069	-2262
969.154	-2265
969.240	-1073
969.326	-2175
969.412	-2300
969.497	-1591
969.583	-1899
969.669	-1529
969.755	-1000
969.840	-1771
969.926	-439
970.012	-1885
970.097	-1298
970.183	-1685
970.268	-1336
970.354	-1233
970.439	-2310
970.525	-1016
970.610	-2043
970.696	-1447
970.781	-1685
970.866	-2937
970.952	-1380
971.037	-2299
971.122	-2150
971.208	-2071
971.293	-1068
971.378	-2874
971.463	-1383
971.549	-1661
971.634	-1672
971.719	-1706
971.804	-1983
971.889	-1241
971.974	-1560
972.059	-2350
972.144	-2014
972.229	-2101
972.314	-2264
972.399	-1848
972.484	-1913
972.569	-1549
972.654	-1834
972.739	-1696
972.824	-1604
972.908	-2392
972.993	-1262
973.078	-2221
973.163	-1292
973.247	-2356
973.332	-2577
973.417	-1905
973.501	-2053
973.586	-1739
973.671	-1393
973.755	-2165
973.840	-1657
973.924	-1243
974.009	-1734
974.093	-2359
974.178	-753
974.262	-1848
974.346	-2591
974.431	-1593
974.515	-1553
974.600	-2341
974.684	-510
974.768	-2164
974.852	-1029
974.937	-2481
975.021	-1531
975.105	-2156
975.189	-1829
975.273	-1539
975.358	-2358
975.442	-2068
975.526	-1137
975.610	-3010
975.694	-2313
975.778	-1136
975.862	-1342
975.946	-4092
976.030	-1095
976.114	-1930
976.198	-2115
976.281	-2192
976.365	-1054
976.449	-2482
976.533	-1822
976.617	-2645
976.700	-1935
976.784	-1603
976.868	-2066
976.951	-2275
977.035	-929
977.119	-1620
977.202	-2045
977.286	-2349
977.369	-2153
977.453	-1642
977.536	-2800
977.620	-2535
977.703	-1609
977.787	-2527
977.870	-1288
977.953	-1616
978.037	-2502
978.120	-1259
978.203	-2147
978.287	-2187
978.370	-1333
978.453	-2491
978.536	-1934
978.620	-2025
978.703	-1274
978.786	-1592
978.869	-2209
978.952	-3466
979.035	-1133
979.118	-2268
979.201	-2282
979.284	-2135
979.367	-2268
979.450	-2260
979.533	-2718
979.616	-1797
979.699	-1810
979.782	-2295
979.865	-1600
979.948	-1987
980.030	-2438
980.113	-1899
980.196	-2137
980.279	-1928
980.361	-2066
980.444	-2886
980.526	-2294
980.609	-2906
980.692	-2463
980.774	-1666
980.857	-3000
980.939	-1965
981.022	-2055
981.104	-2596
981.187	-2855
981.269	-1732
981.352	-2372
981.434	-3123
981.516	-1915
981.599	-1533
981.681	-1088
981.763	-2445
981.846	-2140
981.928	-2989
982.010	-1417
982.092	-3752
982.174	-734
982.256	-1995
982.339	-1889
982.421	-2418
982.503	-2050
982.585	-2702
982.667	-2069
982.749	-2076
982.831	-2462
982.913	-2512
982.995	-1613
983.077	-3569
983.158	-1579
983.240	-3918
983.322	-1970
983.404	-1783
983.486	-2118
983.568	-2206
983.649	-2052
983.731	-2177
983.813	-2439
983.894	-2142
983.976	-2252
984.058	-2632
984.139	-1350
984.221	-3634
984.302	-1130
984.384	-2365
984.465	-2348
984.547	-2254
984.628	-1891
984.710	-1963
984.791	-1314
984.872	-2169
984.954	-2250
985.035	-2597
985.116	-1894
985.198	-2160
985.279	-1839
985.360	-3158
985.441	-1228
985.522	-1893
985.604	-2164
985.685	-4500
985.766	-2002
985.847	-1435
985.928	-2819
986.009	-2026
986.090	-1971
986.171	-1663
986.252	-2311
986.333	-2658
986.414	-2315
986.495	-2331
986.576	-2135
986.656	-2488
986.737	-1564
986.818	-1579
986.899	-1620
986.980	-2400
987.060	-1713
987.141	-2628
987.222	-1765
987.302	-2716
987.383	-1927
987.464	-1762
987.544	-2128
987.625	-2925
987.705	-1514
987.786	-2840
987.866	-1863
987.947	-3004
988.027	-1994
988.108	-3277
988.188	-1179
988.268	-2648
988.349	-1852
988.429	-2749
988.509	-2176
988.589	-3514
988.670	-3423
988.750	-1232
988.830	-2177
988.910	-2032
988.990	-1910
989.070	-3129
989.151	-2078
989.231	-2907
989.311	-2149
989.391	-2248
989.471	-2145
989.551	-2262
989.631	-2833
989.711	-1912
989.791	-2639
989.870	-2000
989.950	-1714
990.030	-2730
990.110	-2244
990.190	-3206
990.269	-2173
990.349	-2392
990.429	-2729
990.509	-2024
990.588	-2044
990.668	-2661
990.747	-1927
990.827	-2958
990.907	-1577
990.986	-3101
991.066	-1551
991.145	-3110
991.225	-2055
991.304	-3463
991.383	-1856
991.463	-2297
991.542	-2222
991.622	-2981
991.701	-2137
991.780	-3071
991.859	-1871
991.939	-2936
992.018	-2504
992.097	-1934
992.176	-1874
992.256	-2525
992.335	-3475
992.414	-2230
992.493	-2250
992.572	-2558
992.651	-1609
992.730	-3160
992.809	-1384
992.888	-3475
992.967	-2471
993.046	-2692
993.125	-3167
993.203	-2546
993.282	-2288
993.361	-3219
993.440	-1949
993.519	-3577
993.597	-2463
993.676	-2227
993.755	-1686
993.834	-2683
993.912	-2781
993.991	-2209
994.069	-2418
994.148	-3372
994.226	-2218
994.305	-2727
994.384	-3016
994.462	-2382
994.540	-3119
994.619	-2608
994.697	-2524
994.776	-2910
994.854	-2031
994.932	-2911
995.011	-1883
995.089	-3204
995.167	-2436
995.245	-3017
995.324	-3173
995.402	-2632
995.480	-2494
995.558	-2626
995.636	-3177
995.714	-2579
995.792	-1852
995.870	-2787
995.948	-1802
996.026	-2661
996.104	-3449
996.182	-2014
996.260	-2569
996.338	-3092
996.416	-3011
996.494	-3033
996.572	-2418
996.649	-2841
996.727	-2766
996.805	-2801
996.883	-2886
996.960	-2970
997.038	-1168
997.116	-2178
997.193	-2794
997.271	-2325
997.348	-2618
997.426	-2413
997.504	-2599
997.581	-1980
997.658	-1144
997.736	-4125
997.813	-2817
997.891	-1898
997.968	-2369
998.046	-3977
998.123	-2840
998.200	-3532
998.277	-3209
998.355	-2740
998.432	-3462
998.509	-2415
998.586	-1438
998.663	-2432
998.741	-2912
998.818	-3222
998.895	-2327
998.972	-3021
999.049	-2631
999.126	-3463
999.203	-1767
999.280	-3524
999.357	-2540
999.434	-3124
999.511	-2442
999.587	-2766
999.664	-2609
999.741	-3178
999.818	-2435
999.895	-2783
999.971	-2835
1000.048	-3226
1000.125	-1799
1000.202	-4144
1000.278	-3089
1000.355	-2924
1000.431	-2862
1000.508	-4230
1000.584	-2804
1000.661	-2481
1000.738	-3716
1000.814	-2894
1000.890	-2781
1000.967	-3321
1001.043	-2040
1001.120	-4085
1001.196	-2213
1001.272	-3898
1001.349	-3022
1001.425	-2852
1001.501	-2874
1001.577	-3442
1001.654	-2358
1001.730	-2887
1001.806	-2563
1001.882	-3711
1001.958	-1852
1002.034	-2203
1002.110	-2117
1002.186	-3497
1002.262	-3047
1002.338	-3351
1002.414	-3141
1002.490	-1716
1002.566	-2677
1002.642	-3323
1002.718	-1435
1002.794	-3316
1002.870	-2181
1002.945	-2658
1003.021	-2428
1003.097	-2695
1003.173	-2157
1003.248	-2858
1003.324	-2457
1003.400	-2973
1003.475	-2884
1003.551	-3017
1003.626	-2902
1003.702	-3422
1003.777	-2265
1003.853	-2895
1003.928	-3491
1004.004	-3220
1004.079	-2103
1004.155	-2795
1004.230	-3513
1004.305	-2690
1004.381	-3042
1004.456	-2757
1004.531	-2859
1004.607	-3523
1004.682	-2483
1004.757	-2772
1004.832	-2454
1004.907	-3174
1004.982	-2547
1005.057	-2814
1005.133	-2675
1005.208	-3504
1005.283	-2448
1005.358	-3064
1005.433	-2409
1005.508	-2513
1005.583	-3180
1005.657	-2875
1005.732	-1409
1005.807	-3474
1005.882	-2108
1005.957	-3297
1006.032	-2468
1006.106	-3624
1006.181	-3376
1006.256	-1597
1006.331	-3091
1006.405	-3337
1006.480	-3108
1006.554	-2949
1006.629	-2552
1006.704	-3730
1006.778	-2716
1006.853	-2497
1006.927	-2851
1007.002	-3241
1007.076	-3450
1007.150	-2817
1007.225	-2877
1007.299	-2196
1007.373	-3441
1007.448	-3342
1007.522	-2458
1007.596	-2648
1007.671	-2649
1007.745	-3032
1007.819	-3056
1007.893	-3537
1007.967	-1018
1008.041	-4543
1008.115	-2038
1008.190	-4508
1008.264	-1780
1008.338	-3932
1008.412	-3044
1008.486	-2601
1008.560	-3042
1008.633	-3277
1008.707	-3028
1008.781	-3120
1008.855	-3385
1008.929	-3442
1009.003	-3081
1009.076	-3745
1009.150	-2101
1009.224	-3257
1009.298	-2532
1009.371	-3490
1009.445	-1345
1009.519	-3356
1009.592	-3143
1009.666	-2283
1009.739	-2230
1009.813	-3850
1009.886	-1874
1009.960	-3770
1010.033	-1967
1010.107	-2633
1010.180	-3525
1010.253	-3143
1010.327	-3250
1010.400	-3312
1010.473	-2811
1010.547	-2090
1010.620	-2298
1010.693	-3296
1010.766	-3244
1010.840	-2284
1010.913	-1916
1010.986	-3447
1011.059	-2237
1011.132	-2276
1011.205	-1532
1011.278	-2644
1011.351	-2009
1011.424	-2687
1011.497	-1890
1011.570	-3508
1011.643	-2720
1011.716	-2809
1011.789	-3152
1011.862	-3116
1011.934	-2580
1012.007	-4483
1012.080	-1977
1012.153	-3050
1012.225	-2073
1012.298	-3519
1012.371	-2737
1012.443	-3060
1012.516	-3777
1012.588	-2419
1012.661	-2926
1012.733	-3902
1012.806	-2316
1012.879	-4063
1012.951	-3068
1013.023	-2573
1013.096	-2837
1013.168	-3097
1013.241	-2118
1013.313	-3929
1013.385	-2025
1013.458	-3306
1013.530	-2630
1013.602	-4123
1013.674	-2352
1013.746	-3076
1013.819	-2837
1013.891	-3262
1013.963	-2874
1014.035	-2657
1014.107	-2325
1014.179	-2138
1014.251	-2969
1014.323	-2365
1014.395	-2564
1014.467	-3741
1014.539	-2385
1014.611	-3403
1014.683	-2699
1014.754	-2911
1014.826	-3118
1014.898	-3234
1014.970	-3463
1015.042	-2462
1015.113	-2678
1015.185	-2956
1015.257	-3417
1015.328	-2492
1015.400	-3001
1015.471	-3968
1015.543	-3853
1015.615	-3608
1015.686	-2560
1015.757	-3996
1015.829	-2751
1015.901	-3636
1015.972	-2247
1016.043	-2754
1016.115	-3281
1016.186	-2635
1016.257	-3687
1016.328	-3486
1016.400	-2688
1016.471	-3743
1016.542	-2203
1016.613	-3048
1016.685	-2307
1016.756	-2565
1016.827	-2664
1016.898	-3998
1016.969	-2630
1017.040	-3393
1017.111	-3044
1017.182	-3461
1017.253	-2783
1017.324	-3441
1017.395	-3322
1017.466	-4118
1017.537	-2686
1017.608	-2751
1017.678	-2848
1017.749	-3002
1017.820	-2754
1017.891	-3713
1017.961	-2482
1018.032	-3174
1018.103	-2482
1018.173	-3080
1018.244	-2999
1018.315	-2868
1018.385	-2773
1018.456	-3577
1018.526	-3694
1018.597	-3391
1018.667	-2729
1018.738	-3939
1018.808	-3215
1018.878	-3467
1018.949	-2868
1019.019	-3337
1019.089	-2210
1019.160	-3115
1019.230	-2861
1019.300	-3130
1019.371	-3306
1019.441	-3151
1019.511	-2535
1019.581	-3610
1019.651	-2756
1019.721	-3596
1019.791	-2232
1019.861	-3028
1019.931	-2040
1020.001	-3936
1020.071	-2737
1020.141	-3140
1020.211	-3399
1020.281	-4053
1020.351	-2871
1020.421	-3476
1020.491	-2548
1020.560	-3580
1020.630	-2068
1020.700	-3019
1020.770	-3279
1020.839	-4016
1020.909	-3010
1020.979	-3360
1021.048	-3080
1021.118	-4024
1021.187	-3416
1021.257	-2941
1021.326	-2175
1021.396	-3850
1021.465	-2907
1021.535	-3320
1021.604	-3426
1021.674	-3394
1021.743	-1970
1021.812	-3250
1021.882	-3764
1021.951	-2863
1022.020	-2874
1022.089	-3065
1022.159	-2895
1022.228	-2557
1022.297	-3162
1022.366	-3160
1022.435	-2168
1022.504	-2789
1022.573	-3761
1022.642	-3254
1022.711	-3017
1022.781	-3267
1022.849	-2140
1022.918	-3796
1022.987	-2789
1023.056	-2741
1023.125	-2567
1023.194	-3179
1023.263	-2509
1023.331	-2866
1023.400	-2415
1023.469	-3859
1023.538	-1853
1023.606	-3237
1023.675	-3095
1023.744	-3663
1023.812	-2880
1023.881	-3701
1023.949	-2416
1024.018	-3033
1024.086	-3082
1024.155	-3216
1024.223	-3201
1024.292	-3126
1024.360	-2849
1024.429	-3277
1024.497	-3191
1024.565	-3479
1024.634	-2504
1024.702	-3784
1024.770	-2301
1024.838	-3459
1024.907	-2031
1024.975	-3238
1025.043	-2538
1025.111	-3236
1025.179	-2103
1025.247	-3618
1025.315	-2772
1025.383	-2936
1025.451	-3214
1025.519	-3145
1025.587	-3324
1025.655	-3144
1025.723	-2923
1025.791	-2256
1025.859	-3064
1025.927	-3832
1025.995	-3206
1026.062	-3106
1026.130	-2960
1026.198	-3607
1026.266	-3385
1026.333	-2475
1026.401	-2696
1026.469	-3985
1026.536	-3042
1026.604	-3699
1026.671	-2712
1026.739	-2750
1026.806	-1715
1026.874	-3415
1026.941	-3145
1027.009	-3775
1027.076	-3129
1027.144	-2328
1027.211	-3215
1027.278	-4162
1027.345	-2547
1027.413	-3283
1027.480	-3225
1027.547	-2882
1027.614	-1897
1027.682	-3521
1027.749	-2906
1027.816	-3353
1027.883	-2366
1027.950	-2248
1028.017	-3234
1028.084	-3389
1028.151	-3838
1028.218	-3484
1028.285	-2715
1028.352	-3777
1028.419	-2874
1028.486	-3056
1028.553	-2627
1028.619	-3561
1028.686	-2503
1028.753	-2981
1028.820	-3658
1028.886	-3790
1028.953	-2858
1029.020	-3081
1029.086	-4183
1029.153	-3072
1029.220	-3273
1029.286	-2844
1029.353	-2360
1029.419	-3566
1029.486	-3000
1029.552	-3449
1029.619	-3011
1029.685	-3672
1029.751	-2663
1029.818	-2217
1029.884	-2779
1029.951	-2775
1030.017	-2655
1030.083	-2863
1030.149	-1958
1030.216	-3020
1030.282	-2842
1030.348	-4229
1030.414	-3138
1030.480	-3561
1030.546	-2710
1030.612	-3212
1030.678	-3109
1030.744	-2911
1030.810	-2695
1030.876	-2505
1030.942	-3109
1031.008	-3039
1031.074	-2902
1031.140	-3830
1031.206	-2291
1031.272	-3278
1031.337	-2588
1031.403	-2742
1031.469	-3173
1031.534	-3012
1031.600	-1686
1031.666	-3523
1031.731	-3236
1031.797	-3509
1031.863	-2851
1031.928	-3663
1031.994	-3402
1032.059	-3250
1032.125	-3537
1032.190	-3025
1032.256	-3026
1032.321	-3292
1032.386	-3117
1032.452	-3352
1032.517	-2728
1032.582	-2777
1032.647	-2949
1032.713	-3304
1032.778	-2575
1032.843	-2773
1032.908	-2606
1032.974	-2832
1033.039	-3001
1033.104	-2906
1033.169	-3051
1033.234	-3043
1033.299	-2007
1033.364	-2795
1033.429	-3012
1033.494	-3483
1033.559	-1857
1033.624	-2365
1033.688	-2775
1033.753	-3275
1033.818	-2977
1033.883	-3130
1033.948	-2979
1034.013	-2722
1034.077	-2554
1034.142	-2130
1034.207	-2669
1034.271	-2114
1034.336	-2097
1034.400	-3385
1034.465	-2395
1034.530	-3306
1034.594	-1884
1034.658	-2790
1034.723	-3544
1034.787	-3492
1034.852	-2018
1034.916	-3496
1034.981	-3129
1035.045	-3223
1035.109	-2959
1035.173	-2724
1035.238	-3721
1035.302	-2359
1035.366	-3095
1035.430	-3163
1035.495	-3139
1035.559	-2521
1035.623	-2306
1035.687	-3296
1035.751	-3148
1035.815	-4150
1035.879	-3012
1035.943	-2423
1036.007	-2896
1036.071	-3939
1036.135	-2383
1036.198	-2738
1036.262	-2549
1036.326	-2416
1036.390	-2616
1036.454	-3227
1036.517	-2466
1036.581	-2907
1036.645	-2497
1036.709	-3182
1036.772	-2362
1036.836	-3300
1036.900	-2793
1036.963	-3152
1037.026	-2340
1037.090	-3471
1037.154	-2676
1037.217	-3092
1037.280	-2907
1037.344	-2541
1037.407	-3031
1037.471	-3085
1037.534	-2839
1037.597	-3408
1037.661	-2795
1037.724	-3191
1037.787	-2763
1037.850	-3204
1037.913	-2847
1037.977	-2921
1038.040	-2625
1038.103	-2094
1038.166	-3318
1038.229	-3581
1038.292	-3566
1038.355	-3578
1038.418	-3035
1038.481	-2650
1038.544	-3131
1038.607	-2578
1038.670	-2947
1038.732	-2817
1038.795	-2842
1038.858	-3378
1038.921	-3125
1038.984	-2709
1039.046	-2977
1039.109	-3012
1039.172	-2846
1039.234	-2585
1039.297	-2537
1039.360	-3262
1039.422	-2508
1039.485	-3479
1039.547	-3190
1039.610	-3352
1039.672	-2785
1039.734	-3684
1039.797	-2747
1039.859	-2086
1039.922	-3338
1039.984	-3019
1040.046	-3268
1040.109	-3334
1040.171	-3663
1040.233	-2763
1040.295	-3407
1040.358	-2851
1040.420	-3154
1040.482	-3665
1040.544	-2344
1040.606	-3086
1040.668	-2038
1040.730	-3140
1040.792	-2858
1040.854	-4084
1040.916	-2991
1040.978	-2158
1041.040	-2115
1041.102	-3004
1041.164	-2940
1041.225	-3231
1041.287	-2793
1041.349	-2858
1041.411	-2697
1041.472	-3556
1041.534	-3513
1041.596	-3597
1041.657	-2536
1041.719	-2674
1041.781	-3100
1041.842	-3570
1041.904	-2686
1041.965	-2492
1042.027	-2506
1042.088	-2912
1042.150	-2925
1042.211	-3122
1042.272	-2268
1042.334	-3038
1042.395	-2408
1042.456	-2897
1042.518	-2433
1042.579	-2242
1042.640	-2724
1042.701	-3122
1042.763	-2495
1042.824	-3061
1042.885	-2080
1042.946	-3008
1043.007	-2759
1043.068	-2823
1043.129	-2306
1043.190	-2926
1043.251	-2161
1043.312	-2964
1043.373	-2207
1043.434	-3048
1043.495	-2106
1043.556	-2262
1043.616	-2549
1043.677	-2601
1043.738	-2463
1043.799	-3293
1043.859	-2394
1043.920	-2900
1043.981	-3070
1044.041	-2385
1044.102	-1962
1044.162	-3871
1044.223	-3271
1044.284	-2127
1044.344	-3139
1044.405	-2705
1044.465	-3233
1044.525	-2885
1044.586	-3377
1044.646	-3340
1044.707	-2484
1044.767	-2421
1044.827	-2781
1044.887	-3165
1044.948	-1878
1045.008	-2519
1045.068	-3032
1045.128	-3020
1045.188	-3456
1045.249	-2579
1045.309	-2568
1045.369	-3535
1045.429	-2717
1045.489	-2575
1045.549	-2799
1045.609	-3229
1045.669	-2455
1045.729	-2800
1045.789	-2319
1045.848	-2818
1045.908	-2213
1045.968	-2855
1046.028	-2430
1046.088	-2634
1046.147	-1980
1046.207	-2381
1046.267	-2766
1046.326	-3048
1046.386	-1870
1046.446	-2306
1046.505	-2338
1046.565	-2241
1046.624	-2123
1046.684	-1149
1046.743	-1683
1046.803	-1507
1046.862	-925
1046.922	0
