'Start Wavelength	183.907
'End Wavelength	1046.922
'Gate Delay	5.000
'Gate Width (ms)	1.050
'Laser Output Level	0.000
'X Position	0.000
'Y Position	0.000
'Z Position	0.000
'Grid Point Number	1.000
'Shot Number	100.000
183.907	-67.000
183.977	-507.000
184.047	65
184.116	937
184.186	451
184.256	-20
184.325	-113
184.395	119
184.465	-315
184.534	417
184.604	4
184.674	-513
184.743	18
184.813	-74
184.883	-200
184.952	138
185.022	184
185.092	-150
185.161	356
185.231	-248
185.301	224
185.370	517
185.440	-77
185.509	-137
185.579	-606
185.649	687
185.718	232
185.788	62
185.857	-730
185.927	33
185.996	367
186.066	-253
186.136	-273
186.205	35
186.275	-347
186.344	269
186.414	-103
186.483	-461
186.553	-322
186.622	273
186.692	-622
186.761	497
186.831	-54
186.900	314
186.970	79
187.039	-116
187.109	107
187.178	589
187.248	-339
187.317	-711
187.387	-243
187.456	-138
187.526	-207
187.595	320
187.664	116
187.734	-145
187.803	158
187.873	375
187.942	-282
188.012	413
188.081	-453
188.150	-487
188.220	235
188.289	168
188.358	-305
188.428	463
188.497	-214
188.567	-83
188.636	3
188.705	569
188.775	-941
188.844	-229
188.913	14
188.983	-182
189.052	-34
189.121	90
189.191	14
189.260	115
189.329	-244
189.399	-176
189.468	307
189.537	-106
189.606	144
189.676	114
189.745	702
189.814	-78
189.883	-314
189.953	-119
190.022	-490
190.091	385
190.161	110
190.230	326
190.299	190
190.368	-311
190.437	-617
190.507	296
190.576	-279
190.645	519
190.714	-48
190.783	-252
190.853	22
190.922	191
190.991	208
191.060	-127
191.129	82
191.198	780
191.268	194
191.337	-311
191.406	110
191.475	360
191.544	462
191.613	754
191.682	-5
191.752	267
191.821	365
191.890	2
191.959	353
192.028	177
192.097	-246
192.166	195
192.235	-94
192.304	202
192.373	125
192.442	16
192.511	200
192.580	378
192.650	-313
192.719	221
192.788	-655
192.857	318
192.926	-234
192.995	-227
193.064	213
193.133	1
193.202	109
193.271	514
193.340	171
193.409	176
193.478	-76
193.547	387
193.615	-40
193.684	189
193.753	-109
193.822	687
193.891	492
193.960	593
194.029	406
194.098	-324
194.167	747
194.236	288
194.305	189
194.374	78
194.443	351
194.512	175
194.580	209
194.649	498
194.718	-640
194.787	-10
194.856	-520
194.925	548
194.994	-288
195.062	549
195.131	362
195.200	414
195.269	-102
195.338	164
195.407	-223
195.475	127
195.544	513
195.613	151
195.682	530
195.751	637
195.819	569
195.888	1044
195.957	267
196.026	767
196.094	543
196.163	-508
196.232	89
196.301	244
196.369	-202
196.438	-143
196.507	542
196.576	466
196.644	-668
196.713	325
196.782	-93
196.850	299
196.919	-9
196.988	176
197.056	-105
197.125	643
197.194	557
197.262	443
197.331	346
197.400	-259
197.468	906
197.537	375
197.606	-131
197.674	486
197.743	-274
197.812	68
197.880	574
197.949	-323
198.017	50
198.086	-615
198.155	-23
198.223	366
198.292	-73
198.360	752
198.429	412
198.497	354
198.566	136
198.635	203
198.703	1489
198.772	801
198.840	527
198.909	743
198.977	-399
199.046	206
199.114	-126
199.183	513
199.251	-109
199.320	492
199.388	-48
199.457	418
199.525	-310
199.594	1084
199.662	142
199.731	425
199.799	254
199.867	368
199.936	-152
200.004	600
200.073	608
200.141	252
200.210	107
200.278	346
200.346	216
200.415	281
200.483	18
200.552	398
200.620	-153
200.688	-71
200.757	315
200.825	161
200.893	419
200.962	282
201.030	-330
201.098	-589
201.167	402
201.235	594
201.303	-2
201.372	535
201.440	567
201.508	461
201.577	104
201.645	535
201.713	303
201.781	205
201.850	608
201.918	569
201.986	400
202.055	955
202.123	320
202.191	420
202.259	287
202.327	-325
202.396	196
202.464	496
202.532	-221
202.600	699
202.669	-4
202.737	377
202.805	85
202.873	238
202.941	161
203.009	748
203.078	257
203.146	-421
203.214	478
203.282	78
203.350	-41
203.418	549
203.487	449
203.555	362
203.623	803
203.691	535
203.759	-610
203.827	-100
203.895	78
203.963	114
204.031	-30
204.099	1272
204.168	50
204.236	-5
204.304	528
204.372	-453
204.440	-238
204.508	184
204.576	-17
204.644	203
204.712	236
204.780	804
204.848	-162
204.916	812
204.984	281
205.052	972
205.120	120
205.188	381
205.256	538
205.324	-126
205.392	-175
205.460	257
205.528	410
205.596	807
205.664	-88
205.732	62
205.799	688
205.867	1136
205.935	77
206.003	321
206.071	708
206.139	406
206.207	126
206.275	362
206.343	-295
206.411	427
206.478	301
206.546	471
206.614	104
206.682	263
206.750	224
206.818	661
206.885	-132
206.953	406
207.021	152
207.089	653
207.157	-403
207.225	625
207.292	23
207.360	675
207.428	147
207.496	436
207.563	314
207.631	274
207.699	643
207.767	175
207.834	695
207.902	122
207.970	773
208.038	465
208.105	727
208.173	393
208.241	65
208.309	402
208.376	683
208.444	333
208.512	655
208.579	274
208.647	281
208.715	292
208.782	224
208.850	169
208.918	530
208.985	744
209.053	669
209.120	302
209.188	237
209.256	296
209.323	837
209.391	736
209.459	878
209.526	585
209.594	425
209.661	519
209.729	2
209.796	-44
209.864	668
209.932	593
209.999	861
210.067	372
210.134	656
210.202	950
210.269	1248
210.337	839
210.404	-150
210.472	343
210.539	636
210.607	721
210.674	1103
210.742	474
210.809	261
210.877	490
210.944	420
211.012	145
211.079	973
211.146	520
211.214	425
211.281	570
211.349	319
211.416	976
211.484	853
211.551	669
211.618	439
211.686	1140
211.753	648
211.821	1018
211.888	-94
211.955	514
212.023	565
212.090	318
212.157	288
212.225	749
212.292	1186
212.359	1370
212.427	2986
212.494	827
212.561	649
212.629	973
212.696	392
212.763	326
212.831	335
212.898	718
212.965	707
213.032	783
213.100	779
213.167	464
213.234	883
213.301	1064
213.369	802
213.436	985
213.503	483
213.570	1095
213.638	876
213.705	413
213.772	720
213.839	525
213.906	409
213.973	420
214.041	685
214.108	1314
214.175	183
214.242	890
214.309	480
214.376	463
214.444	393
214.511	989
214.578	745
214.645	944
214.712	-124
214.779	1042
214.846	702
214.913	931
214.980	555
215.048	862
215.115	879
215.182	895
215.249	1065
215.316	476
215.383	850
215.450	885
215.517	510
215.584	620
215.651	349
215.718	734
215.785	860
215.852	513
215.919	1263
215.986	1228
216.053	582
216.120	348
216.187	513
216.254	1288
216.321	-6
216.388	660
216.455	1215
216.522	835
216.589	642
216.656	1483
216.722	939
216.789	1082
216.856	1093
216.923	1359
216.990	1288
217.057	1421
217.124	832
217.191	1361
217.258	1240
217.324	1439
217.391	1893
217.458	1639
217.525	1449
217.592	492
217.659	887
217.725	787
217.792	1212
217.859	840
217.926	385
217.993	874
218.059	1070
218.126	1033
218.193	260
218.260	863
218.327	262
218.393	991
218.460	592
218.527	781
218.594	721
218.660	272
218.727	977
218.794	332
218.860	106
218.927	-128
218.994	608
219.061	12
219.127	-236
219.194	211
219.261	296
219.327	570
219.394	312
219.461	605
219.527	818
219.594	1383
219.661	1036
219.727	-468
219.794	629
219.860	800
219.927	347
219.994	876
220.060	716
220.127	643
220.193	1228
220.260	612
220.326	1368
220.393	2938
220.460	2796
220.526	1955
220.593	1124
220.659	1274
220.726	1896
220.792	2349
220.859	2729
220.925	4236
220.992	4574
221.058	3254
221.125	2197
221.191	1925
221.258	1040
221.324	451
221.391	751
221.457	546
221.524	1634
221.590	1453
221.657	2238
221.723	1585
221.789	1365
221.856	1283
221.922	300
221.989	108
222.055	546
222.121	-67
222.188	917
222.254	406
222.321	299
222.387	471
222.453	517
222.520	808
222.586	415
222.652	720
222.719	370
222.785	541
222.851	380
222.918	119
222.984	679
223.050	481
223.116	340
223.183	514
223.249	-50
223.315	678
223.382	537
223.448	684
223.514	-189
223.580	188
223.647	545
223.713	167
223.779	-136
223.845	201
223.911	815
223.978	1096
224.044	-376
224.110	422
224.176	616
224.242	465
224.309	-392
224.375	430
224.441	-2
224.507	276
224.573	103
224.639	576
224.705	-309
224.772	173
224.838	353
224.904	389
224.970	239
225.036	644
225.102	-257
225.168	-17
225.234	662
225.300	287
225.366	-76
225.432	385
225.499	521
225.565	330
225.631	184
225.697	614
225.763	1228
225.829	931
225.895	1071
225.961	881
226.027	831
226.093	2055
226.159	1189
226.225	2141
226.291	4219
226.357	5107
226.423	2604
226.489	1908
226.554	1236
226.620	1619
226.686	1470
226.752	2689
226.818	4301
226.884	6718
226.950	5392
227.016	2793
227.082	1995
227.148	1252
227.214	626
227.279	1208
227.345	933
227.411	1484
227.477	806
227.543	1179
227.609	846
227.674	647
227.740	334
227.806	881
227.872	285
227.938	452
228.003	1303
228.069	146
228.135	660
228.201	-38
228.267	-190
228.332	1051
228.398	-17
228.464	217
228.530	615
228.595	925
228.661	131
228.727	892
228.792	703
228.858	523
228.924	552
228.990	1057
229.055	120
229.121	308
229.187	683
229.252	470
229.318	550
229.384	-245
229.449	32
229.515	926
229.581	30
229.646	462
229.712	404
229.777	572
229.843	571
229.909	990
229.974	1118
230.040	1345
230.105	1220
230.171	680
230.236	530
230.302	1095
230.368	1006
230.433	1165
230.499	723
230.564	1411
230.630	664
230.695	331
230.761	710
230.826	227
230.892	1320
230.957	1601
231.023	577
231.088	283
231.154	1300
231.219	607
231.284	541
231.350	641
231.415	918
231.481	271
231.546	288
231.612	335
231.677	313
231.742	472
231.808	248
231.873	956
231.939	-228
232.004	1020
232.069	683
232.135	-365
232.200	489
232.265	596
232.331	827
232.396	272
232.461	482
232.527	-4
232.592	-131
232.657	583
232.723	658
232.788	-644
232.853	445
232.918	447
232.984	-287
233.049	344
233.114	452
233.179	61
233.245	999
233.310	670
233.375	94
233.440	961
233.506	291
233.571	60
233.636	351
233.701	82
233.766	808
233.832	116
233.897	-62
233.962	-190
234.027	613
234.092	1080
234.157	270
234.222	1068
234.288	840
234.353	1956
234.418	1563
234.483	1850
234.548	727
234.613	1797
234.678	749
234.743	1113
234.808	2393
234.873	1225
234.938	1261
235.004	753
235.069	628
235.134	874
235.199	578
235.264	996
235.329	0
235.394	819
235.459	485
235.524	709
235.589	1208
235.654	562
235.719	286
235.784	485
235.849	721
235.913	1111
235.978	949
236.043	1315
236.108	1103
236.173	833
236.238	1532
236.303	841
236.368	1148
236.433	1863
236.498	1457
236.563	1526
236.627	4527
236.692	9259
236.757	5968
236.822	3164
236.887	2191
236.952	2382
237.017	1925
237.081	2038
237.146	3133
237.211	6828
237.276	9081
237.341	9712
237.405	5628
237.470	3533
237.535	1726
237.600	1673
237.664	1737
237.729	855
237.794	2627
237.859	4364
237.923	1484
237.988	281
238.053	1782
238.118	1457
238.182	2862
238.247	2564
238.312	700
238.376	1177
238.441	1041
238.506	1116
238.570	891
238.635	662
238.700	591
238.764	618
238.829	1958
238.893	1573
238.958	1142
239.023	1164
239.087	1182
239.152	978
239.216	1308
239.281	1108
239.346	1233
239.410	1065
239.475	1200
239.539	2964
239.604	995
239.668	1255
239.733	385
239.797	636
239.862	1135
239.926	1965
239.991	678
240.055	890
240.120	1259
240.184	202
240.249	644
240.313	931
240.378	358
240.442	2107
240.507	1773
240.571	1263
240.635	1094
240.700	1611
240.764	359
240.829	516
240.893	-254
240.957	698
241.022	2742
241.086	1948
241.151	519
241.215	892
241.279	1622
241.344	1151
241.408	1340
241.472	802
241.537	860
241.601	1379
241.665	508
241.730	1073
241.794	666
241.858	1234
241.922	702
241.987	1296
242.051	1063
242.115	939
242.179	1196
242.244	321
242.308	1131
242.372	1042
242.436	992
242.501	1187
242.565	771
242.629	533
242.693	1210
242.757	749
242.822	1150
242.886	1021
242.950	789
243.014	390
243.078	992
243.142	1274
243.206	425
243.271	693
243.335	1021
243.399	1573
243.463	5631
243.527	8422
243.591	2112
243.655	1477
243.719	720
243.783	1115
243.847	1821
243.911	1889
243.975	2557
244.040	1680
244.104	1741
244.168	1273
244.232	1341
244.296	2354
244.360	1618
244.424	689
244.488	-147
244.552	1468
244.615	343
244.679	1344
244.743	737
244.807	195
244.871	800
244.935	590
244.999	455
245.063	1033
245.127	1304
245.191	1562
245.255	1170
245.319	1036
245.383	344
245.446	1784
245.510	1320
245.574	529
245.638	759
245.702	1016
245.766	1743
245.829	845
245.893	1069
245.957	495
246.021	1240
246.085	998
246.149	1027
246.212	2547
246.276	2946
246.340	1376
246.404	1090
246.467	1804
246.531	1404
246.595	1782
246.659	1473
246.722	831
246.786	1882
246.850	2289
246.913	1842
246.977	890
247.041	961
247.104	523
247.168	1340
247.232	3133
247.295	4401
247.359	1779
247.423	1875
247.486	2438
247.550	1406
247.614	1348
247.677	2230
247.741	940
247.804	615
247.868	2417
247.932	2718
247.995	4523
248.059	1487
248.122	914
248.186	1910
248.249	3347
248.313	6987
248.376	5747
248.440	3970
248.503	944
248.567	2770
248.630	2567
248.694	4016
248.757	5154
248.821	6782
248.884	5538
248.948	5025
249.011	6352
249.075	7290
249.138	5277
249.202	3115
249.265	2456
249.328	2922
249.392	2363
249.455	2194
249.519	1857
249.582	2063
249.645	3281
249.709	1801
249.772	2028
249.835	1515
249.899	1696
249.962	1769
250.025	1276
250.089	3592
250.152	3745
250.215	2437
250.279	2019
250.342	1553
250.405	1705
250.468	1706
250.532	2167
250.595	4553
250.658	12157
250.721	11919
250.785	4847
250.848	3224
250.911	1924
250.974	2126
251.038	3412
251.101	4708
251.164	2762
251.227	3310
251.290	2706
251.354	5603
251.417	15054
251.480	10510
251.543	11243
251.606	24231
251.669	13172
251.732	6818
251.795	7643
251.859	8137
251.922	14487
251.985	6472
252.048	3978
252.111	2136
252.174	2621
252.237	5317
252.300	8852
252.363	13373
252.426	16385
252.489	6708
252.552	4659
252.615	3418
252.678	4513
252.741	6473
252.804	12019
252.867	18106
252.930	10633
252.993	5665
253.056	3919
253.119	3019
253.182	2607
253.245	4129
253.308	3384
253.371	2449
253.434	2932
253.497	2633
253.559	4108
253.622	3151
253.685	6517
253.748	3854
253.811	1995
253.874	2338
253.937	2209
254.000	2529
254.062	4518
254.125	4870
254.188	6214
254.251	3055
254.314	2407
254.376	4200
254.439	3942
254.502	4108
254.565	4207
254.628	5512
254.690	3414
254.753	1972
254.816	1606
254.878	2169
254.941	4494
255.004	2413
255.067	1343
255.129	1262
255.192	1123
255.255	837
255.317	1570
255.380	50
255.443	687
255.505	99
255.568	148
255.631	187
255.693	804
255.756	394
255.819	1136
255.881	1867
255.944	844
256.006	550
256.069	855
256.132	731
256.194	1901
256.257	2347
256.319	2253
256.382	1365
256.444	1987
256.507	986
256.569	1171
256.632	1178
256.694	2315
256.757	10181
256.819	15621
256.882	5819
256.944	2637
257.007	2814
257.069	2248
257.132	1260
257.194	1378
257.257	1315
257.319	1367
257.381	1750
257.444	8481
257.506	21467
257.569	17154
257.631	6846
257.693	4303
257.756	1658
257.818	2383
257.880	867
257.943	1683
258.005	1295
258.067	988
258.130	1410
258.192	2560
258.254	2110
258.317	1057
258.379	1497
258.441	3382
258.503	2145
258.566	4213
258.628	2777
258.690	622
258.753	2552
258.815	3013
258.877	872
258.939	1907
259.001	1153
259.064	765
259.126	1282
259.188	1800
259.250	1730
259.312	2214
259.375	3084
259.437	1322
259.499	1045
259.561	1074
259.623	1606
259.685	1428
259.747	993
259.809	4209
259.872	4116
259.934	9213
259.996	8229
260.058	2228
260.120	1213
260.182	293
260.244	1190
260.306	1070
260.368	970
260.430	1150
260.492	4661
260.554	3446
260.616	1885
260.678	5475
260.740	3174
260.802	849
260.864	1427
260.926	609
260.988	1310
261.050	2160
261.112	5369
261.174	8480
261.236	3130
261.298	1517
261.359	2630
261.421	3097
261.483	936
261.545	1575
261.607	770
261.669	590
261.731	2027
261.793	3385
261.854	473
261.916	1659
261.978	1651
262.040	1533
262.102	1452
262.164	1269
262.225	664
262.287	1426
262.349	2243
262.411	1544
262.472	760
262.534	1313
262.596	2366
262.658	1267
262.719	734
262.781	1976
262.843	1689
262.904	1172
262.966	1399
263.028	1545
263.090	8424
263.151	13006
263.213	5009
263.275	2989
263.336	1700
263.398	1081
263.459	405
263.521	983
263.583	2313
263.644	1555
263.706	120
263.767	317
263.829	882
263.891	-89
263.952	404
264.014	578
264.075	3885
264.137	4739
264.198	1378
264.260	271
264.321	167
264.383	5065
264.444	6964
264.506	1450
264.567	1240
264.629	4880
264.690	5220
264.752	1679
264.813	1138
264.875	332
264.936	1354
264.998	541
265.059	153
265.120	1019
265.182	2683
265.243	14506
265.305	7363
265.366	2075
265.427	1240
265.489	1540
265.550	590
265.611	833
265.673	390
265.734	254
265.795	465
265.857	700
265.918	1183
265.979	5147
266.040	19280
266.102	9520
266.163	3942
266.224	3357
266.286	1489
266.347	-96
266.408	335
266.469	1714
266.530	124
266.592	474
266.653	2340
266.714	2713
266.775	536
266.836	-176
266.898	741
266.959	2720
267.020	268
267.081	319
267.142	584
267.203	641
267.264	21
267.326	1095
267.387	832
267.448	504
267.509	1225
267.570	216
267.631	193
267.692	735
267.753	410
267.814	-68
267.875	2382
267.936	3130
267.997	2990
268.058	2080
268.119	812
268.180	1049
268.241	470
268.302	811
268.363	352
268.424	277
268.485	1164
268.546	150
268.607	-200
268.668	168
268.729	547
268.790	122
268.851	456
268.912	2809
268.972	2873
269.033	1201
269.094	-24
269.155	1376
269.216	71
269.277	361
269.338	90
269.398	1189
269.459	360
269.520	1594
269.581	2598
269.642	1684
269.702	649
269.763	870
269.824	997
269.885	1597
269.945	2141
270.006	523
270.067	181
270.128	335
270.188	438
270.249	591
270.310	-235
270.370	426
270.431	201
270.492	676
270.553	280
270.613	2146
270.674	3462
270.734	245
270.795	269
270.856	1151
270.916	505
270.977	1523
271.038	1177
271.098	1529
271.159	2139
271.219	1703
271.280	119
271.340	813
271.401	-48
271.462	951
271.522	915
271.583	559
271.643	508
271.704	957
271.764	622
271.825	2982
271.885	10014
271.946	8160
272.006	2988
272.066	6150
272.127	5355
272.187	1478
272.248	1036
272.308	1545
272.369	5504
272.429	2237
272.489	3184
272.550	1899
272.610	3358
272.671	1847
272.731	2301
272.791	2483
272.852	640
272.912	1666
272.972	1197
273.033	809
273.093	1311
273.153	1551
273.214	1089
273.274	949
273.334	6852
273.394	6747
273.455	2255
273.515	4989
273.575	5814
273.635	2387
273.696	5048
273.756	5612
273.816	2711
273.876	2094
273.936	3465
273.997	4572
274.057	888
274.117	902
274.177	3439
274.237	11616
274.297	5300
274.358	5502
274.418	5233
274.478	4095
274.538	1070
274.598	1359
274.658	4217
274.718	5007
274.778	1382
274.838	1000
274.898	3283
274.958	5279
275.018	6583
275.078	3465
275.138	1996
275.198	-233
275.258	111
275.318	686
275.378	2768
275.438	2526
275.498	1687
275.558	4763
275.618	6040
275.678	3102
275.738	4389
275.798	2604
275.858	1208
275.918	153
275.978	1354
276.038	1038
276.098	637
276.157	2954
276.217	5426
276.277	2470
276.337	1963
276.397	1429
276.457	1481
276.517	601
276.576	178
276.636	137
276.696	1727
276.756	4426
276.815	1593
276.875	566
276.935	1672
276.995	602
277.055	964
277.114	311
277.174	2546
277.234	4061
277.293	1358
277.353	-515
277.413	1144
277.472	1007
277.532	116
277.592	1142
277.651	5393
277.711	4820
277.771	3047
277.830	10071
277.890	4763
277.950	6371
278.009	9820
278.069	3125
278.128	6192
278.188	5686
278.248	4178
278.307	7468
278.367	2636
278.426	638
278.486	1212
278.545	836
278.605	773
278.664	470
278.724	1445
278.783	3828
278.843	5467
278.902	1261
278.962	1652
279.021	1821
279.081	1949
279.140	1563
279.199	1673
279.259	887
279.318	733
279.378	2179
279.437	3781
279.496	11833
279.556	31553
279.615	14017
279.675	4536
279.734	3985
279.793	6646
279.853	5917
279.912	2427
279.971	1687
280.031	1681
280.090	4014
280.149	4823
280.208	6317
280.268	25810
280.327	13249
280.386	3866
280.445	4952
280.505	2792
280.564	1433
280.623	1462
280.682	3111
280.742	3188
280.801	1121
280.860	-12
280.919	971
280.978	277
281.037	675
281.097	-503
281.156	392
281.215	928
281.274	1254
281.333	6248
281.392	1464
281.451	366
281.510	747
281.569	516
281.628	-575
281.688	93
281.747	961
281.806	17
281.865	162
281.924	-416
281.983	-60
282.042	-253
282.101	-584
282.160	403
282.219	-100
282.278	856
282.337	3066
282.396	962
282.454	-76
282.513	1037
282.572	5286
282.631	808
282.690	589
282.749	-32
282.808	1192
282.867	1140
282.926	336
282.985	364
283.043	-358
283.102	-156
283.161	852
283.220	2673
283.279	4326
283.338	583
283.396	1265
283.455	109
283.514	752
283.573	1928
283.631	704
283.690	198
283.749	413
283.808	2423
283.866	1727
283.925	-110
283.984	1037
284.043	852
284.101	841
284.160	619
284.219	851
284.277	392
284.336	2501
284.395	7014
284.453	2535
284.512	2265
284.570	2677
284.629	2687
284.688	1787
284.746	1855
284.805	2516
284.863	3647
284.922	5746
284.981	5750
285.039	9874
285.098	16919
285.156	29026
285.215	25519
285.273	28567
285.332	23129
285.390	14858
285.449	9602
285.507	5816
285.566	4807
285.624	3971
285.683	2975
285.741	2016
285.799	1428
285.858	1736
285.916	1246
285.975	987
286.033	386
286.091	620
286.150	268
286.208	616
286.267	1084
286.325	1038
286.383	2423
286.442	1219
286.500	597
286.558	621
286.616	887
286.675	1788
286.733	481
286.791	602
286.850	977
286.908	1688
286.966	1495
287.024	582
287.083	377
287.141	134
287.199	910
287.257	1230
287.315	950
287.374	1069
287.432	2959
287.490	1323
287.548	846
287.606	155
287.664	1163
287.723	1698
287.781	1089
287.839	425
287.897	336
287.955	1276
288.013	2434
288.071	6796
288.129	27899
288.187	44606
288.245	15329
288.303	5346
288.361	3569
288.419	2818
288.477	1620
288.535	592
288.593	672
288.651	588
288.709	709
288.767	816
288.825	293
288.883	43
288.941	552
288.999	-459
289.057	-212
289.115	383
289.173	58
289.231	202
289.289	-357
289.346	81
289.404	941
289.462	1677
289.520	1429
289.578	174
289.636	-41
289.694	582
289.751	-312
289.809	242
289.867	-408
289.925	683
289.983	355
290.040	681
290.098	425
290.156	911
290.214	514
290.271	277
290.329	-1137
290.387	-668
290.444	-265
290.502	-221
290.560	-394
290.617	218
290.675	111
290.733	-345
290.790	-138
290.848	-430
290.906	596
290.963	882
291.021	512
291.078	178
291.136	-72
291.194	5206
291.251	4699
291.309	1024
291.366	1200
291.424	445
291.481	-289
291.539	157
291.596	-10
291.654	-129
291.711	-624
291.769	369
291.826	1390
291.884	516
291.941	-312
291.999	-270
292.056	1122
292.114	-218
292.171	-321
292.228	163
292.286	934
292.343	1873
292.401	1498
292.458	941
292.515	363
292.573	919
292.630	840
292.687	261
292.745	915
292.802	1560
292.859	5149
292.917	5393
292.974	1593
293.031	14
293.089	55
293.146	659
293.203	239
293.260	-91
293.318	460
293.375	1643
293.432	1063
293.489	72
293.546	74
293.604	491
293.661	4405
293.718	8282
293.775	2858
293.832	2206
293.889	1497
293.947	1097
294.004	-26
294.061	991
294.118	2720
294.175	8315
294.232	9193
294.289	2630
294.346	1632
294.403	1263
294.460	325
294.517	-47
294.574	783
294.631	393
294.688	1166
294.745	4293
294.802	12875
294.859	12003
294.916	2993
294.973	2369
295.030	2005
295.087	1766
295.144	873
295.201	12
295.258	178
295.315	1601
295.372	4227
295.429	5582
295.486	2504
295.542	3017
295.599	9905
295.656	11205
295.713	7275
295.770	5674
295.827	1514
295.883	1535
295.940	967
295.997	2873
296.054	2222
296.111	1140
296.167	896
296.224	961
296.281	454
296.338	-730
296.394	442
296.451	932
296.508	3928
296.564	6135
296.621	4469
296.678	10471
296.734	9835
296.791	3583
296.848	2311
296.904	3194
296.961	6404
297.018	7842
297.074	4013
297.131	1567
297.187	1469
297.244	3164
297.301	8535
297.357	8956
297.414	2373
297.470	1586
297.527	1436
297.583	1421
297.640	1263
297.696	617
297.753	534
297.809	48
297.866	-417
297.922	-24
297.979	66
298.035	-229
298.092	1906
298.148	4550
298.204	3469
298.261	2184
298.317	6147
298.374	9066
298.430	3565
298.486	2128
298.543	1310
298.599	2038
298.656	2155
298.712	5560
298.768	7928
298.824	4087
298.881	1431
298.937	1354
298.993	1407
299.050	1532
299.106	980
299.162	1225
299.218	572
299.275	757
299.331	1286
299.387	3345
299.443	9044
299.500	6129
299.556	2301
299.612	1596
299.668	1201
299.724	710
299.780	38
299.837	538
299.893	1679
299.949	7425
300.005	6648
300.061	8751
300.117	10523
300.173	4051
300.229	2702
300.285	3264
300.341	3592
300.397	1409
300.453	274
300.510	952
300.566	821
300.622	1096
300.678	2245
300.734	5458
300.790	6244
300.845	6417
300.901	3946
300.957	7410
301.013	3376
301.069	1602
301.125	2017
301.181	914
301.237	1012
301.293	367
301.349	384
301.405	592
301.461	693
301.516	938
301.572	785
301.628	2590
301.684	1804
301.740	2997
301.796	3934
301.851	3785
301.907	5781
301.963	5280
302.019	10284
302.074	20239
302.130	16278
302.186	6577
302.242	2985
302.297	3015
302.353	2553
302.409	5465
302.464	3834
302.520	4477
302.576	9120
302.631	9491
302.687	5184
302.743	2247
302.798	1609
302.854	1210
302.910	1464
302.965	2599
303.021	3936
303.076	3486
303.132	5152
303.187	5245
303.243	2267
303.299	1135
303.354	884
303.410	572
303.465	326
303.521	804
303.576	600
303.632	1799
303.687	3081
303.743	7871
303.798	5285
303.853	2700
303.909	1089
303.964	1902
304.020	3720
304.075	3825
304.130	4297
304.186	6689
304.241	6112
304.297	4779
304.352	2387
304.358	2325
304.407	1817
304.449	1049
304.463	790
304.518	2256
304.539	1857
304.573	1220
304.629	1199
304.630	1224
304.684	2357
304.720	4834
304.739	6101
304.794	7859
304.811	6642
304.850	3598
304.902	1809
304.905	1701
304.960	2077
304.992	1406
305.015	913
305.071	1021
305.083	929
305.126	574
305.173	673
305.181	697
305.236	632
305.264	818
305.292	1039
305.347	1589
305.354	1648
305.402	1935
305.445	2018
305.457	2058
305.512	2548
305.535	2371
305.567	2095
305.622	2147
305.626	2235
305.678	4211
305.716	8205
305.733	9767
305.788	8831
305.807	7927
305.843	5955
305.897	7940
305.898	7971
305.953	7237
305.988	5347
306.008	4157
306.063	2521
306.078	2346
306.118	2202
306.168	1133
306.173	1038
306.228	1172
306.259	863
306.283	652
306.338	804
306.349	943
306.393	1695
306.440	1604
306.448	1520
306.503	1607
306.530	1852
306.558	2731
306.613	6142
306.620	6360
306.668	7442
306.711	9166
306.723	9362
306.778	6657
306.801	5680
306.833	4183
306.888	1588
306.892	1498
306.943	1277
306.982	1561
306.997	1703
307.052	1235
307.072	1321
307.107	1609
307.162	2308
307.163	2316
307.217	3796
307.253	4431
307.272	4523
307.327	4674
307.343	4380
307.381	3478
307.434	3197
307.436	3289
307.491	6617
307.524	8931
307.546	9696
307.600	8875
307.614	8384
307.655	5617
307.704	3397
307.710	3395
307.765	4022
307.795	4762
307.819	5944
307.874	9012
307.885	9127
307.929	7342
307.975	6352
307.984	6590
308.038	9245
308.065	11550
308.093	17754
308.148	34762
308.156	37785
308.202	57874
308.246	68286
308.257	65546
308.312	41563
308.336	32334
308.366	25864
308.421	15601
308.426	14742
308.475	10146
308.517	7013
308.530	6650
308.585	5277
308.607	4801
308.639	4614
308.694	4753
308.697	4839
308.748	8550
308.787	11357
308.803	11534
308.857	9144
308.877	8715
308.912	8191
308.967	7509
308.967	7503
309.021	10362
309.058	12614
309.076	15473
309.130	26816
309.148	30898
309.185	47908
309.238	74864
309.239	75242
309.293	84159
309.328	85066
309.348	75804
309.402	45841
309.418	38098
309.457	28014
309.508	16440
309.511	16232
309.566	13528
309.598	12218
309.620	12868
309.674	15241
309.688	15785
309.729	15494
309.778	14226
309.783	13942
309.837	10342
309.868	8512
309.892	9224
309.946	11975
309.959	12803
310.001	18602
310.049	23899
310.055	23145
310.109	14693
310.139	10181
310.163	8383
310.218	5105
310.229	4468
310.272	3759
310.319	3256
310.326	3242
310.381	3001
310.409	2849
310.435	2652
310.489	2456
310.499	2396
310.543	2497
310.589	2675
310.598	2768
310.652	3237
310.679	3426
310.706	3121
310.760	2461
310.769	2345
310.814	2234
310.859	2229
310.868	2249
310.923	2394
310.948	2366
310.977	2392
311.031	2531
311.038	2540
311.085	2693
311.128	2724
311.139	2734
311.193	2867
311.218	2894
311.247	2962
311.301	3067
311.308	3072
311.356	2878
311.398	2692
311.410	2719
311.464	2736
311.488	2764
311.518	2827
311.572	2873
311.578	2870
311.626	3603
311.668	4281
311.680	4289
311.734	4175
311.758	4139
311.788	4336
311.842	4616
311.847	4633
311.896	5136
311.937	5560
311.950	5789
312.004	6715
312.027	7081
312.058	5965
312.112	3958
312.117	3745
312.165	3762
312.207	3757
312.297	5073
312.386	4884
312.476	3870
312.566	6749
312.656	4528
312.745	2767
312.835	3681
312.925	4371
313.015	3903
313.104	4402
313.194	2381
313.284	2835
313.374	3842
313.463	5021
313.553	3440
313.643	2958
313.732	3002
313.822	3667
313.912	2746
314.001	3872
314.091	3867
314.180	5912
314.270	4825
314.360	4858
314.449	4222
314.539	3276
314.628	2587
314.718	4379
314.808	4177
314.897	3199
314.987	3511
315.076	2825
315.166	4145
315.255	4430
315.345	3755
315.434	3960
315.524	3532
315.613	4804
315.703	3852
315.792	4599
315.881	3723
315.971	3302
316.060	5317
316.150	8056
316.239	9080
316.328	4723
316.418	2673
316.507	2011
316.597	4066
316.686	4061
316.775	3706
316.865	8638
316.954	3989
317.043	2846
317.133	3241
317.222	2623
317.311	2219
317.400	2465
317.490	3301
317.579	4475
317.668	2839
317.757	3233
317.847	4322
317.936	5042
318.025	7591
318.114	4723
318.203	4361
318.293	6076
318.382	12040
318.471	10889
318.560	13154
318.649	26432
318.738	9374
318.828	4790
318.917	5097
319.006	5026
319.095	10132
319.184	29414
319.273	22548
319.362	12046
319.451	3629
319.540	4066
319.629	5899
319.718	13130
319.807	7044
319.896	8945
319.985	35207
320.074	21803
320.163	5024
320.252	6089
320.341	5736
320.430	7712
320.519	6095
320.608	4180
320.697	4412
320.786	3318
320.875	3526
320.964	5474
321.053	7905
321.142	9829
321.230	13075
321.319	8008
321.408	20112
321.497	12628
321.586	7504
321.675	8609
321.764	10959
321.852	7818
321.941	10344
322.030	9141
322.119	6886
322.207	18512
322.296	14368
322.385	8618
322.474	7091
322.562	19542
322.651	17553
322.740	7401
322.829	11329
322.917	11590
323.006	7980
323.095	7633
323.183	5154
323.272	7857
323.361	10866
323.449	28087
323.538	14177
323.626	17901
323.715	17336
323.804	6378
323.892	17068
323.981	15872
324.069	5173
324.158	8940
324.246	12548
324.335	5336
324.424	8492
324.512	4886
324.601	5742
324.689	5472
324.778	10748
324.866	8471
324.954	4862
325.043	3052
325.131	5235
325.220	9311
325.308	10840
325.397	7717
325.485	6465
325.574	2489
325.662	2642
325.750	2847
325.839	2734
325.927	2564
326.015	3404
326.104	3674
326.192	5729
326.280	3015
326.369	2273
326.457	3684
326.545	6339
326.634	4736
326.722	2889
326.810	2837
326.898	2773
326.987	3228
327.075	5535
327.163	6251
327.251	3379
327.340	3740
327.428	6951
327.516	2563
327.604	2264
327.692	2542
327.781	2712
327.869	5060
327.957	3400
328.045	3280
328.133	2656
328.221	3035
328.309	3308
328.397	3031
328.485	3427
328.574	4843
328.662	10000
328.750	8614
328.838	3862
328.926	3151
329.014	2117
329.102	3660
329.190	9004
329.278	8703
329.366	2783
329.454	2728
329.542	2925
329.630	2355
329.718	2890
329.806	3506
329.893	3649
329.981	5326
330.069	7093
330.157	18655
330.245	49633
330.333	40151
330.421	10471
330.509	6593
330.597	13464
330.684	13889
330.772	5552
330.860	7241
330.948	9302
331.036	6188
331.123	1990
331.211	2050
331.299	3748
331.387	5566
331.475	15317
331.562	5328
331.650	2079
331.738	2849
331.825	4135
331.913	2340
332.001	2640
332.089	3028
332.176	5536
332.264	8698
332.352	10707
332.439	4680
332.527	3042
332.614	2664
332.702	2940
332.790	2959
332.877	3916
332.965	10960
333.052	3796
333.140	3170
333.228	6557
333.315	3464
333.403	2596
333.490	4960
333.578	6758
333.665	7236
333.753	5542
333.840	2199
333.928	2638
334.015	6721
334.103	10521
334.190	33942
334.278	15810
334.365	3876
334.452	2593
334.540	2329
334.627	2339
334.715	3917
334.802	6133
334.889	24384
334.977	37588
335.064	5228
335.151	2478
335.239	3488
335.326	4723
335.413	14733
335.501	32669
335.588	5658
335.675	2651
335.762	4469
335.850	7583
335.937	4285
336.024	7565
336.111	33360
336.199	22496
336.286	4591
336.373	2606
336.460	1915
336.547	1710
336.635	2622
336.722	2743
336.809	3087
336.896	4066
336.983	10927
337.070	30595
337.157	41380
337.245	24688
337.332	21591
337.419	3276
337.506	2205
337.593	3167
337.680	7948
337.767	34766
337.854	13040
337.941	12083
338.028	10385
338.115	4384
338.202	5404
338.289	7383
338.376	21495
338.463	12538
338.550	14842
338.637	26133
338.724	5113
338.811	8859
338.898	3066
338.984	1859
339.071	3128
339.158	3408
339.245	8216
339.332	7141
339.419	4533
339.506	7119
339.593	1946
339.679	3024
339.766	2783
339.853	2148
339.940	6461
340.027	2915
340.113	2839
340.200	3843
340.287	2915
340.374	2965
340.460	5881
340.547	3655
340.634	3833
340.720	11590
340.807	10915
340.894	2429
340.980	2487
341.067	2467
341.154	3389
341.240	2844
341.327	8283
341.414	4022
341.500	3399
341.587	2810
341.674	2028
341.760	4141
341.847	7225
341.933	2783
342.020	2249
342.106	1963
342.193	1496
342.279	5413
342.366	3070
342.452	5119
342.539	4110
342.625	5738
342.712	15572
342.798	9525
342.885	3553
342.971	1433
343.058	1462
343.144	1762
343.230	2288
343.317	1988
343.403	2253
343.490	1542
343.576	2552
343.662	1377
343.749	2395
343.835	2610
343.921	4428
344.008	15011
344.094	44597
344.180	16549
344.267	5295
344.353	11064
344.439	17075
344.525	9041
344.612	7069
344.698	8384
344.784	5563
344.870	2558
344.957	3055
345.043	3298
345.129	2323
345.215	5561
345.301	3851
345.387	2475
345.474	1640
345.560	1577
345.646	2421
345.732	2553
345.818	2569
345.904	2591
345.990	3183
346.076	1662
346.162	4644
346.249	3070
346.335	2086
346.421	1809
346.507	4811
346.593	17132
346.679	8258
346.765	3104
346.851	2325
346.937	2006
347.023	2113
347.108	2543
347.194	3151
347.280	1843
347.366	2163
347.452	4871
347.538	18346
347.624	17260
347.710	17282
347.796	4499
347.882	2226
347.967	3440
348.053	3883
348.139	2976
348.225	2368
348.311	2076
348.397	2091
348.482	2181
348.568	3537
348.654	1552
348.740	1745
348.825	1915
348.911	2819
348.997	7317
349.083	20865
349.168	6053
349.254	2194
349.340	2791
349.425	2117
349.511	2680
349.597	3593
349.682	4390
349.768	13218
349.854	10567
349.939	3348
350.025	2131
350.110	3370
350.196	1560
350.282	2169
350.367	1632
350.453	2741
350.538	3416
350.624	2718
350.709	3545
350.795	2515
350.880	2391
350.966	2522
351.051	2767
351.137	2287
351.222	2435
351.308	3798
351.393	15269
351.479	5934
351.564	2312
351.649	2490
351.735	2479
351.820	1458
351.906	1564
351.991	3301
352.076	7093
352.162	16316
352.247	5339
352.332	3197
352.418	4270
352.503	6108
352.588	16515
352.673	23185
352.759	5536
352.844	3159
352.929	2371
353.014	4196
353.100	2586
353.185	3339
353.270	4455
353.355	7525
353.441	3617
353.526	2517
353.611	4068
353.696	6996
353.781	4241
353.866	2856
353.952	2840
354.037	4398
354.122	11301
354.207	10754
354.292	5233
354.377	2515
354.462	2763
354.547	3369
354.632	2553
354.717	3820
354.802	3273
354.887	2822
354.972	2426
355.057	2400
355.142	1516
355.227	2473
355.312	4035
355.397	7098
355.482	15664
355.567	12469
355.652	5595
355.737	7290
355.822	12845
355.907	18433
355.991	3948
356.076	2882
356.161	2094
356.246	2346
356.331	2580
356.416	3956
356.501	17771
356.585	30369
356.670	6861
356.755	4007
356.840	3895
356.924	12207
357.009	52363
357.094	34403
357.179	7788
357.263	5504
357.348	4288
357.433	5466
357.517	4926
357.602	4802
357.687	2909
357.771	4796
357.856	12625
357.941	11997
358.025	11018
358.110	48552
358.195	37523
358.279	8780
358.364	4430
358.448	10609
358.533	31524
358.617	28822
358.702	24165
358.787	13222
358.871	6201
358.956	6556
359.040	3040
359.125	1979
359.209	2322
359.294	5720
359.378	12911
359.462	5642
359.547	3918
359.631	3520
359.716	1982
359.800	2408
359.885	4141
359.969	2491
360.053	2937
360.138	2854
360.222	2113
360.306	5444
360.391	6103
360.475	6500
360.559	19413
360.644	14084
360.728	13388
360.812	9887
360.896	34685
360.981	21090
361.065	14755
361.149	4662
361.233	3549
361.318	2928
361.402	2853
361.486	3111
361.570	2313
361.654	3060
361.739	5234
361.823	18035
361.907	39924
361.991	11511
362.075	3801
362.159	9695
362.243	8742
362.327	5275
362.411	5414
362.495	3593
362.580	3437
362.664	2124
362.748	2418
362.832	1904
362.916	2459
363.000	5093
363.084	15446
363.168	42323
363.252	16136
363.336	5236
363.420	6054
363.503	20331
363.587	40334
363.671	9482
363.755	4451
363.839	6179
363.923	3501
364.007	4847
364.091	6666
364.175	6444
364.258	35992
364.342	29481
364.426	9649
364.510	7252
364.594	7074
364.677	7353
364.761	24152
364.845	30127
364.929	10057
365.013	10088
365.096	6040
365.180	9684
365.264	8476
365.347	39593
365.431	28131
365.515	8896
365.598	3483
365.682	3417
365.766	4872
365.849	10776
365.933	4010
366.017	4781
366.100	5606
366.184	2427
366.267	2764
366.351	2290
366.435	1406
366.518	2240
366.602	1815
366.685	1729
366.769	3099
366.852	5020
366.936	9034
367.019	5967
367.103	3593
367.186	10599
367.270	3320
367.353	1940
367.436	1651
367.520	2146
367.603	1987
367.687	3065
367.770	6376
367.853	4885
367.937	6807
368.020	18651
368.104	6008
368.187	4174
368.270	8154
368.353	8172
368.437	6792
368.520	14905
368.603	12620
368.687	10233
368.770	24992
368.853	9336
368.936	7008
369.020	10767
369.103	3608
369.186	2495
369.269	2701
369.352	3710
369.436	7388
369.519	5200
369.602	2943
369.685	2906
369.768	3187
369.851	3219
369.934	2108
370.018	2383
370.101	5818
370.184	6300
370.267	3915
370.350	5733
370.433	8563
370.516	15279
370.599	21384
370.682	7002
370.765	14346
370.848	17847
370.931	25837
371.014	17769
371.097	3745
371.180	3180
371.263	1760
371.346	2687
371.429	2230
371.511	2704
371.594	3974
371.677	7486
371.760	11055
371.843	6518
371.926	15734
372.009	51564
372.091	27195
372.174	11249
372.257	23392
372.340	14934
372.423	10230
372.505	16443
372.588	8012
372.671	7011
372.754	23892
372.836	19973
372.919	10157
373.002	32187
373.085	12592
373.167	5454
373.250	11349
373.332	23530
373.415	27000
373.498	63478
373.580	35780
373.663	22432
373.746	45105
373.828	16109
373.911	7098
373.993	6193
374.076	21015
374.159	32257
374.241	8942
374.324	20937
374.406	21509
374.489	13531
374.571	48018
374.654	31197
374.736	10725
374.819	27697
374.901	40470
374.983	54643
375.066	15253
375.148	4770
375.231	13507
375.313	44063
375.395	23527
375.478	5678
375.560	2746
375.643	3869
375.725	7361
375.807	32170
375.890	37547
375.972	18717
376.054	8758
376.136	12938
376.219	7755
376.301	7641
376.383	32860
376.465	19204
376.548	9603
376.630	9469
376.712	26822
376.794	19796
376.877	3265
376.959	2428
377.041	3021
377.123	5192
377.205	10668
377.287	3033
377.369	2170
377.452	2338
377.534	2264
377.616	1664
377.698	2559
377.780	1912
377.862	1671
377.944	1813
378.026	1683
378.108	1707
378.190	1205
378.272	1807
378.354	1523
378.436	2227
378.518	2497
378.600	12961
378.682	12035
378.764	14364
378.846	18570
378.928	5023
379.010	8019
379.091	5266
379.173	2243
379.255	1726
379.337	2928
379.419	5768
379.501	22692
379.583	14454
379.664	3626
379.746	5604
379.828	15314
379.910	23432
379.991	24361
380.073	6336
380.155	2829
380.237	2368
380.318	2227
380.400	2224
380.482	3075
380.564	6835
380.645	5452
380.727	6818
380.809	4426
380.890	3570
380.972	3011
381.053	1839
381.135	2657
381.217	4469
381.298	18359
381.380	12970
381.461	6117
381.543	20678
381.624	42609
381.706	11858
381.787	5434
381.869	5476
381.951	8416
382.032	40315
382.113	41754
382.195	11811
382.276	6470
382.358	8280
382.439	23583
382.521	27271
382.602	45972
382.684	25424
382.765	33542
382.846	45229
382.928	53646
383.009	39580
383.090	18397
383.172	54701
383.253	122589
383.334	53229
383.416	39918
383.497	29325
383.578	10809
383.659	16195
383.741	44067
383.822	148469
383.903	112883
383.984	32255
384.066	49310
384.147	44572
384.228	11321
384.309	6401
384.390	5761
384.471	4255
384.553	4492
384.634	5657
384.715	6293
384.796	3548
384.877	3759
384.958	11283
385.039	22882
385.120	11868
385.201	4196
385.282	5580
385.363	6443
385.444	5261
385.525	5067
385.606	17442
385.687	23889
385.768	6732
385.849	6956
385.930	17239
386.011	44709
386.092	19067
386.173	5556
386.254	4020
386.335	3520
386.416	3254
386.496	7779
386.577	20700
386.658	10161
386.739	5824
386.820	5155
386.901	4065
386.981	3730
387.062	2390
387.143	3120
387.224	12963
387.304	20874
387.385	8233
387.466	4089
387.547	6717
387.627	3919
387.708	4116
387.789	20050
387.869	38029
387.950	14006
388.031	2767
388.111	1706
388.192	7780
388.273	13344
388.353	9098
388.434	4292
388.514	4639
388.595	17790
388.676	34796
388.756	22849
388.837	15917
388.917	15580
388.998	3803
389.078	3219
389.159	2029
389.239	2469
389.320	3377
389.400	3863
389.480	4987
389.561	17246
389.641	12690
389.722	2917
389.802	5989
389.883	7566
389.963	16706
390.043	17350
390.124	7168
390.204	5809
390.284	18763
390.365	17129
390.445	13766
390.525	33481
390.605	33449
390.686	15179
390.766	5400
390.846	2783
390.927	1865
391.007	2011
391.087	2776
391.167	3509
391.247	1902
391.328	3096
391.408	6079
391.488	7679
391.568	1817
391.648	2297
391.728	4147
391.808	4288
391.888	4736
391.969	6218
392.049	18061
392.129	10622
392.209	7083
392.289	16409
392.369	13580
392.449	13432
392.529	10515
392.609	4579
392.689	4718
392.769	13232
392.849	18127
392.929	8321
393.009	25065
393.089	21827
393.169	6944
393.248	8174
393.328	53547
393.408	106219
393.488	27468
393.568	6898
393.648	4555
393.728	2662
393.807	2741
393.887	3751
393.967	3583
394.047	3725
394.127	6104
394.206	10414
394.286	26464
394.366	111770
394.446	180944
394.525	71592
394.605	19420
394.685	10488
394.764	17455
394.844	30569
394.924	28825
395.003	8932
395.083	4186
395.163	4478
395.242	2962
395.322	4362
395.402	3276
395.481	4497
395.561	7385
395.640	31153
395.720	26253
395.799	29919
395.879	39019
395.958	20606
396.038	42881
396.117	144775
396.197	221550
396.276	113843
396.356	40220
396.435	23439
396.515	14131
396.594	7440
396.673	10109
396.753	13358
396.832	62115
396.912	82346
396.991	29288
397.070	7119
397.150	3570
397.229	2840
397.308	2203
397.388	2592
397.467	3028
397.546	1281
397.625	686
397.705	2600
397.784	3228
397.863	2191
397.942	2050
398.022	1659
398.101	4633
398.180	28028
398.259	24560
398.338	6201
398.417	3102
398.497	2078
398.576	2397
398.655	1722
398.734	888
398.813	1329
398.892	4638
398.971	27327
399.050	26096
399.129	3741
399.208	1328
399.287	1493
399.366	1674
399.445	1061
399.524	1269
399.603	680
399.682	2950
399.761	5412
399.840	25050
399.919	35871
399.998	6475
400.077	1241
400.156	740
400.235	2277
400.313	1456
400.392	1847
400.471	6344
400.550	18281
400.629	6940
400.708	2306
400.786	1457
400.865	6268
400.944	11885
401.023	5874
401.102	889
401.180	148
401.259	994
401.338	1415
401.416	2181
401.495	2104
401.574	2558
401.652	1012
401.731	2305
401.810	1980
401.888	1441
401.967	333
402.046	581
402.124	1876
402.203	3275
402.281	2456
402.360	2393
402.438	8249
402.517	11410
402.596	2721
402.674	2271
402.753	1952
402.831	1871
402.910	862
402.988	2482
403.066	13677
403.145	13007
403.223	3977
403.302	12237
403.380	11374
403.459	9519
403.537	5113
403.615	2135
403.694	843
403.772	471
403.850	428
403.929	898
404.007	542
404.085	2109
404.164	1817
404.242	2474
404.320	4861
404.398	20140
404.477	30127
404.555	32840
404.633	46062
404.711	23260
404.789	19241
404.868	4439
404.946	2032
405.024	1222
405.102	-82
405.180	178
405.258	111
405.336	757
405.415	795
405.493	3610
405.571	3504
405.649	429
405.727	1090
405.805	1893
405.883	1302
405.961	1894
406.039	3119
406.117	1929
406.195	1698
406.273	3679
406.351	26549
406.429	29293
406.507	6524
406.585	2755
406.663	1153
406.740	1761
406.818	1540
406.896	1642
406.974	1668
407.052	1171
407.130	10774
407.208	32895
407.285	10152
407.363	1268
407.441	1109
407.519	839
407.596	704
407.674	2706
407.752	5475
407.830	10037
407.907	7969
407.985	1712
408.063	619
408.141	165
408.218	1920
408.296	2548
408.373	837
408.451	781
408.529	594
408.606	369
408.684	2
408.762	793
408.839	-69
408.917	273
408.994	-510
409.072	562
409.149	-79
409.227	501
409.304	395
409.382	1007
409.459	279
409.537	903
409.614	782
409.692	627
409.769	-239
409.846	490
409.924	1661
410.001	1775
410.079	777
410.156	921
410.233	891
410.311	208
410.388	188
410.465	913
410.543	545
410.620	1043
410.697	376
410.775	1831
410.852	-113
410.929	1005
411.006	2426
411.083	730
411.161	2303
411.238	4644
411.315	3244
411.392	414
411.469	647
411.547	2318
411.624	-37
411.701	658
411.778	626
411.855	1666
411.932	1835
412.009	447
412.086	248
412.163	744
412.240	1774
412.317	1835
412.394	2510
412.471	1110
412.548	257
412.625	-111
412.702	482
412.779	2529
412.856	3145
412.933	870
413.010	1243
413.087	1391
413.164	4234
413.241	17026
413.318	4896
413.395	1449
413.471	1855
413.548	1915
413.625	484
413.702	1261
413.779	1457
413.855	301
413.932	-174
414.009	-607
414.086	403
414.162	188
414.239	1369
414.316	4979
414.393	19491
414.469	12332
414.546	751
414.623	582
414.699	-131
414.776	626
414.853	313
414.929	739
415.006	600
415.082	1339
415.159	556
415.236	669
415.312	530
415.389	1738
415.465	2705
415.542	1901
415.618	-270
415.695	1702
415.771	1399
415.848	734
415.924	1761
416.000	1310
416.077	638
416.153	-129
416.230	-781
416.306	127
416.383	38
416.459	59
416.535	-498
416.612	-222
416.688	389
416.764	396
416.841	54
416.917	269
416.993	618
417.069	1016
417.146	1225
417.222	4003
417.298	2789
417.374	1029
417.451	579
417.527	718
417.603	846
417.679	1453
417.755	351
417.831	-274
417.908	516
417.984	-875
418.060	-212
418.136	1032
418.212	3094
418.288	1748
418.364	689
418.440	-342
418.516	741
418.592	1938
418.668	4037
418.744	6382
418.820	6133
418.896	1053
418.972	-436
419.048	-210
419.124	1707
419.200	2827
419.276	466
419.352	250
419.428	-456
419.504	-470
419.579	1144
419.655	798
419.731	567
419.807	2830
419.883	5816
419.959	6696
420.034	1086
420.110	1136
420.186	8178
420.262	14591
420.337	3650
420.413	567
420.489	108
420.565	776
420.640	279
420.716	1317
420.792	-905
420.867	665
420.943	75
421.019	829
421.094	1346
421.170	798
421.245	-487
421.321	438
421.397	-532
421.472	754
421.548	1601
421.623	4201
421.699	1827
421.774	1334
421.850	-241
421.925	1009
422.001	1067
422.076	437
422.152	-274
422.227	1004
422.302	2201
422.378	1883
422.453	2820
422.529	5926
422.604	20847
422.679	81362
422.755	72562
422.830	18909
422.905	4345
422.981	2144
423.056	975
423.131	1375
423.207	866
423.282	805
423.357	2638
423.432	2927
423.508	1339
423.583	3986
423.658	6238
423.733	1574
423.808	702
423.883	1351
423.959	979
424.034	725
424.109	721
424.184	-511
424.259	-97
424.334	656
424.409	69
424.484	260
424.559	-6
424.634	226
424.709	89
424.784	1272
424.859	-389
424.934	214
425.009	4720
425.084	14309
425.159	9535
425.234	1470
425.309	-18
425.384	1123
425.459	7079
425.534	3441
425.609	184
425.683	465
425.758	-93
425.833	840
425.908	1251
425.983	1423
426.058	13153
426.132	12129
426.207	1401
426.282	2459
426.357	2830
426.431	1430
426.506	1030
426.581	-55
426.655	67
426.730	-52
426.805	-302
426.879	546
426.954	294
427.029	1396
427.103	5824
427.178	26087
427.253	21776
427.327	3166
427.402	1131
427.476	7670
427.551	6893
427.625	1052
427.700	1168
427.774	580
427.849	967
427.923	408
427.998	-200
428.072	-55
428.147	1006
428.221	3339
428.296	11550
428.370	8228
428.444	1082
428.519	1795
428.593	5303
428.667	8234
428.742	6881
428.816	7851
428.890	7059
428.965	19238
429.039	10361
429.113	8990
429.188	5450
429.262	1203
429.336	-51
429.410	5465
429.485	7278
429.559	4898
429.633	7453
429.707	1824
429.781	857
429.855	10049
429.930	25070
430.004	17226
430.078	27738
430.152	34293
430.226	14174
430.300	19398
430.374	4711
430.448	1126
430.522	3858
430.596	24439
430.670	25489
430.744	10287
430.818	32821
430.892	15716
430.966	1902
431.040	571
431.114	-812
431.188	243
431.262	-199
431.336	-176
431.410	770
431.484	7452
431.557	9885
431.631	1037
431.705	-190
431.779	489
431.853	4733
431.927	7814
432.000	957
432.074	492
432.148	391
432.222	1326
432.295	144
432.369	-339
432.443	-59
432.516	4567
432.590	25496
432.664	20950
432.737	2721
432.811	171
432.885	-765
432.958	-258
433.032	-476
433.106	-81
433.179	-1266
433.253	219
433.326	-197
433.400	-930
433.473	-69
433.547	-1274
433.620	-353
433.694	1167
433.767	1190
433.841	29
433.914	-171
433.988	94
434.061	-390
434.134	67
434.208	-396
434.281	-351
434.355	-693
434.428	-201
434.501	-388
434.575	-85
434.648	-590
434.721	-420
434.795	-227
434.868	-803
434.941	-1161
435.014	-516
435.088	-485
435.161	-13
435.234	596
435.307	1644
435.381	715
435.454	594
435.527	-73
435.600	210
435.673	-722
435.746	606
435.819	-135
435.892	-547
435.966	-873
436.039	1
436.112	-406
436.185	-666
436.258	-840
436.331	-700
436.404	-1083
436.477	-865
436.550	-592
436.623	-139
436.696	-653
436.769	-620
436.842	-545
436.915	137
436.987	383
437.060	400
437.133	-444
437.206	-853
437.279	-335
437.352	295
437.425	-22
437.498	-283
437.570	1088
437.643	2366
437.716	400
437.789	-813
437.861	-502
437.934	3348
438.007	3252
438.080	-197
438.152	-933
438.225	348
438.298	4697
438.370	31768
438.443	28307
438.516	6384
438.588	1490
438.661	-631
438.734	130
438.806	306
438.879	342
438.951	585
439.024	2060
439.096	460
439.169	-330
439.241	-214
439.314	-964
439.386	185
439.459	523
439.531	1752
439.604	88
439.676	-57
439.749	-638
439.821	-964
439.893	265
439.966	-393
440.038	-218
440.110	243
440.183	-593
440.255	-150
440.327	-365
440.400	1900
440.472	16816
440.544	27003
440.617	4889
440.689	1244
440.761	754
440.833	2838
440.905	3061
440.978	-151
441.050	-530
441.122	514
441.194	-192
441.266	-124
441.338	-411
441.411	2
441.483	3365
441.555	15269
441.627	5849
441.699	746
441.771	1365
441.843	706
441.915	-281
441.987	-505
442.059	-507
442.131	370
442.203	-200
442.275	1218
442.347	954
442.419	247
442.491	530
442.563	4285
442.635	5055
442.706	5717
442.778	9604
442.850	1800
442.922	-588
442.994	-342
443.066	680
443.137	1130
443.209	-470
443.281	-209
443.353	567
443.425	2255
443.496	8278
443.568	12928
443.640	5064
443.711	1607
443.783	322
443.855	841
443.926	-555
443.998	-193
444.070	549
444.141	891
444.213	389
444.285	1359
444.356	1384
444.428	573
444.499	-110
444.571	-42
444.642	-433
444.714	122
444.785	-281
444.857	853
444.928	5114
445.000	4813
445.071	2178
445.143	4721
445.214	1594
445.285	1709
445.357	6485
445.428	9913
445.500	18169
445.571	22437
445.642	9737
445.714	3778
445.785	10963
445.856	4522
445.928	1406
445.999	1412
446.070	1160
446.141	442
446.213	2363
446.284	734
446.355	624
446.426	806
446.497	-153
446.569	624
446.640	2594
446.711	2537
446.782	440
446.853	-173
446.924	239
446.995	257
447.066	131
447.138	1096
447.209	1653
447.280	-515
447.351	-409
447.422	-613
447.493	-335
447.564	293
447.635	1093
447.706	310
447.777	-954
447.847	120
447.918	-543
447.989	525
448.060	142
448.131	2760
448.202	4909
448.273	2614
448.344	703
448.414	483
448.485	-275
448.556	97
448.627	-845
448.698	845
448.768	-795
448.839	-272
448.910	240
448.981	2344
449.051	1295
449.122	-570
449.193	-533
449.263	7
449.334	-536
449.405	77
449.475	1662
449.546	1911
449.616	1705
449.687	3179
449.758	439
449.828	556
449.899	-702
449.969	-132
450.040	-608
450.110	122
450.181	525
450.251	574
450.322	187
450.392	511
450.463	288
450.533	375
450.604	160
450.674	156
450.744	-338
450.815	-318
450.885	171
450.955	758
451.026	-494
451.096	59
451.166	103
451.237	457
451.307	6249
451.377	5277
451.447	1012
451.518	-387
451.588	-699
451.658	-162
451.728	366
451.799	4422
451.869	11286
451.939	4144
452.009	651
452.079	356
452.149	60
452.219	830
452.289	5858
452.360	10010
452.430	2734
452.500	406
452.570	737
452.640	450
452.710	1842
452.780	7661
452.850	5445
452.920	4474
452.990	2806
453.060	736
453.129	-5
453.199	1280
453.269	3344
453.339	21642
453.409	39981
453.479	22802
453.549	41394
453.619	50882
453.688	34417
453.758	6169
453.828	1277
453.898	300
453.968	647
454.037	272
454.087	308
454.107	317
454.168	-33
454.177	-94
454.247	455
454.249	444
454.316	-40
454.330	93
454.386	607
454.411	1044
454.456	1651
454.492	4856
454.525	7649
454.574	5001
454.595	3876
454.655	1229
454.665	789
454.734	-8
454.736	23
454.804	760
454.817	1405
454.873	3801
454.898	6324
454.943	10706
454.979	7794
455.013	5241
455.060	2196
455.082	882
455.141	1179
455.152	1221
455.221	2427
455.222	2549
455.291	10258
455.303	10214
455.360	9901
455.384	11836
455.430	14523
455.465	14337
455.499	14160
455.546	9374
455.569	7114
455.627	6828
455.638	6828
455.707	1908
455.708	1909
455.777	459
455.789	498
455.846	644
455.869	600
455.916	537
455.950	727
455.985	880
456.031	676
456.054	567
456.112	436
456.124	392
456.193	-48
456.193	-57
456.262	579
456.274	707
456.332	1008
456.355	820
456.401	429
456.436	580
456.470	806
456.516	840
456.540	812
456.597	705
456.609	669
456.678	-317
456.678	-328
456.747	407
456.759	426
456.817	350
456.840	237
456.886	203
456.920	547
456.955	705
457.001	331
457.024	231
457.082	442
457.093	459
457.162	719
457.163	728
457.232	882
457.243	924
457.301	689
457.324	589
457.370	668
457.405	676
457.439	601
457.485	794
457.508	946
457.566	583
457.577	477
457.646	556
457.647	566
457.715	917
457.727	930
457.784	1028
457.808	1026
457.853	946
457.889	988
457.922	989
457.969	937
457.991	888
458.050	1191
458.060	1257
458.129	1361
458.130	1370
458.198	1516
458.211	1503
458.267	907
458.292	763
458.336	934
458.372	763
458.405	545
458.453	852
458.474	1046
458.533	1324
458.543	1377
458.611	2501
458.614	2551
458.680	2692
458.694	2375
458.749	1463
458.775	1110
458.818	441
458.855	627
458.887	964
458.936	752
458.955	681
459.016	780
459.024	767
459.093	1143
459.097	1139
459.162	966
459.177	962
459.230	1148
459.257	1506
459.299	1775
459.338	1550
459.368	1572
459.418	1981
459.437	1950
459.499	1526
459.505	1480
459.574	1150
459.579	1125
459.643	1217
459.659	1210
459.711	1123
459.740	1246
459.780	1385
459.820	1424
459.849	1336
459.900	1304
459.917	1407
459.981	2138
459.986	2155
460.054	1422
460.061	1424
460.123	1660
460.141	1579
460.191	1769
460.222	2245
460.260	2266
460.302	2176
460.328	2171
460.382	2250
460.397	2303
460.462	1824
460.465	1792
460.534	1735
460.543	1686
460.602	4178
460.623	5214
460.671	8478
460.703	11204
460.739	11555
460.783	13773
460.808	12728
460.864	4367
460.876	3830
460.944	1904
460.945	1880
461.013	1756
461.024	1791
461.081	1631
461.104	1718
461.150	1865
461.184	1545
461.218	1326
461.264	1361
461.286	1489
461.345	1705
461.355	1677
461.423	1602
461.425	1607
461.491	1754
461.505	1763
461.559	2344
461.585	2514
461.628	4332
461.665	6173
461.696	7322
461.745	10346
461.764	9428
461.825	5254
461.832	5244
461.901	2386
461.905	2320
461.969	1728
461.985	1674
462.037	2088
462.065	2236
462.105	2097
462.145	2020
462.173	2839
462.225	4493
462.241	4789
462.305	5900
462.310	5810
462.378	5537
462.385	5282
462.446	3003
462.465	2284
462.514	2306
462.545	2722
462.582	2364
462.625	1767
462.650	1862
462.705	2259
462.718	2319
462.785	2330
462.786	2333
462.854	2807
462.865	2821
462.922	3489
462.945	4011
462.990	3494
463.025	2625
463.058	2510
463.104	2475
463.126	2425
463.184	2195
463.194	2236
463.262	2896
463.264	2906
463.330	2357
463.344	2252
463.398	2910
463.424	3197
463.466	3007
463.504	3024
463.533	2905
463.583	2503
463.601	2533
463.663	2597
463.669	2626
463.737	3191
463.743	3223
463.805	4050
463.823	4309
463.873	6653
463.903	8135
463.940	9721
463.982	11845
464.008	10399
464.062	6677
464.076	6268
464.142	3324
464.144	3293
464.211	2742
464.221	2716
464.279	2346
464.301	2124
464.347	2483
464.381	2879
464.414	3274
464.461	3730
464.482	3857
464.540	4174
464.550	3971
464.617	2606
464.620	2550
464.685	3954
464.699	4296
464.753	5348
464.779	5773
464.820	6580
464.859	7548
464.888	7163
464.938	6309
464.956	6395
465.018	6498
465.023	6417
465.091	5349
465.098	5249
465.158	5411
465.177	5378
465.226	5357
465.257	5385
465.293	5125
465.336	4805
465.361	5154
465.416	5877
465.428	6006
465.495	6802
465.496	6840
465.563	11196
465.575	11922
465.631	14811
465.654	16279
465.698	12472
465.734	8898
465.765	7643
465.813	5389
465.833	5269
465.893	5252
465.900	5263
465.968	5464
465.972	5462
466.035	5232
466.052	5177
466.102	5142
466.131	5061
466.170	5216
466.210	5480
466.237	5505
466.290	5411
466.304	5484
466.369	5807
466.372	5836
466.439	6358
466.449	6433
466.506	5949
466.528	5733
466.573	6856
466.607	7718
466.641	10918
466.687	15316
466.708	17281
466.766	22661
466.775	21455
466.842	12297
466.845	11837
466.909	8474
466.925	7654
466.977	6755
467.004	6327
467.044	7064
467.083	7809
467.111	8455
467.163	9614
467.178	9951
467.242	11281
467.245	11242
467.312	10053
467.321	9878
467.379	9301
467.400	9069
467.446	9178
467.480	9231
467.559	8844
467.638	7398
467.717	7498
467.796	7978
467.875	8767
467.955	7615
468.034	9128
468.113	17483
468.192	26280
468.271	14169
468.350	6798
468.429	6398
468.508	6954
468.588	6453
468.667	6907
468.746	6931
468.825	7005
468.904	7339
468.983	6897
469.062	8834
469.141	10895
469.220	7729
469.299	6597
469.378	7612
469.456	8543
469.535	9130
469.614	8499
469.693	8233
469.772	8620
469.851	10642
469.930	9949
470.009	7361
470.088	7335
470.166	6876
470.245	8307
470.324	8173
470.403	7123
470.482	7065
470.560	7316
470.639	6938
470.718	7018
470.797	6977
470.875	6746
470.954	8490
471.033	9647
471.111	6737
471.190	6038
471.269	5273
471.347	6349
471.426	6704
471.505	7050
471.583	8561
471.662	8554
471.740	7183
471.819	7043
471.898	6427
471.976	6336
472.055	6280
472.133	7419
472.212	7504
472.290	7889
472.369	7971
472.447	5989
472.526	5395
472.604	7514
472.683	6118
472.761	6920
472.839	6009
472.918	6252
472.996	6082
473.075	7180
473.153	7418
473.231	6129
473.310	6512
473.388	6324
473.466	6535
473.545	6814
473.623	8127
473.701	7529
473.780	7129
473.858	5670
473.936	6494
474.014	6121
474.093	6182
474.171	7183
474.249	10404
474.327	8837
474.405	5731
474.484	5507
474.562	5845
474.640	5472
474.718	5706
474.796	7291
474.874	6532
474.952	5265
475.030	5088
475.108	5564
475.187	5550
475.265	6666
475.343	6237
475.421	6668
475.499	6107
475.577	5967
475.655	6057
475.733	9134
475.811	14648
475.889	15649
475.966	13971
476.044	6677
476.122	5772
476.200	6043
476.278	5970
476.356	6159
476.434	5679
476.512	6372
476.590	5754
476.667	6647
476.745	5129
476.823	5622
476.901	5931
476.979	5464
477.056	6463
477.134	6012
477.212	5499
477.290	5600
477.367	5317
477.445	5443
477.523	5045
477.601	5694
477.678	5309
477.756	6511
477.834	6427
477.911	6174
477.989	5153
478.066	5739
478.144	5104
478.222	6086
478.299	5277
478.377	6262
478.454	5669
478.532	5706
478.609	4820
478.687	5873
478.764	4907
478.842	5101
478.919	5597
478.997	5493
479.074	5311
479.152	5380
479.229	5937
479.307	5257
479.384	4034
479.461	4422
479.539	4431
479.616	5769
479.694	5164
479.771	5500
479.848	5302
479.926	5271
480.003	7870
480.080	5280
480.157	4557
480.235	5223
480.312	4222
480.389	5220
480.467	6373
480.544	8365
480.621	5574
480.698	4808
480.775	5808
480.853	6069
480.930	4620
481.007	5342
481.084	4954
481.161	6191
481.238	6392
481.315	4849
481.392	4654
481.470	5207
481.547	5923
481.624	4135
481.701	4868
481.778	4856
481.855	5152
481.932	6715
482.009	9470
482.086	10189
482.163	5514
482.240	5097
482.317	5850
482.393	5941
482.470	4923
482.547	5511
482.624	5284
482.701	5644
482.778	4897
482.855	4625
482.932	5052
483.009	4605
483.085	4465
483.162	5333
483.239	5516
483.316	4669
483.393	4133
483.469	4709
483.546	4463
483.623	5301
483.699	4720
483.776	4407
483.853	5361
483.930	5973
484.006	12093
484.083	24189
484.160	20792
484.236	30251
484.313	29245
484.389	20601
484.466	17650
484.543	15549
484.619	14762
484.696	16244
484.772	16538
484.849	17135
484.925	16025
485.002	15086
485.078	15490
485.155	15255
485.231	14480
485.308	13722
485.384	14377
485.461	14392
485.537	18980
485.614	23825
485.690	16214
485.766	13018
485.843	13317
485.919	14198
485.995	16226
486.072	13321
486.148	12613
486.224	12328
486.301	12375
486.377	12646
486.453	13453
486.530	12923
486.606	16585
486.682	21942
486.758	20211
486.835	21722
486.911	18208
486.987	22960
487.063	24704
487.139	23948
487.215	21622
487.292	15626
487.368	13646
487.444	13734
487.520	14348
487.596	15284
487.672	13870
487.748	15090
487.824	18209
487.900	14556
487.976	12780
488.052	13129
488.128	14189
488.204	13838
488.280	13613
488.356	13155
488.432	17184
488.508	28929
488.584	17714
488.660	12043
488.736	11084
488.812	11280
488.888	13562
488.964	15754
489.039	18714
489.115	29242
489.191	25148
489.267	13062
489.343	11806
489.418	11004
489.494	10669
489.570	10252
489.646	11502
489.722	10664
489.797	11575
489.873	11334
489.949	19080
490.024	23952
490.100	10710
490.176	9648
490.251	10455
490.327	11369
490.403	10135
490.478	9642
490.554	8753
490.629	9550
490.705	8932
490.781	9274
490.856	9440
490.932	9192
491.007	9968
491.083	9848
491.158	9561
491.234	8738
491.309	14462
491.385	20969
491.460	11059
491.536	9028
491.611	9044
491.686	8573
491.762	9264
491.837	11310
491.913	20371
491.988	24179
492.063	35741
492.139	18741
492.214	12374
492.289	9415
492.365	6518
492.440	8059
492.515	8334
492.590	8976
492.666	7532
492.741	7874
492.816	11793
492.891	10308
492.967	8172
493.042	7682
493.117	7197
493.192	7172
493.267	9301
493.342	22690
493.418	46892
493.493	16632
493.568	7550
493.643	6559
493.718	7917
493.793	8984
493.868	10507
493.943	8344
494.018	7261
494.093	7943
494.168	6701
494.243	7576
494.318	6079
494.393	6472
494.468	5651
494.543	5760
494.618	6220
494.693	6533
494.768	6249
494.842	6488
494.917	6005
494.992	6523
495.067	6368
495.142	5359
495.217	5862
495.292	6599
495.366	6671
495.441	8452
495.516	9660
495.591	10043
495.665	17509
495.740	45816
495.815	37527
495.890	10647
495.964	7484
496.039	8629
496.114	8793
496.188	7325
496.263	8794
496.338	8018
496.412	7855
496.487	9616
496.561	8476
496.636	9906
496.710	8306
496.785	8104
496.860	9567
496.934	9419
497.009	7894
497.083	8012
497.158	8877
497.232	9158
497.307	11183
497.381	10490
497.455	10482
497.530	13636
497.604	11472
497.679	10876
497.753	13768
497.827	18977
497.902	18763
497.976	18563
498.050	25906
498.125	82086
498.199	150866
498.273	38501
498.348	20624
498.422	17730
498.496	16437
498.570	15557
498.645	12190
498.719	12705
498.793	12760
498.867	14784
498.941	19555
499.016	30455
499.090	108722
499.164	86023
499.238	12058
499.312	9138
499.386	9400
499.460	10383
499.534	8829
499.609	8841
499.683	13935
499.757	13481
499.831	15033
499.905	58665
499.979	106204
500.053	23248
500.127	15388
500.201	10323
500.275	8586
500.349	8662
500.422	8431
500.496	10394
500.570	15176
500.644	33525
500.718	85590
500.792	45376
500.866	9033
500.940	9962
501.013	9639
501.087	8159
501.161	11503
501.235	15977
501.309	21018
501.382	59904
501.456	96476
501.530	21768
501.603	26001
501.677	20303
501.751	7063
501.825	8221
501.898	8614
501.972	26742
502.046	33930
502.119	8946
502.193	10912
502.266	30876
502.340	29320
502.413	12472
502.487	31002
502.561	24094
502.634	11243
502.708	7628
502.781	7237
502.855	6478
502.928	5209
503.002	5561
503.075	5547
503.149	5632
503.222	5847
503.295	6659
503.369	6713
503.442	8222
503.516	15835
503.589	48813
503.662	54503
503.736	17142
503.809	22342
503.882	29618
503.956	26260
504.029	41032
504.102	13152
504.175	11818
504.249	7099
504.322	5738
504.395	6885
504.468	6239
504.542	5977
504.615	5036
504.688	4895
504.761	4743
504.834	5968
504.907	6974
504.980	8005
505.053	6911
505.127	6140
505.200	9130
505.273	8149
505.346	6771
505.419	4771
505.492	5147
505.565	4420
505.638	5228
505.711	4702
505.784	4946
505.857	4157
505.930	5516
506.003	4717
506.076	5512
506.149	5397
506.221	8069
506.294	6958
506.367	8882
506.440	34946
506.513	41363
506.586	9198
506.659	6115
506.731	5788
506.804	5083
506.877	7000
506.950	6065
507.022	4973
507.095	4636
507.168	7363
507.241	5615
507.313	4693
507.386	4032
507.459	5567
507.531	5040
507.604	3653
507.677	4767
507.749	3737
507.822	5190
507.894	7628
507.967	14577
508.040	11025
508.112	8493
508.185	8198
508.257	7251
508.330	8117
508.402	7871
508.475	7641
508.547	7157
508.620	6816
508.692	8312
508.765	8630
508.837	6492
508.909	5747
508.982	7133
509.054	6166
509.127	6589
509.199	5289
509.271	6474
509.344	5817
509.416	5967
509.488	5493
509.560	6280
509.633	6997
509.705	6603
509.777	7115
509.849	7906
509.922	7356
509.994	7817
510.066	6970
510.138	6794
510.210	12335
510.283	14867
510.355	11457
510.427	9956
510.499	9579
510.571	8901
510.643	7628
510.715	9572
510.787	10344
510.859	9104
510.931	9152
511.003	9022
511.076	11337
511.148	8665
511.219	8166
511.291	9746
511.363	11989
511.435	8375
511.507	7367
511.579	7850
511.651	7402
511.723	6858
511.795	6576
511.867	7195
511.939	7001
512.010	9951
512.082	11724
512.154	5902
512.226	7060
512.298	8835
512.369	14775
512.441	13882
512.513	10344
512.585	9900
512.656	9037
512.728	9529
512.800	8476
512.871	8269
512.943	8426
513.015	8177
513.086	8355
513.158	8665
513.230	8615
513.301	8451
513.373	9932
513.444	8649
513.516	7105
513.588	7311
513.659	7637
513.731	8013
513.802	7135
513.874	9381
513.945	15089
514.016	11484
514.088	7389
514.159	7419
514.231	9143
514.302	11683
514.374	12588
514.445	10670
514.516	12883
514.588	15291
514.659	8804
514.730	11821
514.802	13078
514.873	8186
514.944	11657
515.016	10082
515.087	9182
515.158	9233
515.229	14416
515.301	12118
515.372	11794
515.443	10976
515.514	8900
515.585	7895
515.656	7748
515.728	7264
515.799	7409
515.870	7744
515.941	7491
516.012	7635
516.083	8822
516.154	9741
516.225	10812
516.296	10232
516.367	9449
516.438	9500
516.509	10172
516.580	11586
516.651	18318
516.722	61348
516.793	72338
516.864	16598
516.935	15027
517.006	13308
517.077	15856
517.148	24205
517.219	51318
517.289	140834
517.360	73444
517.431	41266
517.502	11191
517.573	9908
517.643	10004
517.714	10082
517.785	11599
517.856	9930
517.926	11544
517.997	11440
518.068	12718
518.138	14857
518.209	17630
518.280	32634
518.350	145044
518.421	140132
518.492	21507
518.562	11500
518.633	10222
518.703	9676
518.774	10286
518.845	10694
518.915	12139
518.986	9740
519.056	10331
519.127	12884
519.197	19234
519.268	38821
519.338	54949
519.408	13882
519.479	11388
519.549	12029
519.620	8610
519.690	6941
519.760	7680
519.831	7880
519.901	7275
519.971	7112
520.042	7491
520.112	8218
520.182	8814
520.253	9133
520.323	7982
520.393	8464
520.463	12713
520.534	9156
520.604	14009
520.674	11569
520.744	8314
520.814	13530
520.885	17989
520.955	13286
521.025	47127
521.095	48778
521.165	9858
521.235	7483
521.305	6509
521.375	6214
521.445	6048
521.515	7382
521.585	7713
521.655	8025
521.725	7222
521.795	8958
521.865	6194
521.935	7918
522.005	9362
522.075	6394
522.145	6839
522.215	6406
522.285	7694
522.355	9035
522.424	14900
522.494	17654
522.564	10249
522.634	9961
522.704	25410
522.774	23916
522.843	7539
522.913	5848
522.983	7087
523.053	6533
523.122	5127
523.192	6147
523.262	10850
523.331	20169
523.401	8871
523.471	5686
523.540	5898
523.610	4604
523.680	5363
523.749	5032
523.819	5894
523.888	6798
523.958	6538
524.027	5638
524.097	6072
524.166	6121
524.236	5106
524.305	6379
524.375	5790
524.444	5324
524.514	6197
524.583	6152
524.653	6423
524.722	7166
524.791	6213
524.861	5744
524.930	4640
524.999	4578
525.069	6869
525.138	6417
525.207	6779
525.277	6382
525.346	5970
525.415	5875
525.484	4934
525.554	6614
525.623	5744
525.692	5829
525.761	5582
525.830	5383
525.900	5705
525.969	5658
526.038	5788
526.107	6016
526.176	10063
526.245	11139
526.314	8491
526.383	9763
526.452	9750
526.522	11683
526.591	19345
526.660	16197
526.729	11207
526.797	10407
526.867	12953
526.935	51546
527.004	83528
527.073	40958
527.142	9459
527.211	5691
527.280	5898
527.349	6619
527.418	5080
527.487	5282
527.555	4187
527.624	4829
527.693	4271
527.762	5199
527.831	4385
527.899	4078
527.968	4707
528.037	4598
528.106	5558
528.174	6819
528.243	7660
528.312	7578
528.380	10360
528.449	5757
528.518	4559
528.586	3943
528.655	5435
528.723	4647
528.792	3288
528.861	4454
528.929	4099
528.998	5342
529.066	4330
529.135	4329
529.203	3707
529.272	4496
529.340	5114
529.409	4455
529.477	3974
529.545	5039
529.614	6258
529.682	5214
529.751	6372
529.819	7656
529.887	5987
529.956	4843
530.024	4833
530.092	4797
530.161	4826
530.229	5650
530.297	5495
530.365	5663
530.434	4796
530.502	4374
530.570	3906
530.638	3194
530.707	4843
530.775	5768
530.843	4805
530.911	4216
530.979	4192
531.047	4515
531.115	4441
531.183	4288
531.252	5061
531.320	4222
531.388	4029
531.456	5077
531.524	4485
531.592	4804
531.660	4713
531.728	5187
531.796	4608
531.864	4753
531.932	5362
532.000	5401
532.067	4863
532.135	5170
532.203	5377
532.271	5388
532.339	7019
532.407	12115
532.475	13662
532.542	7720
532.610	7467
532.678	7258
532.746	14516
532.814	59387
532.881	37585
532.949	7954
533.017	5637
533.084	5279
533.152	5214
533.220	4818
533.287	4820
533.355	5992
533.423	4741
533.490	3985
533.558	4888
533.625	4910
533.693	5768
533.761	5927
533.828	6285
533.896	5656
533.963	7838
534.031	10713
534.098	10956
534.166	10016
534.233	6494
534.300	6664
534.368	7439
534.435	6200
534.503	6030
534.570	5846
534.637	5088
534.705	5333
534.772	5667
534.840	4470
534.907	6897
534.974	9767
535.041	5980
535.109	5285
535.176	5533
535.243	4783
535.310	4659
535.378	4728
535.445	4217
535.512	4854
535.579	4692
535.646	4568
535.714	6017
535.781	6638
535.848	7815
535.915	6130
535.982	7498
536.049	8341
536.116	8620
536.183	5823
536.250	5839
536.317	5000
536.384	5404
536.451	6478
536.518	7540
536.585	6054
536.652	6926
536.719	7189
536.786	7224
536.853	6881
536.920	7488
536.987	9689
537.053	9632
537.120	20875
537.187	45309
537.254	10046
537.321	5387
537.388	6273
537.454	4880
537.521	4626
537.588	5278
537.654	5407
537.721	7236
537.788	7078
537.855	6169
537.921	5797
537.988	5400
538.055	6482
538.121	5680
538.188	5545
538.254	6312
538.321	8207
538.388	9225
538.454	6023
538.521	5723
538.587	5205
538.654	5710
538.720	5154
538.787	5142
538.853	5126
538.920	5992
538.986	6873
539.053	7125
539.119	5727
539.185	5828
539.252	5590
539.318	6368
539.385	7487
539.451	7244
539.517	7753
539.583	8247
539.650	8945
539.716	25672
539.782	20043
539.849	6896
539.915	5237
539.981	6838
540.047	5740
540.114	6483
540.180	7573
540.246	6339
540.312	6798
540.378	7932
540.444	11917
540.510	9927
540.576	26681
540.643	22915
540.709	6379
540.775	6375
540.841	6097
540.907	6584
540.973	9793
541.039	10090
541.105	8925
541.171	7967
541.237	6670
541.303	6817
541.369	7429
541.435	6947
541.500	8662
541.566	8896
541.632	6103
541.698	5681
541.764	7051
541.830	5257
541.896	6090
541.961	6467
542.027	5921
542.093	5758
542.159	6706
542.224	6262
542.290	7046
542.356	9431
542.421	11816
542.487	8051
542.553	6949
542.618	7304
542.684	6482
542.750	6286
542.815	7310
542.881	8041
542.947	19163
543.012	32479
543.078	8292
543.143	5881
543.209	6527
543.274	6278
543.340	7809
543.405	8524
543.471	20412
543.536	11118
543.602	7213
543.667	6715
543.732	7078
543.798	5613
543.863	7050
543.928	6129
543.994	6128
544.059	5826
544.124	5835
544.190	6457
544.255	7290
544.320	6609
544.386	6915
544.451	7565
544.516	8095
544.581	7848
544.646	11010
544.712	31388
544.777	16128
544.842	8117
544.907	8562
544.972	7979
545.037	6769
545.102	8343
545.168	8352
545.233	7666
545.298	8521
545.363	9465
545.428	10009
545.493	11020
545.558	19928
545.623	19651
545.688	8560
545.753	8262
545.818	8358
545.883	8237
545.947	8386
546.012	8387
546.077	8203
546.142	8829
546.207	7906
546.272	7909
546.337	8914
546.401	9335
546.466	8068
546.531	7881
546.596	8447
546.661	8369
546.725	7980
546.790	7419
546.855	7057
546.919	7079
546.984	8393
547.049	7774
547.113	8478
547.178	8464
547.243	8561
547.307	9177
547.372	8344
547.436	10125
547.501	8878
547.565	8175
547.630	9083
547.695	8090
547.759	9609
547.823	9281
547.888	7891
547.952	8139
548.017	8356
548.081	8499
548.146	9627
548.210	11318
548.274	8594
548.339	7861
548.403	8964
548.468	8061
548.532	8103
548.596	7847
548.660	7843
548.725	8211
548.789	8282
548.853	10286
548.917	9431
548.982	9279
549.046	12004
549.110	9080
549.174	8154
549.238	7816
549.303	7773
549.367	8782
549.431	8395
549.495	7838
549.559	8092
549.623	8454
549.687	9691
549.751	10972
549.815	10750
549.879	10073
549.943	7646
550.007	9655
550.071	10476
550.135	11228
550.199	10749
550.263	9831
550.327	10266
550.391	10045
550.455	11372
550.519	9307
550.582	9395
550.646	9876
550.710	12825
550.774	11322
550.838	9371
550.901	9349
550.965	9118
551.029	9975
551.093	10633
551.156	11832
551.220	14970
551.284	23704
551.347	14302
551.411	15997
551.475	29499
551.538	15134
551.602	9858
551.666	9553
551.729	8618
551.793	9020
551.856	9259
551.920	9477
551.983	9512
552.047	9348
552.110	8216
552.174	8069
552.237	8783
552.301	8578
552.364	8474
552.428	8198
552.491	8372
552.554	9780
552.618	7849
552.681	8997
552.745	8698
552.808	9953
552.871	13029
552.934	11252
552.998	8957
553.061	9622
553.124	10710
553.187	11008
553.251	10628
553.314	10557
553.377	11722
553.440	13755
553.503	24051
553.567	72469
553.630	35055
553.693	10754
553.756	9685
553.819	9197
553.882	8964
553.945	8732
554.008	8813
554.071	7743
554.134	8512
554.197	8842
554.260	8000
554.323	9172
554.386	9578
554.449	8439
554.512	8802
554.575	8197
554.638	7760
554.701	8875
554.764	8016
554.827	8983
554.889	7742
554.952	7861
555.015	7010
555.078	7839
555.141	8286
555.203	7498
555.266	7830
555.329	7969
555.391	8688
555.454	6855
555.517	7488
555.580	7215
555.642	7683
555.705	7412
555.768	8398
555.830	8333
555.893	7790
555.955	7611
556.018	6951
556.080	7615
556.143	7729
556.206	7391
556.268	7885
556.330	8315
556.393	8017
556.455	7105
556.518	8645
556.580	9884
556.643	8363
556.705	8333
556.767	7292
556.830	7769
556.892	7783
556.955	8495
557.017	8756
557.079	8634
557.142	7097
557.204	7098
557.266	9296
557.328	12125
557.391	7886
557.453	7415
557.515	7466
557.577	7410
557.639	8712
557.701	7212
557.764	6538
557.826	7248
557.888	7044
557.950	6399
558.012	6870
558.074	7550
558.136	6946
558.198	10686
558.260	10398
558.322	7643
558.384	7485
558.446	8949
558.508	8784
558.570	8416
558.632	9402
558.694	15560
558.756	13412
558.818	13191
558.880	33377
558.942	28164
559.003	11945
559.065	11532
559.127	8352
559.189	7328
559.251	7664
559.312	8223
559.374	9838
559.436	19422
559.498	23057
559.559	9560
559.621	8296
559.683	8231
559.744	8661
559.806	13735
559.868	23059
559.929	14295
559.991	9855
560.052	9932
560.114	10662
560.176	13167
560.237	10301
560.299	12618
560.360	11538
560.422	8403
560.483	9038
560.545	8377
560.606	8304
560.667	7809
560.729	8070
560.790	7296
560.852	8204
560.913	8104
560.974	8362
561.036	8212
561.097	8141
561.158	7957
561.220	7984
561.281	7816
561.342	7704
561.403	9107
561.465	9111
561.526	11530
561.587	18949
561.648	12256
561.709	9341
561.771	9370
561.832	8986
561.893	8735
561.954	9523
562.015	8351
562.076	8761
562.137	9106
562.198	8653
562.259	9610
562.320	8654
562.381	9854
562.442	9157
562.503	10895
562.564	8844
562.625	8811
562.686	8479
562.747	9085
562.808	9375
562.869	9342
562.930	10610
562.991	10057
563.051	10033
563.112	9513
563.173	9156
563.234	8604
563.294	9071
563.355	8539
563.416	9682
563.477	8815
563.537	9390
563.598	9337
563.659	9154
563.720	9757
563.780	9125
563.841	9949
563.901	9944
563.962	10166
564.023	9246
564.083	9623
564.144	9524
564.204	9191
564.265	9041
564.325	9816
564.386	11907
564.446	15381
564.507	10237
564.567	9977
564.628	9752
564.688	9153
564.749	9684
564.809	9762
564.869	10437
564.930	10119
564.990	9647
565.050	9531
565.111	10504
565.171	8953
565.231	9397
565.292	10147
565.352	8587
565.412	8697
565.472	9384
565.532	9643
565.593	9140
565.653	9480
565.713	9424
565.773	10172
565.833	9335
565.893	11298
565.953	10037
566.013	10176
566.074	9275
566.134	10764
566.194	13000
566.254	15781
566.314	13733
566.374	10950
566.434	10529
566.494	10438
566.554	10842
566.614	11663
566.673	10906
566.733	11454
566.793	11505
566.853	12002
566.913	12009
566.973	12606
567.033	12733
567.092	11778
567.152	12449
567.212	11622
567.272	12079
567.331	13493
567.391	12881
567.451	13359
567.511	14298
567.570	15858
567.630	14207
567.690	11914
567.749	11628
567.809	12643
567.868	13812
567.928	14388
567.988	16210
568.047	17958
568.107	20134
568.166	25790
568.226	34263
568.285	52517
568.345	55255
568.404	44411
568.464	37379
568.523	33139
568.582	31747
568.642	32950
568.701	38081
568.761	49896
568.820	76773
568.879	96813
568.939	80022
568.998	58920
569.057	43642
569.116	35106
569.176	27596
569.235	24148
569.294	20353
569.353	18022
569.413	16932
569.472	15862
569.531	15035
569.590	13211
569.649	12743
569.708	11724
569.767	12450
569.827	12522
569.886	11332
569.945	10827
570.004	10654
570.063	9877
570.122	9803
570.181	11074
570.240	10390
570.299	11795
570.358	10381
570.417	9296
570.475	8890
570.534	9864
570.593	9333
570.652	9370
570.711	9398
570.770	8817
570.829	10543
570.887	9151
570.946	9503
571.005	8225
571.064	8449
571.122	8505
571.181	8944
571.240	8667
571.299	9300
571.357	8907
571.416	8516
571.475	8728
571.533	9739
571.592	8680
571.650	8491
571.709	8210
571.768	8419
571.826	8105
571.885	8023
571.943	7200
572.002	7862
572.060	8048
572.119	7475
572.177	7329
572.236	7152
572.294	7742
572.352	8422
572.411	7706
572.469	7491
572.528	7860
572.586	8397
572.644	7421
572.703	9489
572.761	8234
572.819	7906
572.877	7928
572.936	8053
572.994	7239
573.052	8103
573.110	7664
573.169	8221
573.227	7309
573.285	6773
573.343	7263
573.401	6909
573.459	7657
573.517	7862
573.576	7507
573.634	7425
573.692	7846
573.750	7725
573.808	8014
573.866	7265
573.924	7450
573.982	8861
574.040	8247
574.098	7721
574.155	6941
574.213	6981
574.271	6547
574.329	7485
574.387	7951
574.445	6836
574.503	6352
574.560	6907
574.618	5964
574.676	6942
574.734	6656
574.792	6591
574.849	7626
574.907	7110
574.965	6254
575.022	6896
575.080	6467
575.138	6373
575.195	6979
575.253	6821
575.311	8038
575.368	6983
575.426	6508
575.483	6684
575.541	6610
575.598	6416
575.656	7224
575.713	7343
575.771	6525
575.828	6618
575.886	6638
575.943	7568
576.001	8037
576.058	7339
576.115	6964
576.173	8360
576.230	8217
576.287	8014
576.345	8083
576.402	6807
576.459	7743
576.517	7506
576.574	7881
576.631	8384
576.688	7469
576.746	7710
576.803	6723
576.860	6542
576.917	7944
576.974	7265
577.031	7335
577.089	7808
577.146	7523
577.203	8039
577.260	8539
577.317	7833
577.374	8078
577.431	7789
577.488	7436
577.545	6336
577.602	7789
577.659	7750
577.716	6715
577.773	9021
577.830	8310
577.886	7613
577.943	7807
578.000	7943
578.057	7443
578.114	8977
578.171	8448
578.227	10272
578.284	11243
578.341	10046
578.398	8336
578.454	8590
578.511	7839
578.568	8614
578.625	8299
578.681	7466
578.738	7767
578.794	8254
578.851	8288
578.908	8140
578.964	8601
579.021	9896
579.077	8960
579.134	8176
579.190	7802
579.247	8185
579.303	8418
579.360	8076
579.416	7471
579.473	8493
579.529	7422
579.586	8074
579.642	8372
579.698	8597
579.755	8209
579.811	7980
579.867	8153
579.924	8191
579.980	7673
580.036	10067
580.093	10858
580.149	12805
580.205	16569
580.261	14562
580.317	10650
580.374	10027
580.430	9574
580.486	9917
580.542	8856
580.598	8828
580.619	8476
580.654	7872
580.692	8348
580.710	8595
580.765	8927
580.767	8944
580.823	9325
580.838	8995
580.879	8135
580.911	8669
580.935	9071
580.984	8506
580.991	8445
581.047	9240
581.057	9214
581.103	9069
581.130	9075
581.159	9133
581.203	9366
581.215	9408
581.270	10390
581.276	10282
581.326	9405
581.349	9374
581.382	9300
581.422	9023
581.438	8930
581.494	8636
581.494	8635
581.550	9094
581.567	9099
581.606	9133
581.640	9060
581.661	9030
581.713	9467
581.717	9500
581.773	8688
581.786	8656
581.829	8642
581.859	9143
581.885	9578
581.932	9345
581.940	9293
581.996	9941
582.004	9923
582.052	9887
582.077	9740
582.107	9520
582.150	9724
582.163	9803
582.219	9384
582.223	9364
582.274	9157
582.296	9387
582.330	9804
582.368	9961
582.386	10031
582.441	9322
582.441	9322
582.497	9231
582.514	9495
582.552	10166
582.587	10424
582.608	10545
582.659	10136
582.663	10094
582.719	10186
582.732	10028
582.774	9756
582.805	9846
582.830	9861
582.877	9892
582.885	9897
582.941	10506
582.950	10508
582.996	10392
583.023	10582
583.052	11003
583.095	11927
583.107	12152
583.162	12387
583.168	12572
583.218	14294
583.240	14056
583.273	13490
583.313	12442
583.328	12101
583.384	12150
583.385	12132
583.439	11241
583.458	11003
583.494	10777
583.531	11015
583.549	11112
583.603	11684
583.605	11712
583.660	12072
583.676	12215
583.715	12295
583.748	11753
583.770	11412
583.820	11973
583.825	12035
583.881	11598
583.893	11465
583.936	11016
583.965	11349
583.991	11562
584.038	11773
584.046	11865
584.101	12084
584.110	12141
584.156	12213
584.183	12157
584.211	12145
584.255	12298
584.266	12316
584.321	12091
584.328	12106
584.376	12221
584.400	12649
584.431	13187
584.472	12872
584.486	12841
584.541	13687
584.545	13663
584.596	13052
584.617	12979
584.651	12991
584.689	13548
584.706	13785
584.761	14140
584.762	14141
584.816	14189
584.834	14004
584.871	13815
584.906	14700
584.926	15333
584.978	15008
584.980	14970
585.035	15218
585.051	15246
585.090	15647
585.123	15845
585.145	15937
585.195	16008
585.200	16051
585.254	16378
585.267	16696
585.309	17490
585.340	17660
585.364	17961
585.412	18164
585.419	18092
585.473	17494
585.484	17561
585.528	18455
585.556	18651
585.583	18890
585.628	19799
585.637	20077
585.692	21872
585.700	22368
585.747	26751
585.772	28173
585.801	27016
585.845	22989
585.856	22131
585.910	20690
585.917	20503
585.965	21019
585.989	21104
586.019	21012
586.061	21747
586.074	22089
586.128	22473
586.133	22523
586.183	22717
586.205	22762
586.237	23149
586.277	23873
586.292	24100
586.346	24663
586.349	24653
586.401	24742
586.421	25115
586.455	26009
586.493	26341
586.509	26476
586.564	27975
586.565	28001
586.618	32255
586.637	33979
586.672	35995
586.709	35524
586.727	33809
586.781	29956
586.781	29976
586.835	31286
586.853	31679
586.889	31835
586.925	32048
586.944	32548
586.996	33935
586.998	33976
587.052	34675
587.068	34971
587.106	36553
587.140	37472
587.161	37779
587.212	38933
587.215	39085
587.269	41606
587.284	42225
587.323	42949
587.356	43604
587.377	44506
587.427	46520
587.431	46692
587.485	49151
587.499	49629
587.539	51558
587.571	53213
587.593	54463
587.643	57438
587.648	57858
587.702	61699
587.715	62660
587.755	65684
587.786	68148
587.810	70468
587.858	74939
587.864	75466
587.917	80928
587.930	82039
587.971	88006
588.001	92069
588.025	95686
588.073	104065
588.079	105254
588.133	115362
588.145	117517
588.187	127306
588.217	134640
588.241	141645
588.288	155343
588.295	157789
588.348	178216
588.360	182544
588.402	202506
588.431	217607
588.456	232781
588.503	261824
588.510	267053
588.564	309462
588.575	318641
588.617	365629
588.646	399021
588.671	435846
588.718	505989
588.725	519592
588.778	625159
588.789	644974
588.832	718071
588.861	760437
588.886	758362
588.932	730294
588.939	712947
588.993	552159
589.004	527727
589.047	601658
589.075	664663
589.100	731464
589.147	826941
589.154	821382
589.207	747764
589.218	731145
589.261	668217
589.290	627060
589.314	616950
589.361	600586
589.368	606220
589.421	654426
589.433	664192
589.475	720878
589.504	753891
589.528	735515
589.576	673078
589.582	667006
589.635	620675
589.647	615768
589.689	709039
589.718	756410
589.742	708506
589.790	596374
589.795	584251
589.849	462294
589.861	434312
589.902	374999
589.932	330991
589.955	307485
590.004	258098
590.009	254960
590.062	218794
590.075	209825
590.115	190172
590.146	174598
590.168	167214
590.218	151090
590.222	150285
590.275	136911
590.289	133263
590.328	124592
590.360	117557
590.381	114388
590.431	106104
590.435	105767
590.488	97393
590.503	94947
590.541	91468
590.574	88139
590.594	86115
590.645	80681
590.647	80654
590.700	76288
590.716	74915
590.753	72552
590.787	69930
590.806	69041
590.859	66450
590.859	66517
590.912	63112
590.930	61831
590.965	60138
591.001	58313
591.018	57619
591.071	55220
591.072	55099
591.124	54796
591.143	54498
591.177	53132
591.214	51581
591.230	51327
591.283	50204
591.285	50060
591.336	48424
591.356	47690
591.389	47786
591.427	47667
591.442	47010
591.495	44340
591.498	44052
591.547	43148
591.569	42653
591.600	42370
591.640	41733
591.653	41583
591.706	40713
591.711	40537
591.759	40170
591.782	39844
591.811	40080
591.853	40273
591.864	40223
591.917	39500
591.924	39302
591.969	37860
591.995	36987
592.022	37033
592.066	36792
592.075	36934
592.127	37369
592.137	37374
592.180	37824
592.208	37962
592.233	37337
592.279	35913
592.285	35862
592.338	34772
592.350	34452
592.390	33382
592.421	32453
592.443	32459
592.491	32277
592.495	32301
592.548	31748
592.562	31532
592.600	31325
592.633	31033
592.653	31074
592.704	30849
592.705	31012
592.775	30287
592.846	29040
592.916	29490
592.987	29429
593.058	28975
593.128	27831
593.199	27469
593.270	26424
593.341	25956
593.411	25992
593.482	25869
593.553	25351
593.623	24163
593.694	25044
593.764	25362
593.835	24627
593.906	23593
593.976	22715
594.047	23589
594.117	24316
594.188	25273
594.258	23248
594.329	21367
594.399	21738
594.470	21601
594.540	22333
594.611	20684
594.681	20428
594.751	20269
594.822	21488
594.892	21206
594.963	21038
595.033	20954
595.103	20732
595.174	20330
595.244	21870
595.314	26808
595.384	24909
595.455	19430
595.525	20000
595.595	20339
595.665	19902
595.736	20111
595.806	20044
595.876	18666
595.946	19078
596.016	18466
596.087	18747
596.157	18513
596.227	19082
596.297	18735
596.367	18775
596.437	18435
596.507	20992
596.577	23849
596.647	22649
596.717	18565
596.787	17771
596.857	17927
596.927	17868
596.997	17985
597.067	17973
597.137	18821
597.207	20717
597.277	18062
597.347	17646
597.417	18155
597.487	18626
597.557	18313
597.626	18212
597.696	17954
597.766	19749
597.836	22233
597.906	21335
597.975	17108
598.045	16990
598.115	17213
598.185	17263
598.254	16548
598.324	17927
598.394	17679
598.464	17684
598.533	16669
598.603	17001
598.672	16190
598.742	16459
598.812	16112
598.881	16294
598.951	16299
599.020	16499
599.090	15346
599.159	16216
599.229	15429
599.299	15793
599.368	15910
599.437	14926
599.507	14726
599.576	15402
599.646	16317
599.715	17180
599.785	16541
599.854	15415
599.924	15897
599.993	15321
600.062	15345
600.132	15253
600.201	13987
600.270	15475
600.340	15256
600.409	15373
600.478	15055
600.547	15304
600.617	15345
600.686	15636
600.755	15099
600.824	15290
600.894	14317
600.963	15098
601.032	13818
601.101	14715
601.170	14822
601.239	14761
601.308	14420
601.378	14287
601.447	14090
601.516	14965
601.585	14295
601.654	14721
601.723	14307
601.792	15405
601.861	14442
601.930	16239
601.999	16647
602.068	14991
602.137	15101
602.206	14582
602.275	13898
602.343	14830
602.412	14834
602.481	14782
602.550	13407
602.619	14531
602.688	14287
602.756	14756
602.825	13712
602.894	14152
602.963	13642
603.032	14534
603.100	13197
603.169	14270
603.238	14077
603.307	14095
603.375	13030
603.444	13045
603.513	13249
603.581	13336
603.650	13631
603.719	13426
603.787	12364
603.856	12996
603.924	12903
603.993	12953
604.061	13068
604.130	13542
604.198	12990
604.267	13878
604.335	13722
604.404	13566
604.472	12839
604.541	13493
604.609	13302
604.678	12525
604.746	12972
604.815	13865
604.883	13273
604.951	13483
605.020	13541
605.088	14299
605.156	12489
605.225	13080
605.293	12735
605.361	12520
605.429	12158
605.498	13828
605.566	14277
605.634	13622
605.702	13134
605.771	13637
605.839	13037
605.907	12987
605.975	12698
606.043	13572
606.111	12463
606.180	13345
606.248	13770
606.316	16892
606.384	15151
606.452	14658
606.520	14197
606.588	14089
606.656	11521
606.724	12114
606.792	10637
606.860	10792
606.928	10965
606.996	10250
607.064	10170
607.132	10401
607.200	10309
607.267	11423
607.335	10550
607.403	10620
607.471	10990
607.539	10944
607.607	10559
607.674	10028
607.742	9813
607.810	10542
607.878	10617
607.946	10371
608.013	9656
608.081	10283
608.149	10810
608.216	10350
608.284	10435
608.352	10586
608.419	11136
608.487	12670
608.555	13567
608.622	10915
608.690	9654
608.757	10116
608.825	11482
608.893	10646
608.960	10680
609.028	12933
609.095	13948
609.163	13345
609.230	9994
609.298	11380
609.365	10324
609.432	10255
609.500	10865
609.567	11847
609.635	11784
609.702	11901
609.769	11743
609.837	12329
609.904	11505
609.971	11002
610.039	11006
610.106	12708
610.173	17709
610.241	32164
610.308	57540
610.375	62989
610.442	27161
610.509	13802
610.577	12387
610.644	10778
610.711	10952
610.778	10655
610.845	11180
610.912	11850
610.980	11612
611.047	15146
611.114	18082
611.181	11897
611.248	10587
611.315	11550
611.382	10537
611.449	11036
611.516	10448
611.583	11056
611.650	11242
611.717	10843
611.784	11081
611.851	11387
611.918	11084
611.984	12359
612.051	12995
612.118	18724
612.185	37227
612.252	64155
612.319	22451
612.386	11965
612.452	11492
612.519	11807
612.586	13561
612.653	14908
612.719	11318
612.786	11587
612.853	10609
612.919	10460
612.986	10281
613.053	9812
613.120	9359
613.186	10476
613.253	10750
613.319	10734
613.386	10008
613.453	10221
613.519	9611
613.586	11449
613.652	14751
613.719	14163
613.785	13224
613.852	10713
613.918	10302
613.985	10379
614.051	12641
614.118	19065
614.184	34262
614.250	17821
614.317	10286
614.383	10375
614.449	9447
614.516	9954
614.582	8974
614.648	10524
614.715	9887
614.781	9680
614.847	10289
614.914	10512
614.980	11026
615.046	10486
615.112	9951
615.179	10027
615.245	11600
615.311	12751
615.377	19068
615.443	33466
615.509	25365
615.575	14760
615.642	11732
615.708	12253
615.774	12218
615.840	13320
615.906	16915
615.972	22473
616.038	38436
616.104	68942
616.170	72892
616.236	104985
616.302	43906
616.368	17374
616.434	15223
616.500	13240
616.565	13052
616.631	13236
616.697	14045
616.763	12219
616.829	12640
616.895	18127
616.961	21179
617.026	18169
617.092	12415
617.158	11947
617.224	11629
617.289	11287
617.355	10987
617.421	11380
617.487	12171
617.552	11214
617.618	10478
617.684	10044
617.749	11023
617.815	11583
617.880	9795
617.946	11949
618.012	11119
618.077	11890
618.143	10896
618.208	11198
618.274	11927
618.339	12113
618.405	11751
618.470	12088
618.536	10517
618.601	12583
618.667	11909
618.732	12151
618.798	11589
618.863	11490
618.928	11417
618.994	11574
619.059	12049
619.124	14002
619.190	14710
619.255	12128
619.320	11416
619.386	11381
619.451	11221
619.516	11924
619.581	10520
619.647	12262
619.712	10854
619.777	11936
619.842	11348
619.907	11996
619.972	11181
620.038	11369
620.103	10350
620.168	10827
620.233	10755
620.298	11146
620.363	10335
620.428	10800
620.493	10410
620.558	10564
620.623	10193
620.688	10274
620.753	9773
620.818	11210
620.883	10476
620.948	10471
621.013	10128
621.078	11258
621.143	10133
621.207	12113
621.272	11653
621.337	12137
621.402	12368
621.467	14180
621.532	15833
621.596	15231
621.661	12775
621.726	12481
621.791	12655
621.855	12546
621.920	13661
621.985	14170
622.049	13512
622.114	14647
622.179	14214
622.243	14060
622.308	14639
622.373	14693
622.437	14401
622.502	13623
622.566	13617
622.631	13282
622.695	12762
622.760	13913
622.824	13546
622.889	14158
622.953	13847
623.018	15634
623.082	19428
623.147	14875
623.211	12819
623.276	13980
623.340	13749
623.404	13720
623.469	12773
623.533	13355
623.597	12655
623.662	12357
623.726	12763
623.790	12466
623.854	11984
623.919	12907
623.983	12357
624.047	12222
624.111	11840
624.176	13123
624.240	12379
624.304	14435
624.368	12691
624.432	12491
624.496	12479
624.560	12515
624.625	13700
624.689	12743
624.753	12007
624.817	11964
624.881	11664
624.945	11979
625.009	11364
625.073	12109
625.137	11753
625.201	13460
625.265	15192
625.329	13217
625.393	13050
625.456	12515
625.520	11856
625.584	13567
625.648	13446
625.712	16936
625.776	26663
625.839	46815
625.903	39021
625.967	14703
626.031	14902
626.095	23021
626.158	22237
626.222	11901
626.286	10036
626.349	10875
626.413	10439
626.477	10748
626.540	10929
626.604	10451
626.668	10168
626.731	10185
626.795	10303
626.858	10566
626.922	10146
626.986	10224
627.049	9542
627.113	9405
627.176	9657
627.240	8690
627.303	8872
627.366	9533
627.430	9516
627.493	9867
627.557	9103
627.620	10774
627.684	9804
627.747	9289
627.810	8847
627.874	9827
627.937	8619
628.000	10449
628.064	9869
628.127	9029
628.190	8829
628.253	9129
628.317	8258
628.380	8726
628.443	7815
628.506	8950
628.569	9818
628.632	7639
628.696	8088
628.759	8427
628.822	8113
628.885	8458
628.948	7649
629.011	8289
629.074	8790
629.137	8389
629.200	8350
629.263	8794
629.326	7583
629.389	9201
629.452	8027
629.515	8715
629.578	8203
629.641	8291
629.704	8634
629.767	7998
629.830	8349
629.892	8011
629.955	7181
630.018	8549
630.081	7577
630.144	8782
630.207	8395
630.269	8843
630.332	7973
630.395	8307
630.458	7307
630.520	7807
630.583	6704
630.646	7561
630.708	6913
630.771	7274
630.834	7476
630.896	6923
630.959	6523
631.021	7209
631.084	6632
631.146	7278
631.209	8499
631.272	7784
631.334	7608
631.397	6013
631.459	6725
631.522	7356
631.584	6635
631.646	7155
631.709	6200
631.771	7275
631.834	8345
631.896	7399
631.958	6730
632.021	6333
632.083	5699
632.145	7251
632.208	5952
632.270	7511
632.332	6246
632.395	5962
632.457	7062
632.519	7058
632.581	6475
632.643	6635
632.706	6663
632.768	6277
632.830	5034
632.892	6243
632.954	5993
633.016	6159
633.078	4821
633.141	6253
633.203	5931
633.265	6230
633.327	6100
633.389	6743
633.451	5757
633.513	6636
633.575	7732
633.637	7221
633.698	6520
633.760	6031
633.822	5956
633.884	5965
633.946	5528
634.008	5774
634.070	5198
634.132	6665
634.193	7524
634.255	6543
634.317	4805
634.379	5982
634.441	5725
634.502	5731
634.564	4613
634.626	5290
634.687	5386
634.749	5817
634.811	5382
634.873	5957
634.934	5430
634.996	5633
635.057	4931
635.119	6058
635.181	5040
635.242	6598
635.304	4046
635.365	6195
635.427	4278
635.488	5416
635.550	5185
635.611	5598
635.673	4219
635.734	5725
635.796	5861
635.857	5615
635.918	5386
635.980	5126
636.041	4904
636.102	5427
636.164	4889
636.225	5314
636.286	4906
636.348	6138
636.409	4919
636.470	4623
636.531	4604
636.593	5690
636.654	5509
636.715	5206
636.776	3889
636.838	4595
636.899	4285
636.960	4741
637.021	4094
637.082	5477
637.143	4032
637.204	4541
637.265	4142
637.326	5344
637.387	4166
637.448	4124
637.509	4088
637.570	4995
637.631	4108
637.692	4418
637.753	4032
637.814	4338
637.875	4455
637.936	4376
637.997	4693
638.058	4937
638.119	4030
638.179	5831
638.240	3682
638.301	4299
638.362	3900
638.423	4545
638.483	3982
638.544	4304
638.605	3190
638.666	3823
638.726	3486
638.787	4951
638.848	3141
638.908	3956
638.969	4095
639.030	3927
639.090	3496
639.151	4525
639.211	4226
639.272	5811
639.332	5470
639.393	7091
639.453	3393
639.514	4747
639.574	4090
639.635	4362
639.695	3744
639.756	3732
639.816	3758
639.877	4071
639.937	4576
639.997	7432
640.058	5963
640.118	3640
640.178	3631
640.239	3551
640.299	2773
640.359	3679
640.420	3659
640.480	3493
640.540	2824
640.600	3106
640.661	3374
640.721	2996
640.781	4171
640.841	4296
640.901	4366
640.961	3942
641.021	3468
641.082	4333
641.142	4249
641.202	5138
641.262	2815
641.322	3887
641.382	3677
641.442	3347
641.502	3744
641.562	4195
641.622	3532
641.682	3317
641.742	3333
641.802	3789
641.861	3890
641.921	3262
641.981	3906
642.041	4221
642.101	3860
642.161	4087
642.221	3071
642.280	3288
642.340	2253
642.400	2312
642.460	2726
642.519	3133
642.579	3471
642.639	3351
642.698	2504
642.758	4007
642.818	3222
642.877	3531
642.937	2728
642.997	3870
643.056	4715
643.116	4916
643.175	4168
643.235	3598
643.294	3120
643.354	3334
643.414	2737
643.473	3766
643.532	2787
643.592	3845
643.651	3783
643.711	5428
643.770	7011
643.830	13799
643.889	33548
643.948	41316
644.008	5738
644.067	3383
644.126	2376
644.186	3348
644.245	3688
644.304	2673
644.363	3429
644.423	3375
644.482	1881
644.541	3152
644.600	1847
644.659	3141
644.719	2564
644.778	3677
644.837	3078
644.896	5135
644.955	6142
645.014	9926
645.073	4617
645.132	3513
645.191	2679
645.250	2690
645.309	3006
645.368	3000
645.427	3069
645.486	2627
645.545	3614
645.604	3278
645.663	2410
645.722	2838
645.781	3361
645.840	2212
645.898	2971
645.957	3577
646.016	2693
646.075	4877
646.134	6010
646.192	11874
646.251	29146
646.310	23687
646.369	3589
646.427	2746
646.486	2642
646.545	3702
646.603	2846
646.662	2720
646.721	2596
646.779	1962
646.838	1639
646.896	2978
646.955	2806
647.014	2705
647.072	2592
647.131	4363
647.189	6326
647.248	3419
647.306	1836
647.365	2481
647.423	1954
647.481	2562
647.540	1060
647.598	3100
647.657	1464
647.715	2885
647.773	2066
647.832	2560
647.890	1869
647.948	2491
648.007	2351
648.065	1683
648.123	1554
648.181	3227
648.240	2601
648.298	4023
648.356	3655
648.414	2724
648.472	2308
648.531	2120
648.589	1692
648.647	2354
648.705	1430
648.763	2661
648.821	1840
648.879	3097
648.937	2303
648.995	2990
649.053	2155
649.111	2669
649.169	2663
649.227	3458
649.285	4952
649.343	9577
649.401	19028
649.459	8809
649.516	8391
649.574	4648
649.632	6459
649.690	13844
649.748	9224
649.806	4798
649.863	7013
649.921	8687
649.979	4859
650.037	3304
650.094	1029
650.152	1830
650.210	2305
650.268	2355
650.325	1903
650.383	2591
650.440	834
650.498	2214
650.556	1628
650.613	2057
650.671	1535
650.728	2604
650.786	1841
650.843	3031
650.901	1221
650.958	2292
651.016	2179
651.073	2430
651.131	1578
651.188	1480
651.246	1540
651.303	2028
651.360	2047
651.418	1066
651.475	1810
651.532	1671
651.590	1916
651.647	1109
651.704	728
651.762	1754
651.819	1710
651.876	1246
651.933	1500
651.990	1941
652.048	1661
652.105	1373
652.162	1430
652.219	1750
652.276	1191
652.333	2070
652.390	1301
652.448	2132
652.505	1707
652.562	1999
652.619	2172
652.676	3389
652.733	5161
652.790	3199
652.847	895
652.904	2080
652.961	1216
653.017	791
653.074	1374
653.131	2183
653.188	1121
653.245	1338
653.302	2234
653.359	1262
653.415	2150
653.472	2138
653.529	901
653.586	2077
653.642	1030
653.699	2578
653.756	328
653.813	1271
653.869	1871
653.926	1279
653.983	285
654.039	1288
654.096	1429
654.152	2378
654.209	1266
654.266	2339
654.322	1137
654.379	2108
654.435	1887
654.492	1825
654.548	1794
654.605	3196
654.661	3825
654.717	2053
654.774	2166
654.830	1563
654.887	961
654.943	1550
655.000	1774
655.056	1456
655.112	1780
655.168	1728
655.225	1435
655.281	1918
655.337	1477
655.394	3118
655.450	3523
655.506	2869
655.562	2680
655.618	5413
655.675	1309
655.731	2213
655.787	939
655.843	2168
655.899	1609
655.955	1824
656.011	1573
656.067	1316
656.123	1959
656.179	1261
656.235	1595
656.291	1090
656.347	2147
656.403	1479
656.459	1664
656.515	1815
656.571	2094
656.627	2152
656.683	1382
656.739	2759
656.795	1281
656.850	1687
656.906	1563
656.962	2072
657.018	1653
657.074	1686
657.129	1311
657.185	2346
657.241	1532
657.297	1872
657.352	1712
657.408	1333
657.464	1992
657.519	1840
657.575	1479
657.630	1239
657.686	1077
657.742	679
657.797	808
657.853	1281
657.908	2174
657.964	1884
658.019	1128
658.075	1666
658.130	1573
658.186	1406
658.241	1187
658.297	1220
658.352	560
658.407	2054
658.463	1219
658.518	1160
658.573	1949
658.629	1052
658.684	1735
658.739	1403
658.795	1023
658.850	1596
658.905	740
658.960	1787
659.016	382
659.071	2155
659.126	1154
659.181	1273
659.236	2054
659.291	3267
659.346	2018
659.401	1913
659.457	1938
659.512	3056
659.567	3509
659.622	1518
659.677	1328
659.732	1135
659.787	1190
659.842	988
659.897	1758
659.952	2913
660.007	1122
660.061	1160
660.116	1256
660.171	1639
660.226	1505
660.281	1690
660.336	1070
660.391	1160
660.445	1056
660.500	1190
660.555	1346
660.610	1350
660.664	1770
660.719	1465
660.774	1255
660.828	1127
660.883	1059
660.938	1743
660.992	639
661.047	1581
661.101	982
661.156	1138
661.211	1139
661.265	1193
661.320	642
661.374	1326
661.429	692
661.483	1233
661.538	1014
661.592	1640
661.647	1359
661.701	1423
661.755	1299
661.810	1749
661.864	1163
661.919	1046
661.973	694
662.027	906
662.081	881
662.136	1065
662.190	889
662.244	1695
662.299	1480
662.353	1854
662.407	993
662.461	728
662.515	1495
662.569	982
662.624	1770
662.678	1336
662.732	935
662.786	557
662.840	1219
662.894	1742
662.948	786
663.002	1357
663.056	185
663.110	608
663.164	476
663.218	2070
663.272	1320
663.326	1892
663.380	970
663.434	1889
663.488	1094
663.542	1942
663.595	845
663.649	1101
663.703	1520
663.757	2036
663.811	587
663.864	1374
663.918	1224
663.972	1600
664.026	940
664.079	1126
664.133	1168
664.187	1297
664.240	1022
664.294	749
664.348	966
664.401	1624
664.455	1351
664.508	345
664.562	1135
664.615	1480
664.669	1229
664.722	1143
664.776	493
664.829	1572
664.883	283
664.936	1478
664.990	1549
665.043	1347
665.097	581
665.150	3006
665.203	557
665.257	1771
665.310	1677
665.363	1312
665.417	935
665.470	1420
665.523	1416
665.576	1629
665.630	1205
665.683	1374
665.736	424
665.789	1920
665.842	1077
665.895	1077
665.949	2184
666.002	950
666.055	909
666.108	1762
666.161	1170
666.214	1391
666.267	2212
666.320	1700
666.373	1695
666.426	1723
666.479	674
666.532	1188
666.585	933
666.638	2866
666.691	819
666.744	2711
666.796	852
666.849	1397
666.902	1156
666.955	1552
667.008	1208
667.060	1254
667.113	1083
667.166	1340
667.219	849
667.271	1147
667.324	1543
667.377	1561
667.430	1497
667.482	1873
667.535	1993
667.587	1422
667.640	1641
667.693	1034
667.745	1337
667.798	2487
667.850	1698
667.903	1433
667.955	1197
668.008	1497
668.060	1660
668.113	1295
668.165	1654
668.218	1531
668.270	2036
668.322	777
668.375	920
668.427	1703
668.479	920
668.532	1601
668.584	1197
668.636	1107
668.689	1057
668.741	998
668.793	1111
668.845	1006
668.898	1706
668.950	2003
669.002	1433
669.054	637
669.106	273
669.158	2392
669.211	1192
669.263	1749
669.315	1952
669.367	2466
669.419	1714
669.471	2652
669.523	1814
669.575	2344
669.627	1356
669.679	1536
669.731	1555
669.783	2042
669.835	2175
669.886	2574
669.938	2281
669.990	2078
670.042	1365
670.094	1669
670.146	1234
670.197	2300
670.249	3251
670.301	3002
670.353	4110
670.404	5799
670.456	7485
670.508	11291
670.560	18294
670.611	31605
670.663	52219
670.715	91385
670.766	191463
670.818	236429
670.869	78702
670.921	18997
670.972	9694
671.024	6832
671.075	5182
671.127	4196
671.178	3006
671.230	2507
671.281	2657
671.333	3006
671.384	2201
671.436	2453
671.487	1961
671.538	2527
671.590	1912
671.641	2696
671.692	1988
671.744	2683
671.795	3463
671.846	2300
671.897	1435
671.949	1899
672.000	1874
672.051	917
672.102	1354
672.153	985
672.204	1886
672.256	1987
672.307	297
672.358	1820
672.409	1132
672.460	1105
672.511	1101
672.562	993
672.613	1270
672.664	1455
672.715	1656
672.766	876
672.817	1050
672.868	1630
672.919	1380
672.970	1289
673.021	1879
673.071	1047
673.122	633
673.173	1039
673.224	980
673.275	1410
673.326	464
673.376	1310
673.427	249
673.478	1675
673.528	1000
673.579	887
673.630	704
673.680	918
673.731	742
673.782	961
673.832	216
673.883	1527
673.934	352
673.984	1065
674.035	313
674.085	1738
674.136	1156
674.186	1546
674.237	1337
674.287	1101
674.338	2186
674.388	1014
674.438	1350
674.489	793
674.539	178
674.589	836
674.640	127
674.690	1499
674.740	1618
674.791	1443
674.841	1006
674.891	990
674.942	1299
674.992	1148
675.042	344
675.092	1110
675.142	683
675.193	-271
675.243	312
675.293	1536
675.343	1110
675.393	1350
675.443	773
675.493	1312
675.543	-564
675.593	756
675.643	933
675.693	1241
675.743	433
675.793	756
675.843	425
675.893	753
675.943	1442
675.993	1143
676.043	481
676.093	1221
676.142	309
676.192	958
676.242	592
676.292	1006
676.341	31
676.391	520
676.441	420
676.491	761
676.540	472
676.590	681
676.640	291
676.689	-62
676.739	376
676.789	582
676.838	32
676.888	840
676.937	987
676.987	883
677.037	493
677.086	777
677.136	269
677.185	290
677.235	141
677.284	102
677.333	-326
677.383	426
677.432	18
677.482	379
677.531	251
677.580	-41
677.630	141
677.679	586
677.728	113
677.778	-163
677.827	492
677.876	828
677.925	-323
677.975	459
678.024	166
678.073	-64
678.122	370
678.171	315
678.220	639
678.269	536
678.319	1133
678.368	696
678.417	301
678.466	1002
678.515	647
678.564	-72
678.613	80
678.662	1106
678.711	47
678.760	398
678.809	599
678.857	323
678.906	623
678.955	648
679.004	557
679.053	824
679.102	269
679.151	-102
679.199	828
679.248	704
679.297	-14
679.346	211
679.394	-515
679.443	128
679.492	646
679.540	958
679.589	856
679.638	536
679.686	-237
679.735	1030
679.784	540
679.832	165
679.881	-596
679.929	283
679.978	-158
680.026	774
680.075	-437
680.123	222
680.172	-292
680.220	-198
680.268	121
680.317	760
680.365	-111
680.414	350
680.462	394
680.510	1075
680.559	-704
680.607	372
680.655	225
680.703	-447
680.752	-700
680.800	59
680.848	-611
680.896	-103
680.945	-137
680.993	304
681.041	-334
681.089	177
681.137	407
681.185	55
681.233	-493
681.258	-15
681.281	423
681.329	-170
681.377	806
681.380	779
681.425	-13
681.473	543
681.502	136
681.521	-178
681.569	-101
681.617	-77
681.624	191
681.665	1807
681.713	327
681.745	743
681.761	911
681.809	869
681.857	899
681.867	726
681.904	75
681.952	1117
681.989	238
682.000	-47
682.048	918
682.096	532
682.111	800
682.143	1325
682.191	750
682.233	1037
682.239	1061
682.286	1369
682.334	1263
682.354	569
682.382	-375
682.430	643
682.476	862
682.477	852
682.525	1001
682.572	681
682.598	1190
682.620	1582
682.667	971
682.715	1270
682.720	1262
682.763	1075
682.810	1112
682.841	1077
682.857	1047
682.905	1154
682.952	1069
682.963	1182
683.000	1513
683.047	1490
683.085	1625
683.095	1642
683.142	1424
683.190	2025
683.206	1610
683.237	832
683.284	2087
683.328	1614
683.332	1560
683.379	1938
683.426	842
683.449	1222
683.473	1607
683.521	1000
683.568	753
683.571	810
683.615	1403
683.662	2095
683.693	1994
683.709	1906
683.757	1800
683.804	1780
683.814	1782
683.851	1721
683.898	1998
683.936	1728
683.945	1656
683.992	1936
684.039	2211
684.057	2056
684.086	1774
684.133	1790
684.179	2187
684.180	2192
684.227	2126
684.274	2662
684.300	2545
684.321	2408
684.368	1435
684.415	2446
684.422	2415
684.462	2184
684.509	2158
684.543	2378
684.556	2435
684.603	2472
684.649	1786
684.665	1909
684.696	2192
684.743	1992
684.786	2479
684.790	2508
684.837	2067
684.883	2311
684.908	2163
684.930	2088
684.977	2992
685.023	3301
685.029	3255
685.070	2642
685.117	2302
685.150	2655
685.164	2844
685.210	2769
685.257	3193
685.272	3328
685.303	3502
685.350	3408
685.393	2426
685.396	2344
685.443	3047
685.490	2622
685.514	3070
685.536	3479
685.583	3035
685.629	3189
685.636	3209
685.675	3218
685.722	3912
685.757	3426
685.768	3244
685.815	3741
685.861	2966
685.878	3005
685.908	3171
685.954	3189
686.000	3301
686.000	3298
686.047	3462
686.093	3544
686.121	3448
686.139	3355
686.185	3837
686.232	3580
686.242	3541
686.278	3315
686.324	3443
686.363	3404
686.370	3402
686.416	3039
686.463	3376
686.484	3223
686.509	3117
686.555	3628
686.601	3051
686.606	3121
686.647	3687
686.693	3572
686.727	3603
686.739	3614
686.785	3331
686.831	4318
686.848	4119
686.877	3665
686.923	4294
686.969	3419
686.969	3414
687.015	3426
687.061	3381
687.090	3511
687.107	3619
687.153	3542
687.199	4024
687.211	3892
687.245	3575
687.291	3503
687.332	3431
687.336	3424
687.382	4235
687.428	3577
687.453	3978
687.474	4283
687.520	3955
687.565	3636
687.574	3665
687.611	3838
687.657	4060
687.695	4282
687.702	4315
687.748	4382
687.794	3936
687.816	4266
687.839	4547
687.885	4066
687.931	4099
687.937	4079
687.976	4042
688.022	4284
688.058	4095
688.067	4055
688.113	4193
688.158	4227
688.179	4335
688.204	4540
688.249	3919
688.295	4688
688.300	4649
688.340	4298
688.386	4850
688.421	4608
688.431	4529
688.477	4286
688.522	4375
688.542	4593
688.567	4945
688.613	4502
688.658	4930
688.663	4927
688.703	4865
688.749	4903
688.784	4586
688.794	4505
688.839	5217
688.884	4606
688.905	4555
688.930	4472
688.975	4553
689.020	4807
689.026	4814
689.065	4925
689.110	4268
689.146	4583
689.155	4706
689.201	5087
689.246	5043
689.267	5129
689.291	5123
689.336	5213
689.381	5157
689.388	5148
689.426	5150
689.471	4890
689.509	4706
689.516	4667
689.561	4900
689.606	4838
689.630	4794
689.651	4847
689.696	4774
689.741	4988
689.750	4977
689.785	5029
689.830	5485
689.871	5269
689.875	5216
689.920	4851
689.965	4205
689.992	4265
690.010	4505
690.054	4349
690.099	5029
690.112	5018
690.144	4951
690.189	5387
690.233	4929
690.233	4935
690.278	5185
690.323	5210
690.354	5226
690.367	5239
690.412	5261
690.457	5891
690.474	5692
690.501	5376
690.546	5384
690.590	5292
690.595	5270
690.635	5354
690.680	5756
690.716	6036
690.724	6123
690.769	6174
690.813	6762
690.836	6903
690.857	7335
690.902	8231
690.946	9170
690.957	9425
690.991	11288
691.035	13414
691.077	16507
691.080	16869
691.124	23363
691.168	27905
691.198	30427
691.213	28288
691.257	23232
691.301	17644
691.318	15733
691.346	14222
691.390	11459
691.434	8597
691.439	8276
691.478	7653
691.522	6892
691.559	6456
691.567	6482
691.611	6255
691.655	6384
691.680	6253
691.699	6164
691.743	5930
691.787	5841
691.800	5729
691.831	5810
691.875	6219
691.919	6549
691.921	6551
691.964	6815
692.008	6569
692.041	6816
692.052	6889
692.096	6210
692.139	6616
692.162	6470
692.183	6292
692.227	6409
692.271	6190
692.282	6190
692.315	6469
692.359	6434
692.402	6451
692.403	6467
692.447	7026
692.490	6987
692.523	7292
692.534	7286
692.578	7141
692.622	6878
692.643	6891
692.666	7048
692.709	6830
692.753	6614
692.763	6681
692.797	6842
692.840	6783
692.884	6543
692.884	6557
692.928	6514
692.971	6545
693.004	6461
693.015	6507
693.059	6728
693.102	6896
693.124	6886
693.146	6841
693.189	6977
693.233	6721
693.245	6832
693.276	7413
693.320	7345
693.363	7775
693.365	7773
693.407	8148
693.450	8809
693.485	8762
693.493	8837
693.537	9273
693.580	9856
693.605	10343
693.624	11185
693.667	13104
693.710	14713
693.725	15438
693.753	19413
693.797	25438
693.840	31933
693.845	32747
693.883	45282
693.926	57159
693.966	67879
693.970	66788
694.013	54427
694.056	42432
694.086	34164
694.099	31782
694.142	24063
694.185	16204
694.206	12516
694.229	12082
694.272	10963
694.315	10216
694.326	9901
694.358	9638
694.401	9524
694.444	9226
694.446	9193
694.487	8988
694.530	8568
694.566	8374
694.573	8371
694.616	8100
694.659	8005
694.686	7898
694.702	7858
694.745	7597
694.787	7242
694.806	7219
694.830	7445
694.873	7342
694.916	7558
694.926	7576
694.959	7575
695.002	7713
695.044	7432
695.046	7417
695.087	7632
695.130	7512
695.166	7629
695.172	7650
695.215	7489
695.258	7567
695.286	7368
695.301	7422
695.343	7902
695.386	8001
695.406	8082
695.428	7956
695.471	7658
695.514	7604
695.526	7483
695.556	7344
695.599	7313
695.641	7098
695.646	7074
695.684	7280
695.726	7363
695.766	7546
695.769	7562
695.811	7323
695.854	7289
695.886	7068
695.896	7075
695.938	7143
695.981	7191
696.005	7218
696.023	7182
696.065	7042
696.108	6756
696.125	6735
696.150	7010
696.192	7354
696.235	7580
696.245	7617
696.277	7654
696.319	7659
696.361	7857
696.365	7840
696.404	7988
696.446	8073
696.485	8212
696.488	8231
696.530	8217
696.572	8042
696.604	8048
696.614	8090
696.656	7937
696.698	8006
696.724	7941
696.740	7893
696.783	7801
696.825	7597
696.844	7531
696.867	7538
696.909	7369
696.951	7406
696.964	7350
696.992	7250
697.034	7096
697.076	6940
697.083	6895
697.118	7100
697.160	7335
697.202	7584
697.203	7570
697.244	7781
697.286	7843
697.323	7922
697.327	7942
697.369	7964
697.411	7971
697.442	7899
697.453	7904
697.494	7856
697.536	7833
697.562	7756
697.578	7715
697.620	7691
697.661	7559
697.682	7495
697.703	7508
697.744	7380
697.786	7436
697.801	7373
697.828	7719
697.869	8290
697.911	8859
697.921	8975
697.952	8799
697.994	8484
698.035	8256
698.040	8196
698.077	8071
698.118	7919
698.160	7740
698.160	7714
698.201	7858
698.243	7953
698.279	8028
698.284	8025
698.325	7786
698.367	7525
698.399	7263
698.408	7331
698.449	7627
698.491	7824
698.518	7970
698.532	7965
698.573	7882
698.614	7795
698.638	7698
698.656	7641
698.697	7493
698.738	7324
698.757	7233
698.779	7475
698.820	7885
698.862	8294
698.877	8420
698.903	8420
698.944	8393
698.985	8358
698.996	8326
699.026	8388
699.067	8439
699.116	8477
699.235	7798
699.354	6970
699.474	8278
699.593	8486
699.713	8573
699.832	7787
699.951	8109
700.070	8439
700.190	8332
700.309	8450
700.428	7526
700.547	7397
700.667	7503
700.786	7818
700.905	7733
701.024	7902
701.143	7983
701.262	8357
701.381	7251
701.500	7536
701.619	7685
701.738	7738
701.857	7971
701.976	8207
702.095	7162
702.214	7517
702.333	8096
702.452	7678
702.571	6616
702.690	7691
702.809	6786
702.928	7176
703.047	7700
703.165	7926
703.284	7166
703.403	7103
703.522	6757
703.640	7412
703.759	7354
703.878	7889
703.997	8888
704.115	6250
704.234	7219
704.353	6630
704.471	6504
704.590	6571
704.708	6473
704.827	6951
704.946	6504
705.064	6423
705.183	6670
705.301	7034
705.420	8051
705.538	10841
705.656	8962
705.775	8561
705.893	9401
706.012	16304
706.130	14692
706.249	8483
706.367	8346
706.485	8431
706.604	8399
706.722	8339
706.840	8265
706.958	9701
707.077	9581
707.195	8549
707.313	8166
707.431	7328
707.549	7770
707.668	8117
707.786	8454
707.904	8245
708.022	7489
708.140	8462
708.258	7279
708.376	7849
708.494	7649
708.612	8079
708.730	8984
708.848	10485
708.966	10575
709.084	10094
709.202	8891
709.320	8598
709.438	8529
709.556	9393
709.674	9919
709.791	9561
709.909	8406
710.027	9270
710.145	8498
710.263	9330
710.380	8911
710.498	8554
710.616	8407
710.733	8275
710.851	8643
710.969	8561
711.086	8440
711.204	8139
711.322	8546
711.439	8791
711.557	7495
711.674	8473
711.792	8413
711.909	8734
712.027	8238
712.144	9017
712.262	7990
712.379	8473
712.497	9452
712.614	12156
712.732	11240
712.849	9461
712.966	9898
713.084	9919
713.201	10056
713.318	9279
713.436	9558
713.553	10061
713.670	9284
713.787	10381
713.905	10212
714.022	9790
714.139	9247
714.256	9778
714.373	8867
714.490	8992
714.608	10790
714.725	11867
714.842	26407
714.959	18752
715.076	9106
715.193	8609
715.310	8986
715.427	8194
715.544	8399
715.661	8662
715.778	7802
715.895	8874
716.011	9084
716.128	8654
716.245	8598
716.362	8556
716.479	8130
716.596	9179
716.713	8567
716.829	8455
716.946	7558
717.063	8200
717.180	8619
717.296	8409
717.413	8234
717.530	7419
717.646	8034
717.763	7641
717.880	8093
717.996	6921
718.113	7067
718.229	7683
718.346	7021
718.462	6864
718.579	6765
718.695	8347
718.812	9197
718.928	8121
719.045	8173
719.161	5964
719.277	7194
719.394	7042
719.510	7076
719.626	6610
719.743	7317
719.859	7526
719.975	7745
720.092	7795
720.208	10910
720.324	12864
720.440	7373
720.557	7084
720.673	7747
720.789	8603
720.905	11731
721.021	17148
721.137	7597
721.253	7241
721.369	6354
721.486	6817
721.602	6695
721.718	8554
721.834	6626
721.950	7060
722.066	6341
722.181	6637
722.297	5950
722.413	7013
722.529	5792
722.645	6933
722.761	5795
722.877	6332
722.993	5907
723.108	5767
723.224	5640
723.340	5335
723.456	6524
723.571	6018
723.687	5751
723.803	5595
723.918	5517
724.034	5309
724.150	6363
724.265	5439
724.381	6078
724.497	10110
724.612	7964
724.728	6108
724.843	5697
724.959	5921
725.074	6876
725.190	8760
725.305	7747
725.421	5761
725.536	5217
725.651	5941
725.767	5691
725.882	4839
725.997	5276
726.113	5345
726.228	6129
726.343	5220
726.459	5316
726.574	4951
726.689	5653
726.804	4517
726.920	5098
727.035	5310
727.150	5072
727.265	4623
727.380	4676
727.495	4850
727.610	5095
727.725	4810
727.841	4473
727.956	5456
728.071	9564
728.186	7063
728.301	4443
728.416	5043
728.531	4510
728.645	4667
728.760	4031
728.875	5195
728.990	4224
729.105	4413
729.220	4390
729.335	5246
729.449	4436
729.564	4576
729.679	4320
729.794	4672
729.908	4325
730.023	5545
730.138	4475
730.253	3827
730.367	4778
730.482	4234
730.596	4509
730.711	4531
730.826	4308
730.940	4418
731.055	3956
731.169	5179
731.284	4135
731.398	3742
731.513	4724
731.627	4337
731.742	4346
731.856	4521
731.970	4512
732.085	4453
732.199	4117
732.313	4297
732.428	4500
732.542	5150
732.656	7408
732.771	4971
732.885	3988
732.999	3990
733.113	4213
733.227	4652
733.342	4131
733.456	4320
733.570	3758
733.684	3348
733.798	3978
733.912	4097
734.026	3730
734.140	3631
734.254	3801
734.368	4884
734.482	6378
734.596	4980
734.710	3923
734.824	4228
734.938	4046
735.052	3822
735.166	4252
735.280	4202
735.393	4119
735.507	3429
735.621	3449
735.735	5013
735.849	5766
735.962	3860
736.076	3563
736.190	4034
736.303	3757
736.417	4768
736.531	4685
736.644	3498
736.758	3825
736.872	3713
736.985	3874
737.099	3378
737.212	3330
737.326	3585
737.439	3773
737.553	4504
737.666	3411
737.780	4001
737.893	3110
738.007	3358
738.120	3520
738.233	3531
738.347	3884
738.460	3560
738.573	3409
738.687	2967
738.800	4046
738.913	3814
739.026	3340
739.140	3728
739.253	3796
739.366	3205
739.479	3063
739.592	3680
739.705	3714
739.818	3236
739.932	3184
740.045	3411
740.158	3147
740.271	3565
740.384	3649
740.497	2826
740.610	3284
740.723	3398
740.836	3867
740.949	3177
741.062	2977
741.174	3744
741.287	4125
741.400	3750
741.513	3222
741.626	2975
741.739	2975
741.851	4042
741.964	3448
742.077	3617
742.189	2614
742.302	2864
742.415	3427
742.527	3382
742.640	2690
742.753	3578
742.865	3703
742.978	2958
743.090	3824
743.203	2692
743.316	2898
743.428	3614
743.541	2426
743.653	3638
743.766	3349
743.878	3678
743.990	3121
744.103	4117
744.215	3712
744.327	3241
744.440	3576
744.552	3909
744.664	3691
744.777	3215
744.889	3581
745.001	4021
745.113	3147
745.226	3050
745.338	2740
745.450	2627
745.562	3029
745.674	3362
745.786	3291
745.898	3673
746.010	2849
746.122	2833
746.234	3368
746.347	3687
746.459	2848
746.570	3267
746.682	3131
746.794	3801
746.906	3172
747.018	2952
747.130	2383
747.242	2880
747.354	3491
747.466	3271
747.577	3121
747.689	3074
747.801	3116
747.913	3021
748.024	2438
748.136	2905
748.248	2599
748.359	2857
748.471	2818
748.583	2223
748.694	3096
748.806	3045
748.918	3370
749.029	3920
749.141	2791
749.252	3204
749.364	3010
749.475	2046
749.587	3521
749.698	4159
749.809	3118
749.921	2873
750.032	2482
750.144	2932
750.255	3514
750.366	2443
750.478	2799
750.589	2730
750.700	3065
750.811	3146
750.923	3096
751.034	3033
751.145	4768
751.256	3870
751.367	2812
751.479	3327
751.590	2109
751.701	2603
751.812	2603
751.923	3880
752.034	2388
752.145	2540
752.256	1779
752.367	2557
752.478	2760
752.589	2681
752.700	3116
752.811	2876
752.922	3058
753.032	2705
753.143	2443
753.254	3372
753.365	2687
753.476	3305
753.586	2971
753.697	3133
753.808	3090
753.919	2572
754.029	3240
754.140	3154
754.251	2463
754.361	3602
754.472	3314
754.582	2804
754.693	2644
754.804	3566
754.914	2767
755.025	2703
755.135	3066
755.246	2401
755.356	2620
755.466	2842
755.577	3006
755.687	3195
755.798	3185
755.908	3177
756.018	2744
756.129	2973
756.239	3296
756.349	3028
756.460	3680
756.570	3515
756.680	2444
756.790	2243
756.900	2985
757.011	2826
757.121	3221
757.231	3059
757.341	3588
757.451	3572
757.561	3479
757.671	3297
757.781	2498
757.891	3531
758.001	4046
758.111	3320
758.221	3264
758.331	3902
758.441	3536
758.551	3165
758.661	3852
758.771	4169
758.880	3506
758.990	3888
759.100	3539
759.210	4296
759.320	4029
759.429	4413
759.539	3985
759.649	4787
759.758	4023
759.868	4296
759.978	4091
760.087	4094
760.197	4681
760.307	4487
760.416	4208
760.526	4381
760.635	5228
760.745	4959
760.854	5707
760.964	5118
761.073	4869
761.182	4676
761.292	4724
761.401	5163
761.511	4819
761.620	5439
761.729	5266
761.839	4917
761.948	6590
762.057	5533
762.166	5929
762.276	6394
762.385	6609
762.494	5694
762.603	6482
762.712	6621
762.822	6951
762.931	7935
763.040	7744
763.149	7420
763.258	7873
763.367	8369
763.476	8667
763.585	9608
763.694	10253
763.803	10003
763.912	10630
764.021	11132
764.130	11396
764.238	12649
764.347	13096
764.456	13188
764.565	15051
764.674	15437
764.783	17701
764.891	18998
765.000	19999
765.109	23599
765.217	26478
765.326	29990
765.435	35866
765.543	42942
765.652	52059
765.761	63946
765.869	85388
765.978	114958
766.086	164893
766.195	245879
766.303	372753
766.412	492726
766.520	404722
766.629	440138
766.737	417183
766.846	286615
766.954	190321
767.062	134416
767.171	99688
767.279	75666
767.387	60293
767.496	48781
767.604	40867
767.712	35336
767.820	31316
767.928	28813
768.037	26076
768.145	24073
768.253	23295
768.361	21914
768.469	22326
768.577	21070
768.685	21406
768.793	22474
768.901	23254
769.009	27016
769.117	31224
769.225	38256
769.333	50238
769.441	69260
769.549	105516
769.657	175114
769.765	310018
769.873	440884
769.981	387032
770.088	367062
770.196	224128
770.304	134073
770.412	88989
770.519	62946
770.627	49801
770.735	38229
770.842	32346
770.950	27036
771.058	23629
771.165	20999
771.273	18533
771.380	16795
771.488	16191
771.595	13313
771.703	13065
771.810	12073
771.918	11429
772.025	10797
772.133	10687
772.240	9159
772.348	8427
772.455	8813
772.562	7893
772.670	7788
772.777	7764
772.884	7333
772.991	6869
773.099	6729
773.206	6837
773.313	6678
773.420	5113
773.528	5020
773.635	4668
773.742	6205
773.849	4769
773.956	5893
774.063	4973
774.170	4619
774.277	4315
774.384	4643
774.491	5523
774.598	4621
774.705	4363
774.812	4451
774.919	4899
775.026	4902
775.133	4714
775.239	4373
775.346	4150
775.453	3228
775.560	4521
775.667	4248
775.773	2661
775.880	4020
775.987	4121
776.093	4093
776.200	4954
776.307	3446
776.413	4437
776.520	3071
776.627	3255
776.733	4277
776.840	3909
776.946	3501
777.053	3785
777.159	3967
777.266	3121
777.372	4050
777.478	3830
777.585	3611
777.691	3095
777.798	3261
777.904	3477
778.010	3509
778.117	4636
778.223	3890
778.329	2826
778.435	2757
778.542	2521
778.648	2614
778.754	2891
778.860	2160
778.966	3238
779.072	2783
779.178	2981
779.284	3023
779.391	2631
779.497	2793
779.603	3859
779.708	4240
779.815	7802
779.920	19561
780.026	73820
780.132	85024
780.238	9835
780.344	4461
780.450	4182
780.556	2122
780.661	3060
780.767	2754
780.873	3264
780.979	2541
781.085	2815
781.190	3078
781.296	2433
781.402	1625
781.507	2906
781.613	2712
781.719	1819
781.824	2053
781.930	2453
782.035	2240
782.141	1920
782.246	2119
782.352	1603
782.457	2057
782.563	1635
782.668	1214
782.773	1535
782.879	2356
782.984	1784
783.090	2731
783.195	1475
783.300	2338
783.405	1926
783.511	1599
783.616	1835
783.721	2011
783.826	1733
783.932	1964
784.037	2849
784.142	1664
784.247	1914
784.352	1294
784.457	2192
784.562	1977
784.667	2088
784.772	2072
784.877	1709
784.982	2328
785.087	1737
785.192	1388
785.297	1851
785.402	1431
785.507	2346
785.611	2151
785.716	1558
785.821	487
785.926	1582
786.031	2266
786.135	1869
786.240	1986
786.345	1631
786.450	880
786.554	1899
786.659	1278
786.763	1049
786.868	2138
786.973	1819
787.077	1253
787.182	1389
787.286	1805
787.391	1456
787.495	1362
787.600	1376
787.704	777
787.809	2559
787.913	1607
788.017	1310
788.122	1570
788.226	1022
788.330	1333
788.435	707
788.539	1279
788.643	822
788.747	1190
788.852	1516
788.956	2348
789.060	1084
789.164	1800
789.268	934
789.372	1583
789.476	990
789.580	1801
789.684	838
789.788	1472
789.892	1732
789.996	1660
790.100	1282
790.204	1406
790.308	1488
790.412	1194
790.516	1556
790.620	2130
790.724	1432
790.828	1224
790.931	984
791.035	1346
791.139	1206
791.242	1501
791.346	719
791.450	967
791.554	1381
791.657	1404
791.761	1397
791.864	600
791.968	1010
792.072	1609
792.175	1524
792.279	1041
792.382	1451
792.486	989
792.589	567
792.693	1271
792.796	1361
792.899	965
793.003	1541
793.106	833
793.209	1409
793.313	1063
793.416	649
793.519	708
793.623	1592
793.726	1010
793.829	1701
793.932	1080
794.035	625
794.138	1324
794.242	1079
794.345	1509
794.448	2285
794.551	4374
794.654	12015
794.757	39020
794.860	51347
794.963	7301
795.066	2285
795.169	2013
795.272	1005
795.375	1911
795.477	1145
795.580	759
795.683	657
795.786	742
795.889	-72
795.991	1422
796.094	1414
796.197	577
796.300	1172
796.402	1032
796.505	752
796.608	739
796.710	1200
796.813	1368
796.915	739
797.018	1092
797.120	700
797.223	1237
797.326	1054
797.428	1057
797.530	1063
797.633	177
797.735	731
797.838	1391
797.940	1961
798.042	1430
798.145	1082
798.247	510
798.349	855
798.452	1074
798.554	1047
798.656	553
798.758	800
798.860	552
798.962	509
799.065	161
799.167	-171
799.269	717
799.371	809
799.473	1081
799.575	487
799.677	758
799.779	1205
799.881	474
799.983	1395
800.085	1065
800.187	505
800.289	812
800.390	380
800.492	1120
800.594	756
800.696	689
800.798	772
800.899	345
801.001	75
801.103	358
801.205	733
801.306	510
801.408	460
801.509	393
801.611	695
801.713	1077
801.814	483
801.916	120
802.017	33
802.119	76
802.220	712
802.322	-7
802.423	356
802.525	628
802.626	634
802.727	394
802.829	801
802.930	-36
803.031	1233
803.133	348
803.234	129
803.335	913
803.436	-89
803.538	1184
803.639	155
803.740	1045
803.841	468
803.942	1036
804.043	597
804.144	110
804.245	499
804.346	660
804.447	-67
804.548	789
804.649	-47
804.750	893
804.851	370
804.952	-379
805.053	1102
805.154	353
805.255	414
805.355	338
805.456	982
805.557	555
805.658	286
805.758	424
805.859	631
805.960	535
806.061	419
806.161	236
806.262	369
806.362	845
806.463	18
806.564	962
806.664	74
806.765	831
806.865	236
806.966	745
807.066	266
807.166	575
807.267	642
807.367	110
807.468	1010
807.568	23
807.668	566
807.769	380
807.869	697
807.969	821
808.069	689
808.170	438
808.270	272
808.370	720
808.470	27
808.570	791
808.670	9
808.770	754
808.870	504
808.970	370
809.070	547
809.170	128
809.271	656
809.370	326
809.470	558
809.570	-75
809.670	332
809.770	628
809.870	37
809.970	399
810.070	565
810.169	-40
810.269	-412
810.369	884
810.469	-126
810.568	392
810.668	-68
810.768	162
810.867	478
810.967	226
811.066	-416
811.166	158
811.265	170
811.365	249
811.464	-417
811.564	778
811.663	213
811.763	104
811.862	247
811.962	121
812.061	-125
812.160	-496
812.260	-316
812.359	730
812.458	46
812.557	786
812.657	1951
812.756	2619
812.855	815
812.954	233
813.053	889
813.153	-345
813.252	305
813.351	637
813.450	877
813.549	166
813.648	-336
813.747	-5
813.846	1129
813.945	-90
814.044	-148
814.143	-15
814.242	-360
814.341	136
814.439	-280
814.538	402
814.637	87
814.736	395
814.835	718
814.933	1084
815.032	74
815.131	913
815.229	101
815.328	291
815.427	107
815.525	999
815.624	173
815.722	1288
815.821	1102
815.919	709
816.018	-428
816.116	649
816.215	294
816.313	383
816.412	1153
816.510	-17
816.609	94
816.707	1457
816.805	586
816.904	596
817.002	441
817.100	1288
817.198	1070
817.296	1512
817.395	1170
817.493	1012
817.591	2675
817.689	3331
817.787	3487
817.885	5116
817.983	8288
818.081	15871
818.179	34055
818.277	82110
818.375	174914
818.473	127294
818.571	38551
818.669	16846
818.767	11304
818.865	8505
818.963	10010
819.061	11251
819.158	18131
819.256	31631
819.354	64209
819.452	137290
819.549	228039
819.647	142279
819.745	51626
819.842	23664
819.940	13626
820.038	9122
820.135	6796
820.233	5263
820.330	4014
820.428	2735
820.525	2808
820.623	1786
820.720	1758
820.818	2087
820.915	1167
821.012	1229
821.110	1377
821.207	1134
821.304	1273
821.402	1218
821.499	727
821.596	830
821.693	1057
821.791	823
821.888	741
821.985	920
822.082	112
822.179	627
822.276	409
822.373	512
822.470	213
822.567	456
822.664	334
822.761	143
822.858	-238
822.955	836
823.052	320
823.149	-96
823.246	-135
823.343	158
823.440	387
823.536	-132
823.633	-894
823.730	276
823.827	-122
823.923	-197
824.020	292
824.117	340
824.213	-490
824.310	817
824.407	-462
824.503	849
824.600	17
824.696	30
824.793	407
824.889	-429
824.986	327
825.082	439
825.179	-150
825.275	-547
825.371	58
825.468	153
825.564	-722
825.660	14
825.757	85
825.853	220
825.949	159
826.045	144
826.142	-291
826.238	335
826.334	-98
826.430	106
826.526	-221
826.622	364
826.718	-749
826.814	-187
826.910	-203
827.006	-735
827.102	-924
827.198	543
827.294	-148
827.390	401
827.486	-140
827.582	164
827.678	-722
827.774	319
827.869	361
827.965	359
828.061	-242
828.157	-730
828.252	54
828.348	-281
828.444	-1089
828.539	-146
828.635	-815
828.731	-287
828.826	-958
828.922	-361
829.017	-718
829.113	-509
829.208	-840
829.304	-611
829.399	-58
829.495	-54
829.590	-300
829.685	59
829.781	-14
829.876	-138
829.971	-672
830.066	196
830.162	-190
830.257	-476
830.352	72
830.447	1030
830.543	194
830.638	-733
830.733	-151
830.828	135
830.923	141
831.018	-621
831.113	-356
831.208	-592
831.303	-26
831.398	446
831.493	-242
831.588	-65
831.683	-980
831.778	-354
831.873	-475
831.967	-169
832.062	-604
832.157	-761
832.252	247
832.346	-267
832.441	119
832.536	57
832.631	417
832.725	830
832.820	-222
832.914	-194
833.009	-833
833.104	19
833.198	-106
833.293	-424
833.387	142
833.482	-375
833.576	-1049
833.670	610
833.765	-105
833.859	-445
833.954	-65
834.048	-724
834.142	-565
834.237	-327
834.331	-179
834.425	-692
834.519	-515
834.613	189
834.708	-505
834.802	288
834.896	-712
834.990	50
835.084	-26
835.178	-708
835.272	-255
835.366	-774
835.460	-80
835.554	38
835.648	-58
835.742	-507
835.836	-559
835.930	-509
836.024	-580
836.117	-390
836.211	193
836.305	-171
836.399	108
836.493	-320
836.586	-153
836.680	-991
836.774	-858
836.867	-226
836.961	-1558
837.055	-150
837.148	-547
837.242	277
837.335	-116
837.429	-555
837.522	-229
837.616	140
837.709	-153
837.803	546
837.896	172
837.989	-552
838.083	-198
838.176	196
838.269	237
838.363	736
838.456	-329
838.549	-246
838.642	-765
838.735	478
838.829	619
838.922	-704
839.015	-624
839.108	335
839.201	-480
839.294	192
839.387	-501
839.480	-599
839.573	-471
839.666	-213
839.759	465
839.852	-554
839.945	155
840.038	-758
840.131	-647
840.223	-143
840.316	-506
840.409	-169
840.502	-1294
840.594	-322
840.687	-600
840.780	-648
840.873	-604
840.965	-138
841.058	-343
841.150	-371
841.243	111
841.336	-209
841.428	-341
841.521	-300
841.613	-502
841.706	445
841.798	-625
841.890	440
841.983	-1057
842.075	-334
842.167	-584
842.260	-307
842.352	-385
842.444	-379
842.537	-94
842.629	745
842.721	564
842.813	-427
842.905	-451
842.997	159
843.090	-282
843.182	-494
843.274	-880
843.366	607
843.458	1929
843.550	3838
843.642	1052
843.734	-241
843.826	-882
843.918	-563
844.009	-561
844.101	-882
844.193	-491
844.285	-1057
844.377	-360
844.469	-2
844.560	-88
844.652	-421
844.744	-146
844.835	-234
844.927	-675
845.019	-58
845.110	218
845.202	-272
845.293	-458
845.385	-260
845.476	-808
845.568	109
845.659	-652
845.751	187
845.842	-905
845.934	-546
846.025	-949
846.116	-477
846.208	-365
846.299	-397
846.390	-329
846.482	-40
846.573	-710
846.664	-152
846.755	-163
846.846	-489
846.937	-1141
847.029	-243
847.120	-651
847.211	-18
847.302	47
847.393	-807
847.484	-419
847.575	-730
847.666	-1115
847.757	-480
847.847	-57
847.938	109
848.029	-483
848.120	-1075
848.211	-1072
848.302	-787
848.392	-595
848.483	-566
848.574	-752
848.664	-18
848.755	-758
848.846	-758
848.936	-720
849.027	-355
849.118	-873
849.208	-442
849.299	-907
849.389	-425
849.480	10
849.570	-454
849.661	-551
849.751	490
849.841	-474
849.932	-215
850.022	-740
850.112	109
850.203	-372
850.293	-381
850.383	-881
850.474	-783
850.564	-586
850.654	-648
850.744	-773
850.834	-427
850.924	-811
851.014	-550
851.104	-694
851.194	-541
851.284	-1029
851.374	-59
851.464	-1091
851.554	-218
851.644	-765
851.734	-265
851.824	-199
851.914	623
852.004	1011
852.094	2164
852.183	1454
852.273	240
852.363	-481
852.452	-576
852.542	-472
852.632	-834
852.721	-649
852.811	-1088
852.901	-944
852.990	-1052
853.080	-542
853.169	-59
853.259	-980
853.348	-504
853.438	-761
853.527	-712
853.617	-703
853.706	-383
853.795	-1172
853.885	531
853.974	-1
854.063	484
854.152	1286
854.242	2974
854.331	348
854.420	-437
854.509	-121
854.598	-616
854.687	-480
854.777	-579
854.866	-345
854.955	-920
855.044	-987
855.133	-590
855.222	-545
855.311	-631
855.400	-737
855.488	-1277
855.577	-1172
855.666	-1103
855.755	-313
855.844	-1103
855.933	-585
856.021	-1193
856.110	-844
856.199	-284
856.288	-919
856.376	-1080
856.465	-1102
856.554	-821
856.642	-572
856.731	-25
856.819	-688
856.908	-345
856.996	-1095
857.085	-1588
857.173	-792
857.262	-325
857.350	-526
857.438	-511
857.527	-596
857.615	-645
857.703	-901
857.792	58
857.880	-1275
857.968	-717
858.056	-902
858.145	-546
858.233	-795
858.321	-437
858.409	-711
858.497	-483
858.585	-433
858.673	-252
858.761	-986
858.849	-1296
858.937	-689
859.025	-169
859.113	-610
859.201	-795
859.289	-999
859.377	-424
859.465	-1026
859.552	-584
859.640	-1219
859.728	-625
859.816	-53
859.903	-407
859.991	-1063
860.079	-838
860.166	-981
860.254	-298
860.342	-214
860.429	-685
860.517	-1187
860.604	-492
860.692	-684
860.779	-616
860.867	-1190
860.954	-820
861.042	-1415
861.129	-885
861.216	-501
861.304	-339
861.391	-698
861.478	-1586
861.565	-820
861.653	-502
861.740	-1488
861.827	-133
861.914	-97
862.001	-1182
862.089	-275
862.176	-28
862.263	-417
862.350	-651
862.437	-848
862.524	-1265
862.611	-1034
862.698	-520
862.785	-879
862.871	-641
862.958	-686
863.045	-1120
863.132	-1184
863.219	-665
863.306	-856
863.392	-1062
863.479	-498
863.566	-945
863.652	-777
863.739	-662
863.826	-470
863.912	-349
863.999	-1483
864.086	-1252
864.172	-1384
864.259	-1121
864.345	-729
864.432	-1047
864.518	-852
864.604	-1465
864.691	-751
864.777	-598
864.863	-1077
864.950	-1322
865.036	-1474
865.122	-282
865.209	-197
865.295	-997
865.381	-1440
865.467	-744
865.553	-990
865.639	-801
865.726	-566
865.812	119
865.898	-652
865.984	-321
866.070	-672
866.156	1001
866.242	1070
866.328	-362
866.414	-1084
866.499	-1347
866.585	-1333
866.671	-385
866.757	-57
866.843	-70
866.928	-1003
867.014	-1046
867.100	-752
867.186	-1316
867.271	-987
867.357	114
867.442	-262
867.528	44
867.614	-939
867.699	-1210
867.785	-762
867.870	-908
867.956	-1394
868.041	-812
868.127	-140
868.212	-367
868.297	-636
868.383	-724
868.468	-878
868.553	172
868.639	289
868.724	-298
868.809	509
868.894	-348
868.979	-321
869.065	-462
869.150	-1030
869.235	-835
869.320	-1033
869.405	-1234
869.490	-814
869.575	-309
869.660	-385
869.745	-654
869.830	-1125
869.915	-1281
870.000	-515
870.085	-612
870.169	-1613
870.254	-1371
870.339	-1252
870.424	-1265
870.509	-842
870.593	143
870.678	-876
870.763	-428
870.847	-578
870.932	-1302
871.016	-543
871.101	-1499
871.186	-832
871.270	-995
871.355	-910
871.439	-671
871.523	-838
871.608	-959
871.692	-1131
871.777	-559
871.861	-872
871.945	-848
872.030	-777
872.114	-475
872.198	-1509
872.282	-1471
872.367	-284
872.451	-294
872.535	-1230
872.619	-421
872.703	-1364
872.787	-1455
872.871	-1750
872.955	-1836
873.039	-1101
873.123	-1509
873.207	-1460
873.291	-744
873.375	-970
873.459	-854
873.543	-491
873.627	-1148
873.711	-930
873.794	-694
873.878	-1711
873.962	-1010
874.045	-822
874.129	-605
874.137	-576
874.213	-287
874.245	-663
874.296	-1268
874.352	-1199
874.380	-1166
874.460	-1117
874.464	-1116
874.547	-1208
874.568	-1156
874.631	-1009
874.676	-662
874.714	-373
874.784	-576
874.798	-615
874.881	-43
874.892	-147
874.965	-889
874.999	-1133
875.048	-1488
875.107	-1230
875.131	-1108
875.215	-310
875.215	-311
875.298	-1180
875.323	-1215
875.381	-1251
875.430	-1191
875.465	-1148
875.538	-1283
875.548	-1301
875.631	-1213
875.646	-1028
875.714	-264
875.753	-820
875.798	-1363
875.861	-881
875.881	-752
875.964	-459
875.968	-457
876.047	-367
876.076	-320
876.130	-302
876.183	-401
876.213	-421
876.291	-462
876.296	-465
876.379	-960
876.398	-975
876.462	-1024
876.506	-945
876.545	-925
876.613	-536
876.628	-406
876.711	-992
876.721	-917
876.794	-576
876.828	-717
876.877	-870
876.935	-743
876.960	-662
877.043	-167
877.043	-167
877.125	-81
877.150	-151
877.208	-442
877.258	-506
877.291	-500
877.365	-563
877.374	-568
877.456	-795
877.472	-872
877.539	-1182
877.579	-829
877.622	-491
877.687	-648
877.704	-664
877.787	-610
877.794	-590
877.869	-521
877.901	-358
877.952	41
878.008	-341
878.034	-528
878.115	-638
878.117	-644
878.199	-1092
878.222	-914
878.282	-197
878.329	-490
878.364	-833
878.437	-309
878.447	-198
878.529	-458
878.544	-397
878.611	-341
878.651	-347
878.694	-173
878.758	-292
878.776	-365
878.858	-346
878.865	-355
878.941	-560
878.972	-652
879.023	-644
879.078	-337
879.105	-265
879.185	-543
879.187	-543
879.269	-929
879.292	-744
879.351	-345
879.399	-242
879.433	-219
879.506	-366
879.516	-375
879.598	-273
879.613	-303
879.680	-416
879.720	-278
879.762	-70
879.827	-498
879.844	-617
879.926	-2
879.933	-35
880.007	-663
880.040	-864
880.089	-792
880.147	-528
880.171	-422
880.253	204
880.254	203
880.335	115
880.360	70
880.417	72
880.467	-6
880.499	25
880.574	847
880.580	904
880.662	827
880.680	673
880.744	51
880.787	42
880.825	-60
880.893	-455
880.907	-411
880.989	-306
881.000	-221
881.070	24
881.106	-10
881.152	-76
881.213	-103
881.233	-129
881.315	-138
881.319	-161
881.396	-223
881.426	-134
881.478	-136
881.532	-39
881.559	47
881.639	-361
881.641	-370
881.722	-223
881.745	-207
881.803	-81
881.852	-179
881.885	-177
881.958	-214
881.966	-233
882.047	171
882.064	57
882.129	-380
882.171	-353
882.210	-239
882.277	71
882.291	168
882.372	597
882.383	607
882.454	137
882.489	-72
882.535	-53
882.596	-128
882.616	-148
882.697	116
882.702	113
882.778	113
882.808	102
882.859	-81
882.914	19
882.940	57
883.020	-246
883.021	-243
883.102	-57
883.127	-3
883.183	101
883.233	-52
883.264	-241
883.339	67
883.345	121
883.426	-42
883.445	124
883.507	544
883.551	467
883.587	280
883.657	274
883.668	305
883.749	182
883.763	159
883.830	259
883.869	354
883.910	352
883.975	296
883.991	240
884.072	-61
884.081	-104
884.152	-251
884.187	-219
884.233	-82
884.292	-23
884.314	26
884.394	557
884.398	541
884.475	259
884.504	364
884.555	462
884.610	474
884.636	425
884.716	191
884.716	195
884.797	179
884.821	197
884.877	173
884.927	85
884.958	131
885.033	372
885.038	371
885.118	198
885.139	166
885.199	443
885.244	510
885.279	501
885.350	735
885.359	723
885.439	453
885.456	371
885.520	448
885.561	481
885.600	472
885.667	494
885.680	428
885.760	89
885.773	12
885.840	47
885.878	166
885.920	232
885.984	189
886.000	272
886.080	637
886.089	669
886.160	416
886.195	310
886.240	395
886.300	533
886.320	436
886.400	-54
886.406	-88
886.480	350
886.511	524
886.560	785
886.616	1156
886.640	1035
886.720	319
886.722	299
886.800	329
886.827	341
886.879	501
886.932	653
886.959	679
887.038	772
887.039	780
887.119	768
887.143	800
887.198	236
887.248	-319
887.278	-95
887.354	434
887.358	426
887.437	134
887.459	57
887.517	505
887.564	918
887.596	1008
887.669	1129
887.676	1110
887.755	775
887.774	700
887.835	1036
887.880	1262
887.914	1126
887.985	848
887.994	854
888.073	839
888.090	836
888.153	421
888.195	89
888.232	58
888.300	19
888.311	69
888.391	472
888.405	533
888.470	803
888.510	935
888.549	688
888.615	353
888.628	405
888.708	606
888.720	636
888.787	439
888.825	323
888.866	339
888.930	384
888.945	437
889.024	676
889.035	708
889.103	772
889.140	758
889.182	332
889.245	-224
889.261	-73
889.340	601
889.349	674
889.419	1029
889.454	1209
889.498	926
889.559	523
889.577	512
889.656	442
889.664	435
889.735	422
889.768	414
889.814	815
889.873	1344
889.978	1357
890.083	917
890.187	950
890.292	1128
890.397	1103
890.501	504
890.606	962
890.710	231
890.815	694
890.919	970
891.024	488
891.128	1214
891.233	693
891.337	715
891.442	905
891.546	1133
891.650	1903
891.755	638
891.859	1495
891.963	993
892.068	42
892.172	1087
892.276	570
892.380	1058
892.484	202
892.589	808
892.693	944
892.797	1211
892.901	702
893.005	459
893.109	414
893.213	1115
893.317	735
893.421	1069
893.525	271
893.629	708
893.733	381
893.837	1285
893.941	928
894.045	1424
894.148	834
894.252	2169
894.356	2252
894.460	1271
894.564	463
894.667	827
894.771	-95
894.875	1603
894.978	852
895.082	296
895.186	858
895.289	-228
895.393	605
895.496	990
895.600	660
895.703	592
895.807	1058
895.910	786
896.014	1224
896.117	965
896.221	858
896.324	460
896.427	983
896.531	586
896.634	418
896.737	1100
896.840	108
896.944	536
897.047	-138
897.150	1175
897.253	351
897.356	994
897.460	1001
897.563	1019
897.666	287
897.769	1087
897.872	854
897.975	1000
898.078	1430
898.181	847
898.284	482
898.387	982
898.490	804
898.593	1059
898.695	776
898.798	1123
898.901	188
899.004	1648
899.107	384
899.209	263
899.312	568
899.415	830
899.518	1729
899.620	753
899.723	696
899.826	367
899.928	833
900.031	-51
900.133	811
900.236	1152
900.338	583
900.441	532
900.543	-70
900.646	427
900.748	729
900.851	1008
900.953	460
901.055	1242
901.158	463
901.260	857
901.362	-347
901.465	914
901.567	318
901.669	969
901.771	584
901.873	-108
901.976	-268
902.078	1141
902.180	722
902.282	1178
902.384	844
902.486	354
902.588	668
902.690	-240
902.792	432
902.894	783
902.996	147
903.098	287
903.200	473
903.302	1118
903.404	421
903.505	816
903.607	159
903.709	1210
903.811	419
903.913	691
904.014	410
904.116	505
904.218	749
904.319	642
904.421	394
904.523	1107
904.624	191
904.726	1147
904.827	1128
904.929	587
905.030	-10
905.132	512
905.233	431
905.335	1218
905.436	110
905.537	1272
905.639	752
905.740	1186
905.841	817
905.943	1106
906.044	945
906.145	387
906.247	934
906.348	483
906.449	-14
906.550	1159
906.651	1031
906.752	1161
906.854	1149
906.955	596
907.056	445
907.157	1
907.258	-99
907.359	627
907.460	910
907.561	1377
907.662	832
907.762	942
907.863	696
907.964	1027
908.065	241
908.166	647
908.267	269
908.367	663
908.468	740
908.569	523
908.670	741
908.770	1660
908.871	502
908.971	982
909.072	114
909.173	516
909.273	138
909.374	311
909.474	657
909.575	631
909.675	291
909.776	909
909.876	805
909.977	1193
910.077	623
910.177	564
910.278	789
910.378	766
910.478	-176
910.579	307
910.679	625
910.779	785
910.879	538
910.980	817
911.080	-131
911.180	1562
911.280	344
911.380	797
911.480	132
911.580	230
911.680	-73
911.780	1022
911.880	272
911.980	-207
912.080	662
912.180	899
912.280	346
912.380	1264
912.480	128
912.580	768
912.679	422
912.779	1117
912.879	25
912.979	916
913.078	393
913.178	853
913.278	376
913.377	829
913.477	567
913.577	1007
913.676	1222
913.776	-119
913.875	574
913.975	521
914.074	572
914.174	1043
914.273	276
914.373	220
914.472	-619
914.572	-79
914.671	1227
914.770	761
914.870	-46
914.969	902
915.068	1135
915.167	999
915.267	878
915.366	497
915.465	1088
915.564	1013
915.663	-86
915.763	616
915.862	587
915.961	1173
916.060	-109
916.159	670
916.258	35
916.357	1024
916.456	557
916.555	299
916.654	-412
916.752	368
916.851	-167
916.950	757
917.049	637
917.148	474
917.247	826
917.345	556
917.444	556
917.543	209
917.642	581
917.740	528
917.839	117
917.937	503
918.036	854
918.135	-2
918.233	735
918.332	-602
918.430	-190
918.529	462
918.627	-147
918.726	219
918.824	446
918.923	418
919.021	-118
919.119	1202
919.218	-431
919.316	404
919.414	683
919.512	50
919.611	448
919.709	782
919.807	553
919.905	871
920.003	240
920.102	533
920.200	-286
920.298	180
920.396	422
920.494	589
920.592	168
920.690	268
920.788	369
920.886	546
920.984	18
921.082	590
921.180	635
921.277	381
921.375	221
921.473	207
921.571	-161
921.669	972
921.766	494
921.864	306
921.962	369
922.060	608
922.157	434
922.255	423
922.352	39
922.450	809
922.548	-59
922.645	306
922.743	96
922.840	731
922.938	304
923.035	729
923.133	-522
923.230	846
923.327	1011
923.425	458
923.522	965
923.619	37
923.717	714
923.814	114
923.911	-229
924.008	92
924.106	-179
924.203	531
924.300	196
924.397	47
924.494	-531
924.591	326
924.688	762
924.786	18
924.883	243
924.979	619
925.077	366
925.173	150
925.270	329
925.367	717
925.464	702
925.561	-231
925.658	673
925.755	-87
925.852	374
925.948	-94
926.045	516
926.142	519
926.239	565
926.335	399
926.432	292
926.529	505
926.625	162
926.722	127
926.818	-109
926.915	838
927.011	-173
927.108	-250
927.204	-68
927.301	536
927.397	350
927.494	1092
927.590	396
927.687	193
927.783	50
927.879	-2
927.976	113
928.072	250
928.168	-167
928.264	-264
928.361	95
928.457	276
928.553	-595
928.649	117
928.745	9
928.841	738
928.937	322
929.033	-167
929.129	-550
929.225	404
929.321	-36
929.417	498
929.513	262
929.609	-49
929.705	-240
929.801	206
929.897	208
929.993	-21
930.089	-54
930.184	627
930.280	493
930.376	714
930.471	291
930.567	88
930.663	513
930.758	469
930.854	-211
930.950	562
931.045	-425
931.141	61
931.236	206
931.332	515
931.427	579
931.523	243
931.618	700
931.714	644
931.809	-190
931.905	555
932.000	331
932.095	530
932.191	540
932.286	116
932.381	-184
932.476	-115
932.572	-246
932.667	146
932.762	63
932.857	751
932.952	5
933.047	92
933.142	-90
933.237	643
933.332	536
933.427	115
933.522	-276
933.617	590
933.712	-375
933.807	404
933.902	149
933.997	814
934.092	315
934.187	-57
934.282	623
934.376	-208
934.471	484
934.566	180
934.661	474
934.755	719
934.850	100
934.945	1022
935.039	395
935.134	608
935.228	765
935.323	-31
935.417	100
935.512	-220
935.606	225
935.701	-25
935.795	-88
935.890	309
935.984	657
936.079	528
936.173	-395
936.267	775
936.362	-809
936.456	74
936.550	-129
936.644	1014
936.738	654
936.833	100
936.927	-224
937.021	19
937.115	402
937.209	307
937.303	-119
937.397	425
937.491	308
937.585	124
937.679	530
937.773	788
937.867	-574
937.961	311
938.055	-262
938.149	703
938.243	796
938.337	823
938.430	-161
938.524	-154
938.618	-326
938.712	776
938.805	66
938.899	496
938.993	214
939.086	154
939.180	-320
939.274	644
939.367	-302
939.461	396
939.554	1047
939.648	642
939.741	29
939.835	385
939.928	694
940.022	200
940.115	-282
940.208	-84
940.302	-151
940.395	1426
940.488	82
940.582	-105
940.675	-467
940.768	386
940.861	-262
940.954	563
941.048	-26
941.141	703
941.234	-996
941.327	653
941.420	-84
941.513	769
941.606	-215
941.699	721
941.792	223
941.885	-531
941.978	86
942.071	456
942.164	-621
942.257	609
942.349	-261
942.442	205
942.535	-162
942.628	681
942.721	25
942.813	865
942.906	85
942.999	399
943.091	-510
943.184	302
943.277	749
943.369	346
943.462	-209
943.554	-602
943.647	-342
943.739	-18
943.832	-168
943.924	-55
944.017	7
944.109	-1202
944.201	78
944.294	502
944.386	-515
944.478	111
944.571	-105
944.663	-63
944.755	308
944.847	-686
944.940	332
945.032	-83
945.124	627
945.216	754
945.308	-52
945.400	421
945.492	-85
945.584	114
945.676	-452
945.768	656
945.860	36
945.952	176
946.044	-205
946.136	167
946.228	-505
946.320	834
946.412	427
946.503	322
946.595	-109
946.687	227
946.779	323
946.870	312
946.962	-327
947.054	436
947.145	415
947.237	-563
947.329	395
947.420	-147
947.512	-453
947.603	-711
947.695	-249
947.786	1090
947.878	-416
947.969	839
948.061	195
948.152	58
948.243	-475
948.335	98
948.426	-324
948.517	-40
948.609	-35
948.700	-301
948.791	-163
948.882	-152
948.973	-396
949.065	-108
949.156	601
949.247	-523
949.338	-831
949.429	-439
949.520	-854
949.611	-573
949.702	-344
949.793	274
949.884	941
949.975	219
950.066	-217
950.157	-175
950.247	-392
950.338	124
950.429	-84
950.520	144
950.611	-269
950.701	-458
950.792	291
950.883	292
950.973	-87
951.064	106
951.155	523
951.245	52
951.336	-205
951.427	-977
951.517	53
951.608	343
951.698	-621
951.788	-75
951.879	-684
951.969	-422
952.060	-201
952.150	269
952.240	383
952.331	-360
952.421	407
952.511	-233
952.602	-425
952.692	-137
952.782	121
952.872	-200
952.962	-673
953.052	-230
953.143	237
953.233	-148
953.323	-521
953.413	329
953.503	-239
953.593	235
953.683	-756
953.773	-223
953.863	-1671
953.953	-376
954.042	224
954.132	-212
954.222	-439
954.312	-114
954.402	-318
954.492	-253
954.581	-259
954.671	489
954.761	320
954.850	310
954.940	172
955.030	238
955.119	-993
955.209	-1122
955.298	-641
955.388	-273
955.477	-163
955.567	-517
955.656	-79
955.746	-675
955.835	-784
955.925	123
956.014	-1097
956.103	564
956.193	-879
956.282	-631
956.371	-1020
956.461	-467
956.550	39
956.639	-518
956.728	13
956.817	266
956.906	173
956.995	-213
957.085	-781
957.174	441
957.263	-347
957.352	-159
957.441	-641
957.530	-207
957.619	-270
957.708	285
957.796	-707
957.885	-763
957.974	-932
958.063	-231
958.152	-534
958.241	765
958.329	-424
958.418	463
958.507	-708
958.596	-741
958.684	-448
958.773	-558
958.861	-1239
958.950	-215
959.039	-99
959.127	-131
959.216	-338
959.304	65
959.393	-34
959.481	-59
959.570	-421
959.658	-453
959.746	-800
959.835	-374
959.923	-87
960.011	-587
960.100	-313
960.188	-552
960.276	-733
960.365	-1058
960.453	-475
960.541	-668
960.629	-1007
960.717	-973
960.805	-406
960.893	-856
960.981	-305
961.069	-511
961.158	-383
961.245	387
961.333	-445
961.421	-708
961.509	-786
961.597	-158
961.685	-373
961.773	-840
961.861	-602
961.949	-1028
962.036	-679
962.124	-10
962.212	-704
962.299	-232
962.387	-477
962.475	-442
962.562	-1467
962.650	-865
962.738	-228
962.825	-322
962.913	-196
963.000	-794
963.088	-325
963.175	-349
963.263	-598
963.350	-566
963.438	-403
963.525	126
963.612	-575
963.700	-739
963.787	754
963.874	994
963.962	-667
964.049	-3
964.136	-734
964.223	-1156
964.310	-417
964.398	-331
964.485	-1041
964.572	-933
964.659	-512
964.746	488
964.833	-575
964.920	-205
965.007	-255
965.094	-192
965.181	-1020
965.268	-912
965.355	-542
965.441	-839
965.528	-417
965.615	-213
965.702	-970
965.789	-832
965.875	-842
965.962	-404
966.049	-1126
966.136	182
966.222	-868
966.309	-300
966.395	-1329
966.482	-647
966.569	-767
966.655	-866
966.742	-1072
966.828	170
966.915	-1047
967.001	-470
967.087	-1449
967.174	-1128
967.260	-742
967.347	-866
967.433	-271
967.519	430
967.605	719
967.692	-206
967.778	-189
967.864	-633
967.950	-348
968.036	-355
968.123	100
968.209	-483
968.295	-1265
968.381	-620
968.467	-743
968.553	-186
968.639	-137
968.725	-290
968.811	-1145
968.897	-667
968.983	-1463
969.069	-188
969.154	-266
969.240	-40
969.326	-1409
969.412	-917
969.497	-835
969.583	-906
969.669	-125
969.755	-471
969.840	-438
969.926	-123
970.012	-233
970.097	-624
970.183	-676
970.268	-1027
970.354	-752
970.439	-1218
970.525	-271
970.610	-24
970.696	-309
970.781	-777
970.866	-1553
970.952	-566
971.037	-815
971.122	-656
971.208	-327
971.293	-672
971.378	-1065
971.463	82
971.549	-780
971.634	-569
971.719	-322
971.804	-999
971.889	-378
971.974	-797
972.059	-705
972.144	-493
972.229	-848
972.314	-979
972.399	-870
972.484	-703
972.569	-675
972.654	-625
972.739	-777
972.824	-596
972.908	-346
972.993	-534
973.078	-415
973.163	-174
973.247	-1189
973.332	-384
973.417	-396
973.501	-511
973.586	-1652
973.671	-742
973.755	307
973.840	-52
973.924	-512
974.009	-394
974.093	-1209
974.178	841
974.262	-185
974.346	-634
974.431	-198
974.515	-636
974.600	-576
974.684	-430
974.768	-719
974.852	-860
974.937	-1151
975.021	-1013
975.105	-883
975.189	-696
975.273	-902
975.358	-877
975.442	-876
975.526	-583
975.610	-384
975.694	-349
975.778	-678
975.862	-30
975.946	-1521
976.030	-444
976.114	-1363
976.198	-256
976.281	-581
976.365	-480
976.449	-512
976.533	-171
976.617	-535
976.700	-719
976.784	-445
976.868	-257
976.951	-775
977.035	-100
977.119	-987
977.202	-457
977.286	-1658
977.369	128
977.453	-307
977.536	146
977.620	-1403
977.703	-713
977.787	-500
977.870	429
977.953	-871
978.037	-664
978.120	151
978.203	8
978.287	-932
978.370	-193
978.453	-673
978.536	-800
978.620	-730
978.703	-469
978.786	-166
978.869	-202
978.952	-838
979.035	245
979.118	-372
979.201	-480
979.284	-964
979.367	-363
979.450	-1067
979.533	-1049
979.616	-1372
979.699	-519
979.782	-1100
979.865	-993
979.948	-378
980.030	-698
980.113	-702
980.196	-561
980.279	-1311
980.361	-457
980.444	-847
980.526	-769
980.609	-632
980.692	-919
980.774	165
980.857	-412
980.939	-444
981.022	-345
981.104	-195
981.187	-518
981.269	-505
981.352	-960
981.434	-503
981.516	-205
981.599	-91
981.681	-310
981.763	-769
981.846	-675
981.928	-723
982.010	-538
982.092	-841
982.174	-180
982.256	-272
982.339	21
982.421	-933
982.503	-923
982.585	-966
982.667	-337
982.749	-219
982.831	-399
982.913	-1719
982.995	-677
983.077	-792
983.158	-424
983.240	-1141
983.322	-83
983.404	-543
983.486	-488
983.568	-388
983.649	-305
983.731	-823
983.813	-1090
983.894	-1152
983.976	-988
984.058	-718
984.139	-753
984.221	-725
984.302	334
984.384	-1453
984.465	-1289
984.547	-1486
984.628	-1338
984.710	-1078
984.791	-821
984.872	-335
984.954	-24
985.035	-780
985.116	-424
985.198	-1249
985.279	-1168
985.360	-699
985.441	-277
985.522	-275
985.604	-381
985.685	-1897
985.766	636
985.847	-814
985.928	-1346
986.009	-943
986.090	-509
986.171	-1130
986.252	147
986.333	-1014
986.414	-322
986.495	-317
986.576	-792
986.656	-1253
986.737	-693
986.818	-745
986.899	-374
986.980	-1221
987.060	-479
987.141	-531
987.222	-591
987.302	-1161
987.383	-805
987.464	-1282
987.544	-688
987.625	-1199
987.705	-328
987.786	-147
987.866	-230
987.947	-606
988.027	-273
988.108	-1831
988.188	-1097
988.268	-456
988.349	-537
988.429	-493
988.509	-799
988.589	-1009
988.670	-1198
988.750	-1018
988.830	-1427
988.910	-1127
988.990	-1467
989.070	-1440
989.151	-281
989.231	-1669
989.311	-614
989.391	-1998
989.471	-491
989.551	-661
989.631	-1148
989.711	-640
989.791	-947
989.870	-1645
989.950	-738
990.030	-2107
990.110	-995
990.190	-1358
990.269	-1316
990.349	-1698
990.429	-1648
990.509	-993
990.588	-1609
990.668	-1791
990.747	-1382
990.827	-2127
990.907	-1295
990.986	-576
991.066	-857
991.145	-1865
991.225	-843
991.304	-1059
991.383	-797
991.463	-857
991.542	-2145
991.622	-989
991.701	-1133
991.780	-1538
991.859	-1285
991.939	-1934
992.018	-1406
992.097	-1023
992.176	-755
992.256	-1287
992.335	-1654
992.414	-1013
992.493	-1088
992.572	-1938
992.651	-497
992.730	-1228
992.809	-907
992.888	-2356
992.967	-1034
993.046	-1650
993.125	-1121
993.203	-1480
993.282	-1193
993.361	-1206
993.440	-1473
993.519	-1881
993.597	-823
993.676	-2265
993.755	281
993.834	-728
993.912	-1134
993.991	-2043
994.069	-1020
994.148	-1550
994.226	-1640
994.305	-1656
994.384	-1659
994.462	-1056
994.540	-890
994.619	-1473
994.697	-1473
994.776	-1549
994.854	-1456
994.932	-1606
995.011	-1176
995.089	-1277
995.167	-1498
995.245	-1278
995.324	-1472
995.402	-1214
995.480	-1643
995.558	-1077
995.636	-1344
995.714	-2330
995.792	-1753
995.870	-1988
995.948	-1650
996.026	-1718
996.104	-1864
996.182	-1214
996.260	-1479
996.338	-1832
996.416	-2174
996.494	-2185
996.572	-750
996.649	-1621
996.727	-2204
996.805	-1623
996.883	-1685
996.960	-1710
997.038	-1202
997.116	-798
997.193	-2102
997.271	-821
997.348	-1535
997.426	-993
997.504	-1287
997.581	-1498
997.658	-2073
997.736	-1655
997.813	-1167
997.891	-1448
997.968	-2372
998.046	-2418
998.123	-1413
998.200	-1448
998.277	-1591
998.355	-721
998.432	-1876
998.509	-2007
998.586	-2085
998.663	-1326
998.741	-1518
998.818	-1169
998.895	-1515
998.972	-1527
999.049	-946
999.126	-2823
999.203	-1523
999.280	-1507
999.357	-1421
999.434	-1708
999.511	-1500
999.587	-1041
999.664	-2250
999.741	-1743
999.818	-2018
999.895	-1578
999.971	-1620
1000.048	-1414
1000.125	-1317
1000.202	-2512
1000.278	-1985
1000.355	-1590
1000.431	-1624
1000.508	-1876
1000.584	-1310
1000.661	-1615
1000.738	-1712
1000.814	-2054
1000.890	-2059
1000.967	-1809
1001.043	-1765
1001.120	-2233
1001.196	-1302
1001.272	-1874
1001.349	-1835
1001.425	-1917
1001.501	-1922
1001.577	-2330
1001.654	-884
1001.730	-1336
1001.806	-1686
1001.882	-2610
1001.958	-1444
1002.034	-1835
1002.110	-1835
1002.186	-2813
1002.262	-1331
1002.338	-2441
1002.414	-1009
1002.490	-1746
1002.566	-1131
1002.642	-1869
1002.718	-1518
1002.794	-2198
1002.870	-1620
1002.945	-2395
1003.021	-1437
1003.097	-2055
1003.173	-1577
1003.248	-2209
1003.324	-1486
1003.400	-1490
1003.475	-2183
1003.551	-1894
1003.626	-2041
1003.702	-1747
1003.777	-1810
1003.853	-2485
1003.928	-1431
1004.004	-2646
1004.079	-1765
1004.155	-1983
1004.230	-1517
1004.305	-1612
1004.381	-1611
1004.456	-1873
1004.531	-2126
1004.607	-1397
1004.682	-2314
1004.757	-1801
1004.832	-1423
1004.907	-1496
1004.982	-1212
1005.057	-1957
1005.133	-1357
1005.208	-2028
1005.283	-952
1005.358	-1546
1005.433	-1805
1005.508	-2250
1005.583	-1333
1005.657	-2074
1005.732	-1459
1005.807	-2738
1005.882	-1392
1005.957	-1453
1006.032	-1021
1006.106	-1330
1006.181	-1451
1006.256	-1222
1006.331	-2376
1006.405	-2729
1006.480	-2041
1006.554	-1830
1006.629	-1296
1006.704	-2236
1006.778	-2108
1006.853	-1996
1006.927	-2542
1007.002	-1843
1007.076	-1706
1007.150	-1852
1007.225	-1230
1007.299	-1877
1007.373	-2428
1007.448	-1657
1007.522	-1395
1007.596	-2048
1007.671	-1966
1007.745	-2108
1007.819	-1455
1007.893	-2317
1007.967	-1631
1008.041	-2034
1008.115	-1390
1008.190	-2110
1008.264	-1640
1008.338	-2569
1008.412	-1785
1008.486	-2544
1008.560	-967
1008.633	-2437
1008.707	-2089
1008.781	-1212
1008.855	-2334
1008.929	-1785
1009.003	-1727
1009.076	-1381
1009.150	-1579
1009.224	-2002
1009.298	-1868
1009.371	-1693
1009.445	-970
1009.519	-1809
1009.592	-2128
1009.666	-1915
1009.739	-1682
1009.813	-2637
1009.886	-1485
1009.960	-1681
1010.033	-1414
1010.107	-444
1010.180	-1523
1010.253	-1828
1010.327	-1678
1010.400	-1875
1010.473	-1792
1010.547	-1142
1010.620	-1402
1010.693	-1309
1010.766	-1633
1010.840	-1199
1010.913	-1108
1010.986	-1102
1011.059	-1239
1011.132	-1607
1011.205	-1516
1011.278	-815
1011.351	-1082
1011.424	-1351
1011.497	-1801
1011.570	-1411
1011.643	-1090
1011.716	-1731
1011.789	-1821
1011.862	-2462
1011.934	-923
1012.007	-2502
1012.080	-449
1012.153	-1508
1012.225	-754
1012.298	-2169
1012.371	-1396
1012.443	-1673
1012.516	-1194
1012.588	-1799
1012.661	-1351
1012.733	-1663
1012.806	-481
1012.879	-1534
1012.951	-666
1013.023	-1717
1013.096	-1713
1013.168	-2461
1013.241	-1052
1013.313	-1400
1013.385	-2137
1013.458	-1960
1013.530	-2239
1013.602	-1635
1013.674	-1006
1013.746	-1489
1013.819	-1585
1013.891	-1216
1013.963	-1737
1014.035	-1819
1014.107	-1304
1014.179	-2273
1014.251	-1277
1014.323	-1739
1014.395	-1641
1014.467	-1041
1014.539	-1234
1014.611	-2038
1014.683	-2074
1014.754	-1093
1014.826	-1466
1014.898	-1967
1014.970	-1369
1015.042	-1660
1015.113	-1156
1015.185	-1734
1015.257	-1557
1015.328	-1944
1015.400	-1715
1015.471	-1712
1015.543	-1519
1015.615	-1856
1015.686	-1349
1015.757	-1804
1015.829	-1931
1015.901	-1743
1015.972	-2395
1016.043	-1718
1016.115	-1056
1016.186	-1133
1016.257	-1422
1016.328	-1715
1016.400	-1865
1016.471	-1551
1016.542	-2153
1016.613	-1480
1016.685	-1054
1016.756	-2067
1016.827	-1318
1016.898	-2582
1016.969	-1068
1017.040	-2267
1017.111	-1588
1017.182	-1623
1017.253	-676
1017.324	-1929
1017.395	-954
1017.466	-1516
1017.537	-1318
1017.608	-1749
1017.678	-1470
1017.749	-2582
1017.820	-1245
1017.891	-1269
1017.961	-1845
1018.032	-1791
1018.103	-1375
1018.173	-2323
1018.244	-1396
1018.315	-1340
1018.385	-1591
1018.456	-1278
1018.526	-1592
1018.597	-1981
1018.667	-1177
1018.738	-1797
1018.808	-2184
1018.878	-1645
1018.949	-1530
1019.019	-1070
1019.089	-1474
1019.160	-2701
1019.230	-2105
1019.300	-1698
1019.371	-1797
1019.441	-1225
1019.511	-1812
1019.581	-1890
1019.651	-1403
1019.721	-1726
1019.791	-1700
1019.861	-2095
1019.931	-1143
1020.001	-2116
1020.071	-1319
1020.141	-1578
1020.211	-1998
1020.281	-1717
1020.351	-2078
1020.421	-1108
1020.491	-1812
1020.560	-2218
1020.630	-1116
1020.700	-1795
1020.770	-1954
1020.839	-1652
1020.909	-1671
1020.979	-1482
1021.048	-1173
1021.118	-2417
1021.187	-1403
1021.257	-2220
1021.326	-1703
1021.396	-1412
1021.465	-1316
1021.535	-2570
1021.604	-1867
1021.674	-2093
1021.743	-1775
1021.812	-2206
1021.882	-1613
1021.951	-1392
1022.020	-1700
1022.089	-1838
1022.159	-2357
1022.228	-1841
1022.297	-2179
1022.366	-1068
1022.435	-1427
1022.504	-2048
1022.573	-2320
1022.642	-2546
1022.711	-1316
1022.781	-1349
1022.849	-1169
1022.918	-2099
1022.987	-1787
1023.056	-1449
1023.125	-2472
1023.194	-2757
1023.263	-826
1023.331	-869
1023.400	-2137
1023.469	-1737
1023.538	-1523
1023.606	-2255
1023.675	-1922
1023.744	-2353
1023.812	-1270
1023.881	-1711
1023.949	-2169
1024.018	-1993
1024.086	-2035
1024.155	-1691
1024.223	-2037
1024.292	-2249
1024.360	-2222
1024.429	-2083
1024.497	-2433
1024.565	-1592
1024.634	-2108
1024.702	-1776
1024.770	-2000
1024.838	-2009
1024.907	-1669
1024.975	-1617
1025.043	-1559
1025.111	-2542
1025.179	-2254
1025.247	-1746
1025.315	-1392
1025.383	-1913
1025.451	-2259
1025.519	-1993
1025.587	-1827
1025.655	-1504
1025.723	-1687
1025.791	-2262
1025.859	-2200
1025.927	-1992
1025.995	-1379
1026.062	-2158
1026.130	-1152
1026.198	-1763
1026.266	-2265
1026.333	-2341
1026.401	-1642
1026.469	-1991
1026.536	-2441
1026.604	-1279
1026.671	-2834
1026.739	-2311
1026.806	-2325
1026.874	-2345
1026.941	-2118
1027.009	-2433
1027.076	-2179
1027.144	-2775
1027.211	-2331
1027.278	-2493
1027.345	-2181
1027.413	-949
1027.480	-1456
1027.547	-2282
1027.614	-1925
1027.682	-1996
1027.749	-2494
1027.816	-2587
1027.883	-1626
1027.950	-2834
1028.017	-2177
1028.084	-1925
1028.151	-2190
1028.218	-2032
1028.285	-2229
1028.352	-2697
1028.419	-2464
1028.486	-2274
1028.553	-1193
1028.619	-3027
1028.686	-1253
1028.753	-2878
1028.820	-1795
1028.886	-2844
1028.953	-1956
1029.020	-2893
1029.086	-1985
1029.153	-1778
1029.220	-1685
1029.286	-2264
1029.353	-1583
1029.419	-2556
1029.486	-1983
1029.552	-2553
1029.619	-1179
1029.685	-2319
1029.751	-1841
1029.818	-1949
1029.884	-1935
1029.951	-1937
1030.017	-2379
1030.083	-2059
1030.149	-2360
1030.216	-2267
1030.282	-1837
1030.348	-2831
1030.414	-2161
1030.480	-2898
1030.546	-1644
1030.612	-1832
1030.678	-2339
1030.744	-2419
1030.810	-2458
1030.876	-2283
1030.942	-2380
1031.008	-2326
1031.074	-2130
1031.140	-2296
1031.206	-1799
1031.272	-2546
1031.337	-2071
1031.403	-2254
1031.469	-2493
1031.534	-3240
1031.600	-1034
1031.666	-2328
1031.731	-2261
1031.797	-2691
1031.863	-2259
1031.928	-2083
1031.994	-2326
1032.059	-2685
1032.125	-2600
1032.190	-2895
1032.256	-2545
1032.321	-2150
1032.386	-1908
1032.452	-2678
1032.517	-2114
1032.582	-2736
1032.647	-2792
1032.713	-1742
1032.778	-2436
1032.843	-1965
1032.908	-2384
1032.974	-2235
1033.039	-2121
1033.104	-2441
1033.169	-1818
1033.234	-2661
1033.299	-2154
1033.364	-2658
1033.429	-1876
1033.494	-2294
1033.559	-2204
1033.624	-3193
1033.688	-1809
1033.753	-1944
1033.818	-1846
1033.883	-2041
1033.948	-1827
1034.013	-2380
1034.077	-1609
1034.142	-2222
1034.207	-2497
1034.271	-1185
1034.336	-1535
1034.400	-2413
1034.465	-1819
1034.530	-2151
1034.594	-2160
1034.658	-2162
1034.723	-2454
1034.787	-1832
1034.852	-1610
1034.916	-1918
1034.981	-1683
1035.045	-2433
1035.109	-2088
1035.173	-1444
1035.238	-2058
1035.302	-2326
1035.366	-1326
1035.430	-2218
1035.495	-2589
1035.559	-2749
1035.623	-922
1035.687	-2476
1035.751	-2822
1035.815	-2680
1035.879	-1759
1035.943	-2246
1036.007	-2290
1036.071	-1903
1036.135	-2174
1036.198	-2232
1036.262	-2607
1036.326	-2242
1036.390	-2410
1036.454	-1393
1036.517	-2515
1036.581	-2021
1036.645	-1604
1036.709	-1888
1036.772	-1755
1036.836	-2734
1036.900	-1578
1036.963	-1821
1037.026	-2779
1037.090	-1777
1037.154	-2308
1037.217	-2726
1037.280	-2804
1037.344	-1806
1037.407	-2175
1037.471	-1552
1037.534	-1977
1037.597	-2370
1037.661	-1609
1037.724	-1974
1037.787	-2789
1037.850	-2010
1037.913	-2088
1037.977	-1931
1038.040	-2216
1038.103	-2061
1038.166	-2073
1038.229	-2152
1038.292	-1687
1038.355	-2368
1038.418	-1578
1038.481	-1739
1038.544	-1652
1038.607	-2179
1038.670	-1952
1038.732	-1900
1038.795	-1976
1038.858	-2254
1038.921	-1536
1038.984	-1725
1039.046	-1810
1039.109	-2513
1039.172	-2140
1039.234	-2547
1039.297	-2159
1039.360	-1928
1039.422	-1985
1039.485	-2197
1039.547	-2211
1039.610	-2050
1039.672	-1693
1039.734	-2585
1039.797	-2087
1039.859	-1948
1039.922	-2533
1039.984	-2973
1040.046	-1820
1040.109	-2388
1040.171	-1664
1040.233	-1658
1040.295	-1535
1040.358	-2347
1040.420	-2559
1040.482	-2555
1040.544	-2002
1040.606	-1973
1040.668	-1763
1040.730	-1864
1040.792	-1859
1040.854	-2040
1040.916	-1852
1040.978	-1809
1041.040	-1321
1041.102	-2582
1041.164	-2610
1041.225	-2061
1041.287	-1889
1041.349	-2548
1041.411	-2305
1041.472	-1847
1041.534	-1728
1041.596	-1108
1041.657	-2194
1041.719	-2583
1041.781	-1350
1041.842	-2496
1041.904	-2634
1041.965	-2066
1042.027	-1777
1042.088	-2058
1042.150	-2259
1042.211	-2481
1042.272	-2425
1042.334	-2502
1042.395	-1576
1042.456	-2592
1042.518	-2544
1042.579	-1686
1042.640	-1456
1042.701	-1942
1042.763	-2201
1042.824	-2420
1042.885	-2273
1042.946	-2155
1043.007	-1578
1043.068	-2539
1043.129	-1929
1043.190	-2108
1043.251	-1342
1043.312	-2068
1043.373	-1790
1043.434	-2270
1043.495	-2784
1043.556	-1748
1043.616	-2662
1043.677	-2239
1043.738	-2002
1043.799	-1847
1043.859	-1793
1043.920	-2508
1043.981	-1847
1044.041	-1714
1044.102	-2226
1044.162	-1654
1044.223	-2556
1044.284	-2552
1044.344	-1613
1044.405	-2318
1044.465	-1701
1044.525	-1894
1044.586	-2440
1044.646	-2567
1044.707	-1479
1044.767	-1684
1044.827	-1975
1044.887	-1856
1044.948	-1971
1045.008	-2461
1045.068	-2183
1045.128	-1511
1045.188	-2451
1045.249	-1222
1045.309	-1889
1045.369	-1805
1045.429	-1757
1045.489	-1925
1045.549	-1397
1045.609	-2800
1045.669	-1976
1045.729	-2082
1045.789	-1598
1045.848	-2191
1045.908	-1899
1045.968	-1814
1046.028	-2102
1046.088	-1818
1046.147	-2375
1046.207	-2083
1046.267	-1736
1046.326	-1772
1046.386	-1178
1046.446	-684
1046.505	-1523
1046.565	-1641
1046.624	-1051
1046.684	-922
1046.743	-1682
1046.803	-1194
1046.862	-973
1046.922	0
