'Start Wavelength	183.907
'End Wavelength	1046.922
'Gate Delay	5.000
'Gate Width (ms)	1.050
'Laser Output Level	0.000
'X Position	0.000
'Y Position	0.000
'Z Position	0.000
'Grid Point Number	1.000
'Shot Number	100.000
183.907	358.000
183.977	-309.000
184.047	-108
184.116	-548
184.186	-26
184.256	-575
184.325	-436
184.395	-1738
184.465	562
184.534	-271
184.604	129
184.674	-201
184.743	-112
184.813	-82
184.883	263
184.952	140
185.022	239
185.092	-8
185.161	-126
185.231	-900
185.301	-314
185.370	665
185.440	786
185.509	-523
185.579	72
185.649	-600
185.718	98
185.788	197
185.857	-409
185.927	-416
185.996	56
186.066	75
186.136	-12
186.205	-465
186.275	408
186.344	-491
186.414	-275
186.483	-1010
186.553	500
186.622	-373
186.692	323
186.761	211
186.831	-261
186.900	-1477
186.970	361
187.039	-119
187.109	838
187.178	-510
187.248	-158
187.317	-491
187.387	356
187.456	-496
187.526	-236
187.595	-780
187.664	-837
187.734	-291
187.803	862
187.873	343
187.942	373
188.012	-288
188.081	-342
188.150	-358
188.220	304
188.289	449
188.358	-59
188.428	122
188.497	-501
188.567	188
188.636	-462
188.705	-229
188.775	-732
188.844	-405
188.913	1093
188.983	-376
189.052	-430
189.121	470
189.191	192
189.260	-571
189.329	261
189.399	-566
189.468	43
189.537	-698
189.606	810
189.676	101
189.745	591
189.814	825
189.883	24
189.953	-258
190.022	-83
190.091	-91
190.161	-113
190.230	530
190.299	-517
190.368	-533
190.437	13
190.507	-172
190.576	-848
190.645	-895
190.714	-419
190.783	-711
190.853	394
190.922	244
190.991	319
191.060	-65
191.129	-471
191.198	-226
191.268	186
191.337	37
191.406	-424
191.475	-1
191.544	-601
191.613	-91
191.682	-82
191.752	-489
191.821	-167
191.890	-1102
191.959	454
192.028	-351
192.097	-472
192.166	270
192.235	-1114
192.304	-115
192.373	-422
192.442	-155
192.511	-57
192.580	-383
192.650	334
192.719	83
192.788	492
192.857	156
192.926	-361
192.995	-517
193.064	591
193.133	249
193.202	-730
193.271	158
193.340	759
193.409	968
193.478	358
193.547	428
193.615	-209
193.684	164
193.753	-176
193.822	203
193.891	-279
193.960	353
194.029	-467
194.098	-33
194.167	-896
194.236	146
194.305	-346
194.374	-582
194.443	-75
194.512	-261
194.580	-368
194.649	-788
194.718	476
194.787	-303
194.856	-1533
194.925	-764
194.994	287
195.062	-519
195.131	-18
195.200	-308
195.269	-505
195.338	-282
195.407	354
195.475	-395
195.544	481
195.613	-140
195.682	216
195.751	-71
195.819	-364
195.888	-644
195.957	850
196.026	37
196.094	79
196.163	-151
196.232	-326
196.301	-215
196.369	146
196.438	-552
196.507	185
196.576	-318
196.644	-583
196.713	-287
196.782	-393
196.850	156
196.919	525
196.988	-922
197.056	68
197.125	-666
197.194	-180
197.262	-1002
197.331	-77
197.400	116
197.468	-54
197.537	-911
197.606	-390
197.674	-247
197.743	64
197.812	330
197.880	384
197.949	-298
198.017	389
198.086	-812
198.155	-24
198.223	-496
198.292	188
198.360	-429
198.429	-651
198.497	-123
198.566	121
198.635	-161
198.703	-27
198.772	262
198.840	-382
198.909	818
198.977	-407
199.046	-344
199.114	5
199.183	-341
199.251	-32
199.320	-724
199.388	224
199.457	-458
199.525	-474
199.594	-1112
199.662	275
199.731	-67
199.799	493
199.867	-633
199.936	-72
200.004	45
200.073	-401
200.141	-80
200.210	155
200.278	-283
200.346	-270
200.415	-759
200.483	28
200.552	-460
200.620	602
200.688	-428
200.757	-571
200.825	51
200.893	-56
200.962	322
201.030	-617
201.098	-190
201.167	-552
201.235	263
201.303	344
201.372	-222
201.440	-102
201.508	-618
201.577	-573
201.645	-174
201.713	-273
201.781	-490
201.850	165
201.918	86
201.986	-260
202.055	62
202.123	-622
202.191	-420
202.259	-88
202.327	-125
202.396	-755
202.464	-703
202.532	67
202.600	830
202.669	835
202.737	-148
202.805	-245
202.873	-368
202.941	200
203.009	-656
203.078	-28
203.146	-260
203.214	-1108
203.282	-913
203.350	654
203.418	-455
203.487	133
203.555	-19
203.623	101
203.691	-304
203.759	-959
203.827	-1011
203.895	-272
203.963	-427
204.031	-585
204.099	-687
204.168	-213
204.236	11
204.304	-152
204.372	-991
204.440	-81
204.508	-57
204.576	-879
204.644	220
204.712	-537
204.780	-561
204.848	-293
204.916	-533
204.984	-259
205.052	-993
205.120	153
205.188	-457
205.256	-971
205.324	-56
205.392	-557
205.460	-342
205.528	-701
205.596	-183
205.664	-167
205.732	-1250
205.799	-548
205.867	424
205.935	-345
206.003	73
206.071	-461
206.139	-105
206.207	-449
206.275	-156
206.343	-460
206.411	-448
206.478	-641
206.546	-338
206.614	-123
206.682	-718
206.750	-439
206.818	169
206.885	603
206.953	-905
207.021	1386
207.089	-284
207.157	-378
207.225	-351
207.292	-958
207.360	-1459
207.428	-116
207.496	-1669
207.563	-116
207.631	-328
207.699	-1025
207.767	-831
207.834	34
207.902	-399
207.970	-548
208.038	-84
208.105	-1064
208.173	-1079
208.241	-466
208.309	-482
208.376	-286
208.444	-236
208.512	58
208.579	-1105
208.647	-174
208.715	605
208.782	-499
208.850	-565
208.918	112
208.985	-1053
209.053	100
209.120	-812
209.188	-867
209.256	-853
209.323	-1379
209.391	-1098
209.459	1274
209.526	-650
209.594	-1256
209.661	-481
209.729	133
209.796	-24
209.864	-344
209.932	-1946
209.999	747
210.067	-1067
210.134	-629
210.202	-877
210.269	73
210.337	-449
210.404	-716
210.472	-108
210.539	-512
210.607	-798
210.674	-413
210.742	-329
210.809	224
210.877	-1103
210.944	-388
211.012	-1083
211.079	1001
211.146	-859
211.214	-980
211.281	-74
211.349	462
211.416	581
211.484	-448
211.551	-571
211.618	220
211.686	-568
211.753	-531
211.821	-1032
211.888	-658
211.955	-173
212.023	154
212.090	-448
212.157	-600
212.225	-903
212.292	441
212.359	334
212.427	3302
212.494	1069
212.561	-431
212.629	-999
212.696	-1034
212.763	-65
212.831	-968
212.898	-405
212.965	-981
213.032	-277
213.100	-984
213.167	-610
213.234	319
213.301	106
213.369	-315
213.436	-488
213.503	-947
213.570	-264
213.638	-608
213.705	-579
213.772	-1024
213.839	-902
213.906	180
213.973	-430
214.041	-1026
214.108	-141
214.175	234
214.242	-806
214.309	-464
214.376	-471
214.444	-805
214.511	-7
214.578	-706
214.645	-535
214.712	-665
214.779	14
214.846	-1292
214.913	-425
214.980	-408
215.048	-621
215.115	-127
215.182	-622
215.249	-687
215.316	-860
215.383	-48
215.450	-982
215.517	-549
215.584	-757
215.651	-485
215.718	-800
215.785	-64
215.852	-825
215.919	-106
215.986	-1301
216.053	-236
216.120	-1496
216.187	-635
216.254	-364
216.321	-1482
216.388	-654
216.455	-783
216.522	-407
216.589	-759
216.656	186
216.722	785
216.789	-201
216.856	-27
216.923	-735
216.990	434
217.057	-1049
217.124	166
217.191	-945
217.258	380
217.324	-608
217.391	-107
217.458	-843
217.525	-740
217.592	-1280
217.659	-2039
217.725	364
217.792	-103
217.859	329
217.926	-1328
217.993	213
218.059	20
218.126	-845
218.193	-509
218.260	-354
218.327	-256
218.393	-866
218.460	-752
218.527	-1290
218.594	-1074
218.660	-421
218.727	152
218.794	-1232
218.860	185
218.927	-469
218.994	-217
219.061	-1047
219.127	-275
219.194	2
219.261	-136
219.327	-42
219.394	-367
219.461	-834
219.527	-140
219.594	-1003
219.661	-409
219.727	-1130
219.794	414
219.860	-1289
219.927	-187
219.994	280
220.060	421
220.127	335
220.193	-13
220.260	-1038
220.326	-343
220.393	-651
220.460	44
220.526	-1490
220.593	-349
220.659	63
220.726	-620
220.792	853
220.859	140
220.925	164
220.992	603
221.058	1456
221.125	2572
221.191	44
221.258	44
221.324	180
221.391	-836
221.457	-1024
221.524	43
221.590	-84
221.657	1802
221.723	-295
221.789	357
221.856	480
221.922	-79
221.989	-395
222.055	-309
222.121	-1497
222.188	941
222.254	-276
222.321	-1054
222.387	-1362
222.453	-53
222.520	-762
222.586	-787
222.652	-441
222.719	-701
222.785	-580
222.851	-281
222.918	-304
222.984	-410
223.050	-588
223.116	-1265
223.183	180
223.249	-1496
223.315	-1562
223.382	-857
223.448	-538
223.514	-948
223.580	-582
223.647	-933
223.713	-1645
223.779	-956
223.845	-1147
223.911	262
223.978	-1150
224.044	-222
224.110	-1462
224.176	-82
224.242	-57
224.309	-1513
224.375	-677
224.441	-511
224.507	-577
224.573	-624
224.639	-156
224.705	-853
224.772	-515
224.838	-1188
224.904	-1296
224.970	-333
225.036	-1009
225.102	-964
225.168	233
225.234	-101
225.300	-864
225.366	-22
225.432	-204
225.499	-566
225.565	-314
225.631	-791
225.697	-509
225.763	-366
225.829	-921
225.895	-223
225.961	-240
226.027	-436
226.093	-1525
226.159	569
226.225	-117
226.291	927
226.357	1377
226.423	323
226.489	199
226.554	-137
226.620	-120
226.686	79
226.752	-532
226.818	472
226.884	2337
226.950	2041
227.016	506
227.082	978
227.148	-433
227.214	321
227.279	-1218
227.345	-1055
227.411	-1104
227.477	-326
227.543	1862
227.609	1206
227.674	1129
227.740	591
227.806	-920
227.872	-543
227.938	-682
228.003	-177
228.069	-641
228.135	-579
228.201	-345
228.267	-401
228.332	-698
228.398	-2068
228.464	-586
228.530	-310
228.595	-496
228.661	-1610
228.727	-906
228.792	81
228.858	-1149
228.924	-2495
228.990	1185
229.055	-1849
229.121	-947
229.187	-668
229.252	-1060
229.318	-1203
229.384	-1145
229.449	-86
229.515	-2870
229.581	-1592
229.646	942
229.712	-867
229.777	-753
229.843	-726
229.909	-9
229.974	-237
230.040	-396
230.105	-317
230.171	-870
230.236	14
230.302	-859
230.368	-440
230.433	-1436
230.499	-765
230.564	564
230.630	-1460
230.695	-153
230.761	263
230.826	-3311
230.892	-161
230.957	-1931
231.023	-852
231.088	-544
231.154	-1346
231.219	-305
231.284	-243
231.350	-10
231.415	-1913
231.481	-344
231.546	-351
231.612	-729
231.677	-1201
231.742	-1908
231.808	787
231.873	-982
231.939	-2865
232.004	970
232.069	805
232.135	-1316
232.200	-1456
232.265	391
232.331	-813
232.396	-1254
232.461	-888
232.527	-1185
232.592	-1348
232.657	-645
232.723	266
232.788	-918
232.853	-265
232.918	-969
232.984	-1100
233.049	-590
233.114	-1084
233.179	-687
233.245	999
233.310	633
233.375	-1244
233.440	-445
233.506	-992
233.571	-1505
233.636	443
233.701	-676
233.766	-424
233.832	-120
233.897	-1004
233.962	-1404
234.027	1075
234.092	-603
234.157	-338
234.222	-1618
234.288	-13
234.353	1619
234.418	1553
234.483	605
234.548	-360
234.613	-1051
234.678	-258
234.743	-1653
234.808	1664
234.873	-708
234.938	1124
235.004	-349
235.069	-403
235.134	-1358
235.199	34
235.264	-491
235.329	-741
235.394	362
235.459	162
235.524	-1307
235.589	-83
235.654	-785
235.719	-1463
235.784	493
235.849	-514
235.913	36
235.978	-62
236.043	96
236.108	-352
236.173	-1349
236.238	782
236.303	-1288
236.368	-1402
236.433	-455
236.498	-818
236.563	-194
236.627	56
236.692	4012
236.757	3310
236.822	1086
236.887	-310
236.952	72
237.017	-1408
237.081	991
237.146	-637
237.211	416
237.276	3606
237.341	9083
237.405	2314
237.470	694
237.535	-429
237.600	93
237.664	33
237.729	-1220
237.794	-1630
237.859	293
237.923	-287
237.988	-462
238.053	-178
238.118	88
238.182	2129
238.247	4072
238.312	-925
238.376	340
238.441	-1507
238.506	495
238.570	-1690
238.635	74
238.700	-636
238.764	-510
238.829	-349
238.893	-282
238.958	-173
239.023	-149
239.087	-484
239.152	-515
239.216	-874
239.281	14
239.346	-206
239.410	-366
239.475	-242
239.539	2343
239.604	1358
239.668	534
239.733	-452
239.797	1667
239.862	4724
239.926	3614
239.991	1273
240.055	-135
240.120	-376
240.184	-96
240.249	-346
240.313	-568
240.378	-400
240.442	202
240.507	2793
240.571	-292
240.635	-442
240.700	1014
240.764	-216
240.829	-760
240.893	-1463
240.957	349
241.022	1025
241.086	2032
241.151	-436
241.215	-1301
241.279	459
241.344	-164
241.408	341
241.472	-1193
241.537	453
241.601	-633
241.665	-1824
241.730	-1128
241.794	1051
241.858	-1612
241.922	-282
241.987	820
242.051	-509
242.115	-1201
242.179	-35
242.244	-1074
242.308	714
242.372	51
242.436	-1570
242.501	-317
242.565	-794
242.629	-160
242.693	-12
242.757	-1520
242.822	-381
242.886	-234
242.950	-90
243.014	-908
243.078	-706
243.142	-1031
243.206	-773
243.271	-924
243.335	-577
243.399	837
243.463	1414
243.527	8799
243.591	1880
243.655	117
243.719	-1180
243.783	744
243.847	-1
243.911	837
243.975	-494
244.040	-1160
244.104	626
244.168	-1254
244.232	-350
244.296	-928
244.360	505
244.424	-823
244.488	-461
244.552	-3
244.615	-1338
244.679	-232
244.743	-325
244.807	-1080
244.871	-931
244.935	194
244.999	-1952
245.063	-943
245.127	-320
245.191	-62
245.255	117
245.319	-311
245.383	-2101
245.446	447
245.510	-1150
245.574	-658
245.638	93
245.702	-2028
245.766	652
245.829	1039
245.893	-660
245.957	-1058
246.021	-514
246.085	-907
246.149	-811
246.212	900
246.276	2744
246.340	233
246.404	-301
246.467	824
246.531	-1889
246.595	482
246.659	291
246.722	-1173
246.786	-110
246.850	-140
246.913	146
246.977	-1123
247.041	-539
247.104	-244
247.168	573
247.232	302
247.295	3287
247.359	988
247.423	-1176
247.486	-545
247.550	802
247.614	-1072
247.677	572
247.741	-236
247.804	168
247.868	2568
247.932	301
247.995	4225
248.059	374
248.122	-908
248.186	695
248.249	759
248.313	5968
248.376	5645
248.440	2538
248.503	-866
248.567	1615
248.630	-1185
248.694	960
248.757	1551
248.821	6521
248.884	3790
248.948	1429
249.011	3852
249.075	8232
249.138	7220
249.202	1011
249.265	-560
249.328	1034
249.392	-1101
249.455	597
249.519	-473
249.582	-43
249.645	-419
249.709	821
249.772	-868
249.835	-128
249.899	-646
249.962	441
250.025	-1419
250.089	1823
250.152	3196
250.215	385
250.279	-1382
250.342	325
250.405	-269
250.468	-783
250.532	71
250.595	1418
250.658	6950
250.721	18885
250.785	3058
250.848	2174
250.911	-535
250.974	365
251.038	460
251.101	4613
251.164	-51
251.227	1046
251.290	-35
251.354	1800
251.417	12711
251.480	13584
251.543	5229
251.606	26865
251.669	19381
251.732	5116
251.795	4618
251.859	5558
251.922	16340
251.985	8610
252.048	3123
252.111	763
252.174	458
252.237	2669
252.300	7484
252.363	6658
252.426	22462
252.489	7041
252.552	2350
252.615	929
252.678	1618
252.741	6094
252.804	7295
252.867	23728
252.930	10439
252.993	4623
253.056	1759
253.119	860
253.182	461
253.245	940
253.308	748
253.371	-901
253.434	317
253.497	1224
253.559	2590
253.622	1777
253.685	607
253.748	959
253.811	-783
253.874	1210
253.937	-340
254.000	98
254.062	1631
254.125	3315
254.188	1512
254.251	477
254.314	-487
254.376	245
254.439	1283
254.502	234
254.565	288
254.628	4804
254.690	932
254.753	-219
254.816	-939
254.878	-157
254.941	1427
255.004	1879
255.067	1053
255.129	-828
255.192	-108
255.255	-1110
255.317	-461
255.380	-20
255.443	-1169
255.505	-280
255.568	-1012
255.631	-833
255.693	-886
255.756	-726
255.819	418
255.881	-36
255.944	39
256.006	-1284
256.069	-1906
256.132	-1196
256.194	-117
256.257	1574
256.319	714
256.382	363
256.444	10
256.507	918
256.569	-1077
256.632	-408
256.694	-647
256.757	2041
256.819	6801
256.882	368
256.944	-252
257.007	1299
257.069	-704
257.132	-309
257.194	317
257.257	-1151
257.319	-913
257.381	-711
257.444	1476
257.506	7104
257.569	9537
257.631	3753
257.693	1774
257.756	-651
257.818	-174
257.880	201
257.943	-112
258.005	-769
258.067	-415
258.130	-305
258.192	-543
258.254	-388
258.317	-541
258.379	499
258.441	616
258.503	1734
258.566	1018
258.628	3692
258.690	-614
258.753	529
258.815	-83
258.877	-382
258.939	-898
259.001	36
259.064	-796
259.126	-257
259.188	-493
259.250	-268
259.312	-737
259.375	532
259.437	-100
259.499	342
259.561	-666
259.623	-822
259.685	-1138
259.747	225
259.809	1602
259.872	5522
259.934	8805
259.996	7989
260.058	1402
260.120	-486
260.182	-857
260.244	543
260.306	-911
260.368	444
260.430	-1292
260.492	-408
260.554	1107
260.616	385
260.678	1872
260.740	4704
260.802	246
260.864	4
260.926	-1034
260.988	669
261.050	-302
261.112	418
261.174	4822
261.236	4395
261.298	-66
261.359	1120
261.421	2992
261.483	-576
261.545	112
261.607	-1470
261.669	-257
261.731	-256
261.793	1981
261.854	-1018
261.916	331
261.978	-490
262.040	-428
262.102	-366
262.164	57
262.225	449
262.287	-608
262.349	-464
262.411	-524
262.472	693
262.534	-377
262.596	1978
262.658	-630
262.719	-1113
262.781	487
262.843	1413
262.904	72
262.966	-659
263.028	-49
263.090	3219
263.151	13067
263.213	3610
263.275	413
263.336	478
263.398	638
263.459	-1328
263.521	-1093
263.583	626
263.644	14
263.706	-796
263.767	-1685
263.829	-512
263.891	-501
263.952	-1097
264.014	-863
264.075	-657
264.137	-33
264.198	-296
264.260	-1583
264.321	-569
264.383	-146
264.444	1780
264.506	-162
264.567	-680
264.629	502
264.690	-428
264.752	-264
264.813	-760
264.875	-2039
264.936	645
264.998	-1020
265.059	-728
265.120	-499
265.182	-391
265.243	1485
265.305	1475
265.366	177
265.427	-1015
265.489	-262
265.550	-2166
265.611	-774
265.673	-793
265.734	-1162
265.795	-726
265.857	-1657
265.918	-641
265.979	-522
266.040	3597
266.102	4344
266.163	-553
266.224	-425
266.286	-870
266.347	-1360
266.408	-750
266.469	82
266.530	-204
266.592	-715
266.653	-449
266.714	-152
266.775	-205
266.836	-523
266.898	-494
266.959	-709
267.020	-1054
267.081	32
267.142	-473
267.203	-324
267.264	-932
267.326	508
267.387	-227
267.448	-1211
267.509	-800
267.570	-698
267.631	-939
267.692	-1315
267.753	-934
267.814	-1792
267.875	-119
267.936	-75
267.997	-982
268.058	-446
268.119	-305
268.180	-1866
268.241	-1311
268.302	-658
268.363	-666
268.424	-1746
268.485	-571
268.546	-1256
268.607	-1335
268.668	-1235
268.729	-1546
268.790	-1387
268.851	-697
268.912	-763
268.972	-263
269.033	-831
269.094	-801
269.155	-1427
269.216	-775
269.277	-353
269.338	-195
269.398	-1413
269.459	-1215
269.520	-720
269.581	-428
269.642	-371
269.702	-717
269.763	-459
269.824	-26
269.885	-488
269.945	-320
270.006	-1408
270.067	-849
270.128	-156
270.188	-1571
270.249	-1331
270.310	-983
270.370	-746
270.431	-1111
270.492	-1044
270.553	-449
270.613	-1112
270.674	585
270.734	-1004
270.795	-1333
270.856	-781
270.916	-1356
270.977	-496
271.038	-1200
271.098	-887
271.159	-1296
271.219	-527
271.280	-232
271.340	-676
271.401	-286
271.462	356
271.522	-762
271.583	-898
271.643	-78
271.704	-311
271.764	-775
271.825	-405
271.885	4862
271.946	9095
272.006	2000
272.066	2401
272.127	7614
272.187	2044
272.248	639
272.308	-543
272.369	3416
272.429	1755
272.489	77
272.550	437
272.610	180
272.671	-1032
272.731	-318
272.791	-184
272.852	29
272.912	-34
272.972	-815
273.033	-313
273.093	-946
273.153	293
273.214	340
273.274	-558
273.334	1854
273.394	4493
273.455	1786
273.515	940
273.575	4191
273.635	2187
273.696	3257
273.756	6706
273.816	2559
273.876	1269
273.936	2854
273.997	4573
274.057	580
274.117	-78
274.177	74
274.237	4464
274.297	6388
274.358	2422
274.418	2849
274.478	2062
274.538	272
274.598	-610
274.658	2192
274.718	2945
274.778	1081
274.838	-248
274.898	793
274.958	5475
275.018	5802
275.078	3339
275.138	353
275.198	-606
275.258	-587
275.318	98
275.378	-226
275.438	-362
275.498	376
275.558	1892
275.618	6123
275.678	2652
275.738	632
275.798	530
275.858	-659
275.918	-1021
275.978	-561
276.038	-687
276.098	-336
276.157	-296
276.217	1621
276.277	-90
276.337	-499
276.397	-756
276.457	-211
276.517	-718
276.576	-931
276.636	-1111
276.696	123
276.756	17
276.815	545
276.875	80
276.935	-476
276.995	-322
277.055	-55
277.114	165
277.174	-8
277.234	985
277.293	-22
277.353	-744
277.413	66
277.472	-731
277.532	-21
277.592	952
277.651	7814
277.711	19639
277.771	6054
277.830	17827
277.890	16500
277.950	9540
278.009	35388
278.069	13628
278.128	12431
278.188	20099
278.248	7966
278.307	20705
278.367	14266
278.426	2993
278.486	1819
278.545	568
278.605	2080
278.664	518
278.724	370
278.783	3047
278.843	7178
278.902	1956
278.962	1408
279.021	2560
279.081	10945
279.140	9407
279.199	3218
279.259	3144
279.318	3696
279.378	6618
279.437	12006
279.496	36473
279.556	122305
279.615	112762
279.675	35402
279.734	18847
279.793	22977
279.853	30320
279.912	10836
279.971	5959
280.031	5863
280.090	7651
280.149	12303
280.208	19584
280.268	82802
280.327	96670
280.386	26856
280.445	11177
280.505	7729
280.564	5101
280.623	3194
280.682	2478
280.742	3609
280.801	559
280.860	758
280.919	-162
280.978	1448
281.037	174
281.097	596
281.156	1642
281.215	772
281.274	-610
281.333	3184
281.392	2619
281.451	15
281.510	751
281.569	836
281.628	-205
281.688	313
281.747	519
281.806	202
281.865	55
281.924	-938
281.983	171
282.042	9
282.101	-367
282.160	85
282.219	-721
282.278	-254
282.337	-332
282.396	275
282.454	398
282.513	249
282.572	550
282.631	351
282.690	-573
282.749	-710
282.808	-245
282.867	-326
282.926	18
282.985	329
283.043	-97
283.102	-142
283.161	-366
283.220	998
283.279	1835
283.338	511
283.396	201
283.455	563
283.514	-138
283.573	140
283.631	219
283.690	673
283.749	-384
283.808	574
283.866	603
283.925	176
283.984	622
284.043	555
284.101	474
284.160	112
284.219	1254
284.277	1887
284.336	667
284.395	4295
284.453	3617
284.512	2556
284.570	2457
284.629	3468
284.688	4349
284.746	4927
284.805	6171
284.863	9136
284.922	11868
284.981	14430
285.039	20238
285.098	32490
285.156	59570
285.215	84603
285.273	78388
285.332	63533
285.390	40656
285.449	27833
285.507	18607
285.566	13692
285.624	10027
285.683	8926
285.741	6454
285.799	4330
285.858	3468
285.916	2428
285.975	2245
286.033	1989
286.091	1869
286.150	1450
286.208	1363
286.267	1522
286.325	486
286.383	1273
286.442	366
286.500	1010
286.558	-146
286.616	760
286.675	-99
286.733	324
286.791	-798
286.850	169
286.908	156
286.966	360
287.024	-376
287.083	-184
287.141	-948
287.199	79
287.257	61
287.315	316
287.374	-1083
287.432	-218
287.490	508
287.548	-246
287.606	-366
287.664	375
287.723	-186
287.781	-467
287.839	-797
287.897	-51
287.955	367
288.013	1125
288.071	4150
288.129	16403
288.187	59428
288.245	24529
288.303	5787
288.361	3287
288.419	2340
288.477	1718
288.535	1083
288.593	405
288.651	-346
288.709	-614
288.767	-832
288.825	-924
288.883	-300
288.941	-84
288.999	68
289.057	-490
289.115	-758
289.173	-654
289.231	-834
289.289	-569
289.346	-863
289.404	-377
289.462	-815
289.520	-578
289.578	-1036
289.636	-844
289.694	-1189
289.751	-674
289.809	-1726
289.867	-268
289.925	-98
289.983	-804
290.040	-1023
290.098	-883
290.156	-1694
290.214	-897
290.271	-1786
290.329	-817
290.387	-662
290.444	-1195
290.502	-1018
290.560	-1416
290.617	-1191
290.675	-232
290.733	-1044
290.790	-392
290.848	-713
290.906	-422
290.963	-1351
291.021	-531
291.078	-182
291.136	-1146
291.194	-394
291.251	1527
291.309	-731
291.366	-1278
291.424	-794
291.481	-891
291.539	-599
291.596	552
291.654	-901
291.711	-330
291.769	-933
291.826	-1117
291.884	-532
291.941	-573
291.999	-942
292.056	-1534
292.114	-687
292.171	-861
292.228	-857
292.286	-239
292.343	-554
292.401	-474
292.458	-573
292.515	-1266
292.573	-229
292.630	-443
292.687	-501
292.745	-723
292.802	-975
292.859	2111
292.917	4278
292.974	1116
293.031	-445
293.089	-399
293.146	-456
293.203	-625
293.260	-1147
293.318	-411
293.375	408
293.432	-1298
293.489	-1315
293.546	-343
293.604	239
293.661	4888
293.718	9514
293.775	2877
293.832	1257
293.889	1517
293.947	1373
294.004	-241
294.061	-98
294.118	369
294.175	2433
294.232	5370
294.289	2404
294.346	-72
294.403	120
294.460	91
294.517	-512
294.574	-714
294.631	-73
294.688	-206
294.745	56
294.802	6442
294.859	5959
294.916	1192
294.973	155
295.030	-19
295.087	-867
295.144	-854
295.201	-456
295.258	-887
295.315	-923
295.372	1585
295.429	4706
295.486	1637
295.542	-189
295.599	1934
295.656	4320
295.713	2126
295.770	3370
295.827	1101
295.883	-280
295.940	-19
295.997	-144
296.054	-384
296.111	453
296.167	-447
296.224	-1501
296.281	-973
296.338	-789
296.394	-1244
296.451	-1321
296.508	719
296.564	1927
296.621	1406
296.678	5099
296.734	9017
296.791	2306
296.848	729
296.904	-133
296.961	594
297.018	4080
297.074	3434
297.131	130
297.187	142
297.244	-147
297.301	4245
297.357	11278
297.414	3170
297.470	53
297.527	-89
297.583	484
297.640	-906
297.696	-772
297.753	-1485
297.809	-861
297.866	-1506
297.922	-2114
297.979	-1663
298.035	-1300
298.092	-855
298.148	712
298.204	2503
298.261	819
298.317	1550
298.374	6530
298.430	3761
298.486	545
298.543	-148
298.599	-352
298.656	-764
298.712	-2
298.768	2062
298.824	1374
298.881	-102
298.937	-773
298.993	-452
299.050	-959
299.106	-531
299.162	-795
299.218	-671
299.275	-664
299.331	250
299.387	727
299.443	7426
299.500	10530
299.556	7249
299.612	1547
299.668	983
299.724	4997
299.780	6525
299.837	2479
299.893	1070
299.949	5728
300.005	9233
300.061	5830
300.117	14721
300.173	5713
300.229	1715
300.285	545
300.341	947
300.397	109
300.453	-527
300.510	-9
300.566	1294
300.622	1792
300.678	8135
300.734	13898
300.790	7321
300.845	7049
300.901	5482
300.957	8816
301.013	4763
301.069	1060
301.125	70
301.181	37
301.237	-493
301.293	-820
301.349	692
301.405	-594
301.461	194
301.516	-778
301.572	-889
301.628	-64
301.684	-539
301.740	276
301.796	1242
301.851	555
301.907	345
301.963	1938
302.019	4910
302.074	18428
302.130	19989
302.186	7205
302.242	1863
302.297	948
302.353	689
302.409	962
302.464	1518
302.520	478
302.576	3266
302.631	5537
302.687	803
302.743	-64
302.798	-604
302.854	-518
302.910	-164
302.965	-891
303.021	-39
303.076	-360
303.132	-100
303.187	74
303.243	-136
303.299	-385
303.354	-526
303.410	-1093
303.465	-488
303.521	-1135
303.576	-781
303.632	-363
303.687	977
303.743	4587
303.798	4783
303.853	1101
303.909	-240
303.964	-986
304.020	-22
304.075	239
304.130	681
304.186	183
304.241	2154
304.297	872
304.352	-816
304.358	-851
304.407	-1138
304.449	124
304.463	552
304.518	-871
304.539	-749
304.573	-568
304.629	-625
304.630	-592
304.684	990
304.720	2250
304.739	2838
304.794	7077
304.811	5657
304.850	2204
304.902	1092
304.905	1026
304.960	237
304.992	202
305.015	211
305.071	-246
305.083	-80
305.126	453
305.173	-229
305.181	-326
305.236	-885
305.264	-437
305.292	-47
305.347	-362
305.354	-316
305.402	88
305.445	-66
305.457	-150
305.512	-73
305.535	-365
305.567	-701
305.622	-417
305.626	-385
305.678	562
305.716	2662
305.733	3393
305.788	5433
305.807	4605
305.843	3609
305.897	7207
305.898	7238
305.953	5835
305.988	3725
306.008	2734
306.063	931
306.078	578
306.118	-91
306.168	-307
306.173	-330
306.228	34
306.259	-380
306.283	-584
306.338	231
306.349	187
306.393	-272
306.440	271
306.448	399
306.503	-172
306.530	186
306.558	838
306.613	1546
306.620	1795
306.668	3151
306.711	3787
306.723	3736
306.778	2451
306.801	2012
306.833	1679
306.888	240
306.892	209
306.943	128
306.982	65
306.997	61
307.052	-386
307.072	-134
307.107	342
307.162	526
307.163	528
307.217	1192
307.253	1462
307.272	1442
307.327	1854
307.343	1827
307.381	1706
307.434	928
307.436	962
307.491	2813
307.524	4345
307.546	4511
307.600	3767
307.614	3319
307.655	2105
307.704	1080
307.710	1122
307.765	1474
307.795	2008
307.819	2341
307.874	4355
307.885	4372
307.929	3210
307.975	2143
307.984	2188
308.038	3089
308.065	3717
308.093	7386
308.148	17115
308.156	19332
308.202	30027
308.246	38815
308.257	38153
308.312	18502
308.336	11421
308.366	7869
308.421	4758
308.426	4545
308.475	3309
308.517	2681
308.530	2470
308.585	1962
308.607	1901
308.639	2542
308.694	3217
308.697	3283
308.748	5648
308.787	7907
308.803	7756
308.857	6008
308.877	5254
308.912	4788
308.967	4105
308.967	4107
309.021	7349
309.058	9744
309.076	11473
309.130	19164
309.148	21410
309.185	37505
309.238	64057
309.239	64238
309.293	74033
309.328	70126
309.348	61450
309.402	30425
309.418	22640
309.457	16295
309.508	11322
309.511	11340
309.566	13733
309.598	16399
309.620	21768
309.674	37141
309.688	41436
309.729	38435
309.778	28685
309.783	27851
309.837	16732
309.868	11082
309.892	9678
309.946	8086
309.959	7979
310.001	8743
310.049	9494
310.055	9168
310.109	5963
310.139	4134
310.163	3494
310.218	2575
310.229	2396
310.272	2250
310.319	2379
310.326	2339
310.381	1724
310.409	1446
310.435	1314
310.489	1096
310.499	1059
310.543	1164
310.589	1318
310.598	1335
310.652	1481
310.679	1505
310.706	1591
310.760	1679
310.769	1698
310.814	1293
310.859	845
310.868	853
310.923	961
310.948	905
310.977	1035
311.031	1576
311.038	1635
311.085	1426
311.128	1087
311.139	1086
311.193	1158
311.218	1215
311.247	1371
311.301	1457
311.308	1481
311.356	1200
311.398	920
311.410	988
311.464	1193
311.488	1324
311.518	1183
311.572	864
311.578	825
311.626	1218
311.668	1543
311.680	1549
311.734	1558
311.758	1552
311.788	1318
311.842	851
311.847	802
311.896	1458
311.937	2031
311.950	1917
312.004	1408
312.027	1162
312.058	1065
312.112	915
312.117	900
312.165	832
312.207	776
312.297	605
312.386	1085
312.476	762
312.566	1607
312.656	1444
312.745	196
312.835	1773
312.925	1090
313.015	273
313.104	2030
313.194	1168
313.284	-33
313.374	2070
313.463	795
313.553	802
313.643	1330
313.732	1562
313.822	958
313.912	1707
314.001	1603
314.091	1509
314.180	1834
314.270	2233
314.360	2097
314.449	1121
314.539	1422
314.628	1796
314.718	2086
314.808	1441
314.897	1848
314.987	2198
315.076	1845
315.166	2327
315.255	1822
315.345	1667
315.434	2085
315.524	2594
315.613	4112
315.703	5792
315.792	20120
315.881	90166
315.971	23245
316.060	5114
316.150	5111
316.239	4947
316.328	2418
316.418	1846
316.507	1237
316.597	2498
316.686	2153
316.775	2984
316.865	5736
316.954	2415
317.043	2010
317.133	1636
317.222	1792
317.311	1613
317.400	1366
317.490	3865
317.579	3605
317.668	5596
317.757	10084
317.847	38013
317.936	140863
318.025	34085
318.114	27287
318.203	10309
318.293	3726
318.382	3354
318.471	3346
318.560	4887
318.649	8425
318.738	3408
318.828	1670
318.917	477
319.006	1992
319.095	5005
319.184	10039
319.273	4372
319.362	2252
319.451	1418
319.540	1308
319.629	2289
319.718	3207
319.807	2297
319.896	4035
319.985	14322
320.074	4766
320.163	993
320.252	3523
320.341	2588
320.430	2383
320.519	2346
320.608	729
320.697	1385
320.786	1537
320.875	2511
320.964	2088
321.053	2868
321.142	3760
321.230	4507
321.319	3661
321.408	5902
321.497	4500
321.586	4298
321.675	4223
321.764	4140
321.852	3558
321.941	3986
322.030	2549
322.119	3015
322.207	6985
322.296	7319
322.385	4836
322.474	5970
322.562	8929
322.651	5123
322.740	3503
322.829	5335
322.917	6203
323.006	2796
323.095	2407
323.183	2140
323.272	3135
323.361	6403
323.449	23519
323.538	7274
323.626	14217
323.715	8949
323.804	3642
323.892	11832
323.981	5937
324.069	2620
324.158	7119
324.246	6081
324.335	1757
324.424	2302
324.512	954
324.601	1396
324.689	2321
324.778	3631
324.866	4186
324.954	1596
325.043	872
325.131	1952
325.220	4935
325.308	5197
325.397	3535
325.485	2518
325.574	36
325.662	-141
325.750	-32
325.839	1444
325.927	1570
326.015	1537
326.104	1885
326.192	4069
326.280	897
326.369	152
326.457	625
326.545	1238
326.634	541
326.722	118
326.810	498
326.898	1992
326.987	1259
327.075	301
327.163	2105
327.251	1126
327.340	1331
327.428	2960
327.516	753
327.604	631
327.692	966
327.781	1023
327.869	1685
327.957	1626
328.045	87
328.133	610
328.221	760
328.309	644
328.397	518
328.485	488
328.574	2543
328.662	4480
328.750	2616
328.838	1078
328.926	1783
329.014	102
329.102	607
329.190	2738
329.278	990
329.366	514
329.454	-165
329.542	645
329.630	-272
329.718	1125
329.806	-48
329.893	841
329.981	80
330.069	1092
330.157	784
330.245	1484
330.333	1158
330.421	229
330.509	833
330.597	3547
330.684	1510
330.772	1140
330.860	1127
330.948	2041
331.036	435
331.123	50
331.211	848
331.299	796
331.387	1735
331.475	2286
331.562	6
331.650	-617
331.738	525
331.825	1258
331.913	-197
332.001	47
332.089	829
332.176	1933
332.264	5890
332.352	3042
332.439	827
332.527	770
332.614	1259
332.702	832
332.790	530
332.877	2874
332.965	7951
333.052	3720
333.140	4173
333.228	11276
333.315	1853
333.403	1319
333.490	3942
333.578	5211
333.665	16599
333.753	5083
333.840	1316
333.928	1679
334.015	4125
334.103	6937
334.190	17635
334.278	5076
334.365	3606
334.452	4067
334.540	2019
334.627	2074
334.715	2632
334.802	7256
334.889	32349
334.977	33801
335.064	7921
335.151	3092
335.239	1903
335.326	1543
335.413	7970
335.501	9347
335.588	1836
335.675	1938
335.762	2467
335.850	2989
335.937	4482
336.024	11446
336.111	37050
336.199	20650
336.286	6495
336.373	3005
336.460	749
336.547	699
336.635	1407
336.722	1732
336.809	581
336.896	802
336.983	4807
337.070	9272
337.157	15398
337.245	15747
337.332	11050
337.419	905
337.506	593
337.593	1677
337.680	2508
337.767	8012
337.854	1410
337.941	2624
338.028	3777
338.115	975
338.202	1831
338.289	3852
338.376	15723
338.463	4487
338.550	4168
338.637	4786
338.724	2954
338.811	4010
338.898	355
338.984	292
339.071	178
339.158	1151
339.245	938
339.332	570
339.419	2760
339.506	3356
339.593	-547
339.679	350
339.766	203
339.853	613
339.940	545
340.027	568
340.113	-47
340.200	330
340.287	-378
340.374	761
340.460	1286
340.547	106
340.634	929
340.720	3627
340.807	1359
340.894	905
340.980	754
341.067	-111
341.154	670
341.240	557
341.327	1453
341.414	1181
341.500	531
341.587	1259
341.674	1287
341.760	689
341.847	1257
341.933	206
342.020	-1082
342.106	190
342.193	480
342.279	889
342.366	84
342.452	1355
342.539	760
342.625	1208
342.712	3779
342.798	2025
342.885	1131
342.971	-209
343.058	435
343.144	174
343.230	528
343.317	272
343.403	50
343.490	755
343.576	-426
343.662	305
343.749	-120
343.835	1118
343.921	3121
344.008	20102
344.094	40690
344.180	7986
344.267	2196
344.353	6716
344.439	6279
344.525	1731
344.612	1098
344.698	626
344.784	217
344.870	745
344.957	-142
345.043	1006
345.129	-161
345.215	760
345.301	700
345.387	188
345.474	82
345.560	116
345.646	-59
345.732	1115
345.818	-64
345.904	333
345.990	230
346.076	640
346.162	768
346.249	659
346.335	529
346.421	736
346.507	2122
346.593	11038
346.679	576
346.765	1160
346.851	964
346.937	132
347.023	1702
347.108	939
347.194	598
347.280	604
347.366	640
347.452	5073
347.538	14961
347.624	9358
347.710	6488
347.796	613
347.882	725
347.967	561
348.053	23
348.139	758
348.225	-119
348.311	455
348.397	-159
348.482	1272
348.568	686
348.654	875
348.740	2918
348.825	2151
348.911	2496
348.997	7406
349.083	13928
349.168	1629
349.254	1035
349.340	1214
349.425	649
349.511	683
349.597	595
349.682	755
349.768	5675
349.854	1552
349.939	978
350.025	590
350.110	1014
350.196	-465
350.282	119
350.367	1212
350.453	439
350.538	611
350.624	-312
350.709	1468
350.795	-615
350.880	-193
350.966	1179
351.051	1230
351.137	-1
351.222	951
351.308	1842
351.393	4213
351.479	421
351.564	-195
351.649	94
351.735	882
351.820	-525
351.906	-8
351.991	-40
352.076	2808
352.162	4157
352.247	915
352.332	628
352.418	701
352.503	1424
352.588	6022
352.673	3540
352.759	38
352.844	431
352.929	166
353.014	20
353.100	1513
353.185	1358
353.270	411
353.355	674
353.441	840
353.526	743
353.611	1656
353.696	534
353.781	1409
353.866	-624
353.952	1388
354.037	471
354.122	2514
354.207	1696
354.292	741
354.377	877
354.462	311
354.547	121
354.632	427
354.717	977
354.802	57
354.887	452
354.972	305
355.057	10
355.142	436
355.227	521
355.312	409
355.397	1750
355.482	3579
355.567	730
355.652	1669
355.737	938
355.822	6629
355.907	3822
355.991	1443
356.076	-154
356.161	573
356.246	-397
356.331	958
356.416	944
356.501	17485
356.585	14448
356.670	371
356.755	2561
356.840	2173
356.924	10827
357.009	43427
357.094	13384
357.179	1386
357.263	1154
357.348	1575
357.433	1225
357.517	726
357.602	65
357.687	554
357.771	1547
357.856	1890
357.941	2411
358.025	11740
358.110	54524
358.195	20649
358.279	2101
358.364	1877
358.448	4796
358.533	11668
358.617	6656
358.702	8654
358.787	2270
358.871	1589
358.956	991
359.040	544
359.125	-71
359.209	534
359.294	1027
359.378	2021
359.462	1058
359.547	-178
359.631	25
359.716	-300
359.800	-639
359.885	2206
359.969	-558
360.053	807
360.138	283
360.222	1042
360.306	707
360.391	674
360.475	1713
360.559	2549
360.644	3282
360.728	1162
360.812	9827
360.896	25139
360.981	5858
361.065	1676
361.149	1241
361.233	213
361.318	-414
361.402	658
361.486	1634
361.570	149
361.654	901
361.739	1950
361.823	15868
361.907	26057
361.991	3529
362.075	1099
362.159	1822
362.243	4254
362.327	8697
362.411	16455
362.495	5168
362.580	1734
362.664	1782
362.748	538
362.832	3036
362.916	6716
363.000	28020
363.084	53072
363.168	39214
363.252	7398
363.336	2035
363.420	2604
363.503	10023
363.587	10183
363.671	1747
363.755	323
363.839	2927
363.923	-92
364.007	2729
364.091	3392
364.175	5048
364.258	25286
364.342	33432
364.426	67168
364.510	31635
364.594	9001
364.677	6418
364.761	22809
364.845	13622
364.929	3147
365.013	1546
365.096	1927
365.180	499
365.264	4123
365.347	17509
365.431	4603
365.515	423
365.598	-399
365.682	1498
365.766	-268
365.849	580
365.933	-160
366.017	2220
366.100	-632
366.184	-810
366.267	1113
366.351	115
366.435	-30
366.518	-170
366.602	273
366.685	113
366.769	630
366.852	747
366.936	1992
367.019	250
367.103	-492
367.186	1966
367.270	645
367.353	-1030
367.436	1259
367.520	289
367.603	882
367.687	-499
367.770	1241
367.853	1764
367.937	4927
368.020	7288
368.104	490
368.187	795
368.270	1471
368.353	777
368.437	3145
368.520	9015
368.603	3435
368.687	3340
368.770	8066
368.853	906
368.936	2238
369.020	1526
369.103	280
369.186	-674
369.269	-342
369.352	586
369.436	663
369.519	520
369.602	-1809
369.685	1494
369.768	-833
369.851	133
369.934	-567
370.018	-720
370.101	-836
370.184	2703
370.267	545
370.350	784
370.433	2103
370.516	15145
370.599	41062
370.682	12679
370.765	5553
370.848	6590
370.931	10885
371.014	4804
371.097	-155
371.180	1088
371.263	1126
371.346	-1026
371.429	742
371.511	-223
371.594	850
371.677	2162
371.760	2332
371.843	1931
371.926	20450
372.009	47240
372.091	13682
372.174	4870
372.257	14719
372.340	4474
372.423	2371
372.505	3848
372.588	1135
372.671	3678
372.754	10787
372.836	4557
372.919	3918
373.002	7399
373.085	1353
373.167	2205
373.250	4353
373.332	12435
373.415	24839
373.498	58654
373.580	23900
373.663	70313
373.746	72337
373.828	9534
373.911	3860
373.993	1578
374.076	8060
374.159	6906
374.241	3086
374.324	8995
374.406	6562
374.489	14423
374.571	40196
374.654	12034
374.736	6611
374.819	22698
374.901	38479
374.983	37723
375.066	5823
375.148	1966
375.231	7873
375.313	13263
375.395	3454
375.478	152
375.560	2046
375.643	1650
375.725	6394
375.807	30479
375.890	22983
375.972	6726
376.054	4951
376.136	6375
376.219	2717
376.301	7735
376.383	22002
376.465	6924
376.548	1989
376.630	4454
376.712	16806
376.794	5624
376.877	1086
376.959	-707
377.041	905
377.123	602
377.205	2115
377.287	165
377.369	520
377.452	-250
377.534	225
377.616	193
377.698	-398
377.780	-550
377.862	-169
377.944	790
378.026	-256
378.108	198
378.190	20
378.272	591
378.354	59
378.436	488
378.518	-89
378.600	1449
378.682	2271
378.764	4947
378.846	4132
378.928	474
379.010	585
379.091	1054
379.173	833
379.255	101
379.337	923
379.419	1899
379.501	8523
379.583	2313
379.664	621
379.746	632
379.828	6235
379.910	6229
379.991	7403
380.073	1257
380.155	876
380.237	888
380.318	189
380.400	794
380.482	1464
380.564	876
380.645	1204
380.727	955
380.809	1471
380.890	374
380.972	38
381.053	536
381.135	2540
381.217	1200
381.298	7175
381.380	2896
381.461	4715
381.543	17161
381.624	19243
381.706	3510
381.787	2576
381.869	2950
381.951	11094
382.032	43019
382.113	24835
382.195	3126
382.276	4957
382.358	5885
382.439	17735
382.521	23003
382.602	39184
382.684	16698
382.765	27608
382.846	56939
382.928	133223
383.009	64428
383.090	46092
383.172	184288
383.253	256838
383.334	68628
383.416	36974
383.497	20465
383.578	15998
383.659	35475
383.741	152093
383.822	367969
383.903	165284
383.984	35864
384.066	33251
384.147	17010
384.228	7582
384.309	4938
384.390	4898
384.471	3185
384.553	3612
384.634	3723
384.715	3812
384.796	2808
384.877	3956
384.958	8643
385.039	6951
385.120	3024
385.201	3785
385.282	3103
385.363	4271
385.444	3727
385.525	5789
385.606	13647
385.687	12290
385.768	4401
385.849	3697
385.930	21682
386.011	37701
386.092	8831
386.173	3605
386.254	2829
386.335	2329
386.416	1527
386.496	4148
386.577	6514
386.658	2736
386.739	1705
386.820	3264
386.901	1748
386.981	3905
387.062	3314
387.143	3516
387.224	7368
387.304	7137
387.385	4444
387.466	852
387.547	4074
387.627	2337
387.708	5000
387.789	13929
387.869	15896
387.950	6696
388.031	2820
388.111	683
388.192	4892
388.273	6656
388.353	3563
388.434	2448
388.514	2493
388.595	17569
388.676	18356
388.756	5845
388.837	5872
388.917	3177
388.998	-35
389.078	1828
389.159	940
389.239	-147
389.320	2245
389.400	-68
389.480	3390
389.561	6172
389.641	3999
389.722	973
389.802	453
389.883	3366
389.963	10172
390.043	5825
390.124	1370
390.204	1583
390.284	6611
390.365	2849
390.445	5594
390.525	11887
390.605	10151
390.686	2716
390.766	1380
390.846	2447
390.927	-59
391.007	-397
391.087	763
391.167	1643
391.247	165
391.328	2896
391.408	2705
391.488	1350
391.568	3
391.648	456
391.728	2047
391.808	3217
391.888	1550
391.969	4566
392.049	6218
392.129	4306
392.209	5209
392.289	10887
392.369	6918
392.449	5703
392.529	4485
392.609	6105
392.689	7103
392.769	13380
392.849	13882
392.929	15135
393.009	25040
393.089	31818
393.169	58136
393.248	186834
393.328	533443
393.408	513226
393.488	164693
393.568	51513
393.648	24246
393.728	14662
393.807	9627
393.887	9083
393.967	7437
394.047	5694
394.127	4110
394.206	6379
394.286	15932
394.366	76320
394.446	70530
394.525	11910
394.605	3811
394.685	3201
394.764	6062
394.844	8913
394.924	7925
395.003	2721
395.083	1841
395.163	2237
395.242	2137
395.322	2205
395.402	110
395.481	3388
395.561	4032
395.640	14266
395.720	17481
395.799	14704
395.879	7589
395.958	5673
396.038	21006
396.117	98835
396.197	95055
396.276	20101
396.356	7729
396.435	8516
396.515	11926
396.594	17659
396.673	46366
396.753	181836
396.832	462544
396.912	301333
396.991	69764
397.070	23221
397.150	11661
397.229	9276
397.308	13515
397.388	21761
397.467	9459
397.546	3481
397.625	895
397.705	3935
397.784	2114
397.863	463
397.942	448
398.022	1670
398.101	2602
398.180	9024
398.259	3747
398.338	2145
398.417	380
398.497	-61
398.576	1245
398.655	-390
398.734	824
398.813	724
398.892	3086
398.971	9803
399.050	3288
399.129	-727
399.208	495
399.287	895
399.366	24
399.445	-173
399.524	315
399.603	-851
399.682	303
399.761	2047
399.840	11165
399.919	8313
399.998	397
400.077	-1176
400.156	-1728
400.235	1769
400.313	-1090
400.392	-1775
400.471	3053
400.550	4170
400.629	-834
400.708	310
400.786	-762
400.865	746
400.944	-308
401.023	1424
401.102	-407
401.180	-563
401.259	-598
401.338	-698
401.416	-2
401.495	-725
401.574	-736
401.652	-1569
401.731	198
401.810	-1408
401.888	-1005
401.967	-853
402.046	-1282
402.124	-86
402.203	-1096
402.281	267
402.360	-1489
402.438	1538
402.517	-1082
402.596	103
402.674	-932
402.753	-715
402.831	235
402.910	272
402.988	616
403.066	6008
403.145	2945
403.223	2632
403.302	3780
403.380	3778
403.459	2975
403.537	873
403.615	148
403.694	-1076
403.772	-368
403.850	-186
403.929	-941
404.007	-1100
404.085	1103
404.164	-547
404.242	-733
404.320	1025
404.398	5368
404.477	5760
404.555	23190
404.633	17825
404.711	3331
404.789	1106
404.868	-619
404.946	-1187
405.024	-1086
405.102	-290
405.180	-1489
405.258	-2134
405.336	-634
405.415	-1292
405.493	-75
405.571	573
405.649	-1491
405.727	-1423
405.805	423
405.883	103
405.961	-197
406.039	-487
406.117	-1451
406.195	-288
406.273	1737
406.351	14978
406.429	7521
406.507	-9
406.585	-1544
406.663	-553
406.740	-1222
406.818	-1580
406.896	-1260
406.974	265
407.052	-1476
407.130	7598
407.208	9941
407.285	1980
407.363	-1845
407.441	-653
407.519	-1192
407.596	-573
407.674	-4
407.752	2537
407.830	3120
407.907	112
407.985	-1366
408.063	-32
408.141	-1371
408.218	1045
408.296	-1634
408.373	-1407
408.451	-633
408.529	-641
408.606	-865
408.684	-596
408.762	-896
408.839	-943
408.917	-1024
408.994	-511
409.072	-1907
409.149	-559
409.227	1118
409.304	2147
409.382	2915
409.459	3170
409.537	4451
409.614	3285
409.692	713
409.769	1599
409.846	4915
409.924	6172
410.001	1132
410.079	821
410.156	816
410.233	44
410.311	-992
410.388	-554
410.465	33
410.543	-903
410.620	-402
410.697	402
410.775	84
410.852	-1558
410.929	761
411.006	717
411.083	-490
411.161	-1195
411.238	-520
411.315	-487
411.392	-651
411.469	119
411.547	-852
411.624	-1710
411.701	-771
411.778	-1415
411.855	-848
411.932	-941
412.009	-895
412.086	-901
412.163	43
412.240	-1286
412.317	-464
412.394	-1410
412.471	-1029
412.548	-1395
412.625	-589
412.702	-852
412.779	-290
412.856	67
412.933	-1555
413.010	-356
413.087	-832
413.164	668
413.241	1193
413.318	-866
413.395	-40
413.471	-642
413.548	-718
413.625	-667
413.702	-1650
413.779	-866
413.855	-1208
413.932	-448
414.009	-1555
414.086	-934
414.162	-585
414.239	-236
414.316	539
414.393	5694
414.469	-209
414.546	-1419
414.623	-1455
414.699	-1035
414.776	-1621
414.853	-758
414.929	-823
415.006	-1215
415.082	-604
415.159	-854
415.236	-792
415.312	-470
415.389	-198
415.465	-1459
415.542	-1207
415.618	-1611
415.695	-115
415.771	-1659
415.848	-1243
415.924	-438
416.000	-1115
416.077	-122
416.153	-1801
416.230	-2309
416.306	-1255
416.383	-1049
416.459	-636
416.535	-1314
416.612	-1334
416.688	-1247
416.764	-1036
416.841	-874
416.917	-1019
416.993	-687
417.069	-496
417.146	-836
417.222	-1399
417.298	-702
417.374	-1504
417.451	-79
417.527	-1260
417.603	-2364
417.679	-1502
417.755	-994
417.831	-2289
417.908	-1429
417.984	-1523
418.060	-2115
418.136	-867
418.212	-1364
418.288	-989
418.364	-136
418.440	-2046
418.516	-717
418.592	-506
418.668	180
418.744	-44
418.820	-662
418.896	-1536
418.972	-2119
419.048	-1592
419.124	-147
419.200	-1700
419.276	-1669
419.352	-1383
419.428	-1287
419.504	-1771
419.579	-1040
419.655	-1149
419.731	-759
419.807	-750
419.883	-78
419.959	-154
420.034	-356
420.110	-1248
420.186	1619
420.262	1006
420.337	-897
420.413	-965
420.489	-393
420.565	562
420.640	-454
420.716	-640
420.792	-1652
420.867	-409
420.943	-1392
421.019	-1174
421.094	-680
421.170	-438
421.245	-1052
421.321	-250
421.397	143
421.472	1350
421.548	1186
421.623	1605
421.699	743
421.774	822
421.850	-44
421.925	1810
422.001	2780
422.076	2890
422.152	3696
422.227	5855
422.302	9012
422.378	14535
422.453	27943
422.529	65873
422.604	145779
422.679	185950
422.755	135898
422.830	62632
422.905	29099
422.981	16000
423.056	10116
423.131	6854
423.207	4601
423.282	2670
423.357	2840
423.432	1758
423.508	1568
423.583	1359
423.658	2195
423.733	312
423.808	609
423.883	521
423.959	731
424.034	729
424.109	1907
424.184	-711
424.259	-613
424.334	-405
424.409	-1152
424.484	-709
424.559	-60
424.634	-1540
424.709	-761
424.784	-131
424.859	-1326
424.934	-692
425.009	967
425.084	2121
425.159	-1587
425.234	-107
425.309	-1586
425.384	-728
425.459	-1633
425.534	-698
425.609	-2150
425.683	-1684
425.758	-965
425.833	-1500
425.908	-315
425.983	-558
426.058	2494
426.132	260
426.207	-1274
426.282	-20
426.357	-1425
426.431	-1537
426.506	-935
426.581	-1437
426.655	-1107
426.730	-399
426.805	-1466
426.879	-1526
426.954	-1534
427.029	-383
427.103	3203
427.178	10134
427.253	2365
427.327	-1475
427.402	-1526
427.476	-568
427.551	-1334
427.625	-1457
427.700	-373
427.774	-2569
427.849	-695
427.923	-1794
427.998	-1132
428.072	-1505
428.147	1920
428.221	14052
428.296	49225
428.370	22294
428.444	1644
428.519	-441
428.593	-308
428.667	385
428.742	248
428.816	4122
428.890	30259
428.965	41256
429.039	7369
429.113	301
429.188	-1186
429.262	-537
429.336	-744
429.410	255
429.485	-37
429.559	-57
429.633	-394
429.707	-580
429.781	2973
429.855	27256
429.930	37805
430.004	9266
430.078	7931
430.152	18144
430.226	67505
430.300	58129
430.374	7344
430.448	1700
430.522	2655
430.596	7098
430.670	9516
430.744	41306
430.818	44831
430.892	5196
430.966	-878
431.040	-877
431.114	-2153
431.188	-1593
431.262	-1944
431.336	-2519
431.410	-217
431.484	118
431.557	4
431.631	-1247
431.705	-154
431.779	10657
431.853	46888
431.927	26494
432.000	1773
432.074	-653
432.148	-1333
432.222	-1854
432.295	-1175
432.369	-1451
432.443	-1186
432.516	3682
432.590	10851
432.664	1382
432.737	-1358
432.811	-2405
432.885	-1486
432.958	-1346
433.032	-2159
433.106	-2154
433.179	-1612
433.253	-1156
433.326	-2007
433.400	-1791
433.473	-1260
433.547	-2100
433.620	-1391
433.694	-1891
433.767	-1660
433.841	-2597
433.914	-2067
433.988	-2092
434.061	-1437
434.134	-2191
434.208	-2125
434.281	-2832
434.355	-2329
434.428	-1796
434.501	-2019
434.575	-1612
434.648	-1449
434.721	-2604
434.795	-2669
434.868	-2693
434.941	-1934
435.014	-2415
435.088	-2431
435.161	-497
435.234	405
435.307	-439
435.381	-81
435.454	0
435.527	1565
435.600	1766
435.673	-105
435.746	26
435.819	-854
435.892	-1099
435.966	-1133
436.039	-1635
436.112	-1102
436.185	-1487
436.258	-1468
436.331	-2479
436.404	-1536
436.477	-1832
436.550	-1387
436.623	-2058
436.696	-2103
436.769	-1429
436.842	-1741
436.915	-2412
436.987	-1693
437.060	-1755
437.133	-1789
437.206	-2429
437.279	-2042
437.352	-1853
437.425	-2293
437.498	-1898
437.570	-1674
437.643	-2263
437.716	-1980
437.789	-2060
437.861	-1958
437.934	-2325
438.007	-1402
438.080	-2766
438.152	-2111
438.225	-1122
438.298	6640
438.370	19056
438.443	4446
438.516	-1901
438.588	-1561
438.661	-2302
438.734	-1860
438.806	-1448
438.879	-1972
438.951	-1514
439.024	-1489
439.096	-2508
439.169	-2026
439.241	-1584
439.314	-2199
439.386	-1704
439.459	-1428
439.531	-2149
439.604	-2079
439.676	-1930
439.749	-1857
439.821	-2256
439.893	-1613
439.966	-1759
440.038	-2009
440.110	-1875
440.183	-2426
440.255	-2534
440.327	-1546
440.400	519
440.472	7601
440.544	3116
440.617	-2086
440.689	-990
440.761	-1681
440.833	-1649
440.905	-956
440.978	-2398
441.050	-1901
441.122	-1764
441.194	-2028
441.266	-1456
441.338	-1937
441.411	-1799
441.483	590
441.555	1230
441.627	-1316
441.699	-1688
441.771	-1736
441.843	-1987
441.915	-1454
441.987	-2063
442.059	-1478
442.131	-1750
442.203	-1326
442.275	-831
442.347	788
442.419	3669
442.491	29297
442.563	64275
442.635	21553
442.706	3024
442.778	869
442.850	-271
442.922	-1424
442.994	-1329
443.066	-705
443.137	-1303
443.209	-316
443.281	1980
443.353	6443
443.425	34661
443.496	115119
443.568	104907
443.640	36242
443.711	6070
443.783	520
443.855	-295
443.926	-1191
443.998	-1237
444.070	-1453
444.141	-1793
444.213	-1029
444.285	-967
444.356	-101
444.428	-996
444.499	-1173
444.571	-1822
444.642	-1169
444.714	-1837
444.785	-602
444.857	-1045
444.928	415
445.000	-117
445.071	656
445.143	526
445.214	1220
445.285	3981
445.357	16622
445.428	75025
445.500	147110
445.571	94533
445.642	54361
445.714	14786
445.785	5463
445.856	-356
445.928	-15
445.999	-459
446.070	-483
446.141	-1449
446.213	-326
446.284	-1142
446.355	-1139
446.426	-1274
446.497	-995
446.569	-1375
446.640	-928
446.711	-2501
446.782	-1310
446.853	-1599
446.924	-989
446.995	-1877
447.066	-1596
447.138	-1577
447.209	-1321
447.280	-2352
447.351	-1637
447.422	-2305
447.493	-1802
447.564	-1756
447.635	-1718
447.706	-2650
447.777	-1998
447.847	-1887
447.918	-2347
447.989	-1668
448.060	-818
448.131	-724
448.202	-1057
448.273	-2020
448.344	-1366
448.414	-1731
448.485	-1743
448.556	-1315
448.627	-2318
448.698	-1036
448.768	-2259
448.839	-2230
448.910	-1407
448.981	-1414
449.051	-897
449.122	-2509
449.193	-1508
449.263	-1764
449.334	-1703
449.405	-2079
449.475	-1612
449.546	-1722
449.616	-828
449.687	-1307
449.758	-1606
449.828	-2064
449.899	-2091
449.969	-2180
450.040	-1538
450.110	-2153
450.181	-1890
450.251	-1963
450.322	-1569
450.392	-1562
450.463	-1654
450.533	-1795
450.604	-1786
450.674	-2474
450.744	-1339
450.815	-1573
450.885	-1321
450.955	-1161
451.026	-1565
451.096	-2231
451.166	-1584
451.237	-1299
451.307	-279
451.377	-1722
451.447	-1707
451.518	-2034
451.588	-1841
451.658	-1494
451.728	-1387
451.799	-41
451.869	-327
451.939	-2148
452.009	-1772
452.079	-1898
452.149	-1225
452.219	-1088
452.289	273
452.360	-1019
452.430	-1936
452.500	-1812
452.570	-447
452.640	1592
452.710	7108
452.780	7360
452.850	3429
452.920	192
452.990	-61
453.060	-2025
453.129	-1704
453.199	-1449
453.269	1582
453.339	3643
453.409	5720
453.479	6069
453.549	9506
453.619	8491
453.688	1314
453.758	-1504
453.828	-1532
453.898	-1504
453.968	-2061
454.037	-1535
454.087	-769
454.107	-478
454.168	-2585
454.177	-2929
454.247	-1629
454.249	-1608
454.316	-1833
454.330	-1760
454.386	-1597
454.411	-1535
454.456	-1670
454.492	-1178
454.525	-777
454.574	-961
454.595	-1053
454.655	-1154
454.665	-1196
454.734	-1561
454.736	-1501
454.804	-815
454.817	-557
454.873	27
454.898	390
454.943	868
454.979	-268
455.013	-1259
455.060	-643
455.082	-323
455.141	-494
455.152	-589
455.221	1289
455.222	1356
455.291	2568
455.303	2942
455.360	3805
455.384	4653
455.430	5045
455.465	3527
455.499	2187
455.546	1329
455.569	886
455.627	589
455.638	581
455.707	-700
455.708	-667
455.777	-564
455.789	-496
455.846	-299
455.869	-455
455.916	-841
455.950	-398
455.985	-8
456.031	-80
456.054	-151
456.112	-158
456.124	-183
456.193	19
456.193	-10
456.262	339
456.274	436
456.332	651
456.355	498
456.401	190
456.436	506
456.470	696
456.516	510
456.540	387
456.597	423
456.609	397
456.678	516
456.678	486
456.747	229
456.759	333
456.817	625
456.840	525
456.886	362
456.920	619
456.955	845
457.001	822
457.024	888
457.082	1694
457.093	1691
457.162	2063
457.163	2093
457.232	1201
457.243	1228
457.301	1405
457.324	1361
457.370	1233
457.405	1622
457.439	2112
457.485	2480
457.508	2592
457.566	3344
457.577	3617
457.646	5645
457.647	5703
457.715	14142
457.727	15992
457.784	29366
457.808	37121
457.853	43414
457.889	47394
457.922	41156
457.969	26796
457.991	30443
458.050	44196
458.060	47110
458.129	77461
458.130	78409
458.198	60748
458.211	54698
458.267	28430
458.292	17696
458.336	14109
458.372	13935
458.405	22377
458.453	36209
458.474	47737
458.533	85676
458.543	88069
458.611	117590
458.614	118435
458.680	56639
458.694	41998
458.749	20676
458.775	13483
458.818	9526
458.855	7774
458.887	6729
458.936	5589
458.955	5332
459.016	4752
459.024	4674
459.093	4573
459.097	4547
459.162	3917
459.177	4045
459.230	4251
459.257	4340
459.299	4451
459.338	4086
459.368	3846
459.418	3926
459.437	3866
459.499	3752
459.505	3782
459.574	4206
459.579	4221
459.643	3318
459.659	3212
459.711	3736
459.740	3996
459.780	3984
459.820	4286
459.849	4228
459.900	3778
459.917	3845
459.981	4078
459.986	4054
460.054	4077
460.061	4107
460.123	4259
460.141	4316
460.191	4817
460.222	4928
460.260	4623
460.302	4822
460.328	5121
460.382	4868
460.397	4798
460.462	5329
460.465	5371
460.534	6407
460.543	6593
460.602	13736
460.623	16178
460.671	22356
460.703	27397
460.739	23500
460.783	17338
460.808	13916
460.864	5570
460.876	5399
460.944	5100
460.945	5088
461.013	5198
461.024	5107
461.081	4721
461.104	4786
461.150	4900
461.184	4947
461.218	4863
461.264	4984
461.286	5103
461.345	4912
461.355	4867
461.423	4953
461.425	4949
461.491	4978
461.505	5121
461.559	6018
461.585	6420
461.628	8336
461.665	9762
461.696	9951
461.745	10713
461.764	9705
461.825	5723
461.832	5709
461.901	5921
461.905	5944
461.969	5582
461.985	5445
462.037	5953
462.065	6361
462.105	6287
462.145	6040
462.173	6424
462.225	7173
462.241	7508
462.305	9093
462.310	8957
462.378	6671
462.385	6395
462.446	6137
462.465	6117
462.514	6292
462.545	6456
462.582	6563
462.625	6408
462.650	6281
462.705	6194
462.718	6240
462.785	6410
462.786	6419
462.854	6832
462.865	6882
462.922	7696
462.945	8032
462.990	7260
463.025	6570
463.058	6278
463.104	5818
463.126	5734
463.184	5613
463.194	5694
463.262	6200
463.264	6213
463.330	6566
463.344	6690
463.398	7198
463.424	7215
463.466	6761
463.504	6584
463.533	6761
463.583	6813
463.601	6937
463.663	7499
463.669	7493
463.737	7354
463.743	7308
463.805	8796
463.823	9380
463.873	11707
463.903	13005
463.940	12931
463.982	12659
464.008	11252
464.062	8144
464.076	7925
464.142	6951
464.144	6960
464.211	6810
464.221	6804
464.279	7275
464.301	7449
464.347	7606
464.381	7590
464.414	7687
464.461	8193
464.482	8311
464.540	8065
464.550	8027
464.617	7765
464.620	7750
464.685	8058
464.699	8058
464.753	9274
464.779	9851
464.820	10233
464.859	10559
464.888	9953
464.938	9043
464.956	9342
465.018	10092
465.023	10054
465.091	9425
465.098	9337
465.158	9005
465.177	8902
465.226	9098
465.257	9156
465.293	9015
465.336	8783
465.361	9183
465.416	10152
465.428	10374
465.495	11351
465.496	11392
465.563	14144
465.575	14642
465.631	16406
465.654	17131
465.698	13408
465.734	10085
465.765	9773
465.813	9217
465.833	9051
465.893	8813
465.900	8902
465.968	9307
465.972	9320
466.035	8964
466.052	8823
466.102	8966
466.131	9022
466.170	8927
466.210	8889
466.237	9089
466.290	9300
466.304	9348
466.369	9412
466.372	9438
466.439	9639
466.449	9635
466.506	10321
466.528	10580
466.573	11384
466.607	11914
466.641	14362
466.687	17766
466.708	18882
466.766	21773
466.775	20604
466.842	11487
466.845	11027
466.909	10662
466.925	10557
466.977	10714
467.004	10767
467.044	11106
467.083	11415
467.111	12038
467.163	13084
467.178	13145
467.242	13267
467.245	13306
467.312	13479
467.321	13472
467.379	12669
467.400	12333
467.446	13304
467.480	13957
467.559	12896
467.638	12157
467.717	12606
467.796	13506
467.875	14342
467.955	13454
468.034	16150
468.113	24232
468.192	31692
468.271	21047
468.350	24966
468.429	32231
468.508	33475
468.588	23610
468.667	18664
468.746	14866
468.825	14043
468.904	13180
468.983	13341
469.062	15012
469.141	16201
469.220	11752
469.299	12193
469.378	12196
469.456	13797
469.535	13050
469.614	12781
469.693	12260
469.772	15324
469.851	16800
469.930	14552
470.009	14281
470.088	16534
470.166	21141
470.245	33016
470.324	41028
470.403	28541
470.482	18527
470.560	14661
470.639	13636
470.718	13537
470.797	12107
470.875	12811
470.954	13797
471.033	15197
471.111	11633
471.190	10233
471.269	11217
471.347	12155
471.426	10581
471.505	12434
471.583	12747
471.662	11874
471.740	11451
471.819	11896
471.898	11663
471.976	11963
472.055	12320
472.133	11542
472.212	12631
472.290	11215
472.369	11793
472.447	12008
472.526	12018
472.604	12429
472.683	11504
472.761	12024
472.839	12208
472.918	12208
472.996	12292
473.075	13544
473.153	12312
473.231	10983
473.310	12948
473.388	12739
473.466	12469
473.545	13363
473.623	13659
473.701	12938
473.780	11772
473.858	11553
473.936	13232
474.014	11585
474.093	12621
474.171	14089
474.249	14769
474.327	12992
474.405	11374
474.484	12188
474.562	11371
474.640	11516
474.718	11882
474.796	10968
474.874	12178
474.952	11917
475.030	10962
475.108	10891
475.187	11062
475.265	13335
475.343	13582
475.421	15437
475.499	10903
475.577	12252
475.655	13854
475.733	15049
475.811	19766
475.889	18365
475.966	15350
476.044	12027
476.122	12169
476.200	13311
476.278	12725
476.356	10706
476.434	11528
476.512	12363
476.590	14018
476.667	13081
476.745	10760
476.823	11829
476.901	12007
476.979	11821
477.056	10765
477.134	10909
477.212	10578
477.290	11248
477.367	10957
477.445	11342
477.523	10932
477.601	10669
477.678	10391
477.756	11041
477.834	12178
477.911	10223
477.989	11480
478.066	11643
478.144	11731
478.222	12962
478.299	14910
478.377	14591
478.454	11055
478.532	10661
478.609	10950
478.687	11297
478.764	11046
478.842	11278
478.919	10235
478.997	11509
479.074	10962
479.152	11296
479.229	12404
479.307	10036
479.384	10553
479.461	10503
479.539	11291
479.616	10484
479.694	10391
479.771	11009
479.848	10818
479.926	10222
480.003	13233
480.080	11390
480.157	10587
480.235	10811
480.312	10999
480.389	11644
480.467	11589
480.544	14002
480.621	12070
480.698	11369
480.775	12450
480.853	11887
480.930	11533
481.007	11344
481.084	10973
481.161	12175
481.238	11299
481.315	10797
481.392	10396
481.470	11482
481.547	10662
481.624	10951
481.701	11802
481.778	12372
481.855	11909
481.932	13236
482.009	16495
482.086	14557
482.163	13786
482.240	16707
482.317	19694
482.393	16502
482.470	12510
482.547	13627
482.624	11788
482.701	11868
482.778	11388
482.855	10790
482.932	11309
483.009	12126
483.085	12681
483.162	14455
483.239	15257
483.316	14417
483.393	15862
483.469	13330
483.546	12586
483.623	13384
483.699	11217
483.776	11854
483.853	12034
483.930	13512
484.006	18561
484.083	26292
484.160	20787
484.236	26277
484.313	21954
484.389	18356
484.466	19953
484.543	19910
484.619	23821
484.696	26002
484.772	21221
484.849	19632
484.925	16683
485.002	17442
485.078	17173
485.155	15847
485.231	15215
485.308	15462
485.384	15811
485.461	16894
485.537	19578
485.614	21989
485.690	15447
485.766	14902
485.843	15359
485.919	14888
485.995	15696
486.072	14289
486.148	14476
486.224	13954
486.301	14403
486.377	15923
486.453	14595
486.530	15991
486.606	18651
486.682	18547
486.758	19613
486.835	20064
486.911	18259
486.987	23793
487.063	23264
487.139	22225
487.215	22318
487.292	22400
487.368	23935
487.444	28978
487.520	37292
487.596	49123
487.672	101524
487.748	306234
487.824	453158
487.900	149260
487.976	45498
488.052	28263
488.128	25097
488.204	19626
488.280	18712
488.356	17646
488.432	23650
488.508	28409
488.584	16320
488.660	16680
488.736	14992
488.812	13822
488.888	15811
488.964	15774
489.039	17810
489.115	22676
489.191	17790
489.267	14494
489.343	13896
489.418	12912
489.494	13271
489.570	12640
489.646	14660
489.722	13613
489.797	13383
489.873	16854
489.949	22417
490.024	20767
490.100	12808
490.176	13549
490.251	14032
490.327	14942
490.403	12903
490.478	13130
490.554	12967
490.629	12688
490.705	12510
490.781	12705
490.856	13524
490.932	14324
491.007	14550
491.083	13228
491.158	12497
491.234	14068
491.309	19442
491.385	18254
491.460	11709
491.536	14258
491.611	11380
491.686	13832
491.762	12286
491.837	15196
491.913	18749
491.988	22790
492.063	22936
492.139	16022
492.214	14809
492.289	12589
492.365	12056
492.440	12442
492.515	12512
492.590	12466
492.666	10821
492.741	13712
492.816	13595
492.891	12348
492.967	12292
493.042	12671
493.117	12541
493.192	13702
493.267	17278
493.342	36435
493.418	43630
493.493	15470
493.568	12379
493.643	12186
493.718	12670
493.793	13417
493.868	14025
493.943	11613
494.018	12446
494.093	11715
494.168	13359
494.243	12014
494.318	12893
494.393	13324
494.468	12295
494.543	12691
494.618	13232
494.693	12448
494.768	12213
494.842	13508
494.917	13409
494.992	13660
495.067	12604
495.142	13182
495.217	12442
495.292	12704
495.366	12836
495.441	13060
495.516	14343
495.591	15753
495.665	23339
495.740	34954
495.815	21110
495.890	14536
495.964	12544
496.039	17383
496.114	14925
496.188	16794
496.263	15536
496.338	14111
496.412	14084
496.487	15518
496.561	14969
496.636	14633
496.710	14330
496.785	14117
496.860	14756
496.934	14536
497.009	14836
497.083	14726
497.158	15415
497.232	15795
497.307	17875
497.381	18311
497.455	17671
497.530	17079
497.604	14220
497.679	14457
497.753	16883
497.827	18472
497.902	16795
497.976	19968
498.050	35284
498.125	114578
498.199	104148
498.273	20057
498.348	16816
498.422	17150
498.496	19129
498.570	20438
498.645	13863
498.719	12600
498.793	14987
498.867	17919
498.941	20843
499.016	49134
499.090	115794
499.164	41368
499.238	15661
499.312	15454
499.386	16138
499.460	17750
499.534	19296
499.609	23795
499.683	20810
499.757	15913
499.831	23572
499.905	79627
499.979	65136
500.053	16706
500.127	15888
500.201	13754
500.275	15005
500.349	14919
500.422	17119
500.496	20074
500.570	26711
500.644	56373
500.718	82409
500.792	21641
500.866	12287
500.940	11650
501.013	10688
501.087	11239
501.161	13164
501.235	14171
501.309	27274
501.382	65421
501.456	52197
501.530	15935
501.603	22809
501.677	13278
501.751	8571
501.825	11602
501.898	13795
501.972	28091
502.046	18645
502.119	9815
502.193	15616
502.266	29628
502.340	16597
502.413	17562
502.487	25552
502.561	16845
502.634	9681
502.708	9730
502.781	8698
502.855	9793
502.928	7905
503.002	10155
503.075	8340
503.149	9351
503.222	9520
503.295	9231
503.369	11634
503.442	12363
503.516	24613
503.589	48336
503.662	33707
503.736	20330
503.809	33725
503.882	32285
503.956	50602
504.029	70868
504.102	161014
504.175	228124
504.249	85051
504.322	34036
504.395	20727
504.468	16656
504.542	13093
504.615	10415
504.688	11009
504.761	8662
504.834	10839
504.907	8535
504.980	9967
505.053	7995
505.127	6950
505.200	12138
505.273	9574
505.346	9075
505.419	7801
505.492	9444
505.565	7752
505.638	7865
505.711	7333
505.784	6900
505.857	7469
505.930	9590
506.003	6891
506.076	9919
506.149	7227
506.221	7758
506.294	9903
506.367	13005
506.440	34538
506.513	19492
506.586	9197
506.659	7028
506.731	7021
506.804	7217
506.877	7657
506.950	8357
507.022	8175
507.095	6650
507.168	8553
507.241	8438
507.313	6397
507.386	6304
507.459	8950
507.531	7279
507.604	6877
507.677	7960
507.749	5559
507.822	8759
507.894	9492
507.967	11800
508.040	8154
508.112	9527
508.185	8508
508.257	7142
508.330	10201
508.402	7452
508.475	8333
508.547	9602
508.620	8292
508.692	10771
508.765	8984
508.837	7737
508.909	8151
508.982	7599
509.054	9326
509.127	6936
509.199	7537
509.271	6582
509.344	7298
509.416	7256
509.488	7812
509.560	9163
509.633	7655
509.705	8661
509.777	9274
509.849	10050
509.922	8492
509.994	9536
510.066	9701
510.138	7497
510.210	14780
510.283	10642
510.355	9994
510.427	9481
510.499	9230
510.571	8357
510.643	8115
510.715	10527
510.787	8028
510.859	9904
510.931	9120
511.003	9817
511.076	10404
511.148	8135
511.219	9187
511.291	12289
511.363	11607
511.435	9077
511.507	7987
511.579	9144
511.651	9165
511.723	8503
511.795	7326
511.867	7997
511.939	8891
512.010	11021
512.082	11040
512.154	7993
512.226	8564
512.298	11069
512.369	10339
512.441	11215
512.513	9729
512.585	7257
512.656	10428
512.728	9373
512.800	7452
512.871	9731
512.943	9414
513.015	7720
513.086	8302
513.158	8473
513.230	7256
513.301	8670
513.373	9486
513.444	9228
513.516	7408
513.588	7543
513.659	8369
513.731	8394
513.802	7261
513.874	10863
513.945	11462
514.016	7649
514.088	9130
514.159	7650
514.231	9635
514.302	11098
514.374	9641
514.445	8243
514.516	13747
514.588	10846
514.659	9411
514.730	11795
514.802	10660
514.873	8036
514.944	11029
515.016	9364
515.087	8566
515.158	10447
515.229	12407
515.301	8390
515.372	9136
515.443	8488
515.514	9286
515.585	7570
515.656	9859
515.728	9842
515.799	8198
515.870	10096
515.941	10469
516.012	9196
516.083	13625
516.154	12377
516.225	14824
516.296	18892
516.367	19438
516.438	23917
516.509	30174
516.580	44624
516.651	151002
516.722	485804
516.793	168183
516.864	38640
516.935	38465
517.006	46303
517.077	56784
517.148	122304
517.219	539761
517.289	746456
517.360	136214
517.431	41651
517.502	22693
517.573	20396
517.643	18249
517.714	19128
517.785	21864
517.856	23397
517.926	31637
517.997	37555
518.068	48496
518.138	66668
518.209	100991
518.280	351178
518.350	1051363
518.421	421810
518.492	77549
518.562	48078
518.633	49308
518.703	59121
518.774	116714
518.845	288574
518.915	248072
518.986	71742
519.056	35067
519.127	27686
519.197	25988
519.268	41963
519.338	29388
519.408	15148
519.479	11953
519.549	11289
519.620	13391
519.690	10849
519.760	9678
519.831	9162
519.901	9205
519.971	10543
520.042	8995
520.112	9503
520.182	10234
520.253	10728
520.323	9482
520.393	8790
520.463	13005
520.534	8346
520.604	15139
520.674	10776
520.744	9848
520.814	13200
520.885	12554
520.955	16622
521.025	44128
521.095	18707
521.165	9999
521.235	8096
521.305	8529
521.375	8783
521.445	9548
521.515	7217
521.585	9535
521.655	7152
521.725	9833
521.795	9085
521.865	6353
521.935	10692
522.005	8197
522.075	7238
522.145	9389
522.215	8213
522.285	9454
522.355	10861
522.424	14770
522.494	11490
522.564	9392
522.634	11249
522.704	19461
522.774	10786
522.843	8294
522.913	8106
522.983	8818
523.053	7354
523.122	8978
523.192	8020
523.262	11764
523.331	11474
523.401	8831
523.471	8317
523.540	8952
523.610	7857
523.680	8651
523.749	9198
523.819	8888
523.888	8244
523.958	9877
524.027	8518
524.097	9239
524.166	8471
524.236	8083
524.305	10164
524.375	7573
524.444	7137
524.514	10684
524.583	7882
524.653	8306
524.722	9942
524.791	7760
524.861	9396
524.930	7105
524.999	7847
525.069	10612
525.138	9022
525.207	9476
525.277	11094
525.346	10043
525.415	10727
525.484	11659
525.554	12752
525.623	16287
525.692	18484
525.761	21893
525.830	27715
525.900	36066
525.969	54158
526.038	93050
526.107	197543
526.176	540889
526.245	384356
526.314	120074
526.383	274492
526.452	333837
526.522	515283
526.591	422296
526.660	76807
526.729	51949
526.797	57786
526.867	75843
526.935	228127
527.004	756461
527.073	423735
527.142	59942
527.211	29041
527.280	21333
527.349	16002
527.418	10962
527.487	13437
527.555	10681
527.624	9777
527.693	9115
527.762	10202
527.831	8019
527.899	9877
527.968	8379
528.037	7313
528.106	8638
528.174	10190
528.243	9596
528.312	10566
528.380	10930
528.449	7118
528.518	10449
528.586	6606
528.655	8031
528.723	8146
528.792	8012
528.861	8042
528.929	7543
528.998	9466
529.066	11133
529.135	14249
529.203	12762
529.272	15783
529.340	18988
529.409	18350
529.477	15775
529.545	16004
529.614	18987
529.682	19453
529.751	21601
529.819	24856
529.887	25536
529.956	22744
530.024	23551
530.092	20828
530.161	21079
530.229	21657
530.297	22864
530.365	22045
530.434	24089
530.502	23912
530.570	22427
530.638	19328
530.707	18800
530.775	20328
530.843	18895
530.911	20998
530.979	20606
531.047	22986
531.115	22159
531.183	19582
531.252	19533
531.320	18553
531.388	19221
531.456	22681
531.524	21077
531.592	24030
531.660	28029
531.728	23436
531.796	21642
531.864	22382
531.932	22266
532.000	22942
532.067	25054
532.135	25111
532.203	27634
532.271	29121
532.339	30281
532.407	31602
532.475	28082
532.542	26239
532.610	26651
532.678	26560
532.746	36945
532.814	50778
532.881	31477
532.949	27698
533.017	25346
533.084	24283
533.152	23760
533.220	23341
533.287	23206
533.355	24721
533.423	25184
533.490	25720
533.558	24888
533.625	24095
533.693	23376
533.761	22921
533.828	22008
533.896	23004
533.963	28899
534.031	28832
534.098	31383
534.166	28648
534.233	26978
534.300	29443
534.368	27681
534.435	25975
534.503	27524
534.570	30624
534.637	32752
534.705	35421
534.772	39687
534.840	62887
534.907	247619
534.974	258082
535.041	41579
535.109	27371
535.176	23664
535.243	23207
535.310	22435
535.378	21568
535.445	21186
535.512	21774
535.579	20261
535.646	19727
535.714	21038
535.781	23632
535.848	22611
535.915	23959
535.982	24805
536.049	22893
536.116	22875
536.183	19715
536.250	19717
536.317	19803
536.384	20388
536.451	20801
536.518	21550
536.585	18034
536.652	21434
536.719	21722
536.786	17592
536.853	18144
536.920	19745
536.987	21199
537.053	18921
537.120	29985
537.187	28058
537.254	19749
537.321	19942
537.388	20143
537.454	18299
537.521	18660
537.588	18152
537.654	19122
537.721	19866
537.788	19530
537.855	18185
537.921	19668
537.988	18091
538.055	18630
538.121	15371
538.188	16662
538.254	16474
538.321	18674
538.388	17661
538.454	18787
538.521	18737
538.587	19282
538.654	18609
538.720	18294
538.787	18247
538.853	18231
538.920	18016
538.986	16736
539.053	16211
539.119	16847
539.185	15864
539.252	18402
539.318	18473
539.385	20270
539.451	18525
539.517	19235
539.583	17797
539.650	19367
539.716	23244
539.782	17305
539.849	15405
539.915	16937
539.981	15953
540.047	15545
540.114	16766
540.180	18213
540.246	16405
540.312	19194
540.378	18646
540.444	20249
540.510	19896
540.576	25281
540.643	17304
540.709	15259
540.775	16604
540.841	15662
540.907	16975
540.973	18694
541.039	18437
541.105	17372
541.171	16903
541.237	17604
541.303	17762
541.369	19473
541.435	17276
541.500	18308
541.566	15421
541.632	15590
541.698	16216
541.764	17462
541.830	16323
541.896	15658
541.961	15984
542.027	15189
542.093	18563
542.159	17481
542.224	14789
542.290	17668
542.356	17228
542.421	17596
542.487	15705
542.553	14961
542.618	15293
542.684	15245
542.750	15730
542.815	17400
542.881	17828
542.947	23880
543.012	21744
543.078	16446
543.143	14382
543.209	15981
543.274	14853
543.340	15994
543.405	17490
543.471	19384
543.536	17201
543.602	16255
543.667	15378
543.732	17239
543.798	14581
543.863	16417
543.928	15971
543.994	15357
544.059	16579
544.124	17596
544.190	16501
544.255	18679
544.320	16535
544.386	16364
544.451	18992
544.516	17250
544.581	17522
544.646	22761
544.712	25387
544.777	19228
544.842	18837
544.907	18489
544.972	17659
545.037	18167
545.102	20288
545.168	19760
545.233	20654
545.298	20805
545.363	20254
545.428	22124
545.493	23336
545.558	25181
545.623	22604
545.688	21230
545.753	22355
545.818	22625
545.883	24201
545.947	23709
546.012	24914
546.077	25641
546.142	28541
546.207	27482
546.272	28358
546.337	29128
546.401	31445
546.466	31610
546.531	31313
546.596	36005
546.661	36977
546.725	38951
546.790	40320
546.855	44650
546.919	47415
546.984	52921
547.049	57700
547.113	65240
547.178	71356
547.243	80721
547.307	92797
547.372	101092
547.436	101499
547.501	106788
547.565	114192
547.630	102770
547.695	100879
547.759	101413
547.823	102567
547.888	105284
547.952	107267
548.017	110366
548.081	112381
548.146	112126
548.210	115661
548.274	123951
548.339	119996
548.403	110547
548.468	103306
548.532	103343
548.596	105077
548.660	105247
548.725	115495
548.789	122936
548.853	120124
548.917	115419
548.982	111334
549.046	101069
549.110	89931
549.174	96087
549.238	111917
549.303	120197
549.367	124664
549.431	116651
549.495	109823
549.559	110929
549.623	131095
549.687	139928
549.751	137754
549.815	164244
549.879	163415
549.943	157067
550.007	166156
550.071	161797
550.135	142684
550.199	137901
550.263	134383
550.327	127818
550.391	134866
550.455	147683
550.519	153786
550.582	163559
550.646	184406
550.710	183812
550.774	183013
550.838	185328
550.901	190838
550.965	201023
551.029	208348
551.093	218939
551.156	235257
551.220	257409
551.284	266379
551.347	217829
551.411	197954
551.475	192396
551.538	193897
551.602	179403
551.666	171020
551.729	159630
551.793	156223
551.856	152750
551.920	149784
551.983	149907
552.047	147837
552.110	152252
552.174	150182
552.237	155144
552.301	141942
552.364	136854
552.428	132538
552.491	139477
552.554	140460
552.618	142897
552.681	144916
552.745	140558
552.808	164863
552.871	183343
552.934	155508
552.998	142007
553.061	138390
553.124	131811
553.187	131310
553.251	135218
553.314	134332
553.377	135434
553.440	146615
553.503	164046
553.567	170995
553.630	148187
553.693	144382
553.756	143938
553.819	138662
553.882	132419
553.945	132084
554.008	133797
554.071	134511
554.134	135832
554.197	126126
554.260	124013
554.323	128128
554.386	129376
554.449	132727
554.512	133597
554.575	126013
554.638	126214
554.701	124135
554.764	124070
554.827	118877
554.889	113824
554.952	106735
555.015	104872
555.078	108132
555.141	108961
555.203	104943
555.266	106219
555.329	103816
555.391	101965
555.454	100134
555.517	94962
555.580	91029
555.642	89970
555.705	88294
555.768	87412
555.830	85252
555.893	80273
555.955	78903
556.018	77057
556.080	77962
556.143	80853
556.206	78969
556.268	77181
556.330	74813
556.393	72431
556.455	72086
556.518	71150
556.580	67729
556.643	64933
556.705	64143
556.767	61992
556.830	62059
556.892	61574
556.955	60836
557.017	58318
557.079	57534
557.142	55587
557.204	56700
557.266	56133
557.328	51987
557.391	48287
557.453	47293
557.515	49066
557.577	49096
557.639	49839
557.701	49250
557.764	49292
557.826	50799
557.888	52679
557.950	53792
558.012	59217
558.074	71131
558.136	156257
558.198	319734
558.260	103563
558.322	55272
558.384	54787
558.446	58810
558.508	63795
558.570	73104
558.632	82641
558.694	101360
558.756	159431
558.818	433258
558.880	834819
558.942	328173
559.003	346720
559.065	148904
559.127	73368
559.189	69680
559.251	75329
559.312	102790
559.374	238768
559.436	645106
559.498	286407
559.559	80015
559.621	68520
559.683	76513
559.744	121247
559.806	372953
559.868	464345
559.929	102537
559.991	75715
560.052	120925
560.114	318047
560.176	172047
560.237	192217
560.299	263172
560.360	54708
560.422	31075
560.483	26709
560.545	25546
560.606	24815
560.667	22676
560.729	21566
560.790	20695
560.852	20649
560.913	20455
560.974	19994
561.036	19852
561.097	20198
561.158	19793
561.220	20114
561.281	18196
561.342	18804
561.403	19370
561.465	18620
561.526	20966
561.587	21166
561.648	16361
561.709	16507
561.771	17082
561.832	15753
561.893	15756
561.954	15970
562.015	16605
562.076	15958
562.137	15612
562.198	15399
562.259	15943
562.320	16375
562.381	15491
562.442	15747
562.503	14555
562.564	14226
562.625	14040
562.686	15067
562.747	14010
562.808	14998
562.869	14178
562.930	13494
562.991	14095
563.051	13919
563.112	13916
563.173	14210
563.234	13233
563.294	13660
563.355	13112
563.416	13816
563.477	13764
563.537	12546
563.598	13359
563.659	12907
563.720	13220
563.780	12624
563.841	13816
563.901	12685
563.962	12717
564.023	13070
564.083	13510
564.144	13102
564.204	13085
564.265	12556
564.325	13377
564.386	14491
564.446	14424
564.507	11763
564.567	12314
564.628	11134
564.688	11496
564.749	11689
564.809	12808
564.869	12504
564.930	11837
564.990	12169
565.050	11978
565.111	11917
565.171	11851
565.231	12085
565.292	12951
565.352	11608
565.412	12375
565.472	11803
565.532	12141
565.593	11602
565.653	12599
565.713	11386
565.773	12842
565.833	12186
565.893	12465
565.953	11500
566.013	11085
566.074	11685
566.134	11526
566.194	12990
566.254	12752
566.314	11057
566.374	11480
566.434	10868
566.494	10760
566.554	10319
566.614	11504
566.673	11465
566.733	11252
566.793	11520
566.853	12993
566.913	11029
566.973	12082
567.033	11903
567.092	10532
567.152	12467
567.212	11849
567.272	11266
567.331	12277
567.391	11378
567.451	13402
567.511	13785
567.570	12967
567.630	13207
567.690	11894
567.749	10646
567.809	11571
567.868	11189
567.928	11188
567.988	11429
568.047	10507
568.107	11172
568.166	12588
568.226	12563
568.285	13906
568.345	13078
568.404	12807
568.464	12065
568.523	12426
568.582	11840
568.642	11992
568.701	12381
568.761	12668
568.820	12802
568.879	14213
568.939	13203
568.998	12749
569.057	11461
569.116	12170
569.176	11015
569.235	11910
569.294	11166
569.353	10690
569.413	11554
569.472	10865
569.531	10978
569.590	10666
569.649	11294
569.708	9922
569.767	11649
569.827	10770
569.886	10717
569.945	10745
570.004	10361
570.063	10784
570.122	11808
570.181	11434
570.240	11353
570.299	11715
570.358	11718
570.417	11629
570.475	12600
570.534	11353
570.593	11426
570.652	12187
570.711	11298
570.770	11723
570.829	11260
570.887	11296
570.946	11859
571.005	11466
571.064	12591
571.122	14032
571.181	11945
571.240	11026
571.299	11505
571.357	10661
571.416	11363
571.475	10955
571.533	11615
571.592	11083
571.650	11496
571.709	11396
571.768	12965
571.826	13451
571.885	12203
571.943	11743
572.002	11305
572.060	10763
572.119	10453
572.177	11206
572.236	10750
572.294	10800
572.352	11595
572.411	11149
572.469	10433
572.528	10285
572.586	10525
572.644	11092
572.703	11117
572.761	9772
572.819	9698
572.877	9782
572.936	9131
572.994	9317
573.052	9738
573.110	9703
573.169	10819
573.227	9904
573.285	11036
573.343	9920
573.401	9438
573.459	10019
573.517	10895
573.576	9743
573.634	9875
573.692	9949
573.750	9783
573.808	9506
573.866	9838
573.924	10197
573.982	9986
574.040	9761
574.098	9732
574.155	8971
574.213	9525
574.271	9617
574.329	10028
574.387	8612
574.445	9370
574.503	8994
574.560	8017
574.618	8571
574.676	8742
574.734	9287
574.792	9837
574.849	8669
574.907	8222
574.965	8654
575.022	7630
575.080	7523
575.138	7587
575.195	8292
575.253	7958
575.311	8115
575.368	8071
575.426	7375
575.483	7854
575.541	8349
575.598	8535
575.656	8281
575.713	7519
575.771	8732
575.828	7465
575.886	7377
575.943	8382
576.001	7490
576.058	7058
576.115	7633
576.173	8351
576.230	7895
576.287	7559
576.345	8881
576.402	7935
576.459	7992
576.517	7761
576.574	7350
576.631	7853
576.688	7241
576.746	7301
576.803	6526
576.860	7288
576.917	7143
576.974	7846
577.031	8503
577.089	7068
577.146	7046
577.203	6380
577.260	7417
577.317	7879
577.374	7217
577.431	7349
577.488	7071
577.545	6756
577.602	7252
577.659	7030
577.716	7889
577.773	8048
577.830	6943
577.886	7779
577.943	7684
578.000	7053
578.057	7571
578.114	8657
578.171	9528
578.227	11686
578.284	11083
578.341	9723
578.398	8070
578.454	8401
578.511	8033
578.568	8545
578.625	6425
578.681	6920
578.738	6602
578.794	7241
578.851	7069
578.908	6797
578.964	7417
579.021	7994
579.077	6385
579.134	6918
579.190	7050
579.247	7524
579.303	6806
579.360	7115
579.416	8303
579.473	6801
579.529	7228
579.586	7489
579.642	7418
579.698	8094
579.755	8016
579.811	7933
579.867	7960
579.924	8345
579.980	8669
580.036	10298
580.093	12153
580.149	16931
580.205	17026
580.261	12723
580.317	11210
580.374	10023
580.430	9694
580.486	8939
580.542	8722
580.598	8125
580.619	8643
580.654	9553
580.692	9247
580.710	9120
580.765	9049
580.767	9059
580.823	8425
580.838	8592
580.879	9060
580.911	8965
580.935	8922
580.984	8830
580.991	8838
581.047	9063
581.057	9043
581.103	8951
581.130	9739
581.159	10603
581.203	10613
581.215	10633
581.270	9885
581.276	9807
581.326	9151
581.349	8996
581.382	8776
581.422	8882
581.438	8951
581.494	9226
581.494	9203
581.550	7802
581.567	8099
581.606	8708
581.640	8459
581.661	8312
581.713	9345
581.717	9442
581.773	8412
581.786	8387
581.829	8265
581.859	8607
581.885	8995
581.932	8806
581.940	8759
581.996	9240
582.004	9335
582.052	9824
582.077	9122
582.107	8366
582.150	9376
582.163	9690
582.219	9337
582.223	9330
582.274	9330
582.296	8916
582.330	8194
582.368	8818
582.386	9247
582.441	9153
582.441	9156
582.497	9037
582.514	8911
582.552	8903
582.587	9513
582.608	9834
582.659	9250
582.663	9207
582.719	10142
582.732	10015
582.774	9710
582.805	9896
582.830	10048
582.877	10588
582.885	10658
582.941	10121
582.950	10330
582.996	11456
583.023	12436
583.052	13671
583.095	13743
583.107	13711
583.162	14188
583.168	14152
583.218	13711
583.240	12569
583.273	10899
583.313	10341
583.328	10281
583.384	10291
583.385	10279
583.439	9226
583.458	9105
583.494	9198
583.531	9745
583.549	10003
583.603	8812
583.605	8775
583.660	8619
583.676	8801
583.715	9100
583.748	8951
583.770	8824
583.820	8762
583.825	8774
583.881	8811
583.893	8683
583.936	8216
583.965	8006
583.991	7767
584.038	8207
584.046	8285
584.101	8296
584.110	8303
584.156	8620
584.183	8792
584.211	8649
584.255	8802
584.266	8928
584.321	9043
584.328	9004
584.376	8411
584.400	8635
584.431	9027
584.472	8778
584.486	8608
584.541	9264
584.545	9260
584.596	9263
584.617	9216
584.651	9428
584.689	9361
584.706	9052
584.761	9443
584.762	9454
584.816	10281
584.834	10356
584.871	10489
584.906	10596
584.926	10534
584.978	10439
584.980	10437
585.035	11605
585.051	11928
585.090	12794
585.123	13793
585.145	14294
585.195	15036
585.200	15154
585.254	17546
585.267	18442
585.309	21007
585.340	22583
585.364	24016
585.412	27276
585.419	27709
585.473	32781
585.484	34326
585.528	42581
585.556	52645
585.583	68984
585.628	114714
585.637	128367
585.692	270178
585.700	291421
585.747	368392
585.772	292220
585.801	171934
585.845	62813
585.856	46611
585.910	26425
585.917	24786
585.965	19445
585.989	17672
586.019	15782
586.061	14235
586.074	13763
586.128	12829
586.133	12736
586.183	11604
586.205	11533
586.237	11547
586.277	11149
586.292	11077
586.346	11472
586.349	11480
586.401	11182
586.421	11171
586.455	10840
586.493	10761
586.509	10967
586.564	11262
586.565	11327
586.618	13622
586.637	13983
586.672	14159
586.709	14617
586.727	14916
586.781	15825
586.781	15800
586.835	12528
586.853	11897
586.889	10673
586.925	9579
586.944	9259
586.996	9131
586.998	9111
587.052	9238
587.068	9382
587.106	9682
587.140	9315
587.161	9083
587.212	9704
587.215	9708
587.269	9427
587.284	9422
587.323	9378
587.356	9912
587.377	10285
587.427	10647
587.431	10632
587.485	10303
587.499	10325
587.539	10436
587.571	10520
587.593	10562
587.643	10898
587.648	10918
587.702	11175
587.715	11297
587.755	11192
587.786	11398
587.810	11319
587.858	10466
587.864	10441
587.917	11607
587.930	11551
587.971	11360
588.001	11640
588.025	11417
588.073	11567
588.079	11689
588.133	12470
588.145	12767
588.187	12637
588.217	12637
588.241	13065
588.288	14234
588.295	14290
588.348	14940
588.360	15110
588.402	15858
588.431	16624
588.456	17083
588.503	18164
588.510	18334
588.564	20424
588.575	21113
588.617	23222
588.646	24686
588.671	25976
588.718	29824
588.725	30545
588.778	39033
588.789	42266
588.832	66977
588.861	89174
588.886	128978
588.932	222712
588.939	231369
588.993	278739
589.004	272785
589.047	141366
589.075	67797
589.100	46619
589.147	28062
589.154	26937
589.207	23551
589.218	23241
589.261	23291
589.290	24160
589.314	24756
589.361	27853
589.368	28964
589.421	41399
589.433	45539
589.475	83083
589.504	117165
589.528	156893
589.576	234985
589.582	228122
589.635	106514
589.647	83429
589.689	39737
589.718	20169
589.742	17494
589.790	13870
589.795	13667
589.849	13232
589.861	13394
589.902	13281
589.932	12867
589.955	12080
590.004	10838
590.009	10734
590.062	10379
590.075	10349
590.115	10276
590.146	10154
590.168	10052
590.218	10241
590.222	10146
590.275	9493
590.289	9296
590.328	9769
590.360	10349
590.381	10323
590.431	10538
590.435	10489
590.488	10094
590.503	10087
590.541	10337
590.574	10608
590.594	10452
590.645	10449
590.647	10399
590.700	9981
590.716	10002
590.753	10225
590.787	10562
590.806	10822
590.859	11516
590.859	11463
590.912	11294
590.930	11347
590.965	11650
591.001	11970
591.018	11683
591.071	10794
591.072	10838
591.124	10792
591.143	10776
591.177	10584
591.214	10559
591.230	10705
591.283	11618
591.285	11697
591.336	10798
591.356	10572
591.389	11060
591.427	11712
591.442	11419
591.495	10451
591.498	10443
591.547	10669
591.569	10895
591.600	10881
591.640	10889
591.653	10824
591.706	10916
591.711	10984
591.759	11479
591.782	11803
591.811	12015
591.853	12528
591.864	12504
591.917	12574
591.924	12661
591.969	12173
591.995	11958
592.022	11715
592.066	11512
592.075	11452
592.127	11544
592.137	11640
592.180	12201
592.208	12658
592.233	12299
592.279	11861
592.285	11884
592.338	12779
592.350	13049
592.390	12357
592.421	12007
592.443	12033
592.491	12335
592.495	12306
592.548	13070
592.562	13365
592.600	13038
592.633	12920
592.653	12598
592.704	11932
592.705	12002
592.775	12268
592.846	14068
592.916	13509
592.987	13741
593.058	12727
593.128	12847
593.199	13820
593.270	13206
593.341	14313
593.411	14694
593.482	14977
593.553	16014
593.623	15171
593.694	15740
593.764	16467
593.835	14714
593.906	16346
593.976	15944
594.047	15908
594.117	18576
594.188	18164
594.258	16885
594.329	17291
594.399	17989
594.470	19074
594.540	20107
594.611	19655
594.681	19858
594.751	19025
594.822	21281
594.892	21836
594.963	22054
595.033	23055
595.103	22621
595.174	22909
595.244	24447
595.314	25227
595.384	24903
595.455	26646
595.525	26267
595.595	28054
595.665	28150
595.736	26956
595.806	28255
595.876	27899
595.946	29283
596.016	29591
596.087	30520
596.157	30522
596.227	30050
596.297	34042
596.367	34284
596.437	36728
596.507	37921
596.577	37816
596.647	36671
596.717	39229
596.787	38980
596.857	39608
596.927	40604
596.997	40047
597.067	41424
597.137	41247
597.207	42434
597.277	42583
597.347	40673
597.417	38929
597.487	40317
597.557	41106
597.626	40397
597.696	42083
597.766	43087
597.836	40104
597.906	37522
597.975	37008
598.045	37067
598.115	38530
598.185	42483
598.254	46384
598.324	52142
598.394	51245
598.464	50701
598.533	49491
598.603	46580
598.672	44917
598.742	46139
598.812	46537
598.881	47108
598.951	47455
599.020	49024
599.090	50291
599.159	51702
599.229	48678
599.299	48025
599.368	49707
599.437	49949
599.507	45627
599.576	44711
599.646	43476
599.715	43115
599.785	42305
599.854	41790
599.924	40968
599.993	40375
600.062	41871
600.132	44021
600.201	46394
600.270	54084
600.340	56211
600.409	54671
600.478	52442
600.547	55903
600.617	49505
600.686	40571
600.755	37658
600.824	37180
600.894	34923
600.963	36715
601.032	35158
601.101	35366
601.170	33847
601.239	33868
601.308	33256
601.378	33822
601.447	34049
601.516	33708
601.585	35431
601.654	34813
601.723	35945
601.792	36225
601.861	37544
601.930	41291
601.999	40672
602.068	40082
602.137	40188
602.206	40769
602.275	41233
602.343	41797
602.412	42170
602.481	43205
602.550	42478
602.619	43473
602.688	44688
602.756	45206
602.825	44966
602.894	46387
602.963	46953
603.032	47788
603.100	46741
603.169	46914
603.238	48411
603.307	47986
603.375	48951
603.444	51326
603.513	49823
603.581	50036
603.650	51143
603.719	48035
603.787	48787
603.856	49305
603.924	51179
603.993	53656
604.061	54193
604.130	56855
604.198	57953
604.267	58582
604.335	60837
604.404	60493
604.472	62405
604.541	63688
604.609	63768
604.678	65193
604.746	65091
604.815	68093
604.883	67369
604.951	67453
605.020	68339
605.088	68117
605.156	68621
605.225	70108
605.293	69545
605.361	69594
605.429	70436
605.498	73071
605.566	73578
605.634	77458
605.702	79271
605.771	81411
605.839	80948
605.907	78532
605.975	77161
606.043	75171
606.111	75703
606.180	76266
606.248	73223
606.316	72597
606.384	73034
606.452	71512
606.520	71488
606.588	73192
606.656	73452
606.724	72379
606.792	68676
606.860	62291
606.928	55778
606.996	53532
607.064	51750
607.132	54818
607.200	57718
607.267	59681
607.335	61364
607.403	61827
607.471	59444
607.539	58263
607.607	59289
607.674	50421
607.742	51018
607.810	51684
607.878	51458
607.946	52605
608.013	55675
608.081	56130
608.149	57068
608.216	59167
608.284	60386
608.352	60563
608.419	58475
608.487	60516
608.555	56271
608.622	59052
608.690	64374
608.757	70751
608.825	71908
608.893	68625
608.960	64239
609.028	62491
609.095	64628
609.163	60943
609.230	53979
609.298	51045
609.365	52577
609.432	57513
609.500	62475
609.567	72974
609.635	81677
609.702	86380
609.769	82456
609.837	63795
609.904	54438
609.971	56946
610.039	67728
610.106	93267
610.173	186660
610.241	418858
610.308	203290
610.375	76039
610.442	60144
610.509	57603
610.577	57349
610.644	59606
610.711	60506
610.778	60985
610.845	65030
610.912	68734
610.980	71942
611.047	71713
611.114	70806
611.181	67927
611.248	65716
611.315	73806
611.382	73070
611.449	77350
611.516	78089
611.583	75617
611.650	76638
611.717	78994
611.784	80341
611.851	83933
611.918	91078
611.984	109415
612.051	160958
612.118	334418
612.185	773383
612.252	423528
612.319	125106
612.386	103986
612.452	92923
612.519	89399
612.586	87130
612.653	89313
612.719	90991
612.786	87490
612.853	79431
612.919	78196
612.986	79905
613.053	74717
613.120	69008
613.186	66441
613.253	69200
613.319	67733
613.386	68180
613.453	69406
613.519	70267
613.586	68850
613.652	70984
613.719	69232
613.785	70396
613.852	71157
613.918	69459
613.985	72025
614.051	75386
614.118	78450
614.184	74050
614.250	71270
614.317	72742
614.383	71307
614.449	72837
614.516	71774
614.582	73308
614.648	69156
614.715	69921
614.781	68003
614.847	71027
614.914	67524
614.980	66638
615.046	66944
615.112	68372
615.179	69063
615.245	70080
615.311	69217
615.377	69849
615.443	70589
615.509	72113
615.575	74411
615.642	73245
615.708	77040
615.774	79386
615.840	85545
615.906	93857
615.972	116664
616.038	184345
616.104	398445
616.170	894267
616.236	652791
616.302	179589
616.368	139179
616.434	96873
616.500	91435
616.565	105624
616.631	132595
616.697	101832
616.763	110447
616.829	177794
616.895	323113
616.961	275444
617.026	110280
617.092	79026
617.158	73667
617.224	71077
617.289	65890
617.355	62961
617.421	60320
617.487	61784
617.552	58720
617.618	57579
617.684	56432
617.749	60250
617.815	55868
617.880	54512
617.946	55386
618.012	56153
618.077	55068
618.143	54869
618.208	55017
618.274	58975
618.339	58669
618.405	48185
618.470	49946
618.536	49787
618.601	47989
618.667	43375
618.732	41620
618.798	40988
618.863	40879
618.928	39474
618.994	40893
619.059	41511
619.124	42614
619.190	40706
619.255	39593
619.320	40140
619.386	41398
619.451	40155
619.516	39244
619.581	40371
619.647	40124
619.712	39101
619.777	38860
619.842	39966
619.907	40441
619.972	41044
620.038	40362
620.103	38293
620.168	39005
620.233	40051
620.298	40538
620.363	40294
620.428	42243
620.493	43016
620.558	42790
620.623	43605
620.688	44096
620.753	43766
620.818	42886
620.883	44330
620.948	44846
621.013	42257
621.078	42253
621.143	41471
621.207	45671
621.272	42674
621.337	40324
621.402	42272
621.467	41562
621.532	41274
621.596	40763
621.661	38859
621.726	39407
621.791	40929
621.855	39788
621.920	40884
621.985	39574
622.049	42148
622.114	41434
622.179	41648
622.243	42461
622.308	43388
622.373	47252
622.437	44673
622.502	41545
622.566	41741
622.631	40898
622.695	43153
622.760	40365
622.824	42047
622.889	41582
622.953	40842
623.018	46053
623.082	46717
623.147	44453
623.211	45184
623.276	44039
623.340	40669
623.404	41335
623.469	40186
623.533	41390
623.597	39916
623.662	40053
623.726	37088
623.790	34884
623.854	32820
623.919	35589
623.983	35005
624.047	34841
624.111	35984
624.176	36138
624.240	35395
624.304	38771
624.368	35821
624.432	36174
624.496	37937
624.560	40725
624.625	38487
624.689	39224
624.753	41346
624.817	39335
624.881	38179
624.945	34801
625.009	32479
625.073	33663
625.137	34298
625.201	37966
625.265	36627
625.329	35129
625.393	35981
625.456	36479
625.520	37233
625.584	36845
625.648	39566
625.712	40947
625.776	45155
625.839	45041
625.903	32910
625.967	28656
626.031	34793
626.095	41069
626.158	33941
626.222	26004
626.286	25365
626.349	23685
626.413	20500
626.477	22032
626.540	21805
626.604	21669
626.668	22168
626.731	20755
626.795	21397
626.858	21784
626.922	21076
626.986	21574
627.049	20383
627.113	22446
627.176	20860
627.240	20243
627.303	20543
627.366	20181
627.430	20364
627.493	20719
627.557	19385
627.620	22443
627.684	21396
627.747	21820
627.810	18196
627.874	18705
627.937	16528
628.000	19969
628.064	18092
628.127	13674
628.190	16210
628.253	16186
628.317	13927
628.380	13647
628.443	13009
628.506	13324
628.569	13104
628.632	11898
628.696	12531
628.759	12359
628.822	11431
628.885	11058
628.948	10634
629.011	10571
629.074	10033
629.137	8819
629.200	9525
629.263	11795
629.326	8546
629.389	10085
629.452	9705
629.515	9518
629.578	8899
629.641	10712
629.704	9933
629.767	9433
629.830	9443
629.892	8677
629.955	8307
630.018	10473
630.081	8157
630.144	9035
630.207	7115
630.269	10085
630.332	9253
630.395	8876
630.458	8279
630.520	6895
630.583	9270
630.646	8346
630.708	8527
630.771	6746
630.834	9666
630.896	8712
630.959	9032
631.021	7347
631.084	8535
631.146	9280
631.209	9969
631.272	8248
631.334	9166
631.397	9384
631.459	8720
631.522	9976
631.584	10466
631.646	11654
631.709	12512
631.771	12813
631.834	11704
631.896	11126
631.958	9154
632.021	10327
632.083	7824
632.145	8398
632.208	7834
632.270	9799
632.332	7998
632.395	7237
632.457	8721
632.519	7534
632.581	9246
632.643	6933
632.706	8528
632.768	7155
632.830	8506
632.892	8994
632.954	7104
633.016	9134
633.078	7722
633.141	8395
633.203	7616
633.265	9014
633.327	8923
633.389	8409
633.451	9200
633.513	8662
633.575	8431
633.637	8501
633.698	9416
633.760	9349
633.822	9152
633.884	9908
633.946	10495
634.008	10082
634.070	10518
634.132	11391
634.193	13655
634.255	15370
634.317	15453
634.379	16242
634.441	12848
634.502	10777
634.564	10942
634.626	9604
634.687	9522
634.749	8135
634.811	8444
634.873	8193
634.934	8348
634.996	8791
635.057	7664
635.119	7298
635.181	8323
635.242	9460
635.304	6788
635.365	10658
635.427	7272
635.488	8646
635.550	7913
635.611	8646
635.673	6932
635.734	11413
635.796	9482
635.857	12888
635.918	11948
635.980	16194
636.041	14457
636.102	16691
636.164	17308
636.225	17277
636.286	11775
636.348	12723
636.409	10883
636.470	8856
636.531	9128
636.593	7448
636.654	7396
636.715	8481
636.776	6824
636.838	6740
636.899	7537
636.960	6548
637.021	6694
637.082	6100
637.143	6606
637.204	5318
637.265	5927
637.326	7204
637.387	6775
637.448	5449
637.509	6320
637.570	6322
637.631	7260
637.692	5309
637.753	4654
637.814	5911
637.875	5513
637.936	6613
637.997	6154
638.058	5633
638.119	6582
638.179	4958
638.240	5228
638.301	6394
638.362	4464
638.423	5471
638.483	6136
638.544	3608
638.605	5109
638.666	4040
638.726	5619
638.787	6852
638.848	4800
638.908	5191
638.969	5793
639.030	4153
639.090	3582
639.151	4599
639.211	5702
639.272	5893
639.332	5261
639.393	5186
639.453	5227
639.514	6612
639.574	5361
639.635	3988
639.695	5306
639.756	3795
639.816	4574
639.877	4534
639.937	5840
639.997	6038
640.058	3867
640.118	3037
640.178	5288
640.239	4806
640.299	4535
640.359	3763
640.420	5263
640.480	6218
640.540	8055
640.600	7491
640.661	6602
640.721	4404
640.781	6766
640.841	3051
640.901	5455
640.961	5937
641.021	5720
641.082	4702
641.142	4794
641.202	5086
641.262	2333
641.322	5104
641.382	2427
641.442	4179
641.502	3742
641.562	5181
641.622	3352
641.682	5137
641.742	6129
641.802	5753
641.861	4894
641.921	3862
641.981	5256
642.041	4159
642.101	3623
642.161	2547
642.221	4689
642.280	4391
642.340	3367
642.400	2883
642.460	4407
642.519	3740
642.579	3543
642.639	5194
642.698	1857
642.758	6820
642.818	4780
642.877	3120
642.937	3737
642.997	4647
643.056	4180
643.116	2781
643.175	5969
643.235	4287
643.294	4373
643.354	6333
643.414	6325
643.473	7819
643.532	10772
643.592	16076
643.651	27446
643.711	51870
643.770	107938
643.830	274535
643.889	503662
643.948	102137
644.008	18969
644.067	11451
644.126	7818
644.186	6975
644.245	6197
644.304	3733
644.363	6584
644.423	3072
644.482	4284
644.541	6313
644.600	3904
644.659	7672
644.719	9972
644.778	18668
644.837	33711
644.896	77129
644.955	167883
645.014	40916
645.073	8602
645.132	6061
645.191	6084
645.250	5403
645.309	6228
645.368	6473
645.427	9807
645.486	19324
645.545	33116
645.604	7227
645.663	5441
645.722	3947
645.781	5451
645.840	6799
645.898	9784
645.957	15948
646.016	23805
646.075	50682
646.134	103483
646.192	293199
646.251	357159
646.310	46663
646.369	13625
646.427	11140
646.486	6488
646.545	5839
646.603	4601
646.662	4423
646.721	4770
646.779	3684
646.838	4153
646.896	7764
646.955	10245
647.014	19713
647.072	40490
647.131	112422
647.189	40727
647.248	4865
647.306	4250
647.365	4570
647.423	1003
647.481	3932
647.540	1759
647.598	2024
647.657	3274
647.715	2689
647.773	947
647.832	3742
647.890	1839
647.948	2055
648.007	3225
648.065	1127
648.123	936
648.181	2876
648.240	2539
648.298	1444
648.356	2486
648.414	2265
648.472	1684
648.531	2477
648.589	1138
648.647	1821
648.705	1598
648.763	1530
648.821	1845
648.879	2439
648.937	3244
648.995	3990
649.053	6621
649.111	12034
649.169	22008
649.227	41766
649.285	95335
649.343	263934
649.401	96539
649.459	13017
649.516	8244
649.574	3818
649.632	7262
649.690	7366
649.748	8100
649.806	11731
649.863	28019
649.921	80075
649.979	40411
650.037	4482
650.094	1102
650.152	2361
650.210	1862
650.268	2533
650.325	1240
650.383	524
650.440	-138
650.498	2005
650.556	927
650.613	1780
650.671	1323
650.728	1418
650.786	1362
650.843	3155
650.901	-89
650.958	1140
651.016	532
651.073	1447
651.131	561
651.188	83
651.246	888
651.303	237
651.360	669
651.418	566
651.475	1330
651.532	-133
651.590	1031
651.647	214
651.704	673
651.762	791
651.819	95
651.876	284
651.933	928
651.990	1615
652.048	-850
652.105	-544
652.162	377
652.219	-594
652.276	1419
652.333	512
652.390	-555
652.448	841
652.505	173
652.562	312
652.619	390
652.676	1046
652.733	1049
652.790	-190
652.847	-283
652.904	490
652.961	-578
653.017	-336
653.074	417
653.131	67
653.188	-129
653.245	866
653.302	-186
653.359	-186
653.415	944
653.472	-382
653.529	457
653.586	-477
653.642	-239
653.699	512
653.756	-371
653.813	-7
653.869	747
653.926	-217
653.983	-973
654.039	420
654.096	-177
654.152	1093
654.209	-896
654.266	549
654.322	-813
654.379	-29
654.435	847
654.492	-49
654.548	765
654.605	-513
654.661	1020
654.717	42
654.774	119
654.830	-111
654.887	-345
654.943	341
655.000	946
655.056	344
655.112	-443
655.168	-504
655.225	-60
655.281	79
655.337	-308
655.394	416
655.450	-146
655.506	308
655.562	692
655.618	1173
655.675	-354
655.731	146
655.787	456
655.843	-40
655.899	-613
655.955	1501
656.011	34
656.067	-307
656.123	1251
656.179	484
656.235	2291
656.291	-395
656.347	1592
656.403	256
656.459	254
656.515	244
656.571	-212
656.627	132
656.683	21
656.739	948
656.795	40
656.850	529
656.906	420
656.962	1028
657.018	-55
657.074	-836
657.129	1103
657.185	2963
657.241	8012
657.297	3282
657.352	548
657.408	-218
657.464	180
657.519	-104
657.575	-1344
657.630	-341
657.686	-853
657.742	-456
657.797	-440
657.853	630
657.908	685
657.964	-776
658.019	-1142
658.075	478
658.130	-256
658.186	-1484
658.241	-28
658.297	-626
658.352	-161
658.407	346
658.463	-1144
658.518	-679
658.573	-173
658.629	-422
658.684	-968
658.739	658
658.795	-836
658.850	495
658.905	-823
658.960	-64
659.016	-1441
659.071	-1123
659.126	-13
659.181	-1038
659.236	182
659.291	803
659.346	-984
659.401	230
659.457	646
659.512	-910
659.567	-79
659.622	-432
659.677	-244
659.732	-1186
659.787	-663
659.842	-768
659.897	-337
659.952	-57
660.007	-810
660.061	-507
660.116	-1183
660.171	-706
660.226	-1188
660.281	-174
660.336	-1523
660.391	113
660.445	-1297
660.500	500
660.555	-812
660.610	-290
660.664	-581
660.719	-392
660.774	-45
660.828	-756
660.883	-376
660.938	87
660.992	-701
661.047	-134
661.101	-1067
661.156	-448
661.211	-1038
661.265	-938
661.320	-626
661.374	208
661.429	-1177
661.483	475
661.538	-2193
661.592	-1127
661.647	-751
661.701	-381
661.755	-945
661.810	-581
661.864	-1423
661.919	-998
661.973	-383
662.027	-669
662.081	-1218
662.136	-846
662.190	-231
662.244	-372
662.299	-1342
662.353	-397
662.407	-640
662.461	-385
662.515	-342
662.569	-884
662.624	63
662.678	-1175
662.732	-1053
662.786	-742
662.840	-268
662.894	-872
662.948	-868
663.002	-658
663.056	-808
663.110	-681
663.164	-1466
663.218	-1200
663.272	-1004
663.326	-681
663.380	-722
663.434	-86
663.488	-902
663.542	-948
663.595	-276
663.649	-547
663.703	-737
663.757	-172
663.811	-720
663.864	-723
663.918	-469
663.972	-617
664.026	-909
664.079	-833
664.133	-232
664.187	-996
664.240	-830
664.294	-715
664.348	-484
664.401	-508
664.455	-181
664.508	-695
664.562	-1760
664.615	-362
664.669	-543
664.722	-338
664.776	-1126
664.829	-435
664.883	-1311
664.936	-1146
664.990	-223
665.043	-110
665.097	-847
665.150	-361
665.203	-852
665.257	-796
665.310	35
665.363	-115
665.417	209
665.470	-197
665.523	-676
665.576	-454
665.630	-414
665.683	-69
665.736	-330
665.789	-793
665.842	-472
665.895	-448
665.949	-354
666.002	-218
666.055	-891
666.108	-166
666.161	-968
666.214	-757
666.267	-295
666.320	504
666.373	216
666.426	-411
666.479	-462
666.532	-399
666.585	-749
666.638	266
666.691	-1105
666.744	-259
666.796	-719
666.849	-511
666.902	-484
666.955	-1323
667.008	-921
667.060	-928
667.113	-617
667.166	-726
667.219	-525
667.271	-744
667.324	-698
667.377	62
667.430	-683
667.482	-1102
667.535	-113
667.587	-302
667.640	536
667.693	27
667.745	-146
667.798	214
667.850	-536
667.903	-976
667.955	-557
668.008	-398
668.060	-657
668.113	34
668.165	-92
668.218	-692
668.270	-4
668.322	-655
668.375	-705
668.427	-257
668.479	-716
668.532	-447
668.584	-1115
668.636	-284
668.689	-623
668.741	-387
668.793	90
668.845	-398
668.898	-140
668.950	-474
669.002	-1107
669.054	-670
669.106	-999
669.158	-188
669.211	-301
669.263	-189
669.315	-526
669.367	-935
669.419	-1026
669.471	311
669.523	-669
669.575	-467
669.627	-1167
669.679	-582
669.731	332
669.783	112
669.835	78
669.886	168
669.938	-552
669.990	-609
670.042	-1407
670.094	-306
670.146	-181
670.197	-94
670.249	627
670.301	-421
670.353	647
670.404	1842
670.456	2166
670.508	5864
670.560	8265
670.611	17079
670.663	30828
670.715	85501
670.766	119242
670.818	24569
670.869	3691
670.921	1883
670.972	418
671.024	424
671.075	976
671.127	9
671.178	331
671.230	888
671.281	186
671.333	373
671.384	949
671.436	986
671.487	1901
671.538	4879
671.590	8243
671.641	15025
671.692	29051
671.744	57801
671.795	31662
671.846	8316
671.897	3419
671.949	957
672.000	1116
672.051	705
672.102	855
672.153	-65
672.204	-831
672.256	-819
672.307	223
672.358	-210
672.409	-1071
672.460	-916
672.511	-1459
672.562	-370
672.613	-1430
672.664	-694
672.715	-593
672.766	-538
672.817	-676
672.868	238
672.919	-1121
672.970	-1429
673.021	-996
673.071	-1211
673.122	-732
673.173	-668
673.224	-940
673.275	-957
673.326	-868
673.376	-1104
673.427	-1254
673.478	-529
673.528	-602
673.579	-113
673.630	-979
673.680	-283
673.731	-842
673.782	-1073
673.832	-567
673.883	-238
673.934	-1202
673.984	37
674.035	-613
674.085	-541
674.136	-376
674.186	-496
674.237	-803
674.287	-528
674.338	-743
674.388	-1133
674.438	-912
674.489	-264
674.539	-499
674.589	-69
674.640	-900
674.690	23
674.740	-500
674.791	181
674.841	-745
674.891	-670
674.942	-1306
674.992	-1322
675.042	-557
675.092	-864
675.142	-1943
675.193	-1569
675.243	-1125
675.293	-1153
675.343	-404
675.393	-1132
675.443	-1269
675.493	24
675.543	-560
675.593	-997
675.643	-1490
675.693	-585
675.743	-1184
675.793	-1228
675.843	-527
675.893	-675
675.943	-400
675.993	-950
676.043	-673
676.093	-801
676.142	-1241
676.192	-1140
676.242	-1225
676.292	-934
676.341	-1207
676.391	-860
676.441	-1363
676.491	-875
676.540	-1472
676.590	-300
676.640	-1082
676.689	-784
676.739	-1454
676.789	-739
676.838	-1361
676.888	-1106
676.937	-1320
676.987	-1163
677.037	-914
677.086	-603
677.136	-1350
677.185	-1265
677.235	-1817
677.284	-245
677.333	-1720
677.383	-903
677.432	-1983
677.482	-739
677.531	-689
677.580	-1396
677.630	-838
677.679	-779
677.728	-1745
677.778	-456
677.827	-1364
677.876	-357
677.925	-1281
677.975	-1332
678.024	-1983
678.073	-794
678.122	-1050
678.171	-833
678.220	-745
678.269	-755
678.319	-976
678.368	-1101
678.417	-765
678.466	-394
678.515	-810
678.564	-931
678.613	-2030
678.662	-969
678.711	-1959
678.760	-1396
678.809	-809
678.857	-1538
678.906	-463
678.955	-1620
679.004	-1317
679.053	-616
679.102	-1390
679.151	-1155
679.199	-1662
679.248	-1546
679.297	-1161
679.346	-1857
679.394	-1825
679.443	-882
679.492	-1498
679.540	-964
679.589	-1461
679.638	-1142
679.686	-1652
679.735	-601
679.784	-1260
679.832	-420
679.881	-806
679.929	-1227
679.978	-1577
680.026	-1129
680.075	-999
680.123	-1187
680.172	-1312
680.220	-732
680.268	-1660
680.317	-1516
680.365	-1794
680.414	-2271
680.462	-1619
680.510	-809
680.559	-1199
680.607	-1173
680.655	-1629
680.703	-914
680.752	-1296
680.800	-1534
680.848	-868
680.896	-390
680.945	-1241
680.993	-1841
681.041	-2439
681.089	-1055
681.137	-1680
681.185	-1082
681.233	-1725
681.258	-1306
681.281	-918
681.329	-1594
681.377	-1184
681.380	-1171
681.425	-1100
681.473	-923
681.502	-1447
681.521	-1836
681.569	-947
681.617	-1685
681.624	-1628
681.665	-1340
681.713	-1132
681.745	-1094
681.761	-1092
681.809	-1191
681.857	-1079
681.867	-1010
681.904	-803
681.952	-1199
681.989	-805
682.000	-700
682.048	-1164
682.096	-1420
682.111	-1291
682.143	-1056
682.191	-655
682.233	-366
682.239	-333
682.286	-1312
682.334	-1091
682.354	-976
682.382	-832
682.430	-958
682.476	-968
682.477	-978
682.525	-438
682.572	-1762
682.598	-1200
682.620	-726
682.667	-642
682.715	-287
682.720	-315
682.763	-725
682.810	-1001
682.841	-1084
682.857	-1136
682.905	-881
682.952	-350
682.963	-357
683.000	-396
683.047	-1487
683.085	52
683.095	473
683.142	-342
683.190	-242
683.206	-261
683.237	-389
683.284	-100
683.328	-1090
683.332	-1172
683.379	-305
683.426	-732
683.449	-559
683.473	-432
683.521	-324
683.568	-539
683.571	-541
683.615	-665
683.662	-194
683.693	-418
683.709	-536
683.757	-242
683.804	-632
683.814	-570
683.851	-442
683.898	-32
683.936	-89
683.945	-122
683.992	-522
684.039	-439
684.057	-558
684.086	-656
684.133	-504
684.179	-607
684.180	-619
684.227	-289
684.274	-262
684.300	-136
684.321	-28
684.368	148
684.415	309
684.422	362
684.462	612
684.509	-564
684.543	-83
684.556	68
684.603	-391
684.649	-309
684.665	-181
684.696	110
684.743	-503
684.786	241
684.790	304
684.837	123
684.883	130
684.908	81
684.930	-20
684.977	618
685.023	25
685.029	53
685.070	253
685.117	-215
685.150	-11
685.164	73
685.210	-167
685.257	798
685.272	776
685.303	640
685.350	742
685.393	254
685.396	216
685.443	-26
685.490	639
685.514	499
685.536	391
685.583	-47
685.629	203
685.636	182
685.675	-9
685.722	304
685.757	-106
685.768	-235
685.815	432
685.861	656
685.878	544
685.908	381
685.954	386
686.000	613
686.000	613
686.047	1171
686.093	658
686.121	691
686.139	703
686.185	1723
686.232	833
686.242	849
686.278	900
686.324	1090
686.363	1133
686.370	1119
686.416	741
686.463	1134
686.484	702
686.509	330
686.555	517
686.601	1061
686.606	1048
686.647	769
686.693	738
686.727	480
686.739	446
686.785	404
686.831	1043
686.848	999
686.877	736
686.923	547
686.969	372
686.969	373
687.015	908
687.061	805
687.090	1474
687.107	1785
687.153	1570
687.199	1478
687.211	1421
687.245	1281
687.291	820
687.332	1653
687.336	1724
687.382	1295
687.428	563
687.453	657
687.474	831
687.520	1125
687.565	1181
687.574	1147
687.611	917
687.657	1191
687.695	855
687.702	814
687.748	1419
687.794	1993
687.816	1567
687.839	1000
687.885	1913
687.931	1090
687.937	1046
687.976	1025
688.022	1039
688.058	1343
688.067	1398
688.113	1089
688.158	1166
688.179	1275
688.204	1446
688.249	1593
688.295	1344
688.300	1395
688.340	1638
688.386	1385
688.421	1363
688.431	1392
688.477	1359
688.522	1555
688.542	1640
688.567	1812
688.613	1501
688.658	1652
688.663	1675
688.703	1614
688.749	1261
688.784	1441
688.794	1534
688.839	1508
688.884	1691
688.905	1661
688.930	1650
688.975	1337
689.020	1800
689.026	1838
689.065	1966
689.110	1516
689.146	1456
689.155	1462
689.201	991
689.246	1650
689.267	1321
689.291	973
689.336	1503
689.381	1442
689.388	1433
689.426	1531
689.471	1904
689.509	1700
689.516	1627
689.561	1874
689.606	1763
689.630	1635
689.651	1737
689.696	1956
689.741	2157
689.750	2223
689.785	2192
689.830	2118
689.871	2093
689.875	2111
689.920	1782
689.965	2138
689.992	2208
690.010	2169
690.054	2090
690.099	1956
690.112	1961
690.144	2068
690.189	2077
690.233	1736
690.233	1740
690.278	2106
690.323	1920
690.354	2021
690.367	2087
690.412	2262
690.457	2398
690.474	2533
690.501	2512
690.546	2359
690.590	1898
690.595	1884
690.635	2274
690.680	2263
690.716	2341
690.724	2362
690.769	2670
690.813	3369
690.836	3160
690.857	3319
690.902	4262
690.946	5521
690.957	5786
690.991	7422
691.035	9802
691.077	11890
691.080	11861
691.124	9935
691.168	8706
691.198	7396
691.213	6661
691.257	5703
691.301	3551
691.318	2866
691.346	2743
691.390	2800
691.434	2997
691.439	2949
691.478	2440
691.522	2435
691.559	2068
691.567	2070
691.611	2518
691.655	2246
691.680	2414
691.699	2525
691.743	2630
691.787	2780
691.800	2642
691.831	2362
691.875	2639
691.919	2739
691.921	2735
691.964	2425
692.008	1990
692.041	1430
692.052	1486
692.096	1955
692.139	2806
692.162	3106
692.183	2976
692.227	2751
692.271	2330
692.282	2224
692.315	2384
692.359	2622
692.402	3000
692.403	3008
692.447	2448
692.490	2301
692.523	2232
692.534	2358
692.578	2502
692.622	2699
692.643	2850
692.666	2790
692.709	2669
692.753	2484
692.763	2422
692.797	2563
692.840	2716
692.884	2976
692.884	2984
692.928	2499
692.971	2944
693.004	2475
693.015	2436
693.059	2432
693.102	2909
693.124	2851
693.146	2727
693.189	2865
693.233	3257
693.245	3151
693.276	2948
693.320	3335
693.363	3031
693.365	3024
693.407	3263
693.450	3456
693.485	3805
693.493	4010
693.537	4718
693.580	5514
693.605	5877
693.624	6527
693.667	8077
693.710	10017
693.725	10627
693.753	14413
693.797	20442
693.840	26761
693.845	27318
693.883	23123
693.926	18706
693.966	14551
693.970	14226
694.013	11022
694.056	7549
694.086	5171
694.099	5022
694.142	4655
694.185	4152
694.206	3929
694.229	4041
694.272	4343
694.315	4462
694.326	4453
694.358	3914
694.401	3419
694.444	2688
694.446	2658
694.487	3192
694.530	3362
694.566	3712
694.573	3712
694.616	3247
694.659	3287
694.686	3219
694.702	3221
694.745	3108
694.787	3092
694.806	2976
694.830	2922
694.873	2846
694.916	3169
694.926	3182
694.959	3457
695.002	3543
695.044	3847
695.046	3843
695.087	3643
695.130	3481
695.166	3349
695.172	3424
695.215	3750
695.258	4163
695.286	4375
695.301	4215
695.343	3698
695.386	3172
695.406	2853
695.428	3101
695.471	4016
695.514	4525
695.526	4704
695.556	4757
695.599	4996
695.641	4779
695.646	4774
695.684	4940
695.726	4799
695.766	5034
695.769	5051
695.811	4734
695.854	4724
695.886	4446
695.896	4435
695.938	4483
695.981	4571
696.005	4530
696.023	4556
696.065	4583
696.108	4795
696.125	4798
696.150	4868
696.192	5279
696.235	5141
696.245	5208
696.277	5421
696.319	5378
696.361	5486
696.365	5473
696.404	5463
696.446	5487
696.485	5429
696.488	5451
696.530	5479
696.572	5540
696.604	5638
696.614	5671
696.656	5602
696.698	5589
696.724	5611
696.740	5624
696.783	5391
696.825	5349
696.844	5326
696.867	5426
696.909	5482
696.951	5445
696.964	5476
696.992	5558
697.034	5578
697.076	5528
697.083	5515
697.118	5829
697.160	6148
697.202	6490
697.203	6479
697.244	6204
697.286	5882
697.323	5459
697.327	5498
697.369	5832
697.411	6089
697.442	6250
697.453	6220
697.494	6012
697.536	5808
697.562	5700
697.578	5812
697.620	6035
697.661	6154
697.682	6273
697.703	6208
697.744	5937
697.786	5710
697.801	5597
697.828	5877
697.869	6310
697.911	6657
697.921	6731
697.952	6619
697.994	6525
698.035	6328
698.040	6285
698.077	5969
698.118	5626
698.160	5250
698.160	5230
698.201	5552
698.243	5900
698.279	6192
698.284	6267
698.325	6767
698.367	7272
698.399	7645
698.408	7623
698.449	7390
698.491	7202
698.518	7021
698.532	7112
698.573	7339
698.614	7590
698.638	7689
698.656	7577
698.697	7286
698.738	6978
698.757	6813
698.779	6912
698.820	7055
698.862	7195
698.877	7228
698.903	7205
698.944	7127
698.985	7048
698.996	7006
699.026	6829
699.067	6555
699.116	6211
699.235	7069
699.354	7449
699.474	6199
699.593	6919
699.713	7066
699.832	7145
699.951	7389
700.070	7585
700.190	6530
700.309	6247
700.428	6616
700.547	6107
700.667	6597
700.786	7014
700.905	4913
701.024	6597
701.143	4910
701.262	6187
701.381	6159
701.500	6439
701.619	6714
701.738	6393
701.857	6601
701.976	6122
702.095	5266
702.214	7143
702.333	6713
702.452	6013
702.571	6210
702.690	6360
702.809	5217
702.928	6415
703.047	4677
703.165	5548
703.284	4972
703.403	5821
703.522	5514
703.640	5121
703.759	6002
703.878	5811
703.997	5304
704.115	5164
704.234	4927
704.353	5677
704.471	4066
704.590	4957
704.708	3997
704.827	5285
704.946	4853
705.064	4816
705.183	5147
705.301	4484
705.420	5580
705.538	5034
705.656	4495
705.775	4200
705.893	5809
706.012	7237
706.130	4256
706.249	5314
706.367	3923
706.485	4240
706.604	4359
706.722	5171
706.840	5142
706.958	5070
707.077	4004
707.195	4877
707.313	4672
707.431	4424
707.549	3884
707.668	4180
707.786	5260
707.904	4080
708.022	4090
708.140	5180
708.258	3773
708.376	4789
708.494	4009
708.612	5431
708.730	4736
708.848	5256
708.966	4552
709.084	5455
709.202	3203
709.320	4955
709.438	3374
709.556	4124
709.674	3039
709.791	4184
709.909	3288
710.027	4075
710.145	3929
710.263	4439
710.380	3988
710.498	4265
710.616	3632
710.733	3463
710.851	3997
710.969	3618
711.086	3849
711.204	4817
711.322	3501
711.439	3172
711.557	2497
711.674	4010
711.792	3881
711.909	4246
712.027	3187
712.144	3288
712.262	3970
712.379	3459
712.497	4556
712.614	4451
712.732	3643
712.849	4066
712.966	4195
713.084	4487
713.201	3739
713.318	4528
713.436	3406
713.553	3983
713.670	4244
713.787	4329
713.905	4271
714.022	4882
714.139	5304
714.256	7792
714.373	11103
714.490	24564
714.608	77617
714.725	329552
714.842	239266
714.959	17371
715.076	7890
715.193	6308
715.310	5074
715.427	3949
715.544	4352
715.661	4301
715.778	3595
715.895	3966
716.011	4265
716.128	4305
716.245	3468
716.362	4158
716.479	2928
716.596	4129
716.713	3051
716.829	4008
716.946	2637
717.063	3187
717.180	2583
717.296	2296
717.413	3256
717.530	3659
717.646	2638
717.763	3849
717.880	2597
717.996	2530
718.113	1878
718.229	3190
718.346	2256
718.462	2599
718.579	3022
718.695	3609
718.812	3542
718.928	3050
719.045	2101
719.161	2836
719.277	2197
719.394	3651
719.510	3056
719.626	4541
719.743	4971
719.859	10784
719.975	23337
720.092	110601
720.208	200078
720.324	16518
720.440	4694
720.557	3987
720.673	3809
720.789	4402
720.905	5450
721.021	2828
721.137	2062
721.253	3136
721.369	2379
721.486	2243
721.602	2486
721.718	3103
721.834	1815
721.950	2273
722.066	1012
722.181	2499
722.297	2060
722.413	3187
722.529	2814
722.645	2993
722.761	1722
722.877	1670
722.993	2229
723.108	4136
723.224	2205
723.340	2395
723.456	1451
723.571	1770
723.687	2380
723.803	1781
723.918	1863
724.034	2146
724.150	1978
724.265	2633
724.381	2676
724.497	3688
724.612	1403
724.728	1741
724.843	1353
724.959	2036
725.074	2055
725.190	3276
725.305	2081
725.421	1257
725.536	2196
725.651	1573
725.767	1603
725.882	1703
725.997	1369
726.113	2604
726.228	1391
726.343	2003
726.459	1999
726.574	1899
726.689	903
726.804	2053
726.920	1360
727.035	2359
727.150	1278
727.265	2058
727.380	1135
727.495	2220
727.610	1870
727.725	1154
727.841	1771
727.956	2307
728.071	2768
728.186	1687
728.301	1356
728.416	1932
728.531	1638
728.645	1222
728.760	1380
728.875	1391
728.990	921
729.105	1395
729.220	1112
729.335	2225
729.449	1479
729.564	1865
729.679	509
729.794	2257
729.908	960
730.023	2055
730.138	1608
730.253	1214
730.367	1417
730.482	1798
730.596	1648
730.711	2075
730.826	2389
730.940	2045
731.055	2093
731.169	1395
731.284	1596
731.398	1738
731.513	2521
731.627	2402
731.742	2949
731.856	4289
731.970	3066
732.085	5614
732.199	8428
732.313	16627
732.428	49355
732.542	150635
732.656	65719
732.771	11275
732.885	5428
732.999	4273
733.113	4484
733.227	4929
733.342	4045
733.456	4164
733.570	2724
733.684	3675
733.798	3125
733.912	3448
734.026	2972
734.140	3839
734.254	3121
734.368	3721
734.482	3358
734.596	3088
734.710	2565
734.824	3526
734.938	2427
735.052	3310
735.166	3048
735.280	3707
735.393	3549
735.507	3387
735.621	2807
735.735	3030
735.849	2576
735.962	2589
736.076	2849
736.190	2925
736.303	3441
736.417	2817
736.531	1853
736.644	2763
736.758	1643
736.872	2686
736.985	1719
737.099	1692
737.212	2190
737.326	2391
737.439	1663
737.553	2060
737.666	2082
737.780	2393
737.893	3477
738.007	2562
738.120	2254
738.233	2588
738.347	2603
738.460	3109
738.573	2217
738.687	2368
738.800	2238
738.913	2913
739.026	2078
739.140	2395
739.253	2436
739.366	1794
739.479	2046
739.592	1704
739.705	1522
739.818	2813
739.932	1783
740.045	2173
740.158	2849
740.271	2103
740.384	1649
740.497	2311
740.610	1647
740.723	2246
740.836	1155
740.949	2340
741.062	1547
741.174	2094
741.287	1375
741.400	2667
741.513	1472
741.626	1842
741.739	825
741.851	2121
741.964	2049
742.077	1139
742.189	1148
742.302	2596
742.415	1285
742.527	1610
742.640	1622
742.753	2909
742.865	1786
742.978	1935
743.090	706
743.203	2066
743.316	1004
743.428	1968
743.541	2227
743.653	1748
743.766	1615
743.878	1955
743.990	1064
744.103	2398
744.215	1868
744.327	1856
744.440	2499
744.552	1531
744.664	855
744.777	1684
744.889	550
745.001	1887
745.113	1620
745.226	1621
745.338	918
745.450	2424
745.562	1599
745.674	2289
745.786	1445
745.898	1681
746.010	1279
746.122	2051
746.234	1165
746.347	2073
746.459	1752
746.570	756
746.682	1585
746.794	2517
746.906	2023
747.018	1366
747.130	2027
747.242	1142
747.354	839
747.466	1913
747.577	832
747.689	1632
747.801	997
747.913	1503
748.024	1238
748.136	962
748.248	1075
748.359	1785
748.471	1458
748.583	1277
748.694	450
748.806	2213
748.918	571
749.029	1446
749.141	1852
749.252	1976
749.364	651
749.475	1308
749.587	744
749.698	1452
749.809	1339
749.921	1365
750.032	462
750.144	976
750.255	338
750.366	1218
750.478	718
750.589	1264
750.700	932
750.811	1952
750.923	1592
751.034	767
751.145	1011
751.256	2162
751.367	246
751.479	923
751.590	-85
751.701	1060
751.812	567
751.923	1137
752.034	1070
752.145	950
752.256	499
752.367	2102
752.478	1218
752.589	1890
752.700	859
752.811	823
752.922	330
753.032	1343
753.143	1692
753.254	321
753.365	1500
753.476	1472
753.586	319
753.697	1529
753.808	737
753.919	1347
754.029	857
754.140	1051
754.251	1072
754.361	1517
754.472	938
754.582	708
754.693	252
754.804	987
754.914	318
755.025	1272
755.135	787
755.246	1700
755.356	412
755.466	1755
755.577	1151
755.687	1514
755.798	887
755.908	1443
756.018	644
756.129	1390
756.239	313
756.349	1099
756.460	1192
756.570	2021
756.680	-13
756.790	889
756.900	1067
757.011	1201
757.121	1375
757.231	1342
757.341	-300
757.451	465
757.561	730
757.671	859
757.781	486
757.891	1767
758.001	175
758.111	1385
758.221	414
758.331	809
758.441	1314
758.551	1462
758.661	1176
758.771	2034
758.880	1508
758.990	1421
759.100	-446
759.210	1380
759.320	958
759.429	1427
759.539	1400
759.649	2348
759.758	2507
759.868	2227
759.978	1122
760.087	2300
760.197	2005
760.307	2612
760.416	1718
760.526	1900
760.635	1967
760.745	1595
760.854	2031
760.964	2929
761.073	3173
761.182	2759
761.292	1410
761.401	2340
761.511	1306
761.620	1307
761.729	655
761.839	1262
761.948	1872
762.057	731
762.166	1198
762.276	714
762.385	2006
762.494	1958
762.603	1144
762.712	2281
762.822	878
762.931	1646
763.040	669
763.149	1666
763.258	1339
763.367	2673
763.476	1668
763.585	2173
763.694	1287
763.803	2644
763.912	2123
764.021	2030
764.130	1743
764.238	3555
764.347	3169
764.456	3541
764.565	3034
764.674	3049
764.783	3081
764.891	3919
765.000	5106
765.109	5406
765.217	4816
765.326	6741
765.435	9506
765.543	11123
765.652	13515
765.761	17479
765.869	24872
765.978	39207
766.086	62388
766.195	110573
766.303	197018
766.412	253510
766.520	207309
766.629	151503
766.737	82155
766.846	48449
766.954	31417
767.062	24021
767.171	17370
767.279	14174
767.387	9891
767.496	9144
767.604	7153
767.712	7110
767.820	5646
767.928	6944
768.037	4332
768.145	4604
768.253	4959
768.361	3641
768.469	3939
768.577	4170
768.685	3781
768.793	5605
768.901	4896
769.009	7758
769.117	7913
769.225	11571
769.333	15132
769.441	25175
769.549	43683
769.657	90624
769.765	190098
769.873	203649
769.981	137663
770.088	62238
770.196	31990
770.304	21536
770.412	15044
770.519	11795
770.627	8843
770.735	7552
770.842	5849
770.950	5648
771.058	4176
771.165	4735
771.273	2800
771.380	3788
771.488	4572
771.595	3292
771.703	2900
771.810	3883
771.918	2824
772.025	3819
772.133	3213
772.240	3249
772.348	3169
772.455	3973
772.562	2631
772.670	3758
772.777	2614
772.884	2740
772.991	1763
773.099	3203
773.206	1650
773.313	2708
773.420	2178
773.528	2029
773.635	1564
773.742	2971
773.849	2829
773.956	2865
774.063	2066
774.170	1916
774.277	1968
774.384	2072
774.491	1198
774.598	2674
774.705	2494
774.812	2729
774.919	2440
775.026	2932
775.133	2285
775.239	2582
775.346	1517
775.453	2378
775.560	1598
775.667	2228
775.773	947
775.880	1880
775.987	668
776.093	2594
776.200	1366
776.307	1346
776.413	2109
776.520	2058
776.627	2189
776.733	2115
776.840	718
776.946	3195
777.053	1900
777.159	2472
777.266	1722
777.372	3671
777.478	1658
777.585	1649
777.691	849
777.798	1988
777.904	1454
778.010	904
778.117	1371
778.223	2117
778.329	408
778.435	1534
778.542	778
778.648	1561
778.754	915
778.860	1597
778.966	1003
779.072	1427
779.178	372
779.284	1055
779.391	403
779.497	975
779.603	2939
779.708	30
779.815	2770
779.920	8264
780.026	11660
780.132	3035
780.238	389
780.344	1466
780.450	1427
780.556	874
780.661	540
780.767	446
780.873	299
780.979	1254
781.085	411
781.190	1356
781.296	46
781.402	565
781.507	439
781.613	1315
781.719	844
781.824	1558
781.930	654
782.035	1078
782.141	1395
782.246	50
782.352	770
782.457	802
782.563	713
782.668	1531
782.773	782
782.879	176
782.984	532
783.090	1490
783.195	605
783.300	885
783.405	643
783.511	876
783.616	1004
783.721	765
783.826	-181
783.932	696
784.037	-371
784.142	206
784.247	169
784.352	955
784.457	695
784.562	1517
784.667	-140
784.772	840
784.877	-321
784.982	1220
785.087	114
785.192	1906
785.297	-241
785.402	341
785.507	-567
785.611	204
785.716	-305
785.821	1338
785.926	-465
786.031	1159
786.135	121
786.240	855
786.345	-568
786.450	1202
786.554	251
786.659	261
786.763	-391
786.868	953
786.973	1731
787.077	288
787.182	318
787.286	81
787.391	324
787.495	290
787.600	125
787.704	86
787.809	-345
787.913	1160
788.017	588
788.122	470
788.226	411
788.330	-495
788.435	105
788.539	341
788.643	-527
788.747	-104
788.852	594
788.956	234
789.060	627
789.164	789
789.268	-158
789.372	358
789.476	545
789.580	53
789.684	-106
789.788	999
789.892	-1076
789.996	423
790.100	-419
790.204	796
790.308	-1210
790.412	362
790.516	-471
790.620	568
790.724	361
790.828	573
790.931	-1130
791.035	1372
791.139	-327
791.242	-500
791.346	265
791.450	-490
791.554	-726
791.657	-950
791.761	-24
791.864	464
791.968	-408
792.072	419
792.175	-343
792.279	-420
792.382	530
792.486	-151
792.589	-749
792.693	504
792.796	-1303
792.899	1107
793.003	231
793.106	-797
793.209	-922
793.313	816
793.416	-1688
793.519	1137
793.623	-915
793.726	94
793.829	-540
793.932	-420
794.035	-1308
794.138	459
794.242	-102
794.345	-134
794.448	-407
794.551	211
794.654	3395
794.757	6199
794.860	99
794.963	533
795.066	-1436
795.169	1155
795.272	-759
795.375	217
795.477	-901
795.580	160
795.683	-1353
795.786	36
795.889	-1637
795.991	775
796.094	291
796.197	-1466
796.300	742
796.402	-614
796.505	-1290
796.608	-669
796.710	308
796.813	-252
796.915	-727
797.018	573
797.120	150
797.223	-1007
797.326	799
797.428	-301
797.530	22
797.633	-740
797.735	642
797.838	308
797.940	450
798.042	-610
798.145	-1203
798.247	911
798.349	-1673
798.452	458
798.554	-1323
798.656	-736
798.758	1108
798.860	-502
798.962	-906
799.065	-851
799.167	-1358
799.269	1358
799.371	424
799.473	-267
799.575	-1428
799.677	-26
799.779	219
799.881	-988
799.983	231
800.085	883
800.187	-766
800.289	-867
800.390	-565
800.492	348
800.594	523
800.696	-952
800.798	-518
800.899	-494
801.001	-888
801.103	-764
801.205	-556
801.306	444
801.408	-1240
801.509	241
801.611	-1413
801.713	294
801.814	-1172
801.916	-35
802.017	-1198
802.119	-1165
802.220	-173
802.322	-1607
802.423	1384
802.525	-1245
802.626	-1348
802.727	-521
802.829	-392
802.930	-2802
803.031	44
803.133	-248
803.234	-484
803.335	-89
803.436	-1280
803.538	-881
803.639	-1560
803.740	708
803.841	-1367
803.942	27
804.043	-445
804.144	-1227
804.245	-910
804.346	-882
804.447	-1408
804.548	-810
804.649	785
804.750	-1229
804.851	-1471
804.952	-1340
805.053	255
805.154	-939
805.255	-211
805.355	41
805.456	-1418
805.557	-38
805.658	-1346
805.758	86
805.859	-539
805.960	-339
806.061	-1314
806.161	-678
806.262	-413
806.362	-3
806.463	-17
806.564	674
806.664	-627
806.765	-125
806.865	-1155
806.966	-1242
807.066	-823
807.166	188
807.267	192
807.367	-49
807.468	-395
807.568	-979
807.668	-487
807.769	476
807.869	-763
807.969	467
808.069	-427
808.170	666
808.270	-476
808.370	374
808.470	-906
808.570	-1776
808.670	-1059
808.770	450
808.870	-604
808.970	-169
809.070	-753
809.170	-1012
809.271	-40
809.370	-498
809.470	-1236
809.570	-841
809.670	-1617
809.770	-298
809.870	92
809.970	-190
810.070	-736
810.169	169
810.269	-2607
810.369	470
810.469	-1169
810.568	-1058
810.668	-894
810.768	-169
810.867	-1037
810.967	-329
811.066	-750
811.166	-921
811.265	433
811.365	-1051
811.464	-1217
811.564	-586
811.663	-766
811.763	-1462
811.862	-185
811.962	295
812.061	-1479
812.160	-1654
812.260	-824
812.359	-54
812.458	-683
812.557	863
812.657	-1076
812.756	606
812.855	-1034
812.954	-917
813.053	-763
813.153	638
813.252	-2171
813.351	-621
813.450	-790
813.549	-294
813.648	150
813.747	-312
813.846	-29
813.945	-972
814.044	-1017
814.143	-564
814.242	-109
814.341	-1432
814.439	-841
814.538	90
814.637	-991
814.736	-1108
814.835	-388
814.933	-690
815.032	-593
815.131	-386
815.229	-845
815.328	1335
815.427	-148
815.525	827
815.624	990
815.722	-142
815.821	-557
815.919	473
816.018	-925
816.116	-67
816.215	457
816.313	530
816.412	531
816.510	1082
816.609	1135
816.707	1338
816.805	687
816.904	518
817.002	956
817.100	864
817.198	1257
817.296	609
817.395	733
817.493	1421
817.591	-192
817.689	879
817.787	-577
817.885	601
817.983	1108
818.081	1276
818.179	1299
818.277	5249
818.375	2866
818.473	886
818.571	488
818.669	1104
818.767	405
818.865	846
818.963	65
819.061	898
819.158	562
819.256	3382
819.354	2765
819.452	8680
819.549	3027
819.647	1401
819.745	-497
819.842	1327
819.940	-308
820.038	440
820.135	-27
820.233	1426
820.330	788
820.428	214
820.525	1606
820.623	582
820.720	-445
820.818	339
820.915	431
821.012	143
821.110	-1013
821.207	1682
821.304	-414
821.402	954
821.499	829
821.596	1017
821.693	-291
821.791	527
821.888	-1097
821.985	1317
822.082	-401
822.179	1048
822.276	-808
822.373	341
822.470	-188
822.567	156
822.664	-1062
822.761	377
822.858	-1075
822.955	912
823.052	-179
823.149	-57
823.246	224
823.343	-412
823.440	375
823.536	-368
823.633	-433
823.730	332
823.827	-81
823.923	845
824.020	714
824.117	159
824.213	-634
824.310	540
824.407	-415
824.503	159
824.600	-752
824.696	275
824.793	527
824.889	158
824.986	-161
825.082	-485
825.179	484
825.275	717
825.371	-344
825.468	424
825.564	-1706
825.660	741
825.757	101
825.853	390
825.949	-1231
826.045	107
826.142	-1020
826.238	73
826.334	-19
826.430	-1345
826.526	316
826.622	-632
826.718	-680
826.814	-239
826.910	208
827.006	-29
827.102	-720
827.198	1075
827.294	-152
827.390	307
827.486	285
827.582	-827
827.678	-897
827.774	662
827.869	-881
827.965	1351
828.061	-484
828.157	-125
828.252	536
828.348	-1237
828.444	-458
828.539	-432
828.635	-727
828.731	580
828.826	-1377
828.922	126
829.017	-212
829.113	80
829.208	-643
829.304	-146
829.399	747
829.495	-116
829.590	162
829.685	-878
829.781	-128
829.876	362
829.971	-1300
830.066	-1189
830.162	-1138
830.257	-171
830.352	-733
830.447	-252
830.543	-453
830.638	-997
830.733	142
830.828	349
830.923	-179
831.018	372
831.113	-652
831.208	-788
831.303	-1485
831.398	-371
831.493	-615
831.588	430
831.683	-1682
831.778	-364
831.873	-1086
831.967	759
832.062	-1086
832.157	-724
832.252	476
832.346	-1394
832.441	-164
832.536	225
832.631	-192
832.725	-105
832.820	-1202
832.914	-29
833.009	-1520
833.104	31
833.198	-961
833.293	-1320
833.387	483
833.482	-938
833.576	-1247
833.670	354
833.765	-513
833.859	-726
833.954	136
834.048	-668
834.142	130
834.237	-615
834.331	-327
834.425	-321
834.519	-1212
834.613	-512
834.708	-656
834.802	-248
834.896	-1781
834.990	-884
835.084	-1283
835.178	-482
835.272	-1014
835.366	-867
835.460	-188
835.554	-646
835.648	-1237
835.742	-184
835.836	71
835.930	-532
836.024	-518
836.117	224
836.211	-968
836.305	266
836.399	-15
836.493	-1858
836.586	99
836.680	-168
836.774	-1269
836.867	857
836.961	-1699
837.055	-947
837.148	-1531
837.242	-512
837.335	-788
837.429	-309
837.522	-1310
837.616	-725
837.709	-856
837.803	-615
837.896	-343
837.989	-1554
838.083	-862
838.176	-430
838.269	-2326
838.363	125
838.456	-1595
838.549	-559
838.642	-1299
838.735	74
838.829	-161
838.922	-1379
839.015	-969
839.108	-651
839.201	-1528
839.294	-222
839.387	-249
839.480	-1521
839.573	-548
839.666	-1292
839.759	-1491
839.852	-1092
839.945	-450
840.038	-1555
840.131	-1097
840.223	-500
840.316	-600
840.409	-860
840.502	-1397
840.594	814
840.687	-2382
840.780	-372
840.873	-1576
840.965	-755
841.058	-699
841.150	-531
841.243	-1275
841.336	172
841.428	-904
841.521	-602
841.613	-1080
841.706	-752
841.798	-518
841.890	-593
841.983	-1708
842.075	503
842.167	-1515
842.260	-379
842.352	-729
842.444	-498
842.537	-833
842.629	479
842.721	-1056
842.813	-1184
842.905	-1850
842.997	48
843.090	-539
843.182	-300
843.274	-1142
843.366	1490
843.458	981
843.550	546
843.642	-1764
843.734	-243
843.826	-1078
843.918	-312
844.009	-414
844.101	-1248
844.193	-1318
844.285	-48
844.377	-702
844.469	-478
844.560	-834
844.652	121
844.744	-846
844.835	-1178
844.927	-1327
845.019	-1213
845.110	-1693
845.202	-391
845.293	-1130
845.385	-1434
845.476	-1619
845.568	-781
845.659	-1772
845.751	-1063
845.842	-1644
845.934	-275
846.025	-929
846.116	-949
846.208	-2314
846.299	-859
846.390	-1548
846.482	-473
846.573	-704
846.664	-946
846.755	-1642
846.846	-695
846.937	-2984
847.029	-720
847.120	-1797
847.211	-1737
847.302	-317
847.393	-1682
847.484	-1072
847.575	-1272
847.666	-2242
847.757	-1231
847.847	-1463
847.938	-914
848.029	-550
848.120	-1278
848.211	-973
848.302	-1397
848.392	-1339
848.483	-1096
848.574	-1569
848.664	-893
848.755	-1229
848.846	-1274
848.936	-1994
849.027	-489
849.118	-1362
849.208	-960
849.299	-45
849.389	1730
849.480	4281
849.570	10510
849.661	21882
849.751	33424
849.841	7505
849.932	639
850.022	-787
850.112	144
850.203	-1671
850.293	-1282
850.383	-489
850.474	-1418
850.564	-2108
850.654	-937
850.744	-1285
850.834	-482
850.924	-1115
851.014	-793
851.104	-1644
851.194	-1179
851.284	-1418
851.374	-809
851.464	-1683
851.554	-558
851.644	-1524
851.734	792
851.824	-1269
851.914	-1028
852.004	-365
852.094	-990
852.183	-1426
852.273	-478
852.363	-579
852.452	-1158
852.542	-1840
852.632	-1431
852.721	-1159
852.811	-1183
852.901	-786
852.990	-1233
853.080	-680
853.169	403
853.259	-633
853.348	-684
853.438	-268
853.527	925
853.617	2239
853.706	6548
853.795	11541
853.885	28413
853.974	50895
854.063	97674
854.152	123494
854.242	40480
854.331	7223
854.420	3015
854.509	1158
854.598	1183
854.687	-439
854.777	-670
854.866	-517
854.955	-321
855.044	-921
855.133	-838
855.222	-1390
855.311	-761
855.400	-531
855.488	-641
855.577	-1071
855.666	-1147
855.755	-866
855.844	-913
855.933	-1387
856.021	28
856.110	-1473
856.199	-1694
856.288	-1647
856.376	-1648
856.465	-2158
856.554	-141
856.642	-732
856.731	-1027
856.819	-628
856.908	-1133
856.996	-1403
857.085	-996
857.173	-1213
857.262	-871
857.350	-573
857.438	-1192
857.527	-2068
857.615	-1181
857.703	-1411
857.792	-925
857.880	-1940
857.968	-975
858.056	-1520
858.145	-1472
858.233	-1817
858.321	-1486
858.409	-794
858.497	-1511
858.585	-1844
858.673	-1068
858.761	-2215
858.849	-1090
858.937	-2198
859.025	-375
859.113	-1116
859.201	-1735
859.289	-599
859.377	-1758
859.465	-1161
859.552	-1391
859.640	-1243
859.728	350
859.816	-2115
859.903	-827
859.991	-1537
860.079	-971
860.166	-1414
860.254	-1075
860.342	-950
860.429	-559
860.517	-1916
860.604	-649
860.692	-1494
860.779	-883
860.867	-1166
860.954	-809
861.042	-1308
861.129	-1272
861.216	-1138
861.304	-1007
861.391	-924
861.478	-1131
861.565	-1275
861.653	-192
861.740	-1800
861.827	-1379
861.914	-2157
862.001	-1453
862.089	-1905
862.176	-1115
862.263	-887
862.350	-1402
862.437	-1617
862.524	-1068
862.611	-951
862.698	-1008
862.785	-853
862.871	-802
862.958	-1305
863.045	-1463
863.132	-1151
863.219	-896
863.306	-1696
863.392	-162
863.479	-1282
863.566	-339
863.652	-1675
863.739	-1599
863.826	-1255
863.912	-540
863.999	-1762
864.086	-995
864.172	-1516
864.259	-112
864.345	-1430
864.432	-922
864.518	-1431
864.604	-1210
864.691	-2111
864.777	-378
864.863	-145
864.950	-599
865.036	-571
865.122	1822
865.209	1917
865.295	958
865.381	1478
865.467	860
865.553	2063
865.639	3454
865.726	6698
865.812	13894
865.898	27249
865.984	39699
866.070	77294
866.156	67285
866.242	15395
866.328	4245
866.414	1885
866.499	1273
866.585	727
866.671	566
866.757	481
866.843	467
866.928	-11
867.014	-10
867.100	334
867.186	-10
867.271	364
867.357	1202
867.442	-211
867.528	1047
867.614	-34
867.699	-158
867.785	829
867.870	-32
867.956	-32
868.041	959
868.127	-276
868.212	812
868.297	-256
868.383	-235
868.468	48
868.553	910
868.639	222
868.724	495
868.809	631
868.894	572
868.979	-99
869.065	532
869.150	-1734
869.235	-69
869.320	-1361
869.405	376
869.490	-864
869.575	100
869.660	-1190
869.745	107
869.830	-1692
869.915	-505
870.000	-930
870.085	363
870.169	-389
870.254	550
870.339	-1118
870.424	-475
870.509	-539
870.593	698
870.678	-451
870.763	-679
870.847	-278
870.932	742
871.016	-814
871.101	-929
871.186	-65
871.270	35
871.355	-595
871.439	-184
871.523	-56
871.608	-498
871.692	-826
871.777	38
871.861	65
871.945	-288
872.030	-670
872.114	-127
872.198	-1357
872.282	-573
872.367	-497
872.451	-601
872.535	-756
872.619	235
872.703	-1466
872.787	-794
872.871	-813
872.955	-180
873.039	-663
873.123	188
873.207	204
873.291	-760
873.375	-359
873.459	264
873.543	-762
873.627	-545
873.711	-809
873.794	-705
873.878	-1072
873.962	-837
874.045	-691
874.129	-852
874.137	-785
874.213	-114
874.245	-122
874.296	-134
874.352	-1002
874.380	-1429
874.460	-773
874.464	-748
874.547	-620
874.568	-506
874.631	-146
874.676	-296
874.714	-437
874.784	65
874.798	164
874.881	-212
874.892	-272
874.965	-660
874.999	-584
875.048	-504
875.107	-492
875.131	-491
875.215	114
875.215	113
875.298	-1320
875.323	-1230
875.381	-1014
875.430	-514
875.465	-164
875.538	-660
875.548	-729
875.631	-865
875.646	-874
875.714	-891
875.753	-891
875.798	-884
875.861	-275
875.881	-98
875.964	-433
875.968	-455
876.047	-859
876.076	-529
876.130	128
876.183	-434
876.213	-731
876.291	617
876.296	706
876.379	-669
876.398	-547
876.462	-130
876.506	-741
876.545	-1332
876.613	-574
876.628	-403
876.711	-1123
876.721	-1014
876.794	-18
876.828	-215
876.877	-613
876.935	-218
876.960	-26
877.043	-955
877.043	-952
877.125	-213
877.150	-233
877.208	-66
877.258	-283
877.291	-595
877.365	-574
877.374	-526
877.456	-496
877.472	-583
877.539	-1075
877.579	-544
877.622	-41
877.687	-494
877.704	-588
877.787	-196
877.794	-176
877.869	-53
877.901	-108
877.952	-183
878.008	-511
878.034	-678
878.115	-806
878.117	-804
878.199	-1368
878.222	-1043
878.282	-28
878.329	47
878.364	-90
878.437	55
878.447	86
878.529	-644
878.544	-619
878.611	-413
878.651	-485
878.694	-543
878.758	76
878.776	263
878.858	63
878.865	39
878.941	-477
878.972	-709
879.023	-1065
879.078	-1096
879.105	-976
879.185	-561
879.187	-556
879.269	-189
879.292	-252
879.351	-240
879.399	-86
879.433	-94
879.506	72
879.516	111
879.598	22
879.613	-21
879.680	-151
879.720	-90
879.762	-129
879.827	-680
879.844	-819
879.926	22
879.933	-4
880.007	6
880.040	100
880.089	100
880.147	105
880.171	220
880.253	1369
880.254	1372
880.335	2040
880.360	2229
880.417	3453
880.467	5781
880.499	7161
880.574	8816
880.580	8714
880.662	2507
880.680	1773
880.744	271
880.787	-182
880.825	-182
880.893	128
880.907	139
880.989	109
881.000	103
881.070	501
881.106	471
881.152	120
881.213	8
881.233	-27
881.315	-377
881.319	-393
881.396	-64
881.426	-22
881.478	-95
881.532	264
881.559	406
881.639	-102
881.641	-110
881.722	-215
881.745	-165
881.803	-21
881.852	119
881.885	214
881.958	-122
881.966	-129
882.047	769
882.064	638
882.129	-80
882.171	105
882.210	298
882.277	398
882.291	380
882.372	375
882.383	238
882.454	-286
882.489	-89
882.535	-7
882.596	-196
882.616	-203
882.697	-121
882.702	-129
882.778	94
882.808	127
882.859	-178
882.914	-107
882.940	100
883.020	382
883.021	382
883.102	-335
883.127	-285
883.183	487
883.233	458
883.264	202
883.339	386
883.345	396
883.426	-688
883.445	-557
883.507	125
883.551	-114
883.587	-138
883.657	380
883.668	422
883.749	591
883.763	601
883.830	246
883.869	17
883.910	-25
883.975	10
883.991	145
884.072	636
884.081	701
884.152	809
884.187	614
884.233	416
884.292	731
884.314	643
884.394	-561
884.398	-572
884.475	380
884.504	417
884.555	291
884.610	258
884.636	192
884.716	294
884.716	301
884.797	729
884.821	694
884.877	759
884.927	907
884.958	728
885.033	381
885.038	374
885.118	-22
885.139	-63
885.199	-326
885.244	-571
885.279	-172
885.350	638
885.359	656
885.439	691
885.456	651
885.520	493
885.561	589
885.600	546
885.667	206
885.680	208
885.760	396
885.773	360
885.840	286
885.878	547
885.920	700
885.984	551
886.000	522
886.080	429
886.089	406
886.160	422
886.195	543
886.240	629
886.300	365
886.320	280
886.400	315
886.406	296
886.480	-136
886.511	-244
886.560	33
886.616	210
886.640	308
886.720	817
886.722	815
886.800	578
886.827	590
886.879	566
886.932	388
886.959	658
887.038	1652
887.039	1653
887.119	723
887.143	553
887.198	939
887.248	1104
887.278	955
887.354	522
887.358	539
887.437	852
887.459	949
887.517	1346
887.564	1582
887.596	1227
887.669	449
887.676	492
887.755	831
887.774	954
887.835	767
887.880	539
887.914	519
887.985	617
887.994	737
888.073	1536
888.090	1721
888.153	1355
888.195	1058
888.232	870
888.300	550
888.311	526
888.391	271
888.405	218
888.470	797
888.510	1179
888.549	1155
888.615	1070
888.628	1134
888.708	1439
888.720	1488
888.787	1470
888.825	1410
888.866	804
888.930	-100
888.945	16
889.024	542
889.035	614
889.103	971
889.140	1144
889.182	968
889.245	703
889.261	713
889.340	732
889.349	730
889.419	885
889.454	964
889.498	970
889.559	969
889.577	1044
889.656	1351
889.664	1377
889.735	1238
889.768	1163
889.814	1002
889.873	782
889.978	1134
890.083	732
890.187	1575
890.292	963
890.397	985
890.501	1283
890.606	788
890.710	624
890.815	1740
890.919	711
891.024	740
891.128	1169
891.233	1380
891.337	552
891.442	1812
891.546	620
891.650	983
891.755	360
891.859	2514
891.963	833
892.068	280
892.172	625
892.276	702
892.380	150
892.484	739
892.589	2160
892.693	1455
892.797	-375
892.901	-193
893.005	944
893.109	1637
893.213	840
893.317	1398
893.421	1096
893.525	-379
893.629	65
893.733	1247
893.837	577
893.941	857
894.045	711
894.148	498
894.252	-91
894.356	702
894.460	1962
894.564	329
894.667	-29
894.771	822
894.875	123
894.978	-279
895.082	-163
895.186	1985
895.289	1132
895.393	450
895.496	1036
895.600	686
895.703	-324
895.807	457
895.910	1028
896.014	1003
896.117	537
896.221	894
896.324	299
896.427	971
896.531	995
896.634	251
896.737	767
896.840	304
896.944	980
897.047	300
897.150	1165
897.253	552
897.356	932
897.460	200
897.563	-46
897.666	307
897.769	136
897.872	770
897.975	1349
898.078	-79
898.181	127
898.284	169
898.387	457
898.490	874
898.593	45
898.695	408
898.798	518
898.901	574
899.004	-7
899.107	899
899.209	614
899.312	429
899.415	784
899.518	540
899.620	263
899.723	499
899.826	1289
899.928	587
900.031	-1097
900.133	-72
900.236	791
900.338	649
900.441	-22
900.543	-24
900.646	781
900.748	817
900.851	1039
900.953	429
901.055	71
901.158	421
901.260	374
901.362	175
901.465	249
901.567	606
901.669	1398
901.771	1152
901.873	429
901.976	171
902.078	564
902.180	1246
902.282	677
902.384	349
902.486	965
902.588	810
902.690	-1
902.792	499
902.894	917
902.996	851
903.098	864
903.200	-118
903.302	635
903.404	84
903.505	-26
903.607	-22
903.709	431
903.811	592
903.913	248
904.014	223
904.116	-1312
904.218	-221
904.319	811
904.421	647
904.523	455
904.624	1189
904.726	1328
904.827	-173
904.929	893
905.030	-638
905.132	582
905.233	240
905.335	480
905.436	1115
905.537	649
905.639	118
905.740	-69
905.841	-427
905.943	666
906.044	232
906.145	667
906.247	434
906.348	21
906.449	833
906.550	707
906.651	-175
906.752	549
906.854	610
906.955	504
907.056	470
907.157	369
907.258	374
907.359	472
907.460	85
907.561	713
907.662	-1165
907.762	-144
907.863	-60
907.964	125
908.065	778
908.166	-547
908.267	-227
908.367	127
908.468	840
908.569	1042
908.670	-6
908.770	464
908.871	580
908.971	983
909.072	377
909.173	-154
909.273	-667
909.374	404
909.474	460
909.575	-195
909.675	40
909.776	470
909.876	-201
909.977	408
910.077	645
910.177	899
910.278	268
910.378	120
910.478	0
910.579	322
910.679	155
910.779	-166
910.879	629
910.980	-165
911.080	-248
911.180	-406
911.280	-527
911.380	-187
911.480	148
911.580	-22
911.680	-238
911.780	853
911.880	960
911.980	-317
912.080	182
912.180	229
912.280	-243
912.380	251
912.480	108
912.580	58
912.679	-535
912.779	795
912.879	185
912.979	113
913.078	-463
913.178	-11
913.278	642
913.377	-40
913.477	278
913.577	772
913.676	34
913.776	252
913.875	-647
913.975	-374
914.074	-68
914.174	72
914.273	-453
914.373	264
914.472	316
914.572	-162
914.671	-249
914.770	-402
914.870	-126
914.969	168
915.068	-27
915.167	-351
915.267	120
915.366	79
915.465	135
915.564	2
915.663	521
915.763	-225
915.862	1220
915.961	71
916.060	-319
916.159	101
916.258	-420
916.357	258
916.456	-375
916.555	453
916.654	320
916.752	30
916.851	59
916.950	391
917.049	116
917.148	326
917.247	-241
917.345	220
917.444	-834
917.543	339
917.642	-500
917.740	-159
917.839	-212
917.937	49
918.036	714
918.135	-367
918.233	254
918.332	-758
918.430	-191
918.529	394
918.627	-504
918.726	368
918.824	108
918.923	-456
919.021	388
919.119	548
919.218	-808
919.316	1026
919.414	394
919.512	-73
919.611	210
919.709	-61
919.807	-82
919.905	440
920.003	969
920.102	884
920.200	717
920.298	232
920.396	381
920.494	565
920.592	-214
920.690	871
920.788	262
920.886	-340
920.984	594
921.082	-397
921.180	1318
921.277	759
921.375	764
921.473	1157
921.571	1698
921.669	460
921.766	1228
921.864	892
921.962	881
922.060	739
922.157	988
922.255	1655
922.352	699
922.450	2644
922.548	1879
922.645	975
922.743	2046
922.840	3403
922.938	3571
923.035	4139
923.133	3739
923.230	3386
923.327	5270
923.425	3932
923.522	3785
923.619	4278
923.717	3335
923.814	3849
923.911	2769
924.008	4067
924.106	3077
924.203	4310
924.300	4388
924.397	3345
924.494	3648
924.591	2917
924.688	2486
924.786	4191
924.883	3838
924.979	3299
925.077	3712
925.173	4028
925.270	2726
925.367	3778
925.464	3941
925.561	3504
925.658	4215
925.755	2697
925.852	4563
925.948	3285
926.045	3603
926.142	3159
926.239	3314
926.335	1794
926.432	3771
926.529	3811
926.625	3940
926.722	2882
926.818	3183
926.915	2668
927.011	3239
927.108	2700
927.204	2865
927.301	1991
927.397	3039
927.494	3599
927.590	1569
927.687	1783
927.783	4561
927.879	3961
927.976	2477
928.072	2521
928.168	2878
928.264	3473
928.361	3209
928.457	3088
928.553	2590
928.649	2804
928.745	2632
928.841	2508
928.937	2998
929.033	2563
929.129	2049
929.225	3248
929.321	3013
929.417	2691
929.513	2925
929.609	3241
929.705	1440
929.801	2845
929.897	2264
929.993	2637
930.089	3012
930.184	2361
930.280	2643
930.376	3515
930.471	2374
930.567	1603
930.663	2781
930.758	2306
930.854	2774
930.950	3209
931.045	1942
931.141	2086
931.236	3607
931.332	2843
931.427	1468
931.523	3177
931.618	2759
931.714	1743
931.809	1643
931.905	2343
932.000	1399
932.095	1042
932.191	2179
932.286	3450
932.381	2388
932.476	1510
932.572	1705
932.667	2037
932.762	2204
932.857	1933
932.952	3037
933.047	2051
933.142	588
933.237	2001
933.332	2386
933.427	2762
933.522	2070
933.617	1073
933.712	1446
933.807	2366
933.902	2594
933.997	1969
934.092	1332
934.187	1466
934.282	3132
934.376	2062
934.471	2190
934.566	1550
934.661	1927
934.755	2058
934.850	2610
934.945	2271
935.039	1858
935.134	1302
935.228	1903
935.323	3657
935.417	2103
935.512	1283
935.606	1177
935.701	1568
935.795	2874
935.890	2185
935.984	1739
936.079	1202
936.173	2220
936.267	1375
936.362	1033
936.456	1371
936.550	2850
936.644	2213
936.738	1079
936.833	1721
936.927	1032
937.021	1133
937.115	1860
937.209	73
937.303	2838
937.397	1472
937.491	1247
937.585	2535
937.679	1716
937.773	1144
937.867	1505
937.961	1965
938.055	1667
938.149	2115
938.243	735
938.337	577
938.430	803
938.524	2054
938.618	1445
938.712	1819
938.805	1456
938.899	1634
938.993	2763
939.086	1511
939.180	735
939.274	1112
939.367	1687
939.461	2699
939.554	1244
939.648	1198
939.741	652
939.835	1794
939.928	2494
940.022	1832
940.115	1369
940.208	2087
940.302	2304
940.395	2341
940.488	844
940.582	1638
940.675	780
940.768	847
940.861	1910
940.954	1444
941.048	734
941.141	392
941.234	1287
941.327	1266
941.420	2048
941.513	1495
941.606	1074
941.699	1292
941.792	1357
941.885	1345
941.978	2008
942.071	1591
942.164	483
942.257	1278
942.349	1592
942.442	1205
942.535	477
942.628	1081
942.721	889
942.813	464
942.906	1276
942.999	1473
943.091	-1
943.184	599
943.277	177
943.369	969
943.462	544
943.554	627
943.647	1016
943.739	2589
943.832	1352
943.924	742
944.017	760
944.109	-177
944.201	2022
944.294	489
944.386	1311
944.478	537
944.571	1015
944.663	974
944.755	628
944.847	1058
944.940	1419
945.032	-189
945.124	621
945.216	1660
945.308	406
945.400	2311
945.492	645
945.584	861
945.676	1081
945.768	1844
945.860	1125
945.952	1877
946.044	1055
946.136	1040
946.228	-240
946.320	414
946.412	864
946.503	1434
946.595	1924
946.687	1026
946.779	121
946.870	536
946.962	341
947.054	228
947.145	1229
947.237	342
947.329	191
947.420	1233
947.512	1109
947.603	-60
947.695	748
947.786	1078
947.878	770
947.969	757
948.061	267
948.152	272
948.243	-195
948.335	310
948.426	416
948.517	1045
948.609	1068
948.700	1081
948.791	541
948.882	351
948.973	-137
949.065	-22
949.156	725
949.247	-368
949.338	703
949.429	-141
949.520	475
949.611	-586
949.702	273
949.793	824
949.884	218
949.975	396
950.066	-125
950.157	-391
950.247	18
950.338	62
950.429	594
950.520	367
950.611	438
950.701	-522
950.792	1102
950.883	718
950.973	360
951.064	-234
951.155	188
951.245	1058
951.336	321
951.427	437
951.517	1799
951.608	390
951.698	432
951.788	-58
951.879	154
951.969	-276
952.060	597
952.150	80
952.240	774
952.331	-886
952.421	2621
952.511	358
952.602	372
952.692	175
952.782	-313
952.872	-203
952.962	1024
953.052	-89
953.143	-608
953.233	403
953.323	-535
953.413	-248
953.503	1083
953.593	630
953.683	289
953.773	-1304
953.863	146
953.953	-1217
954.042	365
954.132	-395
954.222	732
954.312	600
954.402	-191
954.492	-121
954.581	1070
954.671	-45
954.761	-127
954.850	210
954.940	-1017
955.030	-523
955.119	113
955.209	-52
955.298	-514
955.388	67
955.477	774
955.567	-840
955.656	-75
955.746	512
955.835	6
955.925	-657
956.014	-115
956.103	816
956.193	977
956.282	966
956.371	72
956.461	476
956.550	-100
956.639	619
956.728	288
956.817	123
956.906	-172
956.995	949
957.085	25
957.174	504
957.263	477
957.352	-493
957.441	-1092
957.530	-573
957.619	798
957.708	-631
957.796	-454
957.885	-133
957.974	-159
958.063	329
958.152	-438
958.241	416
958.329	410
958.418	-188
958.507	-278
958.596	1784
958.684	-366
958.773	338
958.861	277
958.950	216
959.039	42
959.127	393
959.216	-46
959.304	209
959.393	32
959.481	595
959.570	541
959.658	-438
959.746	-173
959.835	920
959.923	846
960.011	-524
960.100	859
960.188	480
960.276	423
960.365	-527
960.453	528
960.541	-645
960.629	-474
960.717	-319
960.805	-1153
960.893	121
960.981	-1116
961.069	1429
961.158	448
961.245	752
961.333	1029
961.421	360
961.509	-54
961.597	183
961.685	408
961.773	-348
961.861	-1044
961.949	684
962.036	-691
962.124	-577
962.212	-263
962.299	-191
962.387	-220
962.475	3
962.562	-567
962.650	360
962.738	174
962.825	-510
962.913	333
963.000	189
963.088	-525
963.175	-669
963.263	-532
963.350	-211
963.438	-208
963.525	-303
963.612	-292
963.700	73
963.787	973
963.874	23
963.962	-83
964.049	-244
964.136	-491
964.223	-545
964.310	-399
964.398	-531
964.485	-214
964.572	45
964.659	281
964.746	-60
964.833	89
964.920	-642
965.007	33
965.094	-87
965.181	-839
965.268	-289
965.355	-451
965.441	-342
965.528	-569
965.615	486
965.702	378
965.789	-1020
965.875	24
965.962	-444
966.049	-456
966.136	-111
966.222	-197
966.309	89
966.395	-647
966.482	339
966.569	-438
966.655	-137
966.742	-334
966.828	112
966.915	-331
967.001	-359
967.087	-713
967.174	-65
967.260	-268
967.347	-912
967.433	-898
967.519	554
967.605	-704
967.692	182
967.778	-140
967.864	-917
967.950	-762
968.036	-150
968.123	451
968.209	-792
968.295	-842
968.381	395
968.467	265
968.553	-1389
968.639	239
968.725	-1131
968.811	314
968.897	-412
968.983	-321
969.069	-969
969.154	-215
969.240	810
969.326	-921
969.412	-481
969.497	-582
969.583	-1441
969.669	-26
969.755	258
969.840	-382
969.926	243
970.012	346
970.097	855
970.183	336
970.268	-281
970.354	-151
970.439	-1196
970.525	160
970.610	-1247
970.696	373
970.781	-614
970.866	-1982
970.952	-48
971.037	-1593
971.122	-328
971.208	-796
971.293	-507
971.378	-1178
971.463	-853
971.549	-377
971.634	-927
971.719	-637
971.804	-326
971.889	-354
971.974	-522
972.059	-477
972.144	-640
972.229	22
972.314	-923
972.399	31
972.484	-807
972.569	-509
972.654	-1517
972.739	137
972.824	-926
972.908	-1203
972.993	-939
973.078	-702
973.163	-173
973.247	394
973.332	-2008
973.417	1026
973.501	-824
973.586	-710
973.671	-284
973.755	-695
973.840	82
973.924	249
974.009	23
974.093	-836
974.178	1057
974.262	-815
974.346	-538
974.431	-900
974.515	-875
974.600	-918
974.684	130
974.768	-1210
974.852	721
974.937	-1260
975.021	-67
975.105	-1269
975.189	-1153
975.273	163
975.358	-1549
975.442	-1468
975.526	135
975.610	-1215
975.694	-443
975.778	-47
975.862	-179
975.946	-2416
976.030	329
976.114	-1172
976.198	-801
976.281	-1091
976.365	-261
976.449	-1550
976.533	-701
976.617	-1027
976.700	-606
976.784	-1320
976.868	-550
976.951	38
977.035	-444
977.119	-492
977.202	-1507
977.286	-141
977.369	-807
977.453	136
977.536	-138
977.620	-1664
977.703	-539
977.787	-1079
977.870	-251
977.953	603
978.037	-2284
978.120	20
978.203	-1036
978.287	-1185
978.370	-261
978.453	-452
978.536	-535
978.620	-207
978.703	-610
978.786	-1424
978.869	-1003
978.952	-1394
979.035	-74
979.118	-219
979.201	-2174
979.284	-197
979.367	-1020
979.450	-545
979.533	-798
979.616	-651
979.699	-1476
979.782	-288
979.865	-566
979.948	-725
980.030	-936
980.113	-845
980.196	-1604
980.279	-646
980.361	-703
980.444	-1186
980.526	-43
980.609	-747
980.692	-47
980.774	608
980.857	-1693
980.939	1038
981.022	-1235
981.104	-685
981.187	-742
981.269	-63
981.352	-972
981.434	-1443
981.516	-718
981.599	224
981.681	72
981.763	-995
981.846	-193
981.928	31
982.010	-1036
982.092	-1122
982.174	575
982.256	-1004
982.339	-1090
982.421	-228
982.503	-156
982.585	-1921
982.667	-603
982.749	19
982.831	-928
982.913	-1170
982.995	183
983.077	-1166
983.158	608
983.240	-1105
983.322	-94
983.404	1174
983.486	-1110
983.568	493
983.649	-42
983.731	215
983.813	-330
983.894	-299
983.976	-1209
984.058	-4
984.139	-169
984.221	-811
984.302	-133
984.384	-223
984.465	-1068
984.547	-1001
984.628	-1462
984.710	1091
984.791	-617
984.872	-64
984.954	-703
985.035	-288
985.116	-625
985.198	-946
985.279	128
985.360	-1231
985.441	-373
985.522	623
985.604	-742
985.685	-2677
985.766	-593
985.847	308
985.928	-1459
986.009	-450
986.090	-720
986.171	100
986.252	-714
986.333	-262
986.414	-610
986.495	-161
986.576	-317
986.656	-360
986.737	349
986.818	209
986.899	-534
986.980	-447
987.060	1263
987.141	-746
987.222	48
987.302	759
987.383	338
987.464	838
987.544	619
987.625	270
987.705	943
987.786	857
987.866	193
987.947	-357
988.027	77
988.108	-278
988.188	1161
988.268	-527
988.349	-550
988.429	-564
988.509	75
988.589	-500
988.670	-1415
988.750	1028
988.830	-747
988.910	-202
988.990	622
989.070	-886
989.151	-27
989.231	-404
989.311	327
989.391	-444
989.471	178
989.551	-992
989.631	-828
989.711	24
989.791	-399
989.870	-505
989.950	431
990.030	-576
990.110	-747
990.190	-425
990.269	-825
990.349	-918
990.429	1044
990.509	-305
990.588	-1052
990.668	121
990.747	947
990.827	-867
990.907	164
990.986	-326
991.066	12
991.145	-451
991.225	-17
991.304	-1073
991.383	-569
991.463	-676
991.542	-76
991.622	-381
991.701	-142
991.780	-1071
991.859	-249
991.939	-772
992.018	-560
992.097	-383
992.176	-536
992.256	-326
992.335	-533
992.414	415
992.493	-733
992.572	-719
992.651	124
992.730	63
992.809	-544
992.888	-1145
992.967	-856
993.046	81
993.125	-1239
993.203	-1119
993.282	292
993.361	-20
993.440	-237
993.519	-1267
993.597	-145
993.676	-820
993.755	-266
993.834	-178
993.912	-1229
993.991	866
994.069	-803
994.148	-791
994.226	-660
994.305	-1144
994.384	-1272
994.462	524
994.540	-1304
994.619	-1267
994.697	-44
994.776	-1315
994.854	-941
994.932	-399
995.011	-620
995.089	-1197
995.167	-1177
995.245	-437
995.324	-1044
995.402	-727
995.480	-726
995.558	-1103
995.636	-1648
995.714	-816
995.792	-74
995.870	-1210
995.948	-1067
996.026	-699
996.104	-2028
996.182	-264
996.260	-285
996.338	-261
996.416	-1733
996.494	-1703
996.572	-249
996.649	-1885
996.727	-1512
996.805	-152
996.883	-691
996.960	-2151
997.038	-498
997.116	-736
997.193	-2062
997.271	-535
997.348	-958
997.426	-1356
997.504	-1686
997.581	-332
997.658	-624
997.736	-1807
997.813	-2403
997.891	-479
997.968	-1345
998.046	-1483
998.123	-792
998.200	-518
998.277	-1779
998.355	-200
998.432	-1196
998.509	-1169
998.586	-1221
998.663	-1623
998.741	-893
998.818	-609
998.895	-1608
998.972	43
999.049	-639
999.126	-944
999.203	-650
999.280	-1296
999.357	-1183
999.434	-1391
999.511	-1370
999.587	-619
999.664	-1343
999.741	-996
999.818	-1058
999.895	-629
999.971	-1187
1000.048	-1366
1000.125	-611
1000.202	-1096
1000.278	-1406
1000.355	-785
1000.431	-1885
1000.508	-1788
1000.584	-988
1000.661	-828
1000.738	-1519
1000.814	-728
1000.890	-1312
1000.967	-1797
1001.043	-998
1001.120	-2009
1001.196	-1247
1001.272	-1884
1001.349	-1119
1001.425	-1120
1001.501	-978
1001.577	-1570
1001.654	-1338
1001.730	-1142
1001.806	-1195
1001.882	-2213
1001.958	-521
1002.034	-1654
1002.110	-960
1002.186	-1874
1002.262	-1350
1002.338	-1801
1002.414	-1558
1002.490	-994
1002.566	-2363
1002.642	-1492
1002.718	-393
1002.794	-1933
1002.870	-1433
1002.945	-1070
1003.021	-1595
1003.097	-1115
1003.173	-1337
1003.248	-1805
1003.324	-511
1003.400	-946
1003.475	-2070
1003.551	-791
1003.626	-1606
1003.702	-1701
1003.777	-884
1003.853	-1157
1003.928	-1585
1004.004	-455
1004.079	-1111
1004.155	-1410
1004.230	-1917
1004.305	-776
1004.381	-2020
1004.456	-1558
1004.531	-976
1004.607	-1049
1004.682	-2047
1004.757	-1322
1004.832	-1754
1004.907	-1862
1004.982	-1723
1005.057	-637
1005.133	-1594
1005.208	-1268
1005.283	-2091
1005.358	-587
1005.433	-1970
1005.508	-1459
1005.583	-1505
1005.657	-1401
1005.732	-473
1005.807	-1617
1005.882	-1309
1005.957	-1239
1006.032	-397
1006.106	-665
1006.181	-825
1006.256	-1073
1006.331	-1180
1006.405	-1690
1006.480	-2050
1006.554	-2147
1006.629	-1128
1006.704	-1977
1006.778	-883
1006.853	-129
1006.927	-1375
1007.002	-2331
1007.076	-1567
1007.150	-1536
1007.225	-1663
1007.299	-1493
1007.373	-2093
1007.448	-918
1007.522	-513
1007.596	-1664
1007.671	-1311
1007.745	-968
1007.819	-2115
1007.893	-2050
1007.967	-1668
1008.041	-2227
1008.115	-1438
1008.190	-2351
1008.264	-1361
1008.338	-2823
1008.412	-1719
1008.486	-1611
1008.560	-1365
1008.633	-1802
1008.707	-2425
1008.781	-1389
1008.855	-1721
1008.929	-1472
1009.003	-2074
1009.076	-1751
1009.150	-2521
1009.224	-2111
1009.298	-1150
1009.371	-1899
1009.445	-712
1009.519	-1497
1009.592	-2337
1009.666	-966
1009.739	-1017
1009.813	-1949
1009.886	-911
1009.960	-2335
1010.033	-1395
1010.107	-2046
1010.180	-2805
1010.253	-1789
1010.327	-2075
1010.400	-2716
1010.473	-1632
1010.547	-243
1010.620	-1364
1010.693	-1688
1010.766	-1862
1010.840	-1543
1010.913	-1522
1010.986	-2566
1011.059	-1878
1011.132	-2203
1011.205	129
1011.278	-1614
1011.351	-2153
1011.424	-1576
1011.497	-1650
1011.570	-1310
1011.643	-1951
1011.716	-2009
1011.789	-2293
1011.862	-706
1011.934	-1242
1012.007	-2511
1012.080	-1732
1012.153	-1768
1012.225	-877
1012.298	-2272
1012.371	-2566
1012.443	-1101
1012.516	-2369
1012.588	-1314
1012.661	-1142
1012.733	-2275
1012.806	-958
1012.879	-1384
1012.951	-1797
1013.023	-1895
1013.096	-2029
1013.168	-1147
1013.241	-988
1013.313	-1715
1013.385	-2016
1013.458	-2115
1013.530	-1356
1013.602	-2242
1013.674	-1411
1013.746	-2482
1013.819	-1775
1013.891	-1056
1013.963	-2759
1014.035	-1692
1014.107	-1878
1014.179	-1320
1014.251	-2174
1014.323	-1364
1014.395	-2065
1014.467	-1054
1014.539	-1199
1014.611	-2531
1014.683	-2320
1014.754	-2234
1014.826	-2008
1014.898	-1838
1014.970	-2718
1015.042	-1333
1015.113	-2102
1015.185	-1192
1015.257	-2021
1015.328	-1072
1015.400	-2402
1015.471	-1669
1015.543	-2668
1015.615	-2113
1015.686	-2331
1015.757	-2295
1015.829	-2051
1015.901	-2372
1015.972	-2120
1016.043	-2866
1016.115	-1852
1016.186	-1692
1016.257	-1727
1016.328	-2171
1016.400	-1160
1016.471	-1714
1016.542	-1979
1016.613	-2185
1016.685	-1751
1016.756	-1130
1016.827	-2553
1016.898	-2216
1016.969	-1753
1017.040	-2380
1017.111	-1435
1017.182	-2383
1017.253	-1681
1017.324	-2685
1017.395	-3335
1017.466	-1615
1017.537	-2554
1017.608	-2339
1017.678	-1493
1017.749	-2438
1017.820	-2386
1017.891	-2267
1017.961	-1903
1018.032	-1847
1018.103	-1963
1018.173	-1687
1018.244	-2138
1018.315	-1973
1018.385	-2335
1018.456	-1667
1018.526	-2262
1018.597	-2265
1018.667	-2268
1018.738	-1940
1018.808	-2452
1018.878	-1978
1018.949	-2157
1019.019	-1856
1019.089	-2172
1019.160	-1428
1019.230	-2003
1019.300	-2180
1019.371	-2246
1019.441	-1856
1019.511	-2390
1019.581	-2263
1019.651	-2101
1019.721	-1042
1019.791	-2330
1019.861	-1708
1019.931	-1959
1020.001	-1673
1020.071	-1862
1020.141	-1602
1020.211	-2248
1020.281	-2178
1020.351	-2704
1020.421	-1468
1020.491	-1560
1020.560	-1316
1020.630	-1601
1020.700	-1907
1020.770	-2176
1020.839	-2494
1020.909	-2253
1020.979	-2383
1021.048	-2741
1021.118	-1967
1021.187	-1926
1021.257	-2330
1021.326	-1214
1021.396	-2143
1021.465	-1968
1021.535	-1431
1021.604	-3481
1021.674	-2837
1021.743	-1664
1021.812	-2058
1021.882	-2469
1021.951	-1936
1022.020	-2127
1022.089	-1926
1022.159	-2600
1022.228	-2123
1022.297	-2193
1022.366	-2181
1022.435	-1181
1022.504	-1783
1022.573	-1970
1022.642	-2052
1022.711	-2304
1022.781	-1643
1022.849	-2178
1022.918	-2347
1022.987	-2437
1023.056	-2147
1023.125	-1969
1023.194	-1713
1023.263	-2598
1023.331	-1065
1023.400	-2449
1023.469	-2222
1023.538	-1732
1023.606	-2353
1023.675	-2177
1023.744	-2142
1023.812	-1982
1023.881	-2417
1023.949	-2123
1024.018	-2360
1024.086	-2646
1024.155	-2633
1024.223	-2576
1024.292	-2551
1024.360	-1235
1024.429	-2449
1024.497	-3383
1024.565	-1913
1024.634	-2207
1024.702	-2376
1024.770	-2808
1024.838	-2942
1024.907	-2277
1024.975	-2772
1025.043	-2664
1025.111	-2888
1025.179	-2574
1025.247	-2532
1025.315	-3154
1025.383	-2866
1025.451	-2786
1025.519	-1942
1025.587	-2576
1025.655	-2332
1025.723	-2387
1025.791	-2671
1025.859	-1755
1025.927	-1935
1025.995	-2659
1026.062	-1908
1026.130	-2487
1026.198	-1939
1026.266	-2264
1026.333	-2009
1026.401	-1464
1026.469	-1570
1026.536	-2993
1026.604	-2373
1026.671	-2483
1026.739	-2066
1026.806	-2037
1026.874	-2148
1026.941	-2847
1027.009	-2466
1027.076	-2787
1027.144	-2284
1027.211	-2412
1027.278	-3151
1027.345	-2312
1027.413	-2342
1027.480	-2419
1027.547	-2033
1027.614	-2657
1027.682	-1882
1027.749	-1857
1027.816	-2708
1027.883	-2080
1027.950	-2654
1028.017	-2479
1028.084	-2419
1028.151	-2964
1028.218	-2607
1028.285	-2437
1028.352	-2093
1028.419	-2332
1028.486	-2317
1028.553	-1136
1028.619	-1953
1028.686	-2621
1028.753	-2770
1028.820	-2357
1028.886	-3084
1028.953	-1943
1029.020	-2361
1029.086	-2410
1029.153	-2635
1029.220	-2193
1029.286	-1639
1029.353	-2231
1029.419	-2399
1029.486	-2246
1029.552	-2513
1029.619	-2271
1029.685	-2082
1029.751	-1671
1029.818	-1085
1029.884	-2092
1029.951	-1850
1030.017	-2120
1030.083	-2197
1030.149	-2195
1030.216	-2268
1030.282	-2525
1030.348	-1983
1030.414	-2266
1030.480	-2312
1030.546	-2465
1030.612	-2284
1030.678	-2299
1030.744	-2999
1030.810	-2369
1030.876	-3180
1030.942	-2764
1031.008	-2494
1031.074	-2187
1031.140	-2176
1031.206	-2483
1031.272	-3438
1031.337	-1703
1031.403	-2347
1031.469	-3250
1031.534	-2583
1031.600	-2036
1031.666	-3182
1031.731	-2733
1031.797	-1976
1031.863	-2261
1031.928	-2451
1031.994	-1857
1032.059	-2504
1032.125	-2874
1032.190	-2126
1032.256	-2946
1032.321	-3011
1032.386	-2272
1032.452	-2213
1032.517	-2832
1032.582	-2192
1032.647	-3304
1032.713	-2353
1032.778	-2160
1032.843	-2794
1032.908	-2655
1032.974	-2376
1033.039	-2738
1033.104	-1660
1033.169	-2015
1033.234	-1968
1033.299	-2012
1033.364	-1574
1033.429	-1398
1033.494	-2233
1033.559	-3076
1033.624	-2235
1033.688	-2215
1033.753	-2911
1033.818	-2331
1033.883	-1433
1033.948	-2142
1034.013	-2264
1034.077	-2396
1034.142	-1713
1034.207	-1529
1034.271	-1106
1034.336	-975
1034.400	-1660
1034.465	-1575
1034.530	-2447
1034.594	-2168
1034.658	-2954
1034.723	-2449
1034.787	-1963
1034.852	-1691
1034.916	-1903
1034.981	-2899
1035.045	-2117
1035.109	-2789
1035.173	-2289
1035.238	-2603
1035.302	-2976
1035.366	-2054
1035.430	-2829
1035.495	-2750
1035.559	-2269
1035.623	-2578
1035.687	-3498
1035.751	-2627
1035.815	-2333
1035.879	-2418
1035.943	-2110
1036.007	-2787
1036.071	-2367
1036.135	-2719
1036.198	-2669
1036.262	-2712
1036.326	-1760
1036.390	-2325
1036.454	-2244
1036.517	-2031
1036.581	-2206
1036.645	-2237
1036.709	-2045
1036.772	-2704
1036.836	-2914
1036.900	-2577
1036.963	-3251
1037.026	-2492
1037.090	-1710
1037.154	-1929
1037.217	-2027
1037.280	-2111
1037.344	-2153
1037.407	-3305
1037.471	-2481
1037.534	-2834
1037.597	-2044
1037.661	-2664
1037.724	-1703
1037.787	-2163
1037.850	-3242
1037.913	-2764
1037.977	-1905
1038.040	-2110
1038.103	-2438
1038.166	-2779
1038.229	-2763
1038.292	-2627
1038.355	-3171
1038.418	-2375
1038.481	-2181
1038.544	-2213
1038.607	-3097
1038.670	-2688
1038.732	-2036
1038.795	-3149
1038.858	-2530
1038.921	-2566
1038.984	-2501
1039.046	-2464
1039.109	-2291
1039.172	-2260
1039.234	-3550
1039.297	-2348
1039.360	-2250
1039.422	-2709
1039.485	-3280
1039.547	-3139
1039.610	-2341
1039.672	-2518
1039.734	-3050
1039.797	-2909
1039.859	-2922
1039.922	-2511
1039.984	-2112
1040.046	-2436
1040.109	-3027
1040.171	-3307
1040.233	-1824
1040.295	-2691
1040.358	-1976
1040.420	-2841
1040.482	-3027
1040.544	-2704
1040.606	-2476
1040.668	-2640
1040.730	-2648
1040.792	-3014
1040.854	-2918
1040.916	-2574
1040.978	-2674
1041.040	-2205
1041.102	-1385
1041.164	-2129
1041.225	-2112
1041.287	-2688
1041.349	-1651
1041.411	-2175
1041.472	-2588
1041.534	-2728
1041.596	-2874
1041.657	-1983
1041.719	-1559
1041.781	-2720
1041.842	-2940
1041.904	-2997
1041.965	-3159
1042.027	-2854
1042.088	-2020
1042.150	-2783
1042.211	-3104
1042.272	-2149
1042.334	-2412
1042.395	-2332
1042.456	-2687
1042.518	-2526
1042.579	-2583
1042.640	-2710
1042.701	-2606
1042.763	-2846
1042.824	-1950
1042.885	-2768
1042.946	-2715
1043.007	-2492
1043.068	-2203
1043.129	-2477
1043.190	-2425
1043.251	-2297
1043.312	-2941
1043.373	-2231
1043.434	-1687
1043.495	-2595
1043.556	-2456
1043.616	-2310
1043.677	-1985
1043.738	-2433
1043.799	-2248
1043.859	-2521
1043.920	-1677
1043.981	-2562
1044.041	-2180
1044.102	-2536
1044.162	-2372
1044.223	-2617
1044.284	-2079
1044.344	-1915
1044.405	-2089
1044.465	-1871
1044.525	-2215
1044.586	-2143
1044.646	-2166
1044.707	-1395
1044.767	-2572
1044.827	-2357
1044.887	-2105
1044.948	-1438
1045.008	-2164
1045.068	-2496
1045.128	-1710
1045.188	-1831
1045.249	-2076
1045.309	-2183
1045.369	-1581
1045.429	-2690
1045.489	-2016
1045.549	-2038
1045.609	-2395
1045.669	-2570
1045.729	-1762
1045.789	-2245
1045.848	-1692
1045.908	-1239
1045.968	-1773
1046.028	-1491
1046.088	-649
1046.147	-1880
1046.207	-1770
1046.267	-1955
1046.326	-1601
1046.386	-1158
1046.446	-2004
1046.505	-2418
1046.565	-1178
1046.624	-1346
1046.684	-2064
1046.743	-941
1046.803	-691
1046.862	-738
1046.922	0
