'Start Wavelength	183.907
'End Wavelength	1046.922
'Gate Delay	5.000
'Gate Width (ms)	1.050
'Laser Output Level	0.000
'X Position	0.000
'Y Position	0.000
'Z Position	0.000
'Grid Point Number	1.000
'Shot Number	100.000
183.907	-521.000
183.977	526.000
184.047	-336
184.116	12
184.186	66
184.256	-308
184.325	445
184.395	-959
184.465	991
184.534	303
184.604	-728
184.674	409
184.743	-527
184.813	87
184.883	510
184.952	311
185.022	26
185.092	152
185.161	-928
185.231	955
185.301	-318
185.370	-189
185.440	278
185.509	-212
185.579	29
185.649	67
185.718	88
185.788	-178
185.857	263
185.927	107
185.996	-219
186.066	326
186.136	-461
186.205	-286
186.275	-478
186.344	785
186.414	551
186.483	-416
186.553	1049
186.622	1126
186.692	-291
186.761	-367
186.831	600
186.900	-475
186.970	85
187.039	674
187.109	394
187.178	139
187.248	-548
187.317	249
187.387	-652
187.456	-659
187.526	51
187.595	255
187.664	516
187.734	419
187.803	232
187.873	1078
187.942	695
188.012	658
188.081	324
188.150	-77
188.220	433
188.289	206
188.358	-106
188.428	502
188.497	-988
188.567	748
188.636	-695
188.705	-62
188.775	-84
188.844	-431
188.913	217
188.983	387
189.052	482
189.121	-345
189.191	-369
189.260	834
189.329	353
189.399	266
189.468	-238
189.537	418
189.606	84
189.676	356
189.745	947
189.814	872
189.883	-465
189.953	-425
190.022	586
190.091	374
190.161	1361
190.230	810
190.299	2
190.368	644
190.437	-43
190.507	71
190.576	-339
190.645	-668
190.714	-358
190.783	-636
190.853	1270
190.922	577
190.991	-64
191.060	357
191.129	-660
191.198	1024
191.268	127
191.337	-1048
191.406	633
191.475	-212
191.544	-176
191.613	805
191.682	104
191.752	114
191.821	-96
191.890	-453
191.959	-329
192.028	1175
192.097	-279
192.166	17
192.235	-151
192.304	13
192.373	-482
192.442	-43
192.511	-324
192.580	-265
192.650	-141
192.719	-124
192.788	-612
192.857	478
192.926	37
192.995	273
193.064	100
193.133	680
193.202	444
193.271	402
193.340	413
193.409	1117
193.478	-213
193.547	869
193.615	826
193.684	1484
193.753	630
193.822	836
193.891	567
193.960	1020
194.029	99
194.098	-107
194.167	-734
194.236	474
194.305	491
194.374	-183
194.443	-99
194.512	285
194.580	-34
194.649	1041
194.718	749
194.787	502
194.856	421
194.925	465
194.994	323
195.062	414
195.131	145
195.200	-115
195.269	605
195.338	488
195.407	125
195.475	216
195.544	625
195.613	270
195.682	206
195.751	1409
195.819	372
195.888	101
195.957	977
196.026	696
196.094	981
196.163	494
196.232	696
196.301	102
196.369	906
196.438	232
196.507	625
196.576	745
196.644	666
196.713	446
196.782	-53
196.850	559
196.919	654
196.988	1057
197.056	-199
197.125	-389
197.194	608
197.262	-856
197.331	158
197.400	239
197.468	660
197.537	406
197.606	528
197.674	279
197.743	800
197.812	35
197.880	1220
197.949	982
198.017	1095
198.086	753
198.155	434
198.223	733
198.292	888
198.360	825
198.429	418
198.497	510
198.566	1500
198.635	1517
198.703	835
198.772	1073
198.840	1165
198.909	305
198.977	124
199.046	1162
199.114	891
199.183	1025
199.251	116
199.320	195
199.388	-813
199.457	292
199.525	880
199.594	327
199.662	808
199.731	448
199.799	667
199.867	1385
199.936	-173
200.004	1102
200.073	1133
200.141	225
200.210	33
200.278	757
200.346	426
200.415	878
200.483	-75
200.552	745
200.620	652
200.688	845
200.757	180
200.825	152
200.893	-18
200.962	420
201.030	699
201.098	694
201.167	-156
201.235	16
201.303	622
201.372	229
201.440	651
201.508	569
201.577	-788
201.645	-612
201.713	365
201.781	334
201.850	-163
201.918	367
201.986	70
202.055	1365
202.123	642
202.191	1042
202.259	705
202.327	-68
202.396	-13
202.464	1030
202.532	283
202.600	1720
202.669	870
202.737	405
202.805	-234
202.873	1147
202.941	1213
203.009	653
203.078	-385
203.146	729
203.214	70
203.282	-280
203.350	477
203.418	8
203.487	1110
203.555	908
203.623	-159
203.691	254
203.759	268
203.827	448
203.895	589
203.963	83
204.031	-373
204.099	435
204.168	1110
204.236	986
204.304	1004
204.372	1523
204.440	-358
204.508	-213
204.576	-194
204.644	364
204.712	387
204.780	887
204.848	284
204.916	1206
204.984	334
205.052	845
205.120	687
205.188	846
205.256	396
205.324	523
205.392	239
205.460	1067
205.528	711
205.596	836
205.664	735
205.732	813
205.799	1107
205.867	2195
205.935	242
206.003	1757
206.071	453
206.139	102
206.207	74
206.275	365
206.343	-96
206.411	691
206.478	1067
206.546	987
206.614	1055
206.682	590
206.750	1093
206.818	918
206.885	961
206.953	-421
207.021	2256
207.089	453
207.157	468
207.225	950
207.292	117
207.360	514
207.428	487
207.496	510
207.563	846
207.631	764
207.699	-161
207.767	1032
207.834	696
207.902	955
207.970	234
208.038	991
208.105	400
208.173	765
208.241	1074
208.309	1157
208.376	599
208.444	1962
208.512	1276
208.579	250
208.647	865
208.715	1552
208.782	1012
208.850	1080
208.918	533
208.985	1263
209.053	1126
209.120	1791
209.188	913
209.256	1450
209.323	-106
209.391	1612
209.459	1254
209.526	1399
209.594	-113
209.661	1373
209.729	1159
209.796	1059
209.864	808
209.932	336
209.999	1621
210.067	1807
210.134	1051
210.202	836
210.269	1144
210.337	1191
210.404	761
210.472	629
210.539	1426
210.607	-74
210.674	564
210.742	1302
210.809	1913
210.877	1245
210.944	2142
211.012	55
211.079	2435
211.146	957
211.214	1138
211.281	984
211.349	1745
211.416	1065
211.484	1790
211.551	1389
211.618	1223
211.686	1559
211.753	407
211.821	728
211.888	1317
211.955	1143
212.023	927
212.090	1233
212.157	645
212.225	2178
212.292	2419
212.359	3851
212.427	6622
212.494	3974
212.561	1312
212.629	2605
212.696	847
212.763	1117
212.831	956
212.898	1705
212.965	394
213.032	1192
213.100	1966
213.167	1291
213.234	2132
213.301	1461
213.369	1430
213.436	1180
213.503	1413
213.570	1958
213.638	1866
213.705	729
213.772	564
213.839	1944
213.906	2040
213.973	1561
214.041	971
214.108	1997
214.175	1859
214.242	1779
214.309	1091
214.376	1024
214.444	1169
214.511	1544
214.578	1053
214.645	2079
214.712	1486
214.779	1843
214.846	525
214.913	1826
214.980	1866
215.048	1558
215.115	1772
215.182	1794
215.249	2078
215.316	1572
215.383	2315
215.450	1663
215.517	1259
215.584	1569
215.651	550
215.718	1606
215.785	2044
215.852	1227
215.919	1652
215.986	1745
216.053	829
216.120	1240
216.187	1520
216.254	2372
216.321	1088
216.388	1386
216.455	1319
216.522	2263
216.589	1752
216.656	2682
216.722	2610
216.789	2336
216.856	2029
216.923	2835
216.990	2635
217.057	2562
217.124	1827
217.191	2297
217.258	2837
217.324	2589
217.391	2276
217.458	2921
217.525	2326
217.592	2162
217.659	1517
217.725	3185
217.792	2544
217.859	3032
217.926	189
217.993	1129
218.059	1902
218.126	1573
218.193	1659
218.260	1594
218.327	1725
218.393	1849
218.460	605
218.527	1489
218.594	1288
218.660	2190
218.727	3333
218.794	1472
218.860	1879
218.927	1198
218.994	1701
219.061	1274
219.127	2280
219.194	2357
219.261	1694
219.327	925
219.394	2254
219.461	457
219.527	322
219.594	2348
219.661	1376
219.727	170
219.794	2260
219.860	1462
219.927	1915
219.994	2414
220.060	3135
220.127	2841
220.193	2086
220.260	3152
220.326	2905
220.393	4147
220.460	4507
220.526	3213
220.593	2380
220.659	3992
220.726	2942
220.792	5649
220.859	5055
220.925	5603
220.992	6839
221.058	6616
221.125	6893
221.191	4702
221.258	2744
221.324	3236
221.391	2643
221.457	2146
221.524	2261
221.590	2844
221.657	5076
221.723	4461
221.789	3290
221.856	4063
221.922	1561
221.989	2860
222.055	2453
222.121	1181
222.188	3477
222.254	2657
222.321	2073
222.387	1645
222.453	996
222.520	953
222.586	1496
222.652	2305
222.719	1136
222.785	2303
222.851	1385
222.918	1282
222.984	1357
223.050	1111
223.116	280
223.183	2482
223.249	630
223.315	1381
223.382	1422
223.448	576
223.514	594
223.580	1624
223.647	807
223.713	642
223.779	1424
223.845	1256
223.911	1253
223.978	254
224.044	1125
224.110	1069
224.176	1321
224.242	691
224.309	272
224.375	1636
224.441	1144
224.507	1554
224.573	378
224.639	2535
224.705	991
224.772	1231
224.838	324
224.904	1468
224.970	873
225.036	960
225.102	629
225.168	2058
225.234	1006
225.300	1247
225.366	1349
225.432	1452
225.499	1181
225.565	1444
225.631	1751
225.697	2120
225.763	2111
225.829	2351
225.895	2775
225.961	2852
226.027	2524
226.093	1965
226.159	4249
226.225	5023
226.291	8701
226.357	12029
226.423	7402
226.489	5412
226.554	3497
226.620	3885
226.686	3686
226.752	6248
226.818	9153
226.884	14940
226.950	13312
227.016	8049
227.082	5035
227.148	3581
227.214	3755
227.279	3180
227.345	2307
227.411	3131
227.477	2563
227.543	3898
227.609	3705
227.674	3899
227.740	2024
227.806	2508
227.872	1755
227.938	2221
228.003	2960
228.069	2041
228.135	1106
228.201	1493
228.267	1248
228.332	2238
228.398	1440
228.464	2644
228.530	1445
228.595	1541
228.661	872
228.727	1537
228.792	2946
228.858	730
228.924	-343
228.990	3245
229.055	1054
229.121	2460
229.187	1510
229.252	897
229.318	624
229.384	1919
229.449	1112
229.515	1096
229.581	507
229.646	2773
229.712	1667
229.777	2722
229.843	2385
229.909	3698
229.974	3043
230.040	3245
230.105	1858
230.171	2696
230.236	3413
230.302	3326
230.368	3374
230.433	2843
230.499	2864
230.564	3671
230.630	1369
230.695	2627
230.761	3388
230.826	791
230.892	3649
230.957	1070
231.023	2280
231.088	1659
231.154	1425
231.219	2465
231.284	1522
231.350	3107
231.415	1339
231.481	2170
231.546	2142
231.612	2035
231.677	776
231.742	252
231.808	2896
231.873	994
231.939	-1284
232.004	3587
232.069	3254
232.135	2051
232.200	1619
232.265	1626
232.331	688
232.396	1012
232.461	815
232.527	1158
232.592	1713
232.657	1607
232.723	1385
232.788	1698
232.853	1892
232.918	1486
232.984	235
233.049	1428
233.114	294
233.179	1906
233.245	1873
233.310	2778
233.375	946
233.440	1931
233.506	336
233.571	1025
233.636	1412
233.701	1208
233.766	1191
233.832	2479
233.897	1251
233.962	-62
234.027	2167
234.092	1444
234.157	191
234.222	1789
234.288	1349
234.353	3803
234.418	3407
234.483	3404
234.548	3420
234.613	2731
234.678	3305
234.743	2146
234.808	5726
234.873	2086
234.938	3634
235.004	2905
235.069	3033
235.134	1990
235.199	2650
235.264	2555
235.329	1887
235.394	3251
235.459	2670
235.524	1673
235.589	2441
235.654	2372
235.719	939
235.784	2638
235.849	1632
235.913	2801
235.978	3377
236.043	3076
236.108	1785
236.173	1756
236.238	2929
236.303	1921
236.368	2234
236.433	3511
236.498	3217
236.563	5042
236.627	8181
236.692	21506
236.757	19637
236.822	9983
236.887	6311
236.952	6450
237.017	4228
237.081	6408
237.146	6628
237.211	13013
237.276	21280
237.341	29252
237.405	17709
237.470	9682
237.535	5068
237.600	4605
237.664	3731
237.729	2806
237.794	4076
237.859	8346
237.923	4978
237.988	2630
238.053	3700
238.118	3293
238.182	5669
238.247	6336
238.312	2025
238.376	2639
238.441	441
238.506	2889
238.570	252
238.635	3245
238.700	2288
238.764	2028
238.829	3330
238.893	2778
238.958	2890
239.023	3016
239.087	1771
239.152	2184
239.216	1775
239.281	1931
239.346	2642
239.410	1940
239.475	1126
239.539	5805
239.604	3257
239.668	2842
239.733	1756
239.797	3202
239.862	5271
239.926	5532
239.991	3223
240.055	2724
240.120	1999
240.184	1706
240.249	1205
240.313	1290
240.378	1858
240.442	3188
240.507	4653
240.571	2442
240.635	2205
240.700	3116
240.764	1380
240.829	1525
240.893	367
240.957	2265
241.022	2347
241.086	4320
241.151	1457
241.215	1161
241.279	2749
241.344	2670
241.408	3507
241.472	2001
241.537	4255
241.601	3483
241.665	1873
241.730	2765
241.794	3240
241.858	2169
241.922	3063
241.987	3450
242.051	2323
242.115	1873
242.179	2520
242.244	2526
242.308	2823
242.372	2903
242.436	3226
242.501	3281
242.565	2060
242.629	2400
242.693	2879
242.757	1567
242.822	2388
242.886	3660
242.950	2791
243.014	1610
243.078	2606
243.142	3136
243.206	2341
243.271	3768
243.335	2170
243.399	4970
243.463	10376
243.527	26174
243.591	8200
243.655	4355
243.719	2904
243.783	4511
243.847	5084
243.911	6176
243.975	4875
244.040	3288
244.104	3950
244.168	3103
244.232	2926
244.296	4357
244.360	5356
244.424	2462
244.488	2568
244.552	2849
244.615	935
244.679	2054
244.743	2296
244.807	2381
244.871	2024
244.935	2256
244.999	626
245.063	1739
245.127	2378
245.191	4043
245.255	2867
245.319	2998
245.383	1448
245.446	3532
245.510	1760
245.574	2526
245.638	2432
245.702	1179
245.766	6091
245.829	3830
245.893	1995
245.957	1789
246.021	2469
246.085	2168
246.149	2313
246.212	8224
246.276	9530
246.340	4484
246.404	3543
246.467	4757
246.531	3144
246.595	4853
246.659	3814
246.722	2194
246.786	3713
246.850	3463
246.913	4910
246.977	1692
247.041	3234
247.104	3271
247.168	3175
247.232	6812
247.295	13910
247.359	7418
247.423	3029
247.486	4887
247.550	4328
247.614	2311
247.677	4160
247.741	2605
247.804	2305
247.868	4067
247.932	5196
247.995	13824
248.059	4901
248.122	2690
248.186	4618
248.249	7025
248.313	20886
248.376	22939
248.440	14565
248.503	5831
248.567	5691
248.630	6280
248.694	9275
248.757	12683
248.821	23599
248.884	15895
248.948	12162
249.011	17850
249.075	25795
249.138	23013
249.202	10108
249.265	5949
249.328	6695
249.392	4621
249.455	5272
249.519	4242
249.582	5156
249.645	7232
249.709	5406
249.772	4895
249.835	4538
249.899	4539
249.962	4324
250.025	4747
250.089	8072
250.152	13018
250.215	6217
250.279	5022
250.342	4801
250.405	4965
250.468	4968
250.532	6021
250.595	9450
250.658	24302
250.721	41288
250.785	17717
250.848	11311
250.911	5927
250.974	5445
251.038	8422
251.101	15432
251.164	8537
251.227	9408
251.290	9633
251.354	12739
251.417	35395
251.480	37691
251.543	28066
251.606	57858
251.669	49320
251.732	22425
251.795	21254
251.859	21980
251.922	39008
251.985	26257
252.048	12396
252.111	9349
252.174	7947
252.237	13173
252.300	28361
252.363	28296
252.426	49567
252.489	23605
252.552	11796
252.615	8438
252.678	10715
252.741	20654
252.804	25607
252.867	52386
252.930	33181
252.993	18823
253.056	11815
253.119	7447
253.182	5636
253.245	9560
253.308	7559
253.371	5597
253.434	5698
253.497	5969
253.559	12334
253.622	7685
253.685	7518
253.748	7505
253.811	3672
253.874	4978
253.937	5244
254.000	4125
254.062	8292
254.125	12582
254.188	11107
254.251	8715
254.314	4237
254.376	6278
254.439	8157
254.502	6456
254.565	7635
254.628	15297
254.690	6922
254.753	3975
254.816	3948
254.878	3930
254.941	8427
255.004	9059
255.067	3753
255.129	2875
255.192	2467
255.255	1080
255.317	3245
255.380	2367
255.443	1862
255.505	1216
255.568	1284
255.631	1843
255.693	3005
255.756	1861
255.819	2126
255.881	1095
255.944	1773
256.006	1742
256.069	1456
256.132	1524
256.194	2119
256.257	4286
256.319	3534
256.382	3047
256.444	4145
256.507	3540
256.569	3274
256.632	3019
256.694	5208
256.757	14128
256.819	38170
256.882	18141
256.944	8533
257.007	6401
257.069	5251
257.132	3863
257.194	4765
257.257	3920
257.319	4680
257.381	6002
257.444	11871
257.506	40531
257.569	46593
257.631	21594
257.693	11804
257.756	6042
257.818	4135
257.880	3462
257.943	3987
258.005	2176
258.067	3530
258.130	3328
258.192	3721
258.254	4819
258.317	3723
258.379	3039
258.441	8716
258.503	8268
258.566	5800
258.628	6515
258.690	2761
258.753	4115
258.815	5333
258.877	3843
258.939	3229
259.001	3249
259.064	2867
259.126	1983
259.188	3103
259.250	3726
259.312	3641
259.375	7653
259.437	6072
259.499	2839
259.561	2889
259.623	3759
259.685	3577
259.747	2378
259.809	5239
259.872	7773
259.934	13895
259.996	15721
260.058	5383
260.120	2433
260.182	2992
260.244	2460
260.306	2656
260.368	2966
260.430	2210
260.492	5562
260.554	11074
260.616	4769
260.678	9870
260.740	9258
260.802	3150
260.864	3540
260.926	2648
260.988	3365
261.050	3100
261.112	7663
261.174	14372
261.236	8084
261.298	4015
261.359	3142
261.421	5522
261.483	2438
261.545	2907
261.607	1683
261.669	2043
261.731	3368
261.793	6540
261.854	3414
261.916	4080
261.978	3085
262.040	4054
262.102	1936
262.164	3111
262.225	1912
262.287	2588
262.349	4671
262.411	4958
262.472	2181
262.534	2337
262.596	3820
262.658	2664
262.719	1090
262.781	2458
262.843	3431
262.904	2745
262.966	3147
263.028	3533
263.090	11117
263.151	31985
263.213	12995
263.275	7444
263.336	2543
263.398	2960
263.459	998
263.521	1846
263.583	5508
263.644	4958
263.706	2220
263.767	1030
263.829	1377
263.891	602
263.952	1050
264.014	1831
264.075	3929
264.137	10086
264.198	4371
264.260	1787
264.321	2601
264.383	5518
264.444	14892
264.506	5520
264.567	2746
264.629	6453
264.690	13642
264.752	5457
264.813	3066
264.875	1851
264.936	2674
264.998	2500
265.059	2604
265.120	3224
265.182	4585
265.243	19048
265.305	23134
265.366	6682
265.427	2949
265.489	2808
265.550	404
265.611	2910
265.673	2479
265.734	2077
265.795	2391
265.857	1773
265.918	1842
265.979	6967
266.040	31262
266.102	31513
266.163	9579
266.224	6197
266.286	4153
266.347	1970
266.408	1865
266.469	2906
266.530	1533
266.592	1982
266.653	3772
266.714	6047
266.775	1863
266.836	1744
266.898	1282
266.959	3873
267.020	1691
267.081	2527
267.142	1523
267.203	1792
267.264	769
267.326	3066
267.387	1299
267.448	1701
267.509	2224
267.570	1031
267.631	692
267.692	705
267.753	2518
267.814	1807
267.875	3997
267.936	8753
267.997	6862
268.058	5696
268.119	3603
268.180	2610
268.241	1249
268.302	2204
268.363	1653
268.424	1749
268.485	1746
268.546	1505
268.607	1196
268.668	1389
268.729	1057
268.790	1710
268.851	2008
268.912	5164
268.972	5913
269.033	2733
269.094	1293
269.155	1489
269.216	1842
269.277	1415
269.338	1933
269.398	2655
269.459	944
269.520	3550
269.581	3063
269.642	3771
269.702	2491
269.763	3264
269.824	2030
269.885	2284
269.945	4743
270.006	2761
270.067	1806
270.128	1018
270.188	835
270.249	1683
270.310	653
270.370	2235
270.431	2001
270.492	1584
270.553	1831
270.613	3162
270.674	6858
270.734	2905
270.795	1665
270.856	2621
270.916	1164
270.977	1869
271.038	1965
271.098	2285
271.159	3215
271.219	3141
271.280	1185
271.340	2227
271.401	1572
271.462	3219
271.522	2654
271.583	1803
271.643	2071
271.704	1368
271.764	2558
271.825	5983
271.885	20532
271.946	28021
272.006	9214
272.066	11720
272.127	22131
272.187	7615
272.248	4041
272.308	4142
272.369	14116
272.429	8417
272.489	5704
272.550	5500
272.610	5102
272.671	3730
272.731	3355
272.791	4748
272.852	2495
272.912	2787
272.972	1798
273.033	2004
273.093	2279
273.153	4458
273.214	1768
273.274	2835
273.334	10379
273.394	20644
273.455	6840
273.515	7089
273.575	15949
273.635	7155
273.696	7063
273.756	17342
273.816	7348
273.876	3378
273.936	4677
273.997	8708
274.057	2899
274.117	3286
274.177	4113
274.237	22954
274.297	19368
274.358	9429
274.418	14118
274.478	11550
274.538	4030
274.598	2072
274.658	6395
274.718	6896
274.778	3581
274.838	2210
274.898	3825
274.958	9469
275.018	15960
275.078	12941
275.138	3735
275.198	2391
275.258	1877
275.318	2602
275.378	4189
275.438	5645
275.498	3997
275.558	5871
275.618	12980
275.678	12750
275.738	7836
275.798	6368
275.858	3683
275.918	2178
275.978	2413
276.038	2562
276.098	1443
276.157	3689
276.217	12341
276.277	5116
276.337	3452
276.397	3156
276.457	2840
276.517	1587
276.576	2110
276.636	1327
276.696	2200
276.756	6598
276.815	5465
276.875	2636
276.935	2363
276.995	2131
277.055	1281
277.114	1270
277.174	2487
277.234	10716
277.293	4401
277.353	1821
277.413	1521
277.472	1634
277.532	1855
277.592	2349
277.651	5781
277.711	11641
277.771	3012
277.830	14971
277.890	12782
277.950	7507
278.009	24745
278.069	9962
278.128	7822
278.188	10984
278.248	4925
278.307	11418
278.367	7635
278.426	3235
278.486	2300
278.545	1637
278.605	2115
278.664	2370
278.724	2495
278.783	6959
278.843	19522
278.902	6502
278.962	3409
279.021	3090
279.081	4043
279.140	5310
279.199	4635
279.259	4601
279.318	4596
279.378	5570
279.437	9893
279.496	34283
279.556	61845
279.615	41808
279.675	13317
279.734	9038
279.793	14124
279.853	31370
279.912	13786
279.971	7056
280.031	6144
280.090	13016
280.149	24706
280.208	11431
280.268	36316
280.327	36424
280.386	9349
280.445	8277
280.505	9023
280.564	4850
280.623	3640
280.682	5311
280.742	9502
280.801	3249
280.860	1831
280.919	1725
280.978	2202
281.037	1747
281.097	1356
281.156	2477
281.215	1714
281.274	2434
281.333	11622
281.392	9454
281.451	1418
281.510	2093
281.569	1952
281.628	1490
281.688	918
281.747	1891
281.806	2215
281.865	1749
281.924	817
281.983	1020
282.042	-50
282.101	1283
282.160	1234
282.219	1359
282.278	753
282.337	5794
282.396	4789
282.454	2307
282.513	2079
282.572	10344
282.631	6597
282.690	1674
282.749	792
282.808	1809
282.867	1144
282.926	2392
282.985	1153
283.043	619
283.102	1061
283.161	973
283.220	4188
283.279	11637
283.338	4481
283.396	1874
283.455	1390
283.514	1877
283.573	3254
283.631	2550
283.690	1836
283.749	1218
283.808	4435
283.866	6063
283.925	1504
283.984	1845
284.043	2850
284.101	3004
284.160	1478
284.219	2960
284.277	2562
284.336	3871
284.395	12839
284.453	11400
284.512	4023
284.570	5232
284.629	4082
284.688	4302
284.746	4083
284.805	4804
284.863	5612
284.922	8338
284.981	10481
285.039	15294
285.098	24975
285.156	55137
285.215	109542
285.273	112674
285.332	72373
285.390	36004
285.449	21067
285.507	13788
285.566	9368
285.624	8637
285.683	5241
285.741	5388
285.799	5020
285.858	4055
285.916	3796
285.975	2967
286.033	2189
286.091	2700
286.150	1778
286.208	2581
286.267	3293
286.325	2412
286.383	3447
286.442	3866
286.500	1808
286.558	1421
286.616	1770
286.675	1874
286.733	1541
286.791	1107
286.850	2784
286.908	2830
286.966	6573
287.024	2048
287.083	1337
287.141	1400
287.199	1502
287.257	3291
287.315	2466
287.374	1800
287.432	6541
287.490	4832
287.548	2081
287.606	1292
287.664	1338
287.723	3013
287.781	4454
287.839	2496
287.897	4246
287.955	5094
288.013	7986
288.071	15099
288.129	49536
288.187	129811
288.245	70274
288.303	23760
288.361	12215
288.419	8089
288.477	5114
288.535	5136
288.593	3694
288.651	2814
288.709	1996
288.767	2852
288.825	911
288.883	1757
288.941	1404
288.999	1354
289.057	654
289.115	1008
289.173	1161
289.231	1868
289.289	832
289.346	1731
289.404	1590
289.462	3659
289.520	2687
289.578	838
289.636	1000
289.694	1597
289.751	1230
289.809	1399
289.867	1399
289.925	1832
289.983	2618
290.040	1374
290.098	1203
290.156	1801
290.214	2054
290.271	1771
290.329	1727
290.387	1088
290.444	545
290.502	336
290.560	512
290.617	1098
290.675	984
290.733	709
290.790	488
290.848	688
290.906	963
290.963	1440
291.021	636
291.078	1171
291.136	1382
291.194	5196
291.251	14865
291.309	3907
291.366	1067
291.424	2123
291.481	1430
291.539	954
291.596	554
291.654	528
291.711	172
291.769	925
291.826	1918
291.884	1811
291.941	192
291.999	1021
292.056	608
292.114	1716
292.171	1532
292.228	1572
292.286	1154
292.343	2586
292.401	2474
292.458	2140
292.515	1248
292.573	1361
292.630	2141
292.687	2070
292.745	1233
292.802	2009
292.859	8099
292.917	13210
292.974	7678
293.031	3131
293.089	1738
293.146	995
293.203	657
293.260	1065
293.318	953
293.375	3972
293.432	1917
293.489	1288
293.546	980
293.604	2462
293.661	7366
293.718	23948
293.775	12886
293.832	5519
293.889	3485
293.947	3478
294.004	2630
294.061	3116
294.118	5347
294.175	14453
294.232	19853
294.289	8376
294.346	3826
294.403	3671
294.460	2458
294.517	1161
294.574	2104
294.631	2275
294.688	2892
294.745	7127
294.802	26672
294.859	32187
294.916	11854
294.973	5762
295.030	3992
295.087	3899
295.144	2647
295.201	1970
295.258	2469
295.315	2869
295.372	8759
295.429	18993
295.486	8329
295.542	5153
295.599	13441
295.656	24886
295.713	15146
295.770	17839
295.827	8335
295.883	4463
295.940	3125
295.997	5053
296.054	3463
296.111	2385
296.167	1817
296.224	2166
296.281	2373
296.338	2243
296.394	1263
296.451	1946
296.508	7598
296.564	16216
296.621	9973
296.678	21018
296.734	33268
296.791	13206
296.848	6084
296.904	5683
296.961	11809
297.018	20670
297.074	16479
297.131	6885
297.187	4184
297.244	5860
297.301	18300
297.357	38698
297.414	13786
297.470	6135
297.527	3760
297.583	2802
297.640	1833
297.696	2377
297.753	1723
297.809	2253
297.866	1035
297.922	2694
297.979	1174
298.035	1677
298.092	2874
298.148	11245
298.204	11999
298.261	5492
298.317	9548
298.374	26764
298.430	16406
298.486	6117
298.543	3793
298.599	4628
298.656	5278
298.712	8009
298.768	18682
298.824	15474
298.881	5602
298.937	2923
298.993	3129
299.050	3472
299.106	3504
299.162	2703
299.218	2675
299.275	2702
299.331	2622
299.387	5257
299.443	20836
299.500	24208
299.556	9571
299.612	4687
299.668	3940
299.724	3721
299.780	4635
299.837	4066
299.893	4441
299.949	16930
300.005	20906
300.061	16212
300.117	31849
300.173	16949
300.229	5745
300.285	6666
300.341	7581
300.397	4412
300.453	2701
300.510	3078
300.566	2531
300.622	3880
300.678	8236
300.734	17844
300.790	17400
300.845	22771
300.901	12920
300.957	16620
301.013	13192
301.069	5116
301.125	3782
301.181	2599
301.237	3254
301.293	1943
301.349	1909
301.405	1899
301.461	2095
301.516	3285
301.572	2954
301.628	4705
301.684	4575
301.740	7727
301.796	12993
301.851	9151
301.907	13462
301.963	13597
302.019	20840
302.074	61123
302.130	65360
302.186	30416
302.242	12217
302.297	8074
302.353	6676
302.409	13517
302.464	12090
302.520	8945
302.576	20006
302.631	25109
302.687	14380
302.743	6432
302.798	4191
302.854	3102
302.910	3320
302.965	4211
303.021	6310
303.076	6448
303.132	7843
303.187	8676
303.243	4967
303.299	3529
303.354	2637
303.410	2720
303.465	2396
303.521	2038
303.576	3402
303.632	3640
303.687	5710
303.743	20395
303.798	18445
303.853	8315
303.909	3853
303.964	3250
304.020	4426
304.075	7524
304.130	5360
304.186	11356
304.241	12748
304.297	9910
304.352	5030
304.358	4867
304.407	3548
304.449	3564
304.463	3564
304.518	3898
304.539	3887
304.573	3859
304.629	3703
304.630	3740
304.684	5854
304.720	11993
304.739	14864
304.794	25084
304.811	21668
304.850	13352
304.902	5771
304.905	5308
304.960	4217
304.992	3964
305.015	3727
305.071	4545
305.083	4304
305.126	3378
305.173	2090
305.181	1901
305.236	2526
305.264	2510
305.292	2556
305.347	3322
305.354	3463
305.402	4397
305.445	4556
305.457	4555
305.512	5707
305.535	5562
305.567	5438
305.622	5465
305.626	5572
305.678	10817
305.716	21680
305.733	24480
305.788	27017
305.807	23301
305.843	18906
305.897	25265
305.898	25295
305.953	24507
305.988	15897
306.008	11720
306.063	7544
306.078	6832
306.118	5452
306.168	3657
306.173	3521
306.228	3611
306.259	3357
306.283	3190
306.338	3190
306.349	3297
306.393	4075
306.440	4659
306.448	4717
306.503	5327
306.530	5121
306.558	6708
306.613	13084
306.620	14075
306.668	20698
306.711	28022
306.723	27920
306.778	20057
306.801	15128
306.833	10979
306.888	5770
306.892	5565
306.943	4701
306.982	4408
306.997	4395
307.052	5051
307.072	4686
307.107	4617
307.162	6760
307.163	6767
307.217	9108
307.253	11050
307.272	11216
307.327	11158
307.343	10481
307.381	9438
307.434	8651
307.436	9025
307.491	19033
307.524	26957
307.546	27123
307.600	25695
307.614	23158
307.655	15502
307.704	8819
307.710	8868
307.765	11428
307.795	13550
307.819	15649
307.874	22968
307.885	23750
307.929	22514
307.975	19993
307.984	21299
308.038	32334
308.065	39130
308.093	66199
308.148	128230
308.156	139795
308.202	185572
308.246	217264
308.257	208965
308.312	127660
308.336	91513
308.366	70858
308.421	42201
308.426	39571
308.475	26999
308.517	19249
308.530	18275
308.585	15792
308.607	14777
308.639	14705
308.694	16063
308.697	16090
308.748	25191
308.787	34342
308.803	33342
308.857	26382
308.877	23177
308.912	23116
308.967	24243
308.967	24235
309.021	35022
309.058	42976
309.076	55629
309.130	96908
309.148	111991
309.185	175015
309.238	274577
309.239	275440
309.293	280168
309.328	265438
309.348	234256
309.402	132017
309.418	104357
309.457	76475
309.508	45071
309.511	44443
309.566	35877
309.598	31642
309.620	32172
309.674	34023
309.688	34915
309.729	33087
309.778	28901
309.783	28551
309.837	23751
309.868	21247
309.892	28243
309.946	45620
309.959	50120
310.001	59667
310.049	68492
310.055	65891
310.109	38287
310.139	22678
310.163	18999
310.218	12510
310.229	11340
310.272	9707
310.319	8148
310.326	8023
310.381	6962
310.409	6606
310.435	6814
310.489	6734
310.499	6810
310.543	7585
310.589	8100
310.598	8124
310.652	8326
310.679	8246
310.706	7454
310.760	6022
310.769	5753
310.814	5538
310.859	5416
310.868	5485
310.923	5627
310.948	5831
310.977	6337
311.031	7101
311.038	7187
311.085	6891
311.128	6538
311.139	6634
311.193	6957
311.218	7105
311.247	6736
311.301	5960
311.308	5845
311.356	6268
311.398	6666
311.410	6676
311.464	6568
311.488	6468
311.518	6577
311.572	6741
311.578	6746
311.626	8832
311.668	10650
311.680	10665
311.734	10430
311.758	10285
311.788	10016
311.842	9512
311.847	9426
311.896	14507
311.937	18864
311.950	18329
312.004	15638
312.027	14390
312.058	12251
312.112	8363
312.117	7949
312.165	7976
312.207	7954
312.297	13708
312.386	9904
312.476	8285
312.566	16470
312.656	7951
312.745	6615
312.835	8529
312.925	9530
313.015	7887
313.104	7672
313.194	6275
313.284	7529
313.374	9983
313.463	8474
313.553	6630
313.643	5586
313.732	6195
313.822	5716
313.912	6472
314.001	8049
314.091	10551
314.180	14377
314.270	11105
314.360	11203
314.449	9248
314.539	6349
314.628	6900
314.718	8811
314.808	9190
314.897	6770
314.987	6921
315.076	8126
315.166	10350
315.255	10115
315.345	9718
315.434	8368
315.524	8304
315.613	8978
315.703	11630
315.792	12577
315.881	19053
315.971	10641
316.060	17218
316.150	22378
316.239	23765
316.328	8619
316.418	6992
316.507	7041
316.597	8732
316.686	7966
316.775	12878
316.865	23141
316.954	7433
317.043	6153
317.133	6317
317.222	6693
317.311	6057
317.400	4657
317.490	9336
317.579	9041
317.668	7265
317.757	9416
317.847	15150
317.936	32378
318.025	23058
318.114	13142
318.203	11463
318.293	19124
318.382	37165
318.471	27433
318.560	42562
318.649	87193
318.738	16772
318.828	12464
318.917	11824
319.006	14194
319.095	33923
319.184	108835
319.273	49633
319.362	24143
319.451	9636
319.540	9449
319.629	20887
319.718	29871
319.807	16290
319.896	35514
319.985	126255
320.074	37887
320.163	13022
320.252	16927
320.341	18324
320.430	16393
320.519	18101
320.608	9971
320.697	10212
320.786	9323
320.875	11410
320.964	13979
321.053	22238
321.142	30870
321.230	29532
321.319	26419
321.408	57758
321.497	21711
321.586	23357
321.675	25718
321.764	24802
321.852	17796
321.941	34209
322.030	19154
322.119	26467
322.207	55375
322.296	36622
322.385	21700
322.474	24453
322.562	69968
322.651	31836
322.740	27611
322.829	37844
322.917	32598
323.006	19754
323.095	18731
323.183	13898
323.272	20196
323.361	34037
323.449	92318
323.538	29745
323.626	71197
323.715	37294
323.804	18030
323.892	61390
323.981	29979
324.069	13590
324.158	34497
324.246	26415
324.335	15930
324.424	21087
324.512	9499
324.601	13275
324.689	29069
324.778	47885
324.866	26935
324.954	9346
325.043	9688
325.131	16113
325.220	25707
325.308	29189
325.397	22365
325.485	13580
325.574	8285
325.662	7553
325.750	7946
325.839	8404
325.927	7132
326.015	9565
326.104	11964
326.192	14093
326.280	6169
326.369	7633
326.457	11189
326.545	18634
326.634	7549
326.722	6329
326.810	6247
326.898	6702
326.987	8604
327.075	16931
327.163	16508
327.251	9330
327.340	20701
327.428	25792
327.516	6509
327.604	6211
327.692	7129
327.781	8134
327.869	13112
327.957	8844
328.045	9795
328.133	6298
328.221	7895
328.309	7158
328.397	6867
328.485	9086
328.574	11107
328.662	36061
328.750	17832
328.838	9588
328.926	7382
329.014	6997
329.102	11031
329.190	30135
329.278	16617
329.366	7345
329.454	8426
329.542	9085
329.630	8312
329.718	11270
329.806	13430
329.893	19584
329.981	27362
330.069	56439
330.157	194702
330.245	394194
330.333	213886
330.421	49930
330.509	28018
330.597	52995
330.684	31169
330.772	17008
330.860	20546
330.948	28372
331.036	12822
331.123	6296
331.211	7925
331.299	10741
331.387	24860
331.475	37435
331.562	11184
331.650	6085
331.738	7474
331.825	10195
331.913	5691
332.001	6196
332.089	8347
332.176	16573
332.264	32164
332.352	23965
332.439	10243
332.527	8450
332.614	6950
332.702	8087
332.790	5828
332.877	16392
332.965	27599
333.052	7881
333.140	9240
333.228	16340
333.315	7329
333.403	7843
333.490	19498
333.578	14720
333.665	17444
333.753	12960
333.840	6263
333.928	8735
334.015	20965
334.103	38617
334.190	118347
334.278	25691
334.365	11635
334.452	9247
334.540	7322
334.627	9359
334.715	13049
334.802	22085
334.889	110647
334.977	88412
335.064	14057
335.151	9188
335.239	11083
335.326	15006
335.413	68535
335.501	77940
335.588	13014
335.675	9685
335.762	13924
335.850	23224
335.937	13852
336.024	31747
336.111	124097
336.199	42033
336.286	10891
336.373	6939
336.460	5808
336.547	7117
336.635	8461
336.722	8110
336.809	7497
336.896	12894
336.983	42033
337.070	97996
337.157	122416
337.245	75668
337.332	43814
337.419	9066
337.506	7415
337.593	9287
337.680	36093
337.767	99651
337.854	26282
337.941	30168
338.028	26844
338.115	10196
338.202	15965
338.289	23659
338.376	69772
338.463	24187
338.550	63893
338.637	56373
338.724	16519
338.811	20924
338.898	6522
338.984	6644
339.071	8741
339.158	9472
339.245	23269
339.332	14081
339.419	17538
339.506	14350
339.593	4290
339.679	6619
339.766	5628
339.853	8246
339.940	15626
340.027	6837
340.113	7096
340.200	8852
340.287	7099
340.374	9631
340.460	14055
340.547	7208
340.634	11721
340.720	42708
340.807	21516
340.894	5812
340.980	5840
341.067	4925
341.154	6546
341.240	10357
341.327	20051
341.414	7884
341.500	7700
341.587	7074
341.674	7059
341.760	14959
341.847	16258
341.933	5460
342.020	3067
342.106	4491
342.193	6673
342.279	11058
342.366	9384
342.452	14356
342.539	8305
342.625	19456
342.712	44399
342.798	17474
342.885	7857
342.971	3294
343.058	3823
343.144	4904
343.230	4663
343.317	6227
343.403	3902
343.490	3856
343.576	4584
343.662	6164
343.749	6597
343.835	8596
343.921	15607
344.008	89552
344.094	181188
344.180	37414
344.267	16862
344.353	55948
344.439	51522
344.525	23093
344.612	15430
344.698	15690
344.784	9406
344.870	6104
344.957	4998
345.043	8906
345.129	7014
345.215	13987
345.301	8797
345.387	6412
345.474	3730
345.560	4233
345.646	6290
345.732	5957
345.818	7350
345.904	6640
345.990	6729
346.076	6878
346.162	11603
346.249	6501
346.335	4255
346.421	7104
346.507	24573
346.593	73325
346.679	16752
346.765	8163
346.851	5949
346.937	5959
347.023	5871
347.108	7118
347.194	5672
347.280	6035
347.366	7656
347.452	23019
347.538	88559
347.624	65192
347.710	49802
347.796	8549
347.882	6719
347.967	6119
348.053	10112
348.139	5975
348.225	4600
348.311	5514
348.397	4447
348.482	6529
348.568	7971
348.654	4819
348.740	5397
348.825	5168
348.911	11081
348.997	44506
349.083	75874
349.168	11977
349.254	6239
349.340	6464
349.425	5459
349.511	7979
349.597	9234
349.682	17231
349.768	54488
349.854	23724
349.939	7524
350.025	5657
350.110	6030
350.196	5247
350.282	4377
350.367	4276
350.453	8258
350.538	7923
350.624	8427
350.709	8432
350.795	4327
350.880	4482
350.966	7995
351.051	9249
351.137	7210
351.222	6419
351.308	18517
351.393	45039
351.479	12785
351.564	4663
351.649	5474
351.735	4681
351.820	3480
351.906	6472
351.991	8367
352.076	32106
352.162	41359
352.247	9733
352.332	7258
352.418	12425
352.503	16608
352.588	68743
352.673	47025
352.759	11858
352.844	6558
352.929	7911
353.014	9523
353.100	9307
353.185	18941
353.270	20080
353.355	15195
353.441	6467
353.526	7078
353.611	15307
353.696	15890
353.781	9853
353.866	5411
353.952	7255
354.037	13796
354.122	31261
354.207	27063
354.292	10523
354.377	6180
354.462	6340
354.547	7723
354.632	8119
354.717	16906
354.802	23695
354.887	8766
354.972	4730
355.057	4905
355.142	4192
355.227	6177
355.312	9929
355.397	22395
355.482	47767
355.567	22618
355.652	18952
355.737	19507
355.822	62532
355.907	44680
355.991	9501
356.076	5619
356.161	5778
356.246	4758
356.331	6924
356.416	15223
356.501	97662
356.585	87881
356.670	14883
356.755	11902
356.840	17499
356.924	80785
357.009	219073
357.094	74284
357.179	20023
357.263	11700
357.348	12721
357.433	12650
357.517	11656
357.602	10607
357.687	9347
357.771	20747
357.856	53013
357.941	29124
358.025	59627
358.110	215418
358.195	94890
358.279	16900
358.364	14025
358.448	44250
358.533	112517
358.617	79193
358.702	78721
358.787	27847
358.871	17272
358.956	13512
359.040	5925
359.125	4512
359.209	6860
359.294	25168
359.378	38607
359.462	14291
359.547	9168
359.631	5938
359.716	4865
359.800	6336
359.885	11733
359.969	6158
360.053	6519
360.138	7636
360.222	9520
360.306	15645
360.391	13096
360.475	28741
360.559	53702
360.644	43695
360.728	30322
360.812	57930
360.896	135921
360.981	60961
361.065	32031
361.149	10168
361.233	9790
361.318	7124
361.402	8545
361.486	8262
361.570	6389
361.654	8965
361.739	21718
361.823	93936
361.907	130928
361.991	24818
362.075	15731
362.159	29995
362.243	22557
362.327	19358
362.411	19174
362.495	11562
362.580	8334
362.664	6999
362.748	7043
362.832	9136
362.916	14582
363.000	35558
363.084	101528
363.168	149282
363.252	36608
363.336	15485
363.420	22586
363.503	89307
363.587	94331
363.671	16626
363.755	13570
363.839	17539
363.923	8816
364.007	19432
364.091	20828
364.175	37524
364.258	137354
364.342	80274
364.426	52061
364.510	29156
364.594	23390
364.677	32613
364.761	123250
364.845	81840
364.929	29875
365.013	22545
365.096	18931
365.180	22500
365.264	40661
365.347	134396
365.431	58451
365.515	16237
365.598	8014
365.682	8635
365.766	19029
365.849	20949
365.933	8566
366.017	14875
366.100	12445
366.184	5287
366.267	6212
366.351	5949
366.435	5527
366.518	4913
366.602	4823
366.685	5777
366.769	6397
366.852	15282
366.936	23548
367.019	11530
367.103	13361
367.186	24476
367.270	7172
367.353	3905
367.436	5583
367.520	4509
367.603	6729
367.687	10850
367.770	17960
367.853	11961
367.937	40967
368.020	61482
368.104	14302
368.187	15967
368.270	21653
368.353	19140
368.437	23023
368.520	45375
368.603	30367
368.687	48118
368.770	79020
368.853	20856
368.936	21032
369.020	22691
369.103	8425
369.186	5951
369.269	6358
369.352	13206
369.436	18323
369.519	12620
369.602	6098
369.685	8395
369.768	7260
369.851	7053
369.934	5516
370.018	7149
370.101	15426
370.184	14367
370.267	11653
370.350	17413
370.433	26872
370.516	68216
370.599	69810
370.682	21400
370.765	44745
370.848	55158
370.931	99664
371.014	38978
371.097	9054
371.180	6486
371.263	6015
371.346	3537
371.429	6003
371.511	5915
371.594	11919
371.677	20362
371.760	25734
371.843	20088
371.926	91736
372.009	183460
372.091	58799
372.174	42282
372.257	92196
372.340	36548
372.423	34246
372.505	38409
372.588	15736
372.671	33127
372.754	94657
372.836	46468
372.919	47515
373.002	83307
373.085	23192
373.167	17944
373.250	45478
373.332	94375
373.415	129099
373.498	233526
373.580	87794
373.663	115730
373.746	145233
373.828	35303
373.911	17708
373.993	22171
374.076	85443
374.159	71354
374.241	30701
374.324	82630
374.406	53591
374.489	78732
374.571	198207
374.654	78827
374.736	44341
374.819	124547
374.901	173699
374.983	165938
375.066	30424
375.148	16346
375.231	67860
375.313	120299
375.395	43830
375.478	11092
375.560	8296
375.643	10780
375.725	41555
375.807	147227
375.890	110855
375.972	42505
376.054	26733
376.136	36952
376.219	16868
376.301	48152
376.383	127020
376.465	46825
376.548	29808
376.630	40859
376.712	109301
376.794	46476
376.877	7992
376.959	5584
377.041	8085
377.123	21336
377.205	23493
377.287	5281
377.369	5132
377.452	4825
377.534	5364
377.616	5368
377.698	4836
377.780	3665
377.862	6275
377.944	5706
378.026	3720
378.108	5202
378.190	5177
378.272	4410
378.354	3535
378.436	4718
378.518	13175
378.600	38379
378.682	31288
378.764	58970
378.846	44450
378.928	15347
379.010	19774
379.091	11287
379.173	6237
379.255	5421
379.337	8272
379.419	31061
379.501	80594
379.583	33370
379.664	9662
379.746	22183
379.828	59140
379.910	78798
379.991	64554
380.073	11581
380.155	8412
380.237	6996
380.318	5400
380.400	6025
380.482	14065
380.564	19384
380.645	24558
380.727	21204
380.809	11349
380.890	8564
380.972	6599
381.053	6332
381.135	8054
381.217	21583
381.298	59748
381.380	28517
381.461	26478
381.543	112142
381.624	125975
381.706	24023
381.787	15254
381.869	15538
381.951	55329
382.032	174863
382.113	107922
382.195	25978
382.276	20994
382.358	45593
382.439	101826
382.521	113784
382.602	161530
382.684	77315
382.765	137556
382.846	130186
382.928	120897
383.009	68407
383.090	67141
383.172	199626
383.253	252886
383.334	115297
383.416	150611
383.497	77736
383.578	34229
383.659	63204
383.741	199483
383.822	397858
383.903	201421
383.984	105926
384.066	183476
384.147	110370
384.228	24099
384.309	17871
384.390	14044
384.471	10596
384.553	12221
384.634	16131
384.715	16373
384.796	9236
384.877	14392
384.958	53452
385.039	62756
385.120	21227
385.201	11890
385.282	15729
385.363	16319
385.444	13232
385.525	26368
385.606	80880
385.687	67310
385.768	20032
385.849	25043
385.930	96168
386.011	150004
386.092	41670
386.173	12261
386.254	10004
386.335	11905
386.416	12840
386.496	38422
386.577	58856
386.658	23870
386.739	14994
386.820	15827
386.901	12370
386.981	10507
387.062	8332
387.143	15213
387.224	57023
387.304	51304
387.385	19490
387.466	14655
387.547	17981
387.627	12014
387.708	25281
387.789	101025
387.869	117494
387.950	31954
388.031	9153
388.111	9934
388.192	26832
388.273	35199
388.353	20066
388.434	11619
388.514	24015
388.595	95668
388.676	117197
388.756	56814
388.837	51794
388.917	32354
388.998	8645
389.078	10095
389.159	7684
389.239	6735
389.320	11602
389.400	10489
389.480	26781
389.561	62643
389.641	30545
389.722	11378
389.802	18353
389.883	30645
389.963	72313
390.043	45777
390.124	16261
390.204	24292
390.284	65455
390.365	44751
390.445	70631
390.525	166704
390.605	136265
390.686	39232
390.766	14922
390.846	8676
390.927	5859
391.007	6741
391.087	9678
391.167	9730
391.247	6693
391.328	12384
391.408	20989
391.488	15798
391.568	5017
391.648	9081
391.728	12754
391.808	12321
391.888	13517
391.969	35608
392.049	55367
392.129	26909
392.209	32954
392.289	68684
392.369	40919
392.449	40316
392.529	23753
392.609	15814
392.689	23124
392.769	66862
392.849	53977
392.929	46032
393.009	102023
393.089	66199
393.169	43758
393.248	139112
393.328	493982
393.408	495077
393.488	125939
393.568	38473
393.648	21455
393.728	16073
393.807	11563
393.887	13627
393.967	13773
394.047	18050
394.127	24017
394.206	45501
394.286	154208
394.366	489398
394.446	512029
394.525	165780
394.605	50936
394.685	36725
394.764	63358
394.844	96399
394.924	63907
395.003	20498
395.083	14514
395.163	13168
395.242	12612
395.322	13680
395.402	10397
395.481	16121
395.561	44239
395.640	99577
395.720	76731
395.799	115060
395.879	97181
395.958	76323
396.038	232657
396.117	613606
396.197	655483
396.276	281147
396.356	103317
396.435	65929
396.515	40195
396.594	35246
396.673	48883
396.753	160169
396.832	452804
396.912	337548
396.991	87405
397.070	24931
397.150	15812
397.229	12918
397.308	14316
397.388	21743
397.467	15097
397.546	8354
397.625	5909
397.705	10817
397.784	10276
397.863	6742
397.942	5675
398.022	7623
398.101	35222
398.180	93153
398.259	49563
398.338	13230
398.417	9309
398.497	7519
398.576	7277
398.655	4936
398.734	5695
398.813	7710
398.892	32595
398.971	97598
399.050	46358
399.129	6946
399.208	5222
399.287	5815
399.366	4301
399.445	4885
399.524	5917
399.603	4564
399.682	11083
399.761	33198
399.840	102607
399.919	76227
399.998	11211
400.077	4543
400.156	3459
400.235	8307
400.313	5256
400.392	8330
400.471	32621
400.550	49092
400.629	12708
400.708	8224
400.786	9583
400.865	25274
400.944	26793
401.023	11292
401.102	2882
401.180	3670
401.259	5339
401.338	6946
401.416	7573
401.495	5910
401.574	6702
401.652	5929
401.731	9804
401.810	9159
401.888	5647
401.967	3731
402.046	4890
402.124	8098
402.203	9229
402.281	7919
402.360	11709
402.438	31422
402.517	21676
402.596	9035
402.674	7610
402.753	6360
402.831	4633
402.910	8274
402.988	36172
403.066	107745
403.145	61712
403.223	40264
403.302	96487
403.380	74893
403.459	73077
403.537	29644
403.615	11881
403.694	3912
403.772	4304
403.850	4030
403.929	4067
404.007	5266
404.085	16026
404.164	19152
404.242	10222
404.320	27687
404.398	80189
404.477	91921
404.555	149265
404.633	127127
404.711	60697
404.789	37721
404.868	13915
404.946	6237
405.024	5149
405.102	3110
405.180	2878
405.258	2520
405.336	3783
405.415	4558
405.493	13369
405.571	14142
405.649	3994
405.727	4759
405.805	8345
405.883	8722
405.961	9537
406.039	10072
406.117	5330
406.195	7966
406.273	37679
406.351	117789
406.429	70407
406.507	15089
406.585	5849
406.663	6167
406.740	6391
406.818	6282
406.896	4084
406.974	6676
407.052	12446
407.130	71775
407.208	94164
407.285	19658
407.363	4063
407.441	5581
407.519	4600
407.596	5625
407.674	13821
407.752	39934
407.830	42021
407.907	21744
407.985	8836
408.063	5144
408.141	4260
408.218	10609
408.296	10953
408.373	8261
408.451	6253
408.529	5352
408.606	2998
408.684	2646
408.762	2463
408.839	2306
408.917	2549
408.994	3157
409.072	2227
409.149	2778
409.227	5453
409.304	5847
409.382	4251
409.459	4053
409.537	5533
409.614	5880
409.692	3899
409.769	3986
409.846	5573
409.924	9294
410.001	7128
410.079	6204
410.156	6461
410.233	5570
410.311	5412
410.388	3710
410.465	4968
410.543	5273
410.620	3910
410.697	3531
410.775	5434
410.852	1754
410.929	6083
411.006	6797
411.083	4228
411.161	10947
411.238	12861
411.315	7728
411.392	3707
411.469	6124
411.547	6804
411.624	2632
411.701	3469
411.778	4536
411.855	9358
411.932	6317
412.009	3011
412.086	3818
412.163	4695
412.240	6176
412.317	8269
412.394	6520
412.471	3458
412.548	2923
412.625	3309
412.702	5870
412.779	10665
412.856	7603
412.933	3207
413.010	4437
413.087	6909
413.164	29560
413.241	38803
413.318	9816
413.395	6580
413.471	8959
413.548	4435
413.625	3691
413.702	4402
413.779	4331
413.855	2515
413.932	2228
414.009	1604
414.086	2980
414.162	2405
414.239	7033
414.316	29194
414.393	59241
414.469	20973
414.546	4095
414.623	1822
414.699	3315
414.776	3937
414.853	2856
414.929	4071
415.006	3310
415.082	5519
415.159	4231
415.236	3744
415.312	4024
415.389	6404
415.465	8145
415.542	5327
415.618	4213
415.695	5996
415.771	4796
415.848	4552
415.924	4798
416.000	3503
416.077	3457
416.153	1021
416.230	1612
416.306	1750
416.383	2177
416.459	2939
416.535	2165
416.612	2055
416.688	2862
416.764	2636
416.841	2001
416.917	2775
416.993	2916
417.069	3702
417.146	7300
417.222	10362
417.298	5474
417.374	2970
417.451	4478
417.527	4784
417.603	5771
417.679	3680
417.755	3730
417.831	1758
417.908	2534
417.984	1858
418.060	1921
418.136	7922
418.212	9594
418.288	4179
418.364	3010
418.440	2898
418.516	6117
418.592	9606
418.668	15421
418.744	18474
418.820	13936
418.896	4377
418.972	2379
419.048	3231
419.124	8877
419.200	6383
419.276	3034
419.352	1155
419.428	2491
419.504	2550
419.579	4309
419.655	3515
419.731	2906
419.807	12201
419.883	20605
419.959	13823
420.034	5499
420.110	11675
420.186	37689
420.262	28641
420.337	6652
420.413	4276
420.489	2893
420.565	2829
420.640	2668
420.716	3050
420.792	1979
420.867	3117
420.943	2258
421.019	5753
421.094	4597
421.170	3439
421.245	1937
421.321	4075
421.397	3295
421.472	8337
421.548	18739
421.623	13908
421.699	6559
421.774	5239
421.850	5291
421.925	8791
422.001	8078
422.076	6660
422.152	8801
422.227	13212
422.302	15613
422.378	21376
422.453	38177
422.529	96788
422.604	284809
422.679	451261
422.755	288561
422.830	97472
422.905	37437
422.981	20913
423.056	13215
423.131	9795
423.207	8313
423.282	9126
423.357	13879
423.432	10005
423.508	11616
423.583	19527
423.658	14570
423.733	6350
423.808	6603
423.883	7385
423.959	7422
424.034	5098
424.109	4918
424.184	3292
424.259	2510
424.334	2077
424.409	2850
424.484	2438
424.559	4089
424.634	3137
424.709	4616
424.784	5359
424.859	3995
424.934	7280
425.009	26531
425.084	42209
425.159	15249
425.234	4471
425.309	3260
425.384	13679
425.459	21581
425.534	6368
425.609	3363
425.683	2942
425.758	2538
425.833	3745
425.908	5355
425.983	17030
426.058	41729
426.132	19577
426.207	5901
426.282	11028
426.357	8045
426.431	3323
426.506	3079
426.581	3361
426.655	3829
426.730	3097
426.805	2080
426.879	3493
426.954	3896
427.029	9593
427.103	44519
427.178	98139
427.253	43273
427.327	7026
427.402	11975
427.476	26819
427.551	13132
427.625	5303
427.700	5079
427.774	3641
427.849	4638
427.923	2372
427.998	3489
428.072	4533
428.147	10620
428.221	34113
428.296	79061
428.370	38903
428.444	8286
428.519	13375
428.593	24242
428.667	21094
428.742	24439
428.816	23244
428.890	63211
428.965	85972
429.039	33609
429.113	27013
429.188	10155
429.262	3531
429.336	7987
429.410	20988
429.485	15566
429.559	20338
429.633	15769
429.707	5974
429.781	16989
429.855	73517
429.930	93917
430.004	64328
430.078	103564
430.152	88095
430.226	119358
430.300	108437
430.374	18065
430.448	10191
430.522	38778
430.596	96772
430.670	56046
430.744	99161
430.818	132196
430.892	28387
430.966	6359
431.040	3602
431.114	2710
431.188	2460
431.262	2470
431.336	2801
431.410	11946
431.484	27929
431.557	16504
431.631	2842
431.705	4112
431.779	17629
431.853	68417
431.927	44184
432.000	6181
432.074	3692
432.148	4978
432.222	4900
432.295	3200
432.369	3486
432.443	7761
432.516	44820
432.590	97579
432.664	36123
432.737	5394
432.811	1562
432.885	1711
432.958	2450
433.032	1703
433.106	924
433.179	1950
433.253	993
433.326	1612
433.400	1170
433.473	1336
433.547	627
433.620	2541
433.694	5114
433.767	5231
433.841	1826
433.914	2203
433.988	2047
434.061	2144
434.134	1353
434.208	1470
434.281	503
434.355	815
434.428	2264
434.501	1787
434.575	1675
434.648	1588
434.721	1268
434.795	2255
434.868	561
434.941	907
435.014	1293
435.088	2830
435.161	2388
435.234	4648
435.307	5705
435.381	2377
435.454	1958
435.527	2644
435.600	2155
435.673	2275
435.746	2769
435.819	2366
435.892	2528
435.966	2155
436.039	1583
436.112	2853
436.185	1517
436.258	1791
436.331	900
436.404	1347
436.477	1188
436.550	1184
436.623	1207
436.696	1144
436.769	2490
436.842	2024
436.915	2174
436.987	3080
437.060	1603
437.133	1166
437.206	1851
437.279	2194
437.352	1028
437.425	1432
437.498	2330
437.570	6585
437.643	5166
437.716	2458
437.789	1555
437.861	5681
437.934	13856
438.007	6771
438.080	1930
438.152	3495
438.225	9299
438.298	55667
438.370	130363
438.443	51380
438.516	13217
438.588	4357
438.661	2100
438.734	1927
438.806	2802
438.879	3184
438.951	3663
439.024	7204
439.096	3209
439.169	2436
439.241	1379
439.314	1957
439.386	4179
439.459	6558
439.531	8271
439.604	3765
439.676	2054
439.749	1116
439.821	1249
439.893	2566
439.966	2605
440.038	3500
440.110	3055
440.183	2665
440.255	2037
440.327	4449
440.400	25886
440.472	88413
440.544	51221
440.617	7181
440.689	6266
440.761	7786
440.833	11056
440.905	6741
440.978	2218
441.050	1546
441.122	1117
441.194	1543
441.266	1731
441.338	1634
441.411	5163
441.483	29273
441.555	36532
441.627	8202
441.699	7268
441.771	6109
441.843	2692
441.915	1979
441.987	1282
442.059	1617
442.131	2687
442.203	5292
442.275	5910
442.347	5316
442.419	7824
442.491	28860
442.563	58911
442.635	29029
442.706	26471
442.778	19092
442.850	3932
442.922	2476
442.994	4049
443.066	6031
443.137	4553
443.209	4036
443.281	5754
443.353	13330
443.425	44697
443.496	122194
443.568	102146
443.640	34832
443.711	8203
443.783	3815
443.855	3508
443.926	2236
443.998	3589
444.070	5367
444.141	4194
444.213	6142
444.285	6122
444.356	4958
444.428	4314
444.499	1604
444.571	1890
444.642	2148
444.714	2420
444.785	5708
444.857	8628
444.928	19204
445.000	10348
445.071	13885
445.143	15423
445.214	9988
445.285	15776
445.357	42812
445.428	104969
445.500	195724
445.571	114505
445.642	49242
445.714	30855
445.785	32616
445.856	9462
445.928	7387
445.999	5839
446.070	4679
446.141	6777
446.213	7773
446.284	4525
446.355	5269
446.426	2943
446.497	3283
446.569	7547
446.640	9204
446.711	4922
446.782	2821
446.853	3530
446.924	4156
446.995	3232
447.066	4399
447.138	8052
447.209	4620
447.280	1690
447.351	1708
447.422	1839
447.493	3369
447.564	4448
447.635	5192
447.706	2561
447.777	1527
447.847	1227
447.918	1357
447.989	3879
448.060	6259
448.131	13919
448.202	10310
448.273	6340
448.344	2923
448.414	2337
448.485	2385
448.556	1438
448.627	1494
448.698	2321
448.768	635
448.839	2284
448.910	6637
448.981	6542
449.051	1814
449.122	1887
449.193	2154
449.263	2525
449.334	2290
449.405	3580
449.475	7549
449.546	5637
449.616	9723
449.687	6853
449.758	3608
449.828	2774
449.899	2683
449.969	2186
450.040	3070
450.110	2908
450.181	4018
450.251	2511
450.322	3102
450.392	3151
450.463	2555
450.533	2110
450.604	2735
450.674	1531
450.744	2217
450.815	1880
450.885	2730
450.955	1945
451.026	2129
451.096	2624
451.166	3600
451.237	9953
451.307	20614
451.377	6840
451.447	2591
451.518	1999
451.588	2369
451.658	2554
451.728	6323
451.799	23582
451.869	22477
451.939	4280
452.009	1715
452.079	1247
452.149	3051
452.219	8155
452.289	27394
452.360	16806
452.430	4194
452.500	3167
452.570	3912
452.640	5695
452.710	15886
452.780	22221
452.850	14259
452.920	10701
452.990	4747
453.060	3898
453.129	5672
453.199	7368
453.269	32509
453.339	55642
453.409	78832
453.479	90580
453.549	127870
453.619	129435
453.688	42156
453.758	7035
453.828	3768
453.898	2916
453.968	2516
454.037	2124
454.087	2158
454.107	2166
454.168	1807
454.177	1743
454.247	1766
454.249	1774
454.316	1692
454.330	2147
454.386	3752
454.411	6979
454.456	12294
454.492	15118
454.525	17712
454.574	9384
454.595	5762
454.655	3106
454.665	2704
454.734	4121
454.736	4244
454.804	7374
454.817	10394
454.873	22588
454.898	22557
454.943	22479
454.979	13818
455.013	6145
455.060	4805
455.082	4323
455.141	5059
455.152	5152
455.221	17235
455.222	17449
455.291	30324
455.303	29612
455.360	25631
455.384	33923
455.430	47731
455.465	35300
455.499	24047
455.546	22082
455.569	21018
455.627	12468
455.638	11003
455.707	3140
455.708	3146
455.777	2474
455.789	2555
455.846	2730
455.869	2406
455.916	1948
455.950	2230
455.985	2378
456.031	2401
456.054	2463
456.112	2024
456.124	1933
456.193	1655
456.193	1639
456.262	2342
456.274	2519
456.332	3185
456.355	3415
456.401	3738
456.436	2875
456.470	1974
456.516	1524
456.540	1406
456.597	1391
456.609	1378
456.678	1364
456.678	1354
456.747	1068
456.759	1059
456.817	1133
456.840	1427
456.886	1954
456.920	1837
456.955	1681
457.001	1939
457.024	2151
457.082	2035
457.093	2030
457.162	3825
457.163	3842
457.232	4493
457.243	4134
457.301	2634
457.324	2299
457.370	1826
457.405	1946
457.439	2080
457.485	2070
457.508	2021
457.566	2191
457.577	2272
457.646	2687
457.647	2704
457.715	3887
457.727	4084
457.784	5026
457.808	5720
457.853	6653
457.889	7834
457.922	8516
457.969	6884
457.991	6612
458.050	7215
458.060	7301
458.129	10318
458.130	10417
458.198	11396
458.211	10535
458.267	7178
458.292	5595
458.336	3999
458.372	4048
458.405	4788
458.453	6268
458.474	6974
458.533	10444
458.543	10761
458.611	16504
458.614	16595
458.680	13198
458.694	11055
458.749	5848
458.775	4806
458.818	3259
458.855	2809
458.887	2656
458.936	2660
458.955	2609
459.016	2809
459.024	2860
459.093	3057
459.097	3054
459.162	2833
459.177	2922
459.230	3133
459.257	3284
459.299	3686
459.338	3717
459.368	3535
459.418	4280
459.437	4386
459.499	2879
459.505	2783
459.574	2833
459.579	2857
459.643	3015
459.659	2897
459.711	2733
459.740	2746
459.780	2869
459.820	3330
459.849	3446
459.900	3230
459.917	3203
459.981	3671
459.986	3681
460.054	3429
460.061	3411
460.123	3602
460.141	3605
460.191	3990
460.222	4449
460.260	4792
460.302	5472
460.328	5474
460.382	4289
460.397	4072
460.462	3787
460.465	3972
460.534	8609
460.543	9214
460.602	20419
460.623	25184
460.671	36585
460.703	49810
460.739	47085
460.783	33438
460.808	28779
460.864	8061
460.876	5625
460.944	4089
460.945	4065
461.013	4137
461.024	4044
461.081	3476
461.104	3531
461.150	3532
461.184	3181
461.218	2982
461.264	3137
461.286	3276
461.345	3342
461.355	3353
461.423	3926
461.425	3918
461.491	3823
461.505	3960
461.559	8191
461.585	10135
461.628	13590
461.665	17889
461.696	18970
461.745	23793
461.764	22778
461.825	8486
461.832	7879
461.901	4478
461.905	4488
461.969	3894
461.985	3633
462.037	4638
462.065	5374
462.105	5468
462.145	5336
462.173	6956
462.225	10662
462.241	11382
462.305	15778
462.310	15467
462.378	9658
462.385	8488
462.446	4825
462.465	4470
462.514	4410
462.545	4619
462.582	4496
462.625	4472
462.650	4471
462.705	4046
462.718	4181
462.785	5502
462.786	5531
462.854	6655
462.865	6974
462.922	8233
462.945	8860
462.990	7594
463.025	5387
463.058	4569
463.104	3992
463.126	3857
463.184	3889
463.194	3992
463.262	4595
463.264	4635
463.330	4868
463.344	4757
463.398	5069
463.424	5339
463.466	4971
463.504	4642
463.533	4909
463.583	5223
463.601	5298
463.663	5345
463.669	5457
463.737	7312
463.743	7457
463.805	12206
463.823	13667
463.873	18755
463.903	22246
463.940	22243
463.982	22934
464.008	19526
464.062	8440
464.076	7787
464.142	5265
464.144	5226
464.211	5170
464.221	5183
464.279	4814
464.301	4699
464.347	5698
464.381	6472
464.414	6542
464.461	6683
464.482	6928
464.540	7618
464.550	7552
464.617	6646
464.620	6611
464.685	7350
464.699	7527
464.753	8843
464.779	9517
464.820	10126
464.859	10703
464.888	10485
464.938	10050
464.956	10162
465.018	10388
465.023	10322
465.091	9210
465.098	9090
465.158	8831
465.177	8805
465.226	8985
465.257	9001
465.293	9122
465.336	9322
465.361	9806
465.416	10783
465.428	11676
465.495	16528
465.496	16593
465.563	23180
465.575	24434
465.631	28582
465.654	30503
465.698	20950
465.734	11540
465.765	10618
465.813	9800
465.833	9670
465.893	9882
465.900	9896
465.968	9825
465.972	9814
466.035	10027
466.052	10048
466.102	10833
466.131	11297
466.170	11296
466.210	11227
466.237	12056
466.290	13631
466.304	13423
466.369	12387
466.372	12441
466.439	13656
466.449	13796
466.506	14465
466.528	14727
466.573	19700
466.607	23342
466.641	29180
466.687	37364
466.708	39996
466.766	47451
466.775	44402
466.842	20549
466.845	19387
466.909	16892
466.925	16417
466.977	16380
467.004	16356
467.044	16822
467.083	17263
467.111	18017
467.163	19350
467.178	19390
467.242	19443
467.245	19401
467.312	18004
467.321	17795
467.379	17133
467.400	16850
467.446	17615
467.480	18118
467.559	16253
467.638	13663
467.717	12618
467.796	14764
467.875	15178
467.955	14795
468.034	23977
468.113	40680
468.192	54836
468.271	14132
468.350	12149
468.429	12482
468.508	12199
468.588	11378
468.667	12203
468.746	13230
468.825	12434
468.904	9841
468.983	13519
469.062	17583
469.141	19862
469.220	10390
469.299	11246
469.378	11356
469.456	14689
469.535	13017
469.614	10814
469.693	11559
469.772	15094
469.851	19130
469.930	13256
470.009	9765
470.088	10924
470.166	10912
470.245	12170
470.324	12015
470.403	10780
470.482	10299
470.560	9919
470.639	9920
470.718	11860
470.797	9951
470.875	12726
470.954	15657
471.033	15966
471.111	8638
471.190	8538
471.269	8501
471.347	8297
471.426	9334
471.505	11282
471.583	10972
471.662	11108
471.740	10327
471.819	9947
471.898	9546
471.976	8864
472.055	9833
472.133	11035
472.212	14285
472.290	13203
472.369	8770
472.447	9966
472.526	8266
472.604	10117
472.683	9011
472.761	9366
472.839	9404
472.918	9654
472.996	8779
473.075	10530
473.153	9974
473.231	8700
473.310	9529
473.388	9831
473.466	9067
473.545	10288
473.623	12286
473.701	10660
473.780	9028
473.858	8172
473.936	12333
474.014	9735
474.093	10531
474.171	14198
474.249	18701
474.327	11268
474.405	7527
474.484	9349
474.562	8181
474.640	8700
474.718	10913
474.796	10393
474.874	10676
474.952	9764
475.030	10629
475.108	11320
475.187	14061
475.265	15186
475.343	18867
475.421	20420
475.499	10430
475.577	10531
475.655	13629
475.733	23078
475.811	37743
475.889	32236
475.966	19660
476.044	10980
476.122	13059
476.200	16545
476.278	11337
476.356	7576
476.434	9976
476.512	12061
476.590	15490
476.667	13910
476.745	7510
476.823	9877
476.901	9365
476.979	8464
477.056	9397
477.134	9608
477.212	9376
477.290	7939
477.367	7061
477.445	7931
477.523	8172
477.601	7964
477.678	8604
477.756	9576
477.834	10053
477.911	7744
477.989	8585
478.066	8168
478.144	10107
478.222	13273
478.299	19180
478.377	16909
478.454	8097
478.532	7196
478.609	7903
478.687	9131
478.764	7428
478.842	7442
478.919	8224
478.997	8289
479.074	7935
479.152	9068
479.229	11211
479.307	6742
479.384	6887
479.461	5861
479.539	7441
479.616	8689
479.694	7515
479.771	8580
479.848	9473
479.926	11977
480.003	12200
480.080	6915
480.157	6568
480.235	7099
480.312	7266
480.389	8753
480.467	13404
480.544	15766
480.621	9657
480.698	8320
480.775	8881
480.853	8897
480.930	7358
481.007	8448
481.084	9929
481.161	11537
481.238	9983
481.315	6927
481.392	7704
481.470	7806
481.547	8076
481.624	5969
481.701	7202
481.778	8109
481.855	9163
481.932	14546
482.009	21299
482.086	13412
482.163	9293
482.240	15705
482.317	25216
482.393	16777
482.470	8925
482.547	8177
482.624	7504
482.701	7368
482.778	7400
482.855	6188
482.932	6543
483.009	6495
483.085	8249
483.162	8748
483.239	8287
483.316	6968
483.393	6670
483.469	8130
483.546	8972
483.623	9073
483.699	8072
483.776	8454
483.853	8999
483.930	15555
484.006	35004
484.083	54529
484.160	30904
484.236	44112
484.313	32437
484.389	24826
484.466	22429
484.543	20953
484.619	20967
484.696	23790
484.772	23767
484.849	26020
484.925	20126
485.002	21056
485.078	21206
485.155	20936
485.231	19890
485.308	19826
485.384	19826
485.461	25889
485.537	36078
485.614	39936
485.690	19224
485.766	19505
485.843	20055
485.919	22315
485.995	22746
486.072	18151
486.148	16923
486.224	17675
486.301	18459
486.377	19978
486.453	19884
486.530	21840
486.606	27746
486.682	29772
486.758	33798
486.835	37541
486.911	31382
486.987	45397
487.063	40934
487.139	43780
487.215	33074
487.292	21651
487.368	19409
487.444	21204
487.520	24067
487.596	21518
487.672	29313
487.748	48197
487.824	60040
487.900	31876
487.976	21456
488.052	20978
488.128	24433
488.204	19408
488.280	18836
488.356	24851
488.432	44392
488.508	57662
488.584	21248
488.660	16988
488.736	16309
488.812	17177
488.888	20659
488.964	26964
489.039	44739
489.115	56949
489.191	34488
489.267	18648
489.343	17187
489.418	14959
489.494	15162
489.570	13262
489.646	16845
489.722	15639
489.797	15963
489.873	27069
489.949	46036
490.024	36325
490.100	14444
490.176	15535
490.251	16977
490.327	19311
490.403	13747
490.478	14654
490.554	12613
490.629	12548
490.705	13450
490.781	13451
490.856	12936
490.932	15364
491.007	14150
491.083	14798
491.158	14692
491.234	20838
491.309	36656
491.385	34828
491.460	13395
491.536	16071
491.611	12895
491.686	14441
491.762	16959
491.837	27574
491.913	46254
491.988	59830
492.063	66832
492.139	26244
492.214	18564
492.289	10930
492.365	11654
492.440	13501
492.515	13470
492.590	13241
492.666	10675
492.741	16379
492.816	20908
492.891	12511
492.967	12246
493.042	11021
493.117	11413
493.192	12880
493.267	27191
493.342	71917
493.418	84762
493.493	16520
493.568	9847
493.643	10338
493.718	13620
493.793	17229
493.868	17914
493.943	12169
494.018	10682
494.093	10846
494.168	10960
494.243	9336
494.318	8190
494.393	10188
494.468	9761
494.543	9811
494.618	11035
494.693	9766
494.768	10148
494.842	10657
494.917	10710
494.992	10215
495.067	9208
495.142	9542
495.217	10890
495.292	10045
495.366	12262
495.441	13439
495.516	16306
495.591	22358
495.665	61705
495.740	112577
495.815	46439
495.890	15345
495.964	12432
496.039	16989
496.114	14385
496.188	15976
496.263	16781
496.338	14582
496.412	16655
496.487	19617
496.561	18646
496.636	19082
496.710	17049
496.785	19337
496.860	22759
496.934	18526
497.009	19174
497.083	19606
497.158	21253
497.232	24711
497.307	28956
497.381	27642
497.455	32451
497.530	37927
497.604	34027
497.679	37543
497.753	49946
497.827	59565
497.902	58488
497.976	66830
498.050	133645
498.125	340877
498.199	297330
498.273	77718
498.348	68202
498.422	61522
498.496	56139
498.570	49882
498.645	44365
498.719	39506
498.793	41677
498.867	46656
498.941	62528
499.016	162084
499.090	327602
499.164	102372
499.238	26503
499.312	23445
499.386	25623
499.460	23003
499.534	21393
499.609	24909
499.683	30980
499.757	29828
499.831	77010
499.905	229226
499.979	184409
500.053	33627
500.127	32683
500.201	20867
500.275	17617
500.349	17200
500.422	18547
500.496	23642
500.570	48058
500.644	134622
500.718	215152
500.792	42563
500.866	18345
500.940	20918
501.013	17853
501.087	16711
501.161	24468
501.235	33485
501.309	85431
501.382	208776
501.456	156027
501.530	41783
501.603	63939
501.677	25374
501.751	11795
501.825	16727
501.898	35140
501.972	81504
502.046	45862
502.119	15006
502.193	41210
502.266	84768
502.340	39824
502.413	44192
502.487	75441
502.561	38795
502.634	14506
502.708	12031
502.781	9550
502.855	9685
502.928	9316
503.002	9253
503.075	9272
503.149	10129
503.222	10191
503.295	10578
503.369	12242
503.442	20591
503.516	68364
503.589	148624
503.662	87583
503.736	33681
503.809	68370
503.882	57107
503.956	84532
504.029	68553
504.102	32917
504.175	33824
504.249	16880
504.322	14655
504.395	12709
504.468	9938
504.542	8813
504.615	7222
504.688	8683
504.761	6432
504.834	10260
504.907	10717
504.980	14131
505.053	9719
505.127	10046
505.200	14961
505.273	13626
505.346	9488
505.419	7224
505.492	8615
505.565	6601
505.638	6704
505.711	7098
505.784	6389
505.857	6503
505.930	8145
506.003	5487
506.076	9871
506.149	9826
506.221	11304
506.294	13463
506.367	39824
506.440	110220
506.513	50593
506.586	13441
506.659	8358
506.731	7593
506.804	7845
506.877	10863
506.950	9165
507.022	7983
507.095	9218
507.168	11559
507.241	7491
507.313	5811
507.386	5917
507.459	8857
507.531	6418
507.604	5730
507.677	6585
507.749	5303
507.822	10026
507.894	16344
507.967	20183
508.040	12190
508.112	10875
508.185	10371
508.257	8891
508.330	14974
508.402	9799
508.475	10407
508.547	10975
508.620	11970
508.692	16356
508.765	10664
508.837	7765
508.909	8233
508.982	8425
509.054	9906
509.127	7984
509.199	7725
509.271	7685
509.344	7183
509.416	7969
509.488	7927
509.560	8469
509.633	8986
509.705	9126
509.777	9316
509.849	12118
509.922	9255
509.994	8051
510.066	9550
510.138	11156
510.210	21519
510.283	17896
510.355	14807
510.427	12006
510.499	12007
510.571	11348
510.643	11341
510.715	16214
510.787	13620
510.859	12658
510.931	12159
511.003	15301
511.076	14214
511.148	10341
511.219	11393
511.291	18362
511.363	19441
511.435	10411
511.507	9211
511.579	11336
511.651	10686
511.723	9824
511.795	10138
511.867	9783
511.939	12035
512.010	21866
512.082	17455
512.154	9838
512.226	9911
512.298	16802
512.369	20572
512.441	16274
512.513	16059
512.585	11376
512.656	13136
512.728	12143
512.800	10956
512.871	12201
512.943	11524
513.015	9639
513.086	11299
513.158	10422
513.230	11277
513.301	13666
513.373	14700
513.444	10932
513.516	10959
513.588	9369
513.659	10184
513.731	12232
513.802	10659
513.874	19564
513.945	27832
514.016	12170
514.088	10397
514.159	11393
514.231	13986
514.302	19491
514.374	15844
514.445	14576
514.516	28657
514.588	19694
514.659	16226
514.730	25945
514.802	22356
514.873	22114
514.944	25576
515.016	20674
515.087	18261
515.158	23648
515.229	30582
515.301	26668
515.372	38600
515.443	27297
515.514	20476
515.585	14378
515.656	14265
515.728	12576
515.799	11050
515.870	11927
515.941	12339
516.012	12111
516.083	16098
516.154	14267
516.225	16638
516.296	16145
516.367	13828
516.438	14293
516.509	15111
516.580	22935
516.651	67123
516.722	171593
516.793	77676
516.864	23498
516.935	22390
517.006	22680
517.077	29932
517.148	68423
517.219	197744
517.289	261407
517.360	129074
517.431	44227
517.502	15165
517.573	15250
517.643	15503
517.714	18273
517.785	18003
517.856	16258
517.926	19801
517.997	20470
518.068	19564
518.138	25098
518.209	38918
518.280	153493
518.350	419605
518.421	146812
518.492	25295
518.562	19667
518.633	19030
518.703	17730
518.774	27820
518.845	43012
518.915	38249
518.986	21024
519.056	20328
519.127	30633
519.197	52320
519.268	126233
519.338	69233
519.408	19954
519.479	19928
519.549	14244
519.620	13628
519.690	10186
519.760	10538
519.831	11268
519.901	10883
519.971	10909
520.042	11794
520.112	12879
520.182	14140
520.253	14770
520.323	12145
520.393	16083
520.463	23617
520.534	16663
520.604	31732
520.674	16301
520.744	17392
520.814	34666
520.885	30392
520.955	53031
521.025	149961
521.095	48884
521.165	13452
521.235	12145
521.305	9536
521.375	8931
521.445	11699
521.515	11518
521.585	14968
521.655	11601
521.725	11991
521.795	12495
521.865	8936
521.935	17064
522.005	13341
522.075	9037
522.145	11737
522.215	10749
522.285	15511
522.355	22951
522.424	38401
522.494	28676
522.564	15391
522.634	29111
522.704	64535
522.774	23615
522.843	10206
522.913	9474
522.983	10364
523.053	9583
523.122	10127
523.192	13367
523.262	35721
523.331	28652
523.401	10931
523.471	7660
523.540	8244
523.610	6758
523.680	7197
523.749	8085
523.819	11158
523.888	9873
523.958	7692
524.027	8124
524.097	9276
524.166	8619
524.236	7625
524.305	10481
524.375	7421
524.444	7324
524.514	10551
524.583	8130
524.653	10239
524.722	12700
524.791	7802
524.861	10136
524.930	6894
524.999	7678
525.069	11694
525.138	9408
525.207	11857
525.277	9026
525.346	8332
525.415	9297
525.484	9457
525.554	10157
525.623	10763
525.692	9886
525.761	9571
525.830	9510
525.900	9920
525.969	14254
526.038	19622
526.107	35154
526.176	85449
526.245	63998
526.314	29866
526.383	51710
526.452	61056
526.522	110753
526.591	102198
526.660	38317
526.729	20843
526.797	23525
526.867	61196
526.935	225163
527.004	275621
527.073	119818
527.142	18230
527.211	11200
527.280	10940
527.349	11252
527.418	6112
527.487	9102
527.555	6578
527.624	6431
527.693	5437
527.762	7929
527.831	5528
527.899	6948
527.968	6788
528.037	5176
528.106	9084
528.174	13254
528.243	12470
528.312	17614
528.380	17917
528.449	6787
528.518	8106
528.586	4399
528.655	6417
528.723	6226
528.792	5190
528.861	6395
528.929	5282
528.998	7601
529.066	5746
529.135	5864
529.203	6065
529.272	5572
529.340	7377
529.409	8212
529.477	6505
529.545	8165
529.614	11688
529.682	9613
529.751	11636
529.819	13739
529.887	8591
529.956	7028
530.024	7808
530.092	5845
530.161	8758
530.229	10375
530.297	7625
530.365	7921
530.434	6598
530.502	5694
530.570	5693
530.638	6081
530.707	7332
530.775	8327
530.843	6295
530.911	6152
530.979	6435
531.047	7223
531.115	7522
531.183	6299
531.252	7833
531.320	7638
531.388	6452
531.456	7655
531.524	4739
531.592	8057
531.660	9056
531.728	7016
531.796	5898
531.864	7498
531.932	7721
532.000	7848
532.067	7524
532.135	8774
532.203	9102
532.271	9009
532.339	16556
532.407	28945
532.475	17432
532.542	10541
532.610	11618
532.678	16269
532.746	71116
532.814	130421
532.881	28565
532.949	10115
533.017	8995
533.084	8588
533.152	6467
533.220	7572
533.287	7937
533.355	7547
533.423	7553
533.490	7227
533.558	6656
533.625	7698
533.693	8484
533.761	8530
533.828	8904
533.896	8066
533.963	16419
534.031	18234
534.098	23531
534.166	12034
534.233	8875
534.300	10196
534.368	10142
534.435	9106
534.503	9592
534.570	10338
534.637	8022
534.705	9160
534.772	9803
534.840	14365
534.907	47469
534.974	47143
535.041	11181
535.109	10722
535.176	6729
535.243	7513
535.310	7768
535.378	7125
535.445	6789
535.512	8051
535.579	8143
535.646	7316
535.714	8525
535.781	10436
535.848	10696
535.915	11018
535.982	10938
536.049	10431
536.116	11044
536.183	9931
536.250	9149
536.317	9298
536.384	10131
536.451	11553
536.518	11568
536.585	9262
536.652	13114
536.719	14479
536.786	9908
536.853	10311
536.920	15024
536.987	18856
537.053	21948
537.120	78952
537.187	52958
537.254	9216
537.321	8100
537.388	9332
537.454	7076
537.521	8144
537.588	6738
537.654	9426
537.721	10668
537.788	10321
537.855	7608
537.921	8803
537.988	8174
538.055	9116
538.121	7785
538.188	9254
538.254	12486
538.321	17610
538.388	11385
538.454	8803
538.521	9411
538.587	7461
538.654	7758
538.720	7153
538.787	7460
538.853	8377
538.920	10000
538.986	10173
539.053	9328
539.119	8575
539.185	8364
539.252	11044
539.318	12688
539.385	11772
539.451	10643
539.517	11679
539.583	12722
539.650	28077
539.716	52854
539.782	14680
539.849	8713
539.915	9402
539.981	8925
540.047	9477
540.114	8719
540.180	9817
540.246	8757
540.312	12186
540.378	18771
540.444	18930
540.510	28987
540.576	59934
540.643	16619
540.709	8311
540.775	8667
540.841	8977
540.907	13075
540.973	18610
541.039	14788
541.105	12613
541.171	9135
541.237	9503
541.303	10582
541.369	11827
541.435	12647
541.500	16059
541.566	11071
541.632	7965
541.698	7256
541.764	9390
541.830	7736
541.896	7806
541.961	9451
542.027	9134
542.093	9635
542.159	9355
542.224	9841
542.290	14001
542.356	18270
542.421	17454
542.487	12285
542.553	10849
542.618	11575
542.684	9654
542.750	9297
542.815	11285
542.881	19502
542.947	59114
543.012	33206
543.078	10439
543.143	8001
543.209	10220
543.274	9097
543.340	12733
543.405	25849
543.471	30407
543.536	11349
543.602	8775
543.667	7915
543.732	10703
543.798	8539
543.863	9310
543.928	8030
543.994	8076
544.059	9059
544.124	8760
544.190	9202
544.255	9797
544.320	9534
544.386	8572
544.451	11983
544.516	11586
544.581	14305
544.646	40801
544.712	48056
544.777	13557
544.842	12167
544.907	12861
544.972	10854
545.037	11555
545.102	12646
545.168	11651
545.233	13008
545.298	13414
545.363	14193
545.428	14932
545.493	27025
545.558	43981
545.623	18472
545.688	12035
545.753	12734
545.818	11817
545.883	12968
545.947	11291
546.012	13507
546.077	13371
546.142	12842
546.207	12517
546.272	15084
546.337	13500
546.401	14087
546.466	13181
546.531	12805
546.596	12886
546.661	13265
546.725	13681
546.790	11090
546.855	13709
546.919	11755
546.984	13369
547.049	14450
547.113	16227
547.178	13733
547.243	17238
547.307	18419
547.372	19770
547.436	21112
547.501	16776
547.565	19129
547.630	19517
547.695	20315
547.759	21553
547.823	19190
547.888	16678
547.952	17363
548.017	18392
548.081	22144
548.146	24961
548.210	21548
548.274	18535
548.339	17746
548.403	17052
548.468	15909
548.532	15963
548.596	17110
548.660	16435
548.725	18948
548.789	20436
548.853	21124
548.917	19254
548.982	24371
549.046	22596
549.110	15731
549.174	16459
549.238	17031
549.303	16752
549.367	19084
549.431	17453
549.495	17032
549.559	17091
549.623	19172
549.687	21580
549.751	25085
549.815	23623
549.879	21260
549.943	20546
550.007	22764
550.071	22537
550.135	26529
550.199	21691
550.263	20389
550.327	22317
550.391	26471
550.455	22031
550.519	22011
550.582	23867
550.646	29037
550.710	28276
550.774	24439
550.838	24433
550.901	25400
550.965	26470
551.029	27311
551.093	30543
551.156	38160
551.220	61394
551.284	55270
551.347	36714
551.411	66065
551.475	58996
551.538	28043
551.602	25360
551.666	22874
551.729	20227
551.793	21224
551.856	22679
551.920	21566
551.983	21841
552.047	20854
552.110	21578
552.174	21912
552.237	21289
552.301	20226
552.364	19702
552.428	19964
552.491	19204
552.554	20146
552.618	21346
552.681	21393
552.745	20881
552.808	26409
552.871	27961
552.934	23809
552.998	22590
553.061	23578
553.124	22167
553.187	21762
553.251	22748
553.314	23807
553.377	26146
553.440	40367
553.503	120659
553.567	149651
553.630	33224
553.693	22580
553.756	22403
553.819	19871
553.882	18973
553.945	20694
554.008	18273
554.071	17925
554.134	19808
554.197	18457
554.260	18505
554.323	19518
554.386	19532
554.449	19397
554.512	20287
554.575	18450
554.638	18951
554.701	18486
554.764	17889
554.827	17235
554.889	17265
554.952	16575
555.015	15310
555.078	16799
555.141	16571
555.203	15459
555.266	15920
555.329	16709
555.391	14997
555.454	16426
555.517	15803
555.580	15360
555.642	14737
555.705	14748
555.768	15496
555.830	15650
555.893	14580
555.955	14398
556.018	13925
556.080	15183
556.143	13556
556.206	14706
556.268	14642
556.330	15700
556.393	14738
556.455	15616
556.518	21627
556.580	20235
556.643	13764
556.705	13096
556.767	13385
556.830	14612
556.892	15295
556.955	18005
557.017	14702
557.079	13233
557.142	14009
557.204	15373
557.266	23537
557.328	18104
557.391	12528
557.453	12383
557.515	13085
557.577	15581
557.639	14798
557.701	12950
557.764	12853
557.826	13788
557.888	14382
557.950	13751
558.012	14557
558.074	18281
558.136	37561
558.198	68742
558.260	28140
558.322	15660
558.384	17621
558.446	18698
558.508	19461
558.570	23429
558.632	33441
558.694	43113
558.756	58084
558.818	187994
558.880	348424
558.942	97519
559.003	76106
559.065	35533
559.127	19659
559.189	19790
559.251	22135
559.312	32310
559.374	85422
559.436	224195
559.498	87853
559.559	21461
559.621	19678
559.683	23657
559.744	42412
559.806	121482
559.868	133600
559.929	30204
559.991	22920
560.052	33726
560.114	71152
560.176	42861
560.237	50922
560.299	60741
560.360	19721
560.422	14227
560.483	14645
560.545	12784
560.606	13179
560.667	12915
560.729	12063
560.790	12534
560.852	13194
560.913	13873
560.974	12962
561.036	12340
561.097	12850
561.158	13904
561.220	13372
561.281	12358
561.342	11819
561.403	14982
561.465	16865
561.526	31169
561.587	32369
561.648	14403
561.709	13491
561.771	12629
561.832	12569
561.893	12613
561.954	13073
562.015	12400
562.076	11914
562.137	12719
562.198	12582
562.259	12698
562.320	12841
562.381	13358
562.442	16382
562.503	14106
562.564	13271
562.625	12610
562.686	13448
562.747	12736
562.808	12188
562.869	13984
562.930	17238
562.991	15104
563.051	15183
563.112	14318
563.173	13359
563.234	13236
563.294	13451
563.355	12809
563.416	13360
563.477	13632
563.537	12835
563.598	14592
563.659	13639
563.720	12750
563.780	14789
563.841	13849
563.901	15498
563.962	13848
564.023	14077
564.083	13851
564.144	13973
564.204	13264
564.265	15151
564.325	17672
564.386	29106
564.446	22642
564.507	14274
564.567	13471
564.628	14658
564.688	14900
564.749	14335
564.809	16803
564.869	17703
564.930	14780
564.990	15592
565.050	13911
565.111	15730
565.171	15356
565.231	14257
565.292	15327
565.352	14875
565.412	16551
565.472	16542
565.532	16293
565.593	15903
565.653	15391
565.713	16963
565.773	18271
565.833	19613
565.893	20959
565.953	18215
566.013	18322
566.074	20053
566.134	25031
566.194	31816
566.254	30903
566.314	25470
566.374	22450
566.434	24317
566.494	25718
566.554	25111
566.614	27383
566.673	27882
566.733	30196
566.793	31640
566.853	33396
566.913	33829
566.973	35813
567.033	35479
567.092	34020
567.152	33435
567.212	35836
567.272	36125
567.331	39353
567.391	40739
567.451	43248
567.511	47693
567.570	46060
567.630	37864
567.690	37750
567.749	37841
567.809	40720
567.868	45666
567.928	51674
567.988	59823
568.047	71121
568.107	89334
568.166	124044
568.226	180202
568.285	227423
568.345	211534
568.404	185559
568.464	164957
568.523	155487
568.582	156662
568.642	170616
568.701	206606
568.761	288177
568.820	389731
568.879	384043
568.939	321631
568.998	259539
569.057	209662
569.116	172258
569.176	143201
569.235	119763
569.294	104028
569.353	89027
569.413	77501
569.472	70001
569.531	61618
569.590	55873
569.649	50795
569.708	46205
569.767	44161
569.827	40771
569.886	38046
569.945	34367
570.004	31522
570.063	30265
570.122	29032
570.181	28645
570.240	28309
570.299	27610
570.358	25128
570.417	22791
570.475	21945
570.534	22175
570.593	21397
570.652	21114
570.711	19917
570.770	19755
570.829	20374
570.887	18802
570.946	18843
571.005	16931
571.064	17597
571.122	17010
571.181	18232
571.240	16872
571.299	16216
571.357	17651
571.416	17038
571.475	19093
571.533	17259
571.592	15466
571.650	15632
571.709	14366
571.768	14728
571.826	14091
571.885	14465
571.943	13871
572.002	14193
572.060	13820
572.119	13239
572.177	13099
572.236	12557
572.294	12541
572.352	13264
572.411	12643
572.469	11946
572.528	12603
572.586	12471
572.644	13407
572.703	14815
572.761	13475
572.819	12861
572.877	11916
572.936	11266
572.994	11727
573.052	11585
573.110	12417
573.169	12308
573.227	10805
573.285	11625
573.343	12325
573.401	12245
573.459	11764
573.517	11056
573.576	11500
573.634	11602
573.692	12870
573.750	11876
573.808	11527
573.866	12381
573.924	14599
573.982	14061
574.040	11302
574.098	11279
574.155	11245
574.213	11164
574.271	10856
574.329	10774
574.387	10585
574.445	10816
574.503	10062
574.560	9519
574.618	10045
574.676	9439
574.734	10653
574.792	10834
574.849	11221
574.907	9833
574.965	9768
575.022	9643
575.080	9779
575.138	10134
575.195	10565
575.253	10461
575.311	11039
575.368	10087
575.426	9604
575.483	10363
575.541	10077
575.598	10502
575.656	9961
575.713	10631
575.771	10438
575.828	10143
575.886	10009
575.943	11572
576.001	10966
576.058	10990
576.115	11988
576.173	13485
576.230	13744
576.287	13731
576.345	12148
576.402	10977
576.459	12572
576.517	11339
576.574	12753
576.631	13439
576.688	11533
576.746	10187
576.803	11782
576.860	10869
576.917	11620
576.974	12703
577.031	11004
577.089	11729
577.146	12052
577.203	12415
577.260	12629
577.317	12680
577.374	12702
577.431	13026
577.488	11742
577.545	11398
577.602	12463
577.659	12792
577.716	13131
577.773	13328
577.830	12306
577.886	12426
577.943	11534
578.000	12255
578.057	13093
578.114	12685
578.171	14587
578.227	16928
578.284	15905
578.341	15126
578.398	13981
578.454	14876
578.511	13612
578.568	15663
578.625	13479
578.681	13328
578.738	12060
578.794	11615
578.851	12287
578.908	12425
578.964	13357
579.021	13172
579.077	13652
579.134	12356
579.190	12448
579.247	12636
579.303	11501
579.360	11518
579.416	12002
579.473	11504
579.529	12728
579.586	12594
579.642	12905
579.698	12926
579.755	13440
579.811	13181
579.867	13771
579.924	12639
579.980	13675
580.036	15451
580.093	17667
580.149	23142
580.205	22908
580.261	19770
580.317	18667
580.374	16602
580.430	17628
580.486	16079
580.542	15115
580.598	14773
580.619	14805
580.654	14873
580.692	13988
580.710	13572
580.765	15294
580.767	15358
580.823	14534
580.838	14613
580.879	14863
580.911	14073
580.935	13525
580.984	13625
580.991	13646
581.047	14999
581.057	14879
581.103	14435
581.130	14667
581.159	14886
581.203	16237
581.215	16619
581.270	16002
581.276	15870
581.326	14629
581.349	15031
581.382	15674
581.422	15441
581.438	15347
581.494	15558
581.494	15555
581.550	15884
581.567	15925
581.606	15888
581.640	15658
581.661	15581
581.713	15682
581.717	15703
581.773	15404
581.786	15485
581.829	15680
581.859	15486
581.885	15350
581.932	15478
581.940	15507
581.996	15788
582.004	15837
582.052	16080
582.077	16086
582.107	16180
582.150	16090
582.163	16010
582.219	16553
582.223	16514
582.274	16369
582.296	16601
582.330	16811
582.368	16588
582.386	16572
582.441	17244
582.441	17245
582.497	17732
582.514	17733
582.552	18064
582.587	18629
582.608	18687
582.659	17477
582.663	17409
582.719	17888
582.732	17781
582.774	17513
582.805	17700
582.830	17850
582.877	18653
582.885	18783
582.941	18430
582.950	18430
582.996	18511
583.023	19599
583.052	20914
583.095	21123
583.107	21171
583.162	22910
583.168	23096
583.218	24467
583.240	23534
583.273	22157
583.313	21993
583.328	21960
583.384	21995
583.385	21979
583.439	21330
583.458	21164
583.494	20872
583.531	20995
583.549	21205
583.603	21665
583.605	21670
583.660	20914
583.676	21022
583.715	21425
583.748	22323
583.770	22933
583.820	22965
583.825	22961
583.881	22702
583.893	22661
583.936	22543
583.965	22737
583.991	22877
584.038	23484
584.046	23590
584.101	23785
584.110	23892
584.156	24807
584.183	24396
584.211	23560
584.255	24431
584.266	24827
584.321	25607
584.328	25609
584.376	25346
584.400	25929
584.431	26580
584.472	26287
584.486	26248
584.541	26227
584.545	26286
584.596	27358
584.617	27677
584.651	28600
584.689	29019
584.706	28907
584.761	29857
584.762	29847
584.816	29745
584.834	30048
584.871	30984
584.906	31662
584.926	31783
584.978	30883
584.980	30892
585.035	32918
585.051	33212
585.090	33869
585.123	34923
585.145	35633
585.195	36155
585.200	36242
585.254	38153
585.267	38679
585.309	41138
585.340	42817
585.364	43569
585.412	43161
585.419	43052
585.473	44783
585.484	44908
585.528	47519
585.556	50845
585.583	56151
585.628	67774
585.637	72098
585.692	109760
585.700	114834
585.747	132671
585.772	122477
585.801	93107
585.845	61641
585.856	58317
585.910	51079
585.917	50420
585.965	49718
585.989	49664
586.019	50627
586.061	50791
586.074	50871
586.128	53263
586.133	53350
586.183	54771
586.205	55387
586.237	56294
586.277	57558
586.292	58021
586.346	59358
586.349	59404
586.401	61289
586.421	62173
586.455	64462
586.493	67274
586.509	70096
586.564	79840
586.565	80119
586.618	97887
586.637	99511
586.672	89183
586.709	79468
586.727	77903
586.781	77706
586.781	77775
586.835	80271
586.853	80940
586.889	83070
586.925	84584
586.944	85471
586.996	89369
586.998	89578
587.052	94682
587.068	95869
587.106	99028
587.140	101400
587.161	102803
587.212	107509
587.215	107926
587.269	114218
587.284	115925
587.323	120476
587.356	124456
587.377	127213
587.427	132878
587.431	133522
587.485	141923
587.499	144120
587.539	151583
587.571	157249
587.593	162288
587.643	173405
587.648	174656
587.702	187314
587.715	190519
587.755	202126
587.786	210365
587.810	217408
587.858	232609
587.864	234981
587.917	257999
587.930	263019
587.971	283683
588.001	298737
588.025	311729
588.073	338747
588.079	343136
588.133	380722
588.145	389199
588.187	425948
588.217	451326
588.241	477340
588.288	530318
588.295	539368
588.348	614466
588.360	630328
588.402	704425
588.431	757008
588.456	813247
588.503	926577
588.510	948158
588.564	1119344
588.575	1155150
588.617	1341013
588.646	1471354
588.671	1617634
588.718	1891782
588.725	1937544
588.778	2267279
588.789	2324095
588.832	2385607
588.861	2389577
588.886	2179381
588.932	1703762
588.939	1675468
588.993	1533339
589.004	1529333
589.047	2095714
589.075	2430322
589.100	2480704
589.147	2503722
589.154	2474574
589.207	2192296
589.218	2131982
589.261	2009851
589.290	1932871
589.314	1961882
589.361	2024354
589.368	2053459
589.421	2278289
589.433	2317664
589.475	2317412
589.504	2270443
589.528	2072769
589.576	1673870
589.582	1714185
589.635	2165456
589.647	2245301
589.689	2240968
589.718	2198191
589.742	2000174
589.790	1584036
589.795	1552794
589.849	1239602
589.861	1166921
589.902	1013400
589.932	898280
589.955	835038
590.004	702196
590.009	694734
590.062	604318
590.075	581627
590.115	527609
590.146	485051
590.168	465017
590.218	418776
590.222	416444
590.275	378190
590.289	367742
590.328	345716
590.360	326808
590.381	316377
590.431	290462
590.435	289722
590.488	268469
590.503	262174
590.541	249593
590.574	238174
590.594	233558
590.645	220110
590.647	219988
590.700	205800
590.716	201074
590.753	193723
590.787	186501
590.806	183357
590.859	173399
590.859	173624
590.912	165963
590.930	163130
590.965	158756
591.001	153917
591.018	151850
591.071	144451
591.072	144074
591.124	140027
591.143	138188
591.177	134760
591.214	130356
591.230	129560
591.283	126361
591.285	125939
591.336	122214
591.356	120549
591.389	118232
591.427	114527
591.442	113661
591.495	109824
591.498	109279
591.547	106257
591.569	104661
591.600	103359
591.640	100940
591.653	100748
591.706	98997
591.711	98586
591.759	97892
591.782	97236
591.811	97917
591.853	98210
591.864	97396
591.917	92027
591.924	91035
591.969	89105
591.995	87669
592.022	87184
592.066	85873
592.075	86398
592.127	88294
592.137	88454
592.180	90520
592.208	91330
592.233	87384
592.279	79333
592.285	79276
592.338	77226
592.350	76556
592.390	75322
592.421	74099
592.443	74304
592.491	74174
592.495	74181
592.548	71714
592.562	70861
592.600	70669
592.633	70166
592.653	69629
592.704	67396
592.705	67776
592.775	67388
592.846	65617
592.916	65819
592.987	65196
593.058	64460
593.128	61561
593.199	60222
593.270	58955
593.341	58144
593.411	57238
593.482	55951
593.553	54813
593.623	53195
593.694	55501
593.764	56516
593.835	52267
593.906	51236
593.976	51984
594.047	52861
594.117	58014
594.188	56192
594.258	47904
594.329	47092
594.399	48540
594.470	47170
594.540	45191
594.611	45916
594.681	45471
594.751	45881
594.822	46480
594.892	47044
594.963	46811
595.033	45733
595.103	45812
595.174	48316
595.244	61751
595.314	71760
595.384	46153
595.455	44486
595.525	43277
595.595	44255
595.665	43089
595.736	45049
595.806	41316
595.876	42353
595.946	41319
596.016	40573
596.087	41112
596.157	42011
596.227	39784
596.297	41745
596.367	43539
596.437	47100
596.507	57471
596.577	65170
596.647	44455
596.717	42280
596.787	40993
596.857	42633
596.927	41310
596.997	43240
597.067	43384
597.137	45531
597.207	44056
597.277	42885
597.347	40814
597.417	41261
597.487	41085
597.557	42048
597.626	42042
597.696	43563
597.766	50212
597.836	61346
597.906	43455
597.975	39419
598.045	38655
598.115	38954
598.185	39282
598.254	42628
598.324	41862
598.394	42967
598.464	43635
598.533	41796
598.603	39672
598.672	39988
598.742	40505
598.812	40966
598.881	37934
598.951	39490
599.020	38987
599.090	38093
599.159	40998
599.229	37915
599.299	37475
599.368	39121
599.437	37521
599.507	38750
599.576	38552
599.646	39550
599.715	39790
599.785	37818
599.854	39109
599.924	42288
599.993	38780
600.062	36665
600.132	36100
600.201	37674
600.270	40142
600.340	40619
600.409	38465
600.478	39836
600.547	39124
600.617	39686
600.686	35547
600.755	34491
600.824	34679
600.894	34702
600.963	33369
601.032	32730
601.101	33138
601.170	31524
601.239	32771
601.308	35859
601.378	33860
601.447	32071
601.516	31585
601.585	35309
601.654	38461
601.723	34723
601.792	33004
601.861	36464
601.930	38828
601.999	37925
602.068	36006
602.137	38514
602.206	37936
602.275	35024
602.343	37376
602.412	37212
602.481	34191
602.550	33904
602.619	33515
602.688	33976
602.756	33316
602.825	33394
602.894	33759
602.963	34595
603.032	34591
603.100	34444
603.169	34019
603.238	34695
603.307	33312
603.375	34218
603.444	34432
603.513	34990
603.581	33733
603.650	35281
603.719	33468
603.787	33345
603.856	34441
603.924	33261
603.993	35986
604.061	34595
604.130	35342
604.198	36668
604.267	35439
604.335	36568
604.404	36364
604.472	36652
604.541	36596
604.609	37886
604.678	38373
604.746	37483
604.815	38431
604.883	38018
604.951	38482
605.020	38671
605.088	38698
605.156	38424
605.225	37833
605.293	38133
605.361	38183
605.429	38758
605.498	39232
605.566	40383
605.634	40406
605.702	43027
605.771	42459
605.839	41871
605.907	41207
605.975	40660
606.043	39979
606.111	40993
606.180	41946
606.248	44534
606.316	47254
606.384	42010
606.452	46240
606.520	43699
606.588	39645
606.656	38621
606.724	36767
606.792	35612
606.860	32758
606.928	31102
606.996	31450
607.064	30153
607.132	30453
607.200	32436
607.267	32303
607.335	32260
607.403	33787
607.471	32222
607.539	31961
607.607	32193
607.674	29795
607.742	30828
607.810	31426
607.878	31193
607.946	29111
608.013	32090
608.081	32726
608.149	32148
608.216	31315
608.284	32904
608.352	31842
608.419	34208
608.487	44283
608.555	36122
608.622	31954
608.690	33009
608.757	35169
608.825	36134
608.893	35156
608.960	37988
609.028	40504
609.095	46649
609.163	35656
609.230	31718
609.298	31140
609.365	29033
609.432	30806
609.500	33243
609.567	36186
609.635	40944
609.702	42306
609.769	41569
609.837	37773
609.904	33828
609.971	32894
610.039	41159
610.106	53405
610.173	100533
610.241	228456
610.308	177611
610.375	82864
610.442	41014
610.509	33305
610.577	33142
610.644	31377
610.711	33525
610.778	33476
610.845	34064
610.912	35405
610.980	41536
611.047	48676
611.114	40509
611.181	33630
611.248	32982
611.315	35350
611.382	34613
611.449	36350
611.516	37453
611.583	36866
611.650	37672
611.717	37576
611.784	40335
611.851	42686
611.918	46759
611.984	56585
612.051	87731
612.118	186974
612.185	468633
612.252	297697
612.319	69718
612.386	51571
612.452	45635
612.519	46461
612.586	55321
612.653	47525
612.719	42495
612.786	39092
612.853	36788
612.919	36041
612.986	36664
613.053	34860
613.120	33853
613.186	32272
613.253	33954
613.319	33257
613.386	33100
613.453	33815
613.519	36530
613.586	38572
613.652	48023
613.719	41441
613.785	40363
613.852	36049
613.918	35769
613.985	39982
614.051	49853
614.118	83483
614.184	76029
614.250	38002
614.317	35404
614.383	33793
614.449	35181
614.516	34991
614.582	36193
614.648	33725
614.715	34097
614.781	34003
614.847	34641
614.914	34968
614.980	35168
615.046	35837
615.112	37585
615.179	39738
615.245	50038
615.311	71031
615.377	128819
615.443	155620
615.509	86251
615.575	56571
615.642	48756
615.708	49038
615.774	53792
615.840	65341
615.906	89132
615.972	151934
616.038	309725
616.104	464367
616.170	699379
616.236	561337
616.302	130959
616.368	79716
616.434	60556
616.500	52559
616.565	54424
616.631	63611
616.697	53878
616.763	54453
616.829	76372
616.895	124171
616.961	124363
617.026	62725
617.092	42485
617.158	39228
617.224	36702
617.289	36260
617.355	35103
617.421	35095
617.487	35461
617.552	31692
617.618	31560
617.684	30609
617.749	34549
617.815	30722
617.880	29810
617.946	30875
618.012	31585
618.077	30438
618.143	30516
618.208	30746
618.274	32320
618.339	32438
618.405	29199
618.470	29808
618.536	30919
618.601	33460
618.667	30292
618.732	28260
618.798	28196
618.863	28024
618.928	27704
618.994	30064
619.059	30910
619.124	38611
619.190	31242
619.255	27255
619.320	27862
619.386	27775
619.451	27166
619.516	26769
619.581	27026
619.647	26874
619.712	27119
619.777	26351
619.842	26780
619.907	28003
619.972	27588
620.038	26964
620.103	26429
620.168	24892
620.233	27185
620.298	25773
620.363	26575
620.428	27607
620.493	28129
620.558	27290
620.623	27095
620.688	27406
620.753	27164
620.818	26906
620.883	27828
620.948	28656
621.013	27924
621.078	27851
621.143	27473
621.207	31138
621.272	29931
621.337	30057
621.402	32434
621.467	38977
621.532	40309
621.596	33529
621.661	31244
621.726	29589
621.791	29240
621.855	31251
621.920	32835
621.985	33794
622.049	39083
622.114	35662
622.179	33243
622.243	33784
622.308	33399
622.373	34897
622.437	33083
622.502	31310
622.566	31334
622.631	31151
622.695	32393
622.760	32077
622.824	31403
622.889	32267
622.953	34215
623.018	43686
623.082	41518
623.147	32545
623.211	30978
623.276	31774
623.340	29969
623.404	28973
623.469	29057
623.533	28934
623.597	29122
623.662	29008
623.726	27034
623.790	27739
623.854	26678
623.919	28178
623.983	28468
624.047	27603
624.111	27600
624.176	29244
624.240	29651
624.304	31273
624.368	27493
624.432	28668
624.496	29524
624.560	31219
624.625	31035
624.689	29155
624.753	28403
624.817	28624
624.881	28062
624.945	27622
625.009	26608
625.073	26730
625.137	28501
625.201	32792
625.265	31337
625.329	27559
625.393	28942
625.456	28688
625.520	29333
625.584	33007
625.648	40013
625.712	59834
625.776	133448
625.839	144688
625.903	56840
625.967	35007
626.031	56452
626.095	82284
626.158	33583
626.222	22250
626.286	23592
626.349	21876
626.413	20699
626.477	24131
626.540	21352
626.604	21029
626.668	22252
626.731	21173
626.795	21947
626.858	22582
626.922	21013
626.986	21328
627.049	20550
627.113	21014
627.176	20932
627.240	20384
627.303	20741
627.366	20026
627.430	20409
627.493	21325
627.557	20595
627.620	21481
627.684	20771
627.747	21198
627.810	18610
627.874	19308
627.937	18525
628.000	21651
628.064	19974
628.127	17078
628.190	19175
628.253	18911
628.317	17711
628.380	18098
628.443	17963
628.506	17612
628.569	16811
628.632	16303
628.696	17270
628.759	17173
628.822	16590
628.885	15085
628.948	15798
629.011	16787
629.074	16857
629.137	14584
629.200	15784
629.263	18656
629.326	15282
629.389	14698
629.452	16571
629.515	16428
629.578	15695
629.641	18256
629.704	16558
629.767	16420
629.830	15395
629.892	14970
629.955	15180
630.018	16893
630.081	16277
630.144	20469
630.207	16166
630.269	18478
630.332	18618
630.395	16456
630.458	14785
630.520	13035
630.583	16294
630.646	15032
630.708	14015
630.771	13497
630.834	15256
630.896	14145
630.959	13650
631.021	14340
631.084	15459
631.146	16548
631.209	19110
631.272	13335
631.334	13989
631.397	13133
631.459	14062
631.522	14340
631.584	15010
631.646	14840
631.709	15618
631.771	19437
631.834	15492
631.896	14908
631.958	12983
632.021	14138
632.083	12509
632.145	14964
632.208	13139
632.270	14577
632.332	12408
632.395	12941
632.457	14755
632.519	13577
632.581	13851
632.643	12151
632.706	12960
632.768	11524
632.830	12970
632.892	12372
632.954	13118
633.016	12661
633.078	12687
633.141	12146
633.203	13003
633.265	12209
633.327	12133
633.389	12131
633.451	15116
633.513	15736
633.575	16956
633.637	14819
633.698	13911
633.760	12861
633.822	12891
633.884	13060
633.946	13069
634.008	13341
634.070	14384
634.132	16622
634.193	14582
634.255	13861
634.317	13835
634.379	14248
634.441	13250
634.502	13597
634.564	12691
634.626	11731
634.687	12942
634.749	11561
634.811	12980
634.873	10500
634.934	11816
634.996	13158
635.057	11348
635.119	10914
635.181	11859
635.242	11760
635.304	9985
635.365	13327
635.427	11767
635.488	12114
635.550	10672
635.611	11928
635.673	10382
635.734	12485
635.796	12452
635.857	13753
635.918	11702
635.980	14756
636.041	12698
636.102	13227
636.164	13834
636.225	14507
636.286	11534
636.348	13745
636.409	12025
636.470	10845
636.531	11190
636.593	12327
636.654	13038
636.715	10545
636.776	10324
636.838	9486
636.899	11224
636.960	9574
637.021	9881
637.082	10144
637.143	10787
637.204	8788
637.265	9626
637.326	9955
637.387	9894
637.448	7914
637.509	10185
637.570	9396
637.631	10934
637.692	8494
637.753	8857
637.814	8520
637.875	8984
637.936	9419
637.997	8816
638.058	10542
638.119	11278
638.179	9721
638.240	9148
638.301	9445
638.362	8900
638.423	10127
638.483	10320
638.544	7256
638.605	10015
638.666	8669
638.726	10037
638.787	9713
638.848	8369
638.908	7605
638.969	9607
639.030	8854
639.090	9074
639.151	8425
639.211	10433
639.272	12461
639.332	16271
639.393	12541
639.453	7976
639.514	9302
639.574	9381
639.635	7802
639.695	9860
639.756	7772
639.816	9470
639.877	10043
639.937	15365
639.997	17814
640.058	8700
640.118	7369
640.178	9315
640.239	6883
640.299	7771
640.359	7546
640.420	8060
640.480	9175
640.540	8690
640.600	8160
640.661	8937
640.721	8263
640.781	12844
640.841	9456
640.901	9853
640.961	8731
641.021	9477
641.082	8682
641.142	12605
641.202	10402
641.262	6758
641.322	8079
641.382	6196
641.442	8333
641.502	7346
641.562	7938
641.622	8005
641.682	8406
641.742	8144
641.802	7465
641.861	9843
641.921	7821
641.981	9859
642.041	10130
642.101	10425
642.161	7110
642.221	7571
642.280	7458
642.340	7298
642.400	6938
642.460	8169
642.519	7488
642.579	7985
642.639	8551
642.698	5447
642.758	9008
642.818	6988
642.877	7147
642.937	8433
642.997	9595
643.056	12291
643.116	7573
643.175	9198
643.235	7182
643.294	8297
643.354	8302
643.414	9263
643.473	10358
643.532	12162
643.592	15834
643.651	25585
643.711	43554
643.770	86188
643.830	202927
643.889	421984
643.948	93365
644.008	17966
644.067	11944
644.126	9492
644.186	8063
644.245	8736
644.304	6398
644.363	9021
644.423	6037
644.482	7186
644.541	8798
644.600	5497
644.659	8843
644.719	9786
644.778	14024
644.837	19457
644.896	37910
644.955	81072
645.014	28563
645.073	11959
645.132	8435
645.191	8603
645.250	7238
645.309	8374
645.368	7749
645.427	10538
645.486	11138
645.545	17921
645.604	7999
645.663	8477
645.722	7426
645.781	8335
645.840	8470
645.898	10501
645.957	15752
646.016	21061
646.075	38068
646.134	72941
646.192	193905
646.251	275237
646.310	40641
646.369	12234
646.427	10724
646.486	8595
646.545	6904
646.603	7762
646.662	7199
646.721	6723
646.779	6025
646.838	5963
646.896	8530
646.955	9102
647.014	13146
647.072	20985
647.131	51026
647.189	25112
647.248	6990
647.306	6516
647.365	6366
647.423	4780
647.481	6221
647.540	4916
647.598	5155
647.657	5068
647.715	5858
647.773	5591
647.832	6463
647.890	5327
647.948	5675
648.007	6956
648.065	5004
648.123	5713
648.181	7618
648.240	9160
648.298	6408
648.356	5222
648.414	6161
648.472	6911
648.531	6012
648.589	5335
648.647	5807
648.705	5927
648.763	5560
648.821	5799
648.879	5522
648.937	6472
648.995	6983
649.053	7635
649.111	11720
649.169	17318
649.227	28975
649.285	55626
649.343	152054
649.401	74483
649.459	25755
649.516	17981
649.574	13278
649.632	29507
649.690	33610
649.748	15344
649.806	18427
649.863	29035
649.921	37899
649.979	24504
650.037	7878
650.094	4777
650.152	6104
650.210	5361
650.268	5617
650.325	6078
650.383	6101
650.440	4686
650.498	4871
650.556	5797
650.613	4659
650.671	4813
650.728	5474
650.786	6134
650.843	5834
650.901	3279
650.958	4944
651.016	5163
651.073	5291
651.131	4458
651.188	4016
651.246	5250
651.303	4256
651.360	4785
651.418	4059
651.475	5686
651.532	3411
651.590	4619
651.647	3363
651.704	4692
651.762	3888
651.819	4943
651.876	4390
651.933	3969
651.990	4982
652.048	3218
652.105	4268
652.162	4748
652.219	4159
652.276	4718
652.333	3771
652.390	3415
652.448	5118
652.505	4442
652.562	4895
652.619	6566
652.676	10244
652.733	9721
652.790	5311
652.847	3519
652.904	4346
652.961	3372
653.017	3074
653.074	4171
653.131	4293
653.188	3622
653.245	3034
653.302	4127
653.359	3374
653.415	4293
653.472	3696
653.529	3863
653.586	3592
653.642	4031
653.699	4159
653.756	3696
653.813	3501
653.869	3667
653.926	3095
653.983	2713
654.039	3632
654.096	3808
654.152	4718
654.209	3380
654.266	4082
654.322	3756
654.379	5176
654.435	6129
654.492	5566
654.548	8303
654.605	10871
654.661	6660
654.717	4352
654.774	4526
654.830	4504
654.887	4508
654.943	4311
655.000	5281
655.056	4571
655.112	5269
655.168	3644
655.225	4523
655.281	6214
655.337	7320
655.394	12186
655.450	8507
655.506	7875
655.562	13269
655.618	9981
655.675	4136
655.731	4023
655.787	3352
655.843	4319
655.899	2725
655.955	3794
656.011	4836
656.067	2919
656.123	4415
656.179	4578
656.235	5996
656.291	3098
656.347	6369
656.403	3578
656.459	4341
656.515	5300
656.571	4929
656.627	4596
656.683	3926
656.739	4402
656.795	3748
656.850	4529
656.906	4436
656.962	4991
657.018	4382
657.074	3168
657.129	4375
657.185	4481
657.241	6910
657.297	4429
657.352	3946
657.408	2467
657.464	4692
657.519	4344
657.575	3018
657.630	3749
657.686	3128
657.742	2858
657.797	3800
657.853	4676
657.908	4081
657.964	2354
658.019	3543
658.075	3780
658.130	4187
658.186	1476
658.241	3926
658.297	2635
658.352	3759
658.407	3856
658.463	2449
658.518	3829
658.573	3508
658.629	2148
658.684	3678
658.739	3093
658.795	2366
658.850	4014
658.905	2661
658.960	3191
659.016	2702
659.071	3023
659.126	4306
659.181	3377
659.236	7010
659.291	6636
659.346	5638
659.401	5044
659.457	6231
659.512	7205
659.567	5098
659.622	3439
659.677	3695
659.732	2865
659.787	3717
659.842	4052
659.897	5574
659.952	3610
660.007	3311
660.061	4157
660.116	3401
660.171	3492
660.226	3695
660.281	4353
660.336	2946
660.391	2764
660.445	2848
660.500	4013
660.555	4218
660.610	2573
660.664	4084
660.719	3484
660.774	3867
660.828	2827
660.883	3575
660.938	3728
660.992	2905
661.047	2816
661.101	3538
661.156	2702
661.211	2278
661.265	3042
661.320	2788
661.374	2586
661.429	3075
661.483	3475
661.538	2607
661.592	2728
661.647	3088
661.701	3622
661.755	3547
661.810	3770
661.864	3466
661.919	2875
661.973	3559
662.027	3570
662.081	2382
662.136	3124
662.190	3503
662.244	4092
662.299	3377
662.353	3118
662.407	3771
662.461	3557
662.515	3701
662.569	2957
662.624	4444
662.678	2910
662.732	3520
662.786	2342
662.840	4392
662.894	3956
662.948	3288
663.002	2857
663.056	3277
663.110	2583
663.164	2924
663.218	3001
663.272	3144
663.326	3092
663.380	3936
663.434	3795
663.488	2898
663.542	3314
663.595	3512
663.649	2645
663.703	3954
663.757	3551
663.811	2722
663.864	2810
663.918	3534
663.972	3087
664.026	3673
664.079	2727
664.133	3737
664.187	2654
664.240	2858
664.294	3288
664.348	3140
664.401	3317
664.455	3314
664.508	3493
664.562	2480
664.615	3110
664.669	2391
664.722	2507
664.776	3496
664.829	2720
664.883	2849
664.936	2480
664.990	3660
665.043	2795
665.097	3580
665.150	4756
665.203	3208
665.257	2970
665.310	3429
665.363	3320
665.417	3840
665.470	3174
665.523	3603
665.576	3206
665.630	3871
665.683	3436
665.736	4014
665.789	3317
665.842	3455
665.895	3030
665.949	4333
666.002	3174
666.055	3643
666.108	4469
666.161	3693
666.214	4119
666.267	4619
666.320	4449
666.373	3360
666.426	4057
666.479	4110
666.532	4357
666.585	5371
666.638	6032
666.691	4884
666.744	5377
666.796	5212
666.849	4318
666.902	4519
666.955	2831
667.008	3838
667.060	2737
667.113	2593
667.166	3160
667.219	3266
667.271	3365
667.324	2716
667.377	3981
667.430	2973
667.482	4373
667.535	4324
667.587	4255
667.640	3568
667.693	5444
667.745	6283
667.798	7065
667.850	4058
667.903	2925
667.955	3285
668.008	3623
668.060	4095
668.113	4106
668.165	4757
668.218	4077
668.270	4497
668.322	4299
668.375	3706
668.427	4487
668.479	2973
668.532	4342
668.584	3827
668.636	3190
668.689	4488
668.741	3847
668.793	3590
668.845	2973
668.898	4023
668.950	3614
669.002	4351
669.054	3725
669.106	3997
669.158	3942
669.211	3521
669.263	3932
669.315	5881
669.367	6153
669.419	5046
669.471	5485
669.523	6238
669.575	7477
669.627	6525
669.679	3925
669.731	4951
669.783	4322
669.835	6157
669.886	5203
669.938	4563
669.990	4920
670.042	3383
670.094	4929
670.146	5555
670.197	5213
670.249	7334
670.301	7208
670.353	11787
670.404	16480
670.456	22408
670.508	35889
670.560	60039
670.611	104019
670.663	181566
670.715	433968
670.766	636683
670.818	181248
670.869	34289
670.921	18392
670.972	12935
671.024	10155
671.075	7806
671.127	6918
671.178	5639
671.230	6385
671.281	5382
671.333	5181
671.384	5028
671.436	5348
671.487	7127
671.538	6103
671.590	7861
671.641	9151
671.692	13742
671.744	21264
671.795	16580
671.846	8098
671.897	6683
671.949	5509
672.000	4458
672.051	4564
672.102	4866
672.153	2985
672.204	5085
672.256	3412
672.307	4209
672.358	5214
672.409	3933
672.460	3201
672.511	3052
672.562	3857
672.613	3841
672.664	3496
672.715	3120
672.766	3957
672.817	3440
672.868	3022
672.919	3516
672.970	2583
673.021	3774
673.071	3206
673.122	3243
673.173	2976
673.224	3516
673.275	2382
673.326	3080
673.376	2769
673.427	3599
673.478	3116
673.528	4114
673.579	3011
673.630	3735
673.680	3313
673.731	3531
673.782	2595
673.832	3938
673.883	3851
673.934	3921
673.984	2639
674.035	3086
674.085	3626
674.136	4279
674.186	3887
674.237	4903
674.287	6503
674.338	4317
674.388	3350
674.438	2261
674.489	3998
674.539	4156
674.589	3179
674.640	4198
674.690	3239
674.740	2780
674.791	3074
674.841	4103
674.891	3833
674.942	3412
674.992	2839
675.042	2365
675.092	3024
675.142	2218
675.193	2442
675.243	2491
675.293	3142
675.343	2320
675.393	3047
675.443	3713
675.493	3090
675.543	3613
675.593	2310
675.643	2801
675.693	2941
675.743	2487
675.793	2916
675.843	2728
675.893	3273
675.943	2465
675.993	2856
676.043	2673
676.093	2571
676.142	3509
676.192	2863
676.242	2170
676.292	2166
676.341	3022
676.391	2107
676.441	2381
676.491	2375
676.540	2260
676.590	3009
676.640	3101
676.689	2602
676.739	2118
676.789	1773
676.838	2524
676.888	1964
676.937	2632
676.987	1661
677.037	3020
677.086	1691
677.136	2277
677.185	2339
677.235	1538
677.284	2109
677.333	2316
677.383	1266
677.432	1272
677.482	2224
677.531	2302
677.580	2000
677.630	2142
677.679	1019
677.728	2487
677.778	2187
677.827	2098
677.876	2583
677.925	1157
677.975	2365
678.024	2182
678.073	2924
678.122	2605
678.171	2454
678.220	2391
678.269	3006
678.319	2016
678.368	2511
678.417	2246
678.466	2587
678.515	3328
678.564	2113
678.613	2561
678.662	2355
678.711	3057
678.760	2136
678.809	3074
678.857	1338
678.906	2444
678.955	2619
679.004	3269
679.053	2478
679.102	2902
679.151	2514
679.199	1851
679.248	1893
679.297	2772
679.346	2674
679.394	3101
679.443	2455
679.492	2801
679.540	2600
679.589	1468
679.638	2490
679.686	2235
679.735	2470
679.784	2039
679.832	2692
679.881	1884
679.929	1940
679.978	1667
680.026	2752
680.075	2666
680.123	1763
680.172	1278
680.220	1818
680.268	1856
680.317	1794
680.365	2071
680.414	1438
680.462	2389
680.510	2146
680.559	1494
680.607	1754
680.655	1860
680.703	1298
680.752	1762
680.800	2005
680.848	1182
680.896	1924
680.945	1699
680.993	1182
681.041	1818
681.089	1773
681.137	1343
681.185	1691
681.233	2429
681.258	1794
681.281	1179
681.329	2098
681.377	1791
681.380	1823
681.425	2166
681.473	1623
681.502	2421
681.521	2945
681.569	1746
681.617	1929
681.624	1904
681.665	1632
681.713	1953
681.745	2151
681.761	2222
681.809	2583
681.857	1987
681.867	2176
681.904	2783
681.952	1948
681.989	2059
682.000	2079
682.048	2357
682.096	2052
682.111	1788
682.143	1160
682.191	1766
682.233	2131
682.239	2173
682.286	1908
682.334	1972
682.354	2031
682.382	2058
682.430	2622
682.476	1946
682.477	1919
682.525	1550
682.572	1851
682.598	1834
682.620	1811
682.667	2344
682.715	2908
682.720	2903
682.763	2722
682.810	1918
682.841	2401
682.857	2627
682.905	2264
682.952	2696
682.963	2704
683.000	2689
683.047	2648
683.085	3684
683.095	3943
683.142	2306
683.190	1969
683.206	2183
683.237	2600
683.284	2750
683.328	2937
683.332	2936
683.379	2840
683.426	2364
683.449	2179
683.473	1988
683.521	2323
683.568	2823
683.571	2850
683.615	3012
683.662	2775
683.693	2939
683.709	3025
683.757	2288
683.804	2976
683.814	2968
683.851	2874
683.898	2731
683.936	2944
683.945	3001
683.992	3078
684.039	2923
684.057	3042
684.086	3178
684.133	2643
684.179	3028
684.180	3029
684.227	3123
684.274	3310
684.300	3312
684.321	3314
684.368	2685
684.415	3766
684.422	3689
684.462	3181
684.509	2794
684.543	3301
684.556	3472
684.603	2637
684.649	3397
684.665	3159
684.696	2654
684.743	3302
684.786	2964
684.790	2932
684.837	3236
684.883	3706
684.908	4188
684.930	4636
684.977	4324
685.023	4068
685.029	4042
685.070	3623
685.117	3501
685.150	3373
685.164	3346
685.210	4278
685.257	3685
685.272	3943
685.303	4402
685.350	3617
685.393	4346
685.396	4407
685.443	4152
685.490	4785
685.514	4746
685.536	4655
685.583	4078
685.629	4131
685.636	4173
685.675	4341
685.722	4280
685.757	4082
685.768	4055
685.815	3859
685.861	3584
685.878	3899
685.908	4388
685.954	4663
686.000	4624
686.000	4623
686.047	5140
686.093	6375
686.121	6136
686.139	5762
686.185	5250
686.232	5180
686.242	4974
686.278	4314
686.324	4772
686.363	4044
686.370	3934
686.416	4831
686.463	5232
686.484	5212
686.509	5173
686.555	4140
686.601	4478
686.606	4500
686.647	4598
686.693	4761
686.727	4229
686.739	4049
686.785	4758
686.831	4430
686.848	4392
686.877	4308
686.923	4016
686.969	3924
686.969	3924
687.015	4638
687.061	5273
687.090	5043
687.107	4749
687.153	4692
687.199	4388
687.211	4243
687.245	4153
687.291	4660
687.332	5136
687.336	5173
687.382	5226
687.428	4951
687.453	5245
687.474	5380
687.520	5213
687.565	4805
687.574	4672
687.611	4231
687.657	4485
687.695	4517
687.702	4576
687.748	5601
687.794	6175
687.816	6176
687.839	5871
687.885	5117
687.931	4786
687.937	4754
687.976	4885
688.022	4361
688.058	5181
688.067	5363
688.113	5165
688.158	5087
688.179	5118
688.204	5200
688.249	5214
688.295	4948
688.300	4962
688.340	5285
688.386	5806
688.421	5497
688.431	5328
688.477	5307
688.522	5295
688.542	5459
688.567	5782
688.613	4689
688.658	4997
688.663	4986
688.703	4988
688.749	5649
688.784	5641
688.794	5603
688.839	5565
688.884	5721
688.905	5567
688.930	5509
688.975	5296
689.020	5535
689.026	5528
689.065	5386
689.110	5217
689.146	5228
689.155	5227
689.201	5107
689.246	5306
689.267	5250
689.291	5324
689.336	6063
689.381	5681
689.388	5716
689.426	5686
689.471	5031
689.509	5215
689.516	5296
689.561	4961
689.606	5602
689.630	5604
689.651	5552
689.696	5571
689.741	5421
689.750	5431
689.785	5581
689.830	5741
689.871	5903
689.875	5899
689.920	5597
689.965	5279
689.992	5019
690.010	5097
690.054	5648
690.099	6104
690.112	6160
690.144	5989
690.189	5906
690.233	5334
690.233	5340
690.278	5791
690.323	5808
690.354	5600
690.367	5581
690.412	6198
690.457	6296
690.474	6360
690.501	6328
690.546	6015
690.590	6146
690.595	6126
690.635	6439
690.680	7052
690.716	7174
690.724	7235
690.769	7975
690.813	8721
690.836	8840
690.857	9465
690.902	11207
690.946	13310
690.957	13915
690.991	18185
691.035	23785
691.077	29129
691.080	29175
691.124	27154
691.168	24755
691.198	23475
691.213	21885
691.257	17749
691.301	13548
691.318	11822
691.346	10770
691.390	9519
691.434	8421
691.439	8216
691.478	7614
691.522	7193
691.559	7103
691.567	7162
691.611	7032
691.655	7252
691.680	7341
691.699	7405
691.743	7238
691.787	7143
691.800	7103
691.831	6926
691.875	7003
691.919	6667
691.921	6651
691.964	6967
692.008	7298
692.041	7142
692.052	7076
692.096	7706
692.139	7785
692.162	7818
692.183	7729
692.227	7214
692.271	7183
692.282	7079
692.315	7122
692.359	7263
692.402	7807
692.403	7823
692.447	7271
692.490	7456
692.523	6993
692.534	6926
692.578	7160
692.622	7135
692.643	7353
692.666	7526
692.709	7348
692.753	6914
692.763	7006
692.797	7532
692.840	7202
692.884	7547
692.884	7564
692.928	7325
692.971	7368
693.004	7128
693.015	7152
693.059	7283
693.102	7616
693.124	7727
693.146	7870
693.189	8028
693.233	8239
693.245	8281
693.276	8445
693.320	8758
693.363	8739
693.365	8726
693.407	9473
693.450	10433
693.485	11153
693.493	11468
693.537	12905
693.580	14454
693.605	15241
693.624	16928
693.667	21225
693.710	25428
693.725	27083
693.753	34934
693.797	47685
693.840	60541
693.845	61671
693.883	57013
693.926	51131
693.966	46584
693.970	45705
694.013	35822
694.056	26187
694.086	19795
694.099	19144
694.142	16613
694.185	14216
694.206	13030
694.229	12538
694.272	11658
694.315	10734
694.326	10459
694.358	10286
694.401	10050
694.444	10081
694.446	10036
694.487	9567
694.530	9438
694.566	9148
694.573	9067
694.616	8438
694.659	7944
694.686	7589
694.702	7617
694.745	7632
694.787	7620
694.806	7549
694.830	7445
694.873	7251
694.916	7206
694.926	7183
694.959	7355
695.002	7478
695.044	7462
695.046	7445
695.087	7394
695.130	7414
695.166	7431
695.172	7454
695.215	7504
695.258	7500
695.286	7421
695.301	7471
695.343	7598
695.386	7996
695.406	7939
695.428	7640
695.471	7281
695.514	7038
695.526	6863
695.556	6986
695.599	7394
695.641	7604
695.646	7625
695.684	7682
695.726	7761
695.766	7723
695.769	7736
695.811	7667
695.854	7464
695.886	7507
695.896	7614
695.938	7627
695.981	7836
696.005	7928
696.023	8039
696.065	8198
696.108	8456
696.125	8524
696.150	8418
696.192	8150
696.235	7912
696.245	7837
696.277	7851
696.319	7875
696.361	7888
696.365	7865
696.404	7923
696.446	7927
696.485	7971
696.488	8004
696.530	8043
696.572	8181
696.604	8294
696.614	8272
696.656	8071
696.698	7752
696.724	7650
696.740	7684
696.783	7442
696.825	7548
696.844	7481
696.867	7554
696.909	7688
696.951	7713
696.964	7763
696.992	7665
697.034	7252
697.076	7065
697.083	6991
697.118	7419
697.160	7998
697.202	8492
697.203	8482
697.244	8279
697.286	8045
697.323	7849
697.327	7856
697.369	7667
697.411	7463
697.442	7323
697.453	7423
697.494	7685
697.536	8050
697.562	8193
697.578	8153
697.620	7975
697.661	7909
697.682	7796
697.703	7770
697.744	7718
697.786	7696
697.801	7650
697.828	7893
697.869	8239
697.911	8633
697.921	8689
697.952	8571
697.994	8431
698.035	8251
698.040	8209
698.077	7825
698.118	7322
698.160	6907
698.160	6885
698.201	7455
698.243	8015
698.279	8581
698.284	8619
698.325	8670
698.367	8740
698.399	8764
698.408	8759
698.449	8600
698.491	8473
698.518	8367
698.532	8380
698.573	8332
698.614	8280
698.638	8232
698.656	8442
698.697	8864
698.738	9305
698.757	9475
698.779	9386
698.820	9182
698.862	8965
698.877	8861
698.903	9017
698.944	9230
698.985	9439
698.996	9472
699.026	9202
699.067	8796
699.116	8289
699.235	7845
699.354	7506
699.474	9496
699.593	9615
699.713	9021
699.832	8482
699.951	9154
700.070	8480
700.190	8134
700.309	8779
700.428	8639
700.547	8482
700.667	8306
700.786	9709
700.905	8938
701.024	8497
701.143	8244
701.262	8008
701.381	8361
701.500	8203
701.619	7798
701.738	7777
701.857	8192
701.976	7767
702.095	7702
702.214	7882
702.333	9386
702.452	7578
702.571	8530
702.690	7933
702.809	7135
702.928	6865
703.047	7442
703.165	7624
703.284	6562
703.403	7660
703.522	8039
703.640	7997
703.759	10330
703.878	13014
703.997	7693
704.115	7231
704.234	7477
704.353	6612
704.471	7068
704.590	7069
704.708	7280
704.827	6302
704.946	7508
705.064	7864
705.183	7835
705.301	8717
705.420	11576
705.538	10175
705.656	9508
705.775	10649
705.893	20032
706.012	21378
706.130	10280
706.249	9737
706.367	9769
706.485	10807
706.604	9487
706.722	9775
706.840	12566
706.958	12647
707.077	9610
707.195	8336
707.313	8809
707.431	8728
707.549	8014
707.668	8436
707.786	8898
707.904	8673
708.022	7923
708.140	8494
708.258	8402
708.376	8855
708.494	8314
708.612	8598
708.730	14128
708.848	12259
708.966	10766
709.084	9569
709.202	10835
709.320	10432
709.438	10970
709.556	10818
709.674	10834
709.791	10654
709.909	10443
710.027	10574
710.145	10069
710.263	10159
710.380	10465
710.498	9807
710.616	9912
710.733	10166
710.851	10552
710.969	10892
711.086	9993
711.204	10450
711.322	9866
711.439	9733
711.557	10477
711.674	10761
711.792	9851
711.909	11584
712.027	10266
712.144	9415
712.262	10341
712.379	10636
712.497	14194
712.614	14746
712.732	12204
712.849	11682
712.966	12820
713.084	14888
713.201	12054
713.318	11651
713.436	12292
713.553	11922
713.670	11772
713.787	14198
713.905	12643
714.022	11572
714.139	11392
714.256	12585
714.373	13947
714.490	18071
714.608	36062
714.725	129478
714.842	111226
714.959	14182
715.076	12328
715.193	10539
715.310	11053
715.427	10192
715.544	9801
715.661	10670
715.778	9363
715.895	10547
716.011	10799
716.128	9900
716.245	10924
716.362	10604
716.479	11048
716.596	10616
716.713	9485
716.829	10122
716.946	9714
717.063	9065
717.180	9082
717.296	9469
717.413	10244
717.530	9206
717.646	8479
717.763	9075
717.880	8150
717.996	8298
718.113	8551
718.229	9171
718.346	8324
718.462	7724
718.579	10692
718.695	14075
718.812	12290
718.928	12653
719.045	9057
719.161	8134
719.277	7862
719.394	8970
719.510	9019
719.626	8222
719.743	10525
719.859	10755
719.975	13828
720.092	37398
720.208	63835
720.324	12967
720.440	9341
720.557	9873
720.673	13449
720.789	20161
720.905	41421
721.021	13719
721.137	8502
721.253	8307
721.369	9691
721.486	9377
721.602	12829
721.718	7898
721.834	6420
721.950	7167
722.066	7212
722.181	6910
722.297	7988
722.413	7448
722.529	7301
722.645	7185
722.761	7525
722.877	6077
722.993	7032
723.108	7188
723.224	7295
723.340	6460
723.456	7271
723.571	6456
723.687	7442
723.803	6748
723.918	6281
724.034	5351
724.150	6425
724.265	8129
724.381	16504
724.497	18326
724.612	6785
724.728	6054
724.843	6078
724.959	7790
725.074	16642
725.190	16687
725.305	7060
725.421	6496
725.536	5916
725.651	5643
725.767	6399
725.882	5708
725.997	5884
726.113	6113
726.228	6003
726.343	5459
726.459	5254
726.574	5871
726.689	5032
726.804	5098
726.920	5110
727.035	5753
727.150	6059
727.265	6030
727.380	5601
727.495	6117
727.610	5091
727.725	6327
727.841	7049
727.956	13558
728.071	9334
728.186	5299
728.301	4366
728.416	5436
728.531	5064
728.645	4696
728.760	5650
728.875	5463
728.990	6216
729.105	5200
729.220	5730
729.335	5360
729.449	4748
729.564	4509
729.679	3840
729.794	4284
729.908	5677
730.023	4742
730.138	5086
730.253	4754
730.367	4667
730.482	3583
730.596	4914
730.711	5194
730.826	4367
730.940	4992
731.055	4424
731.169	4512
731.284	4937
731.398	4465
731.513	5801
731.627	4998
731.742	6506
731.856	6016
731.970	5091
732.085	5299
732.199	5697
732.313	7296
732.428	14833
732.542	34124
732.656	17859
732.771	6311
732.885	4602
732.999	4645
733.113	4905
733.227	4987
733.342	4919
733.456	4278
733.570	3909
733.684	3429
733.798	4092
733.912	4287
734.026	3482
734.140	4365
734.254	4988
734.368	10247
734.482	10278
734.596	3615
734.710	4338
734.824	3695
734.938	4405
735.052	3845
735.166	5406
735.280	5256
735.393	4479
735.507	3982
735.621	6023
735.735	10707
735.849	5247
735.962	4323
736.076	4555
736.190	5084
736.303	6675
736.417	8198
736.531	4276
736.644	4069
736.758	3780
736.872	2603
736.985	4296
737.099	4297
737.212	4166
737.326	4193
737.439	3887
737.553	3607
737.666	3732
737.780	3603
737.893	4103
738.007	2944
738.120	4304
738.233	3178
738.347	4038
738.460	3306
738.573	3901
738.687	3729
738.800	4223
738.913	4487
739.026	3411
739.140	4146
739.253	4045
739.366	3161
739.479	3658
739.592	2399
739.705	3294
739.818	3655
739.932	3561
740.045	3903
740.158	4100
740.271	3662
740.384	4301
740.497	3526
740.610	4070
740.723	3633
740.836	3691
740.949	4498
741.062	5292
741.174	4295
741.287	3998
741.400	3742
741.513	4377
741.626	5289
741.739	4145
741.851	3862
741.964	4553
742.077	3334
742.189	4232
742.302	5023
742.415	3777
742.527	3845
742.640	3576
742.753	3313
742.865	3553
742.978	2908
743.090	3241
743.203	3536
743.316	3552
743.428	2762
743.541	3714
743.653	2916
743.766	3753
743.878	2954
743.990	5161
744.103	4489
744.215	4126
744.327	2745
744.440	4561
744.552	5373
744.664	3577
744.777	2928
744.889	2776
745.001	4287
745.113	2834
745.226	2786
745.338	3121
745.450	2380
745.562	3215
745.674	3403
745.786	2401
745.898	2851
746.010	2429
746.122	2776
746.234	2892
746.347	3302
746.459	3128
746.570	2178
746.682	4541
746.794	4744
746.906	3795
747.018	2475
747.130	3561
747.242	2091
747.354	3752
747.466	3104
747.577	2085
747.689	2154
747.801	2781
747.913	3188
748.024	2804
748.136	2374
748.248	3238
748.359	2604
748.471	2163
748.583	2867
748.694	3552
748.806	4515
748.918	4701
749.029	3734
749.141	2550
749.252	3530
749.364	3342
749.475	5582
749.587	4412
749.698	2894
749.809	2972
749.921	2399
750.032	2497
750.144	2500
750.255	2316
750.366	2323
750.478	2423
750.589	2845
750.700	2715
750.811	2528
750.923	3504
751.034	5307
751.145	5657
751.256	2474
751.367	2819
751.479	2638
751.590	2602
751.701	2475
751.812	3277
751.923	1802
752.034	2345
752.145	2902
752.256	2539
752.367	2329
752.478	2402
752.589	1822
752.700	2724
752.811	2014
752.922	2120
753.032	1743
753.143	3387
753.254	2839
753.365	2896
753.476	2676
753.586	1634
753.697	2036
753.808	2579
753.919	1805
754.029	2723
754.140	2658
754.251	2862
754.361	1666
754.472	2751
754.582	3033
754.693	3022
754.804	3130
754.914	1467
755.025	1907
755.135	2516
755.246	2238
755.356	2427
755.466	2421
755.577	3140
755.687	3095
755.798	2386
755.908	2825
756.018	2662
756.129	2454
756.239	2566
756.349	2731
756.460	2914
756.570	3027
756.680	2728
756.790	2787
756.900	3654
757.011	2031
757.121	3605
757.231	3397
757.341	3077
757.451	2619
757.561	2549
757.671	2457
757.781	1739
757.891	3891
758.001	3065
758.111	2650
758.221	2934
758.331	3643
758.441	3064
758.551	3588
758.661	3776
758.771	2927
758.880	3303
758.990	3759
759.100	2776
759.210	3231
759.320	3504
759.429	3453
759.539	3749
759.649	3561
759.758	4065
759.868	4118
759.978	4243
760.087	3958
760.197	3695
760.307	4410
760.416	3869
760.526	3845
760.635	4176
760.745	4416
760.854	3837
760.964	4920
761.073	4154
761.182	4033
761.292	3740
761.401	5375
761.511	4532
761.620	4688
761.729	5452
761.839	4501
761.948	5247
762.057	5409
762.166	5991
762.276	3621
762.385	6637
762.494	4663
762.603	5778
762.712	5341
762.822	5526
762.931	5584
763.040	5239
763.149	6309
763.258	6207
763.367	6694
763.476	7787
763.585	8176
763.694	7615
763.803	7979
763.912	8738
764.021	9054
764.130	9758
764.238	10167
764.347	10538
764.456	11263
764.565	12673
764.674	12688
764.783	14393
764.891	14472
765.000	18322
765.109	20086
765.217	22036
765.326	28264
765.435	33919
765.543	40347
765.652	51478
765.761	69429
765.869	98829
765.978	149149
766.086	243668
766.195	435722
766.303	770823
766.412	859695
766.520	867056
766.629	586239
766.737	298079
766.846	175893
766.954	117645
767.062	85032
767.171	65655
767.279	49145
767.387	39455
767.496	33955
767.604	29951
767.712	24862
767.820	23016
767.928	20879
768.037	19019
768.145	18932
768.253	18693
768.361	16987
768.469	17224
768.577	17147
768.685	18909
768.793	20165
768.901	22147
769.009	25942
769.117	31403
769.225	42101
769.333	60895
769.441	95021
769.549	172467
769.657	356720
769.765	699896
769.873	772470
769.981	540987
770.088	227703
770.196	117156
770.304	77208
770.412	53276
770.519	39760
770.627	31631
770.735	25188
770.842	21123
770.950	19186
771.058	16593
771.165	14779
771.273	12721
771.380	12285
771.488	11027
771.595	9678
771.703	9524
771.810	9182
771.918	8513
772.025	8781
772.133	7230
772.240	6809
772.348	7142
772.455	6919
772.562	5861
772.670	5579
772.777	6084
772.884	6326
772.991	5686
773.099	5810
773.206	4922
773.313	4943
773.420	5496
773.528	3906
773.635	4710
773.742	4684
773.849	4933
773.956	4929
774.063	4366
774.170	4349
774.277	4886
774.384	4645
774.491	4351
774.598	4276
774.705	4366
774.812	4225
774.919	4707
775.026	3765
775.133	3324
775.239	3425
775.346	3854
775.453	3234
775.560	3849
775.667	3639
775.773	2875
775.880	3912
775.987	3500
776.093	3060
776.200	3060
776.307	3045
776.413	3245
776.520	3272
776.627	3018
776.733	3175
776.840	2023
776.946	4554
777.053	4806
777.159	6648
777.266	3888
777.372	6471
777.478	5228
777.585	3650
777.691	3388
777.798	3184
777.904	3999
778.010	4335
778.117	3500
778.223	2369
778.329	2056
778.435	2785
778.542	2461
778.648	2593
778.754	2342
778.860	2506
778.966	2574
779.072	2454
779.178	2652
779.284	2718
779.391	1696
779.497	1369
779.603	5925
779.708	5751
779.815	16755
779.920	66412
780.026	81632
780.132	9014
780.238	3516
780.344	2589
780.450	2909
780.556	1518
780.661	2590
780.767	2189
780.873	2737
780.979	2637
781.085	1834
781.190	1953
781.296	2190
781.402	1958
781.507	2273
781.613	1490
781.719	1359
781.824	2907
781.930	2992
782.035	2395
782.141	1685
782.246	1741
782.352	1608
782.457	1553
782.563	1481
782.668	1523
782.773	1996
782.879	1558
782.984	2428
783.090	2220
783.195	3064
783.300	1479
783.405	2062
783.511	990
783.616	2324
783.721	1356
783.826	2253
783.932	2044
784.037	2426
784.142	2278
784.247	1677
784.352	1492
784.457	2077
784.562	1679
784.667	1630
784.772	1604
784.877	1903
784.982	1917
785.087	802
785.192	1689
785.297	1220
785.402	716
785.507	1681
785.611	1953
785.716	1921
785.821	1276
785.926	1292
786.031	1356
786.135	1130
786.240	1878
786.345	-27
786.450	555
786.554	672
786.659	694
786.763	430
786.868	1590
786.973	2383
787.077	1571
787.182	1149
787.286	1313
787.391	1823
787.495	640
787.600	950
787.704	588
787.809	1225
787.913	815
788.017	1814
788.122	915
788.226	904
788.330	1065
788.435	1123
788.539	1216
788.643	554
788.747	769
788.852	1361
788.956	713
789.060	1204
789.164	1218
789.268	924
789.372	1543
789.476	904
789.580	674
789.684	863
789.788	1251
789.892	600
789.996	2509
790.100	1510
790.204	1043
790.308	713
790.412	0
790.516	2086
790.620	977
790.724	1449
790.828	812
790.931	246
791.035	2478
791.139	1902
791.242	301
791.346	1564
791.450	907
791.554	758
791.657	481
791.761	1887
791.864	1854
791.968	1627
792.072	1459
792.175	1039
792.279	500
792.382	1470
792.486	613
792.589	1461
792.693	1694
792.796	110
792.899	1520
793.003	1648
793.106	-140
793.209	932
793.313	2491
793.416	-449
793.519	1629
793.623	1447
793.726	1635
793.829	1516
793.932	439
794.035	-369
794.138	1472
794.242	2077
794.345	2158
794.448	4190
794.551	8739
794.654	33878
794.757	43352
794.860	6300
794.963	1550
795.066	1192
795.169	1415
795.272	525
795.375	1152
795.477	289
795.580	741
795.683	140
795.786	731
795.889	-153
795.991	1544
796.094	1528
796.197	-66
796.300	1545
796.402	322
796.505	657
796.608	287
796.710	1783
796.813	610
796.915	525
797.018	1072
797.120	790
797.223	-778
797.326	2235
797.428	231
797.530	1636
797.633	936
797.735	2593
797.838	2104
797.940	2191
798.042	-48
798.145	1297
798.247	1366
798.349	38
798.452	827
798.554	990
798.656	-44
798.758	818
798.860	370
798.962	178
799.065	469
799.167	-935
799.269	1805
799.371	1281
799.473	607
799.575	-330
799.677	1045
799.779	2369
799.881	39
799.983	1281
800.085	620
800.187	858
800.289	103
800.390	496
800.492	833
800.594	997
800.696	-140
800.798	665
800.899	-362
801.001	648
801.103	74
801.205	-297
801.306	-163
801.408	98
801.509	147
801.611	1161
801.713	766
801.814	480
801.916	62
802.017	559
802.119	-233
802.220	553
802.322	-951
802.423	2754
802.525	-106
802.626	413
802.727	-399
802.829	999
802.930	-2442
803.031	1175
803.133	405
803.234	425
803.335	375
803.436	166
803.538	341
803.639	-385
803.740	-106
803.841	-569
803.942	-290
804.043	994
804.144	-1067
804.245	-138
804.346	-333
804.447	-594
804.548	234
804.649	1644
804.750	-333
804.851	-387
804.952	-649
805.053	-200
805.154	-769
805.255	959
805.355	-140
805.456	-164
805.557	-694
805.658	-2
805.758	130
805.859	497
805.960	532
806.061	203
806.161	-917
806.262	529
806.362	308
806.463	221
806.564	367
806.664	82
806.765	378
806.865	634
806.966	-351
807.066	82
807.166	265
807.267	1318
807.367	-160
807.468	93
807.568	-770
807.668	466
807.769	1083
807.869	261
807.969	428
808.069	188
808.170	566
808.270	194
808.370	838
808.470	1066
808.570	-1189
808.670	231
808.770	162
808.870	-799
808.970	577
809.070	-418
809.170	-809
809.271	423
809.370	-439
809.470	518
809.570	-514
809.670	9
809.770	356
809.870	405
809.970	1128
810.070	-306
810.169	106
810.269	-772
810.369	1287
810.469	-741
810.568	-138
810.668	-49
810.768	-471
810.867	738
810.967	-662
811.066	-5
811.166	-58
811.265	97
811.365	-666
811.464	-113
811.564	101
811.663	1056
811.763	-1329
811.862	313
811.962	456
812.061	-476
812.160	-509
812.260	-269
812.359	251
812.458	319
812.557	3005
812.657	2266
812.756	1246
812.855	91
812.954	280
813.053	751
813.153	675
813.252	-487
813.351	494
813.450	-94
813.549	-485
813.648	94
813.747	658
813.846	617
813.945	554
814.044	415
814.143	-12
814.242	1250
814.341	-462
814.439	1028
814.538	1445
814.637	1045
814.736	1044
814.835	862
814.933	361
815.032	1885
815.131	1094
815.229	1362
815.328	580
815.427	562
815.525	1329
815.624	1688
815.722	972
815.821	1691
815.919	1612
816.018	1087
816.116	1754
816.215	1898
816.313	1575
816.412	2429
816.510	2471
816.609	4619
816.707	3175
816.805	2660
816.904	3048
817.002	4234
817.100	4868
817.198	5454
817.296	6454
817.395	8092
817.493	9873
817.591	12741
817.689	18193
817.787	23825
817.885	38700
817.983	71157
818.081	141512
818.179	311448
818.277	606251
818.375	483569
818.473	192188
818.571	87072
818.669	58509
818.767	48173
818.865	47810
818.963	57870
819.061	80293
819.158	132414
819.256	253894
819.354	503967
819.452	766346
819.549	541469
819.647	249303
819.745	121270
819.842	72195
819.940	49297
820.038	34891
820.135	27217
820.233	22027
820.330	17513
820.428	13056
820.525	12290
820.623	10934
820.720	7490
820.818	7868
820.915	7370
821.012	5984
821.110	3880
821.207	5436
821.304	4263
821.402	4366
821.499	4517
821.596	4288
821.693	3370
821.791	3662
821.888	3419
821.985	4434
822.082	3099
822.179	2969
822.276	1833
822.373	1464
822.470	1891
822.567	1489
822.664	508
822.761	2061
822.858	-37
822.955	1614
823.052	1071
823.149	198
823.246	985
823.343	822
823.440	1212
823.536	382
823.633	1018
823.730	739
823.827	1623
823.923	-501
824.020	2236
824.117	-290
824.213	372
824.310	1172
824.407	64
824.503	379
824.600	1067
824.696	-56
824.793	1019
824.889	-162
824.986	351
825.082	116
825.179	609
825.275	265
825.371	142
825.468	303
825.564	-61
825.660	759
825.757	141
825.853	651
825.949	-2
826.045	323
826.142	194
826.238	21
826.334	820
826.430	-1268
826.526	559
826.622	71
826.718	-16
826.814	-994
826.910	831
827.006	-297
827.102	-274
827.198	-29
827.294	-304
827.390	-390
827.486	-27
827.582	-1376
827.678	-507
827.774	315
827.869	-1397
827.965	84
828.061	-1218
828.157	-100
828.252	-90
828.348	-877
828.444	550
828.539	-898
828.635	-233
828.731	-139
828.826	-661
828.922	-437
829.017	-443
829.113	-983
829.208	-1081
829.304	-782
829.399	778
829.495	162
829.590	313
829.685	-1202
829.781	-72
829.876	-872
829.971	-788
830.066	-671
830.162	-402
830.257	-1181
830.352	-697
830.447	43
830.543	453
830.638	-2044
830.733	165
830.828	-1117
830.923	220
831.018	-838
831.113	-333
831.208	-1154
831.303	7
831.398	-117
831.493	-1212
831.588	-199
831.683	-1088
831.778	-1366
831.873	-417
831.967	-469
832.062	-1073
832.157	-1059
832.252	253
832.346	-1321
832.441	-721
832.536	299
832.631	973
832.725	1233
832.820	-403
832.914	-1248
833.009	-629
833.104	-355
833.198	-897
833.293	-938
833.387	-16
833.482	-946
833.576	-525
833.670	-352
833.765	-602
833.859	-1050
833.954	-673
834.048	-273
834.142	-312
834.237	-992
834.331	-259
834.425	-306
834.519	-1431
834.613	90
834.708	-599
834.802	-930
834.896	-1437
834.990	-915
835.084	-933
835.178	-534
835.272	-850
835.366	-815
835.460	738
835.554	-621
835.648	-932
835.742	-4
835.836	379
835.930	-2075
836.024	-292
836.117	-407
836.211	-635
836.305	215
836.399	925
836.493	-936
836.586	-166
836.680	-1447
836.774	-1838
836.867	-657
836.961	-1720
837.055	-1062
837.148	-1346
837.242	-385
837.335	-492
837.429	-698
837.522	-509
837.616	-1279
837.709	488
837.803	-146
837.896	85
837.989	-1245
838.083	651
838.176	1720
838.269	637
838.363	147
838.456	-549
838.549	-169
838.642	62
838.735	1396
838.829	501
838.922	-589
839.015	-738
839.108	-1488
839.201	-760
839.294	-1477
839.387	-637
839.480	-1024
839.573	181
839.666	657
839.759	-463
839.852	-1593
839.945	-195
840.038	-1017
840.131	-1206
840.223	-863
840.316	-377
840.409	-1160
840.502	-598
840.594	296
840.687	-1428
840.780	-1021
840.873	-963
840.965	-233
841.058	163
841.150	1729
841.243	-48
841.336	-479
841.428	-456
841.521	-860
841.613	-845
841.706	-352
841.798	-386
841.890	-696
841.983	-975
842.075	0
842.167	-918
842.260	-794
842.352	299
842.444	38
842.537	2690
842.629	4781
842.721	-391
842.813	-1179
842.905	-1202
842.997	-321
843.090	107
843.182	1118
843.274	1410
843.366	6710
843.458	12112
843.550	6786
843.642	279
843.734	922
843.826	-287
843.918	-403
844.009	182
844.101	-1318
844.193	-999
844.285	-919
844.377	-762
844.469	-294
844.560	-399
844.652	-432
844.744	890
844.835	-1351
844.927	-548
845.019	-46
845.110	-63
845.202	-736
845.293	-286
845.385	-1149
845.476	-141
845.568	-292
845.659	-934
845.751	26
845.842	-1042
845.934	-1098
846.025	-1519
846.116	-1065
846.208	-427
846.299	-813
846.390	-747
846.482	-539
846.573	-129
846.664	-1020
846.755	131
846.846	478
846.937	-1643
847.029	-1036
847.120	-903
847.211	-1284
847.302	695
847.393	-2346
847.484	-342
847.575	-946
847.666	-1312
847.757	-767
847.847	-49
847.938	-572
848.029	-716
848.120	-1137
848.211	-618
848.302	-1144
848.392	-1481
848.483	-614
848.574	-1325
848.664	-671
848.755	-1387
848.846	-437
848.936	-1490
849.027	-87
849.118	-318
849.208	-1067
849.299	-1264
849.389	-835
849.480	-7
849.570	1357
849.661	2959
849.751	5375
849.841	742
849.932	-644
850.022	-1112
850.112	-516
850.203	-1469
850.293	-1182
850.383	-715
850.474	-934
850.564	-406
850.654	-530
850.744	-936
850.834	-1044
850.924	-910
851.014	-1514
851.104	-1276
851.194	-859
851.284	-842
851.374	-249
851.464	-535
851.554	-691
851.644	-931
851.734	852
851.824	-724
851.914	19
852.004	732
852.094	-138
852.183	-910
852.273	-524
852.363	-1254
852.452	-1539
852.542	-1079
852.632	-1593
852.721	355
852.811	-1428
852.901	-653
852.990	-978
853.080	-595
853.169	-777
853.259	-661
853.348	-1409
853.438	-631
853.527	-759
853.617	-323
853.706	843
853.795	2664
853.885	7582
853.974	14413
854.063	28100
854.152	43818
854.242	14554
854.331	1349
854.420	-185
854.509	-2
854.598	-349
854.687	-823
854.777	-125
854.866	-739
854.955	-449
855.044	-1446
855.133	-660
855.222	-130
855.311	-1738
855.400	-1027
855.488	-778
855.577	-1209
855.666	-710
855.755	6
855.844	-961
855.933	115
856.021	-950
856.110	291
856.199	-1839
856.288	-1114
856.376	-1093
856.465	-705
856.554	-1302
856.642	-779
856.731	-995
856.819	-1029
856.908	-1814
856.996	-568
857.085	-1199
857.173	-66
857.262	-556
857.350	-1088
857.438	-1316
857.527	-858
857.615	-1037
857.703	-1375
857.792	-1530
857.880	-1346
857.968	-1726
858.056	-1061
858.145	-980
858.233	-1431
858.321	-1648
858.409	-733
858.497	-444
858.585	-1175
858.673	-1178
858.761	-1724
858.849	-657
858.937	-666
859.025	-1172
859.113	-1013
859.201	-2140
859.289	24
859.377	-1022
859.465	-753
859.552	-849
859.640	-1208
859.728	-802
859.816	-882
859.903	-1545
859.991	-700
860.079	-900
860.166	-1408
860.254	-1581
860.342	-320
860.429	-2449
860.517	-1716
860.604	-1235
860.692	-593
860.779	-2124
860.867	-1121
860.954	-720
861.042	-1283
861.129	-842
861.216	-1137
861.304	-1241
861.391	-1768
861.478	-1237
861.565	-467
861.653	-607
861.740	-790
861.827	-277
861.914	-723
862.001	-1818
862.089	-1428
862.176	-945
862.263	-1809
862.350	-1591
862.437	-786
862.524	-1549
862.611	-909
862.698	-886
862.785	85
862.871	-1023
862.958	-1260
863.045	-1599
863.132	-506
863.219	-340
863.306	-1857
863.392	-444
863.479	-1059
863.566	-935
863.652	-1218
863.739	-1658
863.826	-1171
863.912	-766
863.999	-1350
864.086	-2018
864.172	-1708
864.259	-277
864.345	-1298
864.432	-2088
864.518	-799
864.604	-1052
864.691	-445
864.777	-932
864.863	-503
864.950	-940
865.036	-924
865.122	-618
865.209	-347
865.295	-732
865.381	-1170
865.467	-1002
865.553	-123
865.639	-617
865.726	269
865.812	2616
865.898	6549
865.984	8673
866.070	19081
866.156	18247
866.242	4157
866.328	-66
866.414	-609
866.499	-590
866.585	-678
866.671	-1295
866.757	-712
866.843	-191
866.928	-845
867.014	-855
867.100	-202
867.186	-620
867.271	-1133
867.357	-661
867.442	682
867.528	-1259
867.614	66
867.699	-1011
867.785	351
867.870	-352
867.956	-496
868.041	108
868.127	-81
868.212	219
868.297	-1207
868.383	-7
868.468	-161
868.553	-364
868.639	589
868.724	1479
868.809	1447
868.894	-447
868.979	-438
869.065	425
869.150	-1487
869.235	-1021
869.320	-1431
869.405	-1078
869.490	-966
869.575	-1407
869.660	-787
869.745	-646
869.830	-1600
869.915	-1499
870.000	-284
870.085	-527
870.169	-790
870.254	-1400
870.339	-1063
870.424	-1679
870.509	-571
870.593	-1208
870.678	-1536
870.763	-1540
870.847	-556
870.932	-994
871.016	-1107
871.101	-953
871.186	-1049
871.270	-21
871.355	-564
871.439	-1210
871.523	-764
871.608	-632
871.692	-440
871.777	-1000
871.861	-411
871.945	-1191
872.030	-758
872.114	-1218
872.198	-1449
872.282	-1885
872.367	-1260
872.451	-961
872.535	-902
872.619	-789
872.703	-1293
872.787	-1740
872.871	-992
872.955	-1481
873.039	-1426
873.123	-1852
873.207	-998
873.291	-1333
873.375	-1142
873.459	-232
873.543	-1407
873.627	-736
873.711	-1142
873.794	-265
873.878	-1391
873.962	-1169
874.045	-767
874.129	-1199
874.137	-1156
874.213	-728
874.245	-950
874.296	-1305
874.352	-1453
874.380	-1531
874.460	-1354
874.464	-1347
874.547	-1266
874.568	-1001
874.631	-234
874.676	-184
874.714	-134
874.784	-806
874.798	-940
874.881	123
874.892	-46
874.965	-1222
874.999	-1085
875.048	-921
875.107	-1057
875.131	-1091
875.215	-224
875.215	-224
875.298	-367
875.323	-487
875.381	-755
875.430	-601
875.465	-507
875.538	-764
875.548	-794
875.631	-671
875.646	-760
875.714	-1232
875.753	-1142
875.798	-988
875.861	-806
875.881	-765
875.964	-1270
875.968	-1248
876.047	-824
876.076	-784
876.130	-751
876.183	-1047
876.213	-1155
876.291	-21
876.296	39
876.379	-327
876.398	-403
876.462	-458
876.506	-742
876.545	-1089
876.613	-663
876.628	-535
876.711	-835
876.721	-814
876.794	-835
876.828	-948
876.877	-1014
876.935	-970
876.960	-976
877.043	-495
877.043	-499
877.125	-1192
877.150	-882
877.208	-253
877.258	-571
877.291	-719
877.365	6
877.374	95
877.456	-471
877.472	-405
877.539	-233
877.579	-333
877.622	-413
877.687	-108
877.704	-27
877.787	-851
877.794	-850
877.869	-899
877.901	-648
877.952	-194
878.008	-423
878.034	-519
878.115	-884
878.117	-888
878.199	-400
878.222	-514
878.282	-930
878.329	-484
878.364	-171
878.437	-458
878.447	-492
878.529	-466
878.544	-521
878.611	-666
878.651	-387
878.694	-136
878.758	-381
878.776	-410
878.858	-220
878.865	-228
878.941	-517
878.972	-598
879.023	-631
879.078	-365
879.105	-267
879.185	-419
879.187	-418
879.269	-301
879.292	-362
879.351	-566
879.399	-807
879.433	-947
879.506	211
879.516	346
879.598	-588
879.613	-557
879.680	-305
879.720	-320
879.762	-269
879.827	-290
879.844	-326
879.926	-584
879.933	-549
880.007	-316
880.040	-463
880.089	-435
880.147	-45
880.171	-0
880.253	-223
880.254	-225
880.335	159
880.360	222
880.417	561
880.467	1413
880.499	2003
880.574	2692
880.580	2665
880.662	862
880.680	591
880.744	-51
880.787	-161
880.825	-176
880.893	-432
880.907	-410
880.989	343
881.000	336
881.070	-173
881.106	-295
881.152	-261
881.213	-8
881.233	69
881.315	-222
881.319	-213
881.396	178
881.426	248
881.478	82
881.532	-162
881.559	-96
881.639	313
881.641	314
881.722	-166
881.745	-245
881.803	-132
881.852	-153
881.885	-303
881.958	-294
881.966	-251
882.047	45
882.064	27
882.129	-11
882.171	81
882.210	434
882.277	1157
882.291	1071
882.372	36
882.383	-111
882.454	-250
882.489	-38
882.535	32
882.596	-5
882.616	44
882.697	-345
882.702	-315
882.778	178
882.808	155
882.859	260
882.914	439
882.940	402
883.020	-97
883.021	-90
883.102	667
883.127	691
883.183	6
883.233	-468
883.264	-398
883.339	104
883.345	120
883.426	381
883.445	336
883.507	406
883.551	413
883.587	276
883.657	221
883.668	342
883.749	988
883.763	1113
883.830	644
883.869	334
883.910	426
883.975	699
883.991	641
884.072	-91
884.081	-142
884.152	757
884.187	1170
884.233	901
884.292	398
884.314	289
884.394	111
884.398	67
884.475	-632
884.504	-500
884.555	459
884.610	873
884.636	643
884.716	393
884.716	401
884.797	659
884.821	692
884.877	404
884.927	51
884.958	0
885.033	43
885.038	42
885.118	-58
885.139	-7
885.199	355
885.244	448
885.279	654
885.350	1091
885.359	1103
885.439	643
885.456	679
885.520	657
885.561	499
885.600	576
885.667	626
885.680	542
885.760	342
885.773	278
885.840	813
885.878	895
885.920	695
885.984	752
886.000	751
886.080	593
886.089	561
886.160	-3
886.195	-226
886.240	384
886.300	1110
886.320	938
886.400	158
886.406	115
886.480	397
886.511	405
886.560	676
886.616	1124
886.640	1079
886.720	620
886.722	608
886.800	60
886.827	-210
886.879	265
886.932	817
886.959	1044
887.038	1526
887.039	1529
887.119	971
887.143	805
887.198	1176
887.248	1550
887.278	1362
887.354	611
887.358	618
887.437	695
887.459	741
887.517	1199
887.564	1532
887.596	1521
887.669	1418
887.676	1394
887.755	981
887.774	847
887.835	1069
887.880	1338
887.914	1344
887.985	1264
887.994	1295
888.073	1519
888.090	1531
888.153	1324
888.195	1184
888.232	969
888.300	603
888.311	681
888.391	1111
888.405	1189
888.470	1686
888.510	1974
888.549	1682
888.615	1215
888.628	1283
888.708	1557
888.720	1597
888.787	1087
888.825	749
888.866	929
888.930	1278
888.945	1298
889.024	1332
889.035	1324
889.103	1343
889.140	1370
889.182	1371
889.245	1296
889.261	1276
889.340	1197
889.349	1177
889.419	1673
889.454	1931
889.498	1263
889.559	294
889.577	516
889.656	1498
889.664	1591
889.735	1332
889.768	1205
889.814	1264
889.873	1334
889.978	276
890.083	2169
890.187	756
890.292	1969
890.397	1645
890.501	1355
890.606	1858
890.710	1204
890.815	1919
890.919	1373
891.024	796
891.128	2005
891.233	2105
891.337	1758
891.442	880
891.546	1642
891.650	1350
891.755	1654
891.859	1558
891.963	1478
892.068	1543
892.172	1700
892.276	1159
892.380	1108
892.484	632
892.589	1539
892.693	1654
892.797	1357
892.901	993
893.005	1309
893.109	1424
893.213	2247
893.317	1494
893.421	1764
893.525	1374
893.629	1684
893.733	699
893.837	1649
893.941	968
894.045	1906
894.148	1480
894.252	2244
894.356	2225
894.460	1568
894.564	1197
894.667	817
894.771	878
894.875	1270
894.978	1226
895.082	703
895.186	986
895.289	1645
895.393	1389
895.496	1942
895.600	535
895.703	1386
895.807	1215
895.910	1626
896.014	637
896.117	1283
896.221	1122
896.324	1443
896.427	877
896.531	1718
896.634	725
896.737	848
896.840	297
896.944	988
897.047	748
897.150	1427
897.253	1067
897.356	1207
897.460	1130
897.563	1207
897.666	792
897.769	738
897.872	1414
897.975	587
898.078	409
898.181	1655
898.284	741
898.387	1646
898.490	468
898.593	1896
898.695	1128
898.798	1596
898.901	1156
899.004	1195
899.107	1259
899.209	2195
899.312	750
899.415	1306
899.518	1095
899.620	947
899.723	341
899.826	1462
899.928	1167
900.031	734
900.133	911
900.236	255
900.338	-1
900.441	1193
900.543	624
900.646	909
900.748	725
900.851	1219
900.953	838
901.055	1626
901.158	324
901.260	1401
901.362	899
901.465	857
901.567	1199
901.669	1549
901.771	720
901.873	995
901.976	1557
902.078	881
902.180	790
902.282	957
902.384	859
902.486	1992
902.588	1329
902.690	1012
902.792	953
902.894	1894
902.996	1102
903.098	675
903.200	153
903.302	1407
903.404	433
903.505	893
903.607	849
903.709	1869
903.811	1364
903.913	1252
904.014	1313
904.116	540
904.218	314
904.319	931
904.421	757
904.523	992
904.624	980
904.726	1688
904.827	622
904.929	1365
905.030	687
905.132	559
905.233	472
905.335	1370
905.436	1183
905.537	811
905.639	540
905.740	678
905.841	736
905.943	886
906.044	275
906.145	1811
906.247	758
906.348	1424
906.449	1404
906.550	1672
906.651	1123
906.752	830
906.854	571
906.955	913
907.056	554
907.157	1177
907.258	1337
907.359	1147
907.460	625
907.561	973
907.662	650
907.762	817
907.863	116
907.964	675
908.065	1901
908.166	1472
908.267	551
908.367	1389
908.468	574
908.569	1135
908.670	957
908.770	1422
908.871	1289
908.971	1190
909.072	283
909.173	1858
909.273	894
909.374	1474
909.474	990
909.575	735
909.675	700
909.776	1752
909.876	891
909.977	870
910.077	725
910.177	773
910.278	142
910.378	682
910.478	64
910.579	1472
910.679	1544
910.779	974
910.879	616
910.980	884
911.080	776
911.180	1225
911.280	601
911.380	467
911.480	880
911.580	1173
911.680	808
911.780	1269
911.880	-2
911.980	1248
912.080	816
912.180	1240
912.280	829
912.380	1064
912.480	1240
912.580	1205
912.679	1079
912.779	682
912.879	-86
912.979	104
913.078	128
913.178	872
913.278	310
913.377	513
913.477	981
913.577	1665
913.676	785
913.776	1216
913.875	293
913.975	1189
914.074	331
914.174	1156
914.273	149
914.373	1442
914.472	641
914.572	568
914.671	770
914.770	936
914.870	257
914.969	414
915.068	945
915.167	1367
915.267	144
915.366	1314
915.465	670
915.564	1067
915.663	619
915.763	1251
915.862	516
915.961	855
916.060	602
916.159	426
916.258	-69
916.357	787
916.456	1302
916.555	1071
916.654	725
916.752	171
916.851	242
916.950	137
917.049	-49
917.148	1266
917.247	923
917.345	1032
917.444	-634
917.543	1499
917.642	981
917.740	139
917.839	987
917.937	827
918.036	1675
918.135	582
918.233	405
918.332	770
918.430	648
918.529	601
918.627	862
918.726	520
918.824	1140
918.923	335
919.021	215
919.119	970
919.218	416
919.316	436
919.414	710
919.512	1253
919.611	384
919.709	766
919.807	71
919.905	1721
920.003	388
920.102	672
920.200	-4
920.298	235
920.396	338
920.494	1001
920.592	684
920.690	1152
920.788	332
920.886	504
920.984	467
921.082	959
921.180	1101
921.277	488
921.375	593
921.473	983
921.571	108
921.669	621
921.766	316
921.864	1828
921.962	1216
922.060	767
922.157	966
922.255	1679
922.352	131
922.450	1301
922.548	30
922.645	1399
922.743	999
922.840	1220
922.938	1193
923.035	1150
923.133	1137
923.230	1445
923.327	1389
923.425	1997
923.522	1614
923.619	1282
923.717	1298
923.814	2154
923.911	961
924.008	2296
924.106	469
924.203	577
924.300	836
924.397	1699
924.494	978
924.591	801
924.688	1041
924.786	1642
924.883	1522
924.979	978
925.077	868
925.173	1499
925.270	757
925.367	866
925.464	1799
925.561	1066
925.658	1111
925.755	1445
925.852	1163
925.948	1608
926.045	1859
926.142	1036
926.239	1209
926.335	1590
926.432	966
926.529	1044
926.625	811
926.722	2071
926.818	732
926.915	1968
927.011	999
927.108	1301
927.204	504
927.301	1719
927.397	901
927.494	1138
927.590	812
927.687	1041
927.783	711
927.879	864
927.976	861
928.072	615
928.168	750
928.264	1239
928.361	319
928.457	611
928.553	950
928.649	1483
928.745	783
928.841	1527
928.937	856
929.033	881
929.129	664
929.225	645
929.321	854
929.417	480
929.513	486
929.609	542
929.705	623
929.801	1056
929.897	-19
929.993	524
930.089	516
930.184	990
930.280	92
930.376	1310
930.471	144
930.567	1323
930.663	553
930.758	570
930.854	886
930.950	767
931.045	539
931.141	490
931.236	1321
931.332	1065
931.427	369
931.523	1474
931.618	1219
931.714	886
931.809	1215
931.905	1448
932.000	503
932.095	641
932.191	1228
932.286	685
932.381	30
932.476	776
932.572	668
932.667	961
932.762	619
932.857	958
932.952	523
933.047	1248
933.142	117
933.237	1226
933.332	-220
933.427	1510
933.522	263
933.617	1097
933.712	-194
933.807	399
933.902	397
933.997	1179
934.092	561
934.187	630
934.282	1034
934.376	1108
934.471	731
934.566	174
934.661	155
934.755	863
934.850	205
934.945	1754
935.039	136
935.134	1333
935.228	421
935.323	1131
935.417	-94
935.512	421
935.606	361
935.701	1005
935.795	838
935.890	758
935.984	468
936.079	611
936.173	430
936.267	889
936.362	289
936.456	879
936.550	521
936.644	1132
936.738	869
936.833	862
936.927	27
937.021	663
937.115	453
937.209	94
937.303	415
937.397	-103
937.491	543
937.585	1170
937.679	638
937.773	823
937.867	347
937.961	821
938.055	-347
938.149	1363
938.243	958
938.337	495
938.430	580
938.524	1479
938.618	768
938.712	553
938.805	234
938.899	545
938.993	189
939.086	440
939.180	1491
939.274	1563
939.367	574
939.461	142
939.554	653
939.648	863
939.741	611
939.835	910
939.928	329
940.022	851
940.115	-1002
940.208	564
940.302	675
940.395	884
940.488	-529
940.582	1319
940.675	373
940.768	807
940.861	175
940.954	289
941.048	24
941.141	1072
941.234	388
941.327	646
941.420	806
941.513	1011
941.606	-340
941.699	1263
941.792	-565
941.885	431
941.978	886
942.071	-156
942.164	-424
942.257	-33
942.349	-578
942.442	494
942.535	-305
942.628	616
942.721	513
942.813	-324
942.906	192
942.999	202
943.091	427
943.184	349
943.277	-359
943.369	416
943.462	426
943.554	343
943.647	-692
943.739	291
943.832	1110
943.924	-477
944.017	55
944.109	-37
944.201	263
944.294	1183
944.386	336
944.478	204
944.571	254
944.663	614
944.755	385
944.847	689
944.940	-206
945.032	-69
945.124	-269
945.216	967
945.308	-109
945.400	565
945.492	-553
945.584	428
945.676	24
945.768	67
945.860	373
945.952	1083
946.044	544
946.136	357
946.228	352
946.320	162
946.412	443
946.503	973
946.595	141
946.687	266
946.779	-995
946.870	687
946.962	-338
947.054	-112
947.145	454
947.237	345
947.329	-154
947.420	-348
947.512	358
947.603	17
947.695	649
947.786	-562
947.878	115
947.969	919
948.061	-1009
948.152	926
948.243	67
948.335	560
948.426	-796
948.517	375
948.609	21
948.700	251
948.791	230
948.882	590
948.973	-340
949.065	-77
949.156	-287
949.247	-359
949.338	142
949.429	728
949.520	111
949.611	41
949.702	213
949.793	1534
949.884	228
949.975	36
950.066	-711
950.157	93
950.247	1140
950.338	339
950.429	-146
950.520	1062
950.611	235
950.701	51
950.792	299
950.883	367
950.973	-291
951.064	799
951.155	-927
951.245	805
951.336	-623
951.427	351
951.517	266
951.608	471
951.698	-19
951.788	301
951.879	-963
951.969	-291
952.060	93
952.150	497
952.240	544
952.331	-1392
952.421	1679
952.511	664
952.602	16
952.692	431
952.782	-201
952.872	98
952.962	-446
953.052	30
953.143	-550
953.233	-144
953.323	-192
953.413	80
953.503	-385
953.593	98
953.683	96
953.773	-383
953.863	-346
953.953	52
954.042	-180
954.132	-208
954.222	31
954.312	-83
954.402	-738
954.492	96
954.581	214
954.671	-158
954.761	-1207
954.850	1374
954.940	-403
955.030	863
955.119	-456
955.209	456
955.298	-430
955.388	172
955.477	821
955.567	-370
955.656	-496
955.746	1058
955.835	8
955.925	38
956.014	439
956.103	-170
956.193	-305
956.282	769
956.371	534
956.461	-59
956.550	-569
956.639	308
956.728	-1105
956.817	822
956.906	77
956.995	1078
957.085	-674
957.174	1329
957.263	-123
957.352	674
957.441	-321
957.530	128
957.619	730
957.708	565
957.796	-292
957.885	182
957.974	143
958.063	840
958.152	-1309
958.241	98
958.329	118
958.418	726
958.507	-958
958.596	1286
958.684	-320
958.773	1365
958.861	47
958.950	355
959.039	914
959.127	982
959.216	317
959.304	1252
959.393	-326
959.481	-101
959.570	504
959.658	1016
959.746	32
959.835	1246
959.923	1444
960.011	1342
960.100	371
960.188	847
960.276	-280
960.365	5
960.453	-540
960.541	-238
960.629	618
960.717	221
960.805	-189
960.893	805
960.981	-645
961.069	1139
961.158	-54
961.245	1226
961.333	406
961.421	152
961.509	146
961.597	704
961.685	-389
961.773	678
961.861	-480
961.949	762
962.036	-799
962.124	563
962.212	-296
962.299	-96
962.387	-579
962.475	280
962.562	-1943
962.650	337
962.738	-539
962.825	-389
962.913	256
963.000	-502
963.088	-539
963.175	817
963.263	281
963.350	308
963.438	-696
963.525	310
963.612	1001
963.700	2404
963.787	5574
963.874	1413
963.962	235
964.049	1121
964.136	-90
964.223	183
964.310	564
964.398	-462
964.485	-1039
964.572	-318
964.659	-273
964.746	1656
964.833	-131
964.920	99
965.007	-288
965.094	-351
965.181	195
965.268	-107
965.355	-225
965.441	-309
965.528	-669
965.615	612
965.702	-838
965.789	-472
965.875	-505
965.962	209
966.049	-1623
966.136	-172
966.222	-375
966.309	100
966.395	78
966.482	-148
966.569	-891
966.655	121
966.742	-523
966.828	-234
966.915	-448
967.001	762
967.087	-762
967.174	431
967.260	82
967.347	370
967.433	1658
967.519	4041
967.605	887
967.692	-85
967.778	-565
967.864	-643
967.950	-269
968.036	-915
968.123	-358
968.209	-393
968.295	-2044
968.381	1147
968.467	-47
968.553	-847
968.639	157
968.725	-343
968.811	27
968.897	283
968.983	-148
969.069	-717
969.154	-608
969.240	820
969.326	-989
969.412	-87
969.497	-759
969.583	-453
969.669	-436
969.755	-548
969.840	-478
969.926	-174
970.012	-1135
970.097	424
970.183	33
970.268	-289
970.354	182
970.439	-109
970.525	1754
970.610	-816
970.696	12
970.781	-560
970.866	-989
970.952	580
971.037	-755
971.122	126
971.208	-342
971.293	-333
971.378	-1505
971.463	-80
971.549	-291
971.634	-301
971.719	-135
971.804	168
971.889	489
971.974	-154
972.059	155
972.144	-620
972.229	-388
972.314	-854
972.399	-541
972.484	276
972.569	147
972.654	-534
972.739	957
972.824	1748
972.908	-517
972.993	149
973.078	-410
973.163	388
973.247	-39
973.332	-1090
973.417	488
973.501	-604
973.586	-783
973.671	-263
973.755	-750
973.840	11
973.924	-317
974.009	-563
974.093	-696
974.178	1317
974.262	85
974.346	248
974.431	-1033
974.515	-895
974.600	-115
974.684	-129
974.768	-1607
974.852	516
974.937	-1850
975.021	-65
975.105	-312
975.189	-318
975.273	10
975.358	-875
975.442	-811
975.526	-701
975.610	-1506
975.694	-1064
975.778	12
975.862	-135
975.946	-2217
976.030	1384
976.114	-1454
976.198	-440
976.281	160
976.365	498
976.449	-1093
976.533	-30
976.617	-570
976.700	301
976.784	119
976.868	-542
976.951	-256
977.035	-792
977.119	-235
977.202	-161
977.286	-147
977.369	-599
977.453	-267
977.536	-939
977.620	-1259
977.703	951
977.787	-979
977.870	-24
977.953	-577
978.037	-1623
978.120	206
978.203	206
978.287	1007
978.370	244
978.453	-1570
978.536	-446
978.620	261
978.703	-84
978.786	-925
978.869	-919
978.952	-1005
979.035	55
979.118	-69
979.201	-860
979.284	454
979.367	-478
979.450	112
979.533	-902
979.616	-514
979.699	-519
979.782	-458
979.865	-350
979.948	-890
980.030	-1163
980.113	-870
980.196	-1542
980.279	-394
980.361	-311
980.444	-541
980.526	-406
980.609	-467
980.692	62
980.774	-1051
980.857	-1426
980.939	-624
981.022	-675
981.104	-831
981.187	-885
981.269	412
981.352	206
981.434	-1624
981.516	-1317
981.599	-42
981.681	-74
981.763	-517
981.846	-831
981.928	-1638
982.010	-516
982.092	-1239
982.174	579
982.256	-751
982.339	-356
982.421	-698
982.503	-735
982.585	-1515
982.667	235
982.749	-918
982.831	-924
982.913	-1393
982.995	601
983.077	-1343
983.158	319
983.240	-961
983.322	193
983.404	-8
983.486	-1030
983.568	104
983.649	-675
983.731	92
983.813	-907
983.894	-304
983.976	-1253
984.058	-1017
984.139	287
984.221	-1515
984.302	126
984.384	-809
984.465	-1085
984.547	69
984.628	-985
984.710	-474
984.791	-207
984.872	-1373
984.954	-712
985.035	-898
985.116	-936
985.198	-1017
985.279	1133
985.360	-1555
985.441	-837
985.522	-34
985.604	-645
985.685	-1999
985.766	343
985.847	46
985.928	-1389
986.009	-1836
986.090	-759
986.171	-850
986.252	-592
986.333	-1309
986.414	-1156
986.495	-557
986.576	-294
986.656	-268
986.737	-46
986.818	-1051
986.899	-293
986.980	-1011
987.060	861
987.141	-1137
987.222	-454
987.302	-693
987.383	82
987.464	-690
987.544	-1131
987.625	-791
987.705	-338
987.786	-869
987.866	-907
987.947	-1217
988.027	-1142
988.108	-1680
988.188	-634
988.268	-885
988.349	-307
988.429	-1724
988.509	413
988.589	-877
988.670	-1635
988.750	685
988.830	-396
988.910	-688
988.990	-331
989.070	-1212
989.151	-369
989.231	-1482
989.311	-1018
989.391	-1153
989.471	-378
989.551	-772
989.631	-660
989.711	-601
989.791	-1433
989.870	-1823
989.950	529
990.030	-1113
990.110	-859
990.190	-1514
990.269	-916
990.349	-1098
990.429	533
990.509	-518
990.588	-1143
990.668	-713
990.747	-56
990.827	-1278
990.907	-359
990.986	-185
991.066	-798
991.145	-954
991.225	-168
991.304	-1472
991.383	-441
991.463	-1313
991.542	-207
991.622	-1695
991.701	-782
991.780	-972
991.859	-460
991.939	-1035
992.018	-611
992.097	-1815
992.176	-861
992.256	-830
992.335	-1071
992.414	-722
992.493	-1300
992.572	-801
992.651	586
992.730	-1047
992.809	-766
992.888	-1717
992.967	-1023
993.046	-602
993.125	-1803
993.203	-487
993.282	-293
993.361	-762
993.440	1
993.519	-1705
993.597	-287
993.676	-1623
993.755	161
993.834	-1075
993.912	-820
993.991	85
994.069	-928
994.148	-847
994.226	-628
994.305	-606
994.384	-764
994.462	-205
994.540	-651
994.619	-1769
994.697	-628
994.776	-2042
994.854	-124
994.932	-1560
995.011	-573
995.089	-1321
995.167	-944
995.245	-550
995.324	-1755
995.402	-222
995.480	-1104
995.558	-1298
995.636	-1265
995.714	-1044
995.792	581
995.870	-1265
995.948	-325
996.026	-610
996.104	-1661
996.182	-951
996.260	-1435
996.338	-1269
996.416	-2257
996.494	-1707
996.572	115
996.649	-920
996.727	-1305
996.805	-925
996.883	-1000
996.960	-1553
997.038	-316
997.116	-336
997.193	-2266
997.271	-631
997.348	-727
997.426	-866
997.504	-295
997.581	-380
997.658	217
997.736	-1661
997.813	-1084
997.891	146
997.968	-1007
998.046	-1046
998.123	-1386
998.200	-704
998.277	-1984
998.355	-613
998.432	-1830
998.509	-932
998.586	66
998.663	-1406
998.741	-505
998.818	-888
998.895	-1099
998.972	-1757
999.049	-259
999.126	-1596
999.203	-746
999.280	-1523
999.357	-553
999.434	-1496
999.511	-748
999.587	-1139
999.664	-1032
999.741	-356
999.818	-528
999.895	-1825
999.971	-2202
1000.048	-1619
1000.125	-938
1000.202	-1656
1000.278	-477
1000.355	-1040
1000.431	-2019
1000.508	-1280
1000.584	-361
1000.661	-1578
1000.738	-1809
1000.814	-1469
1000.890	-1117
1000.967	-1862
1001.043	-233
1001.120	-2286
1001.196	-1159
1001.272	-1566
1001.349	-578
1001.425	-944
1001.501	-1331
1001.577	-2055
1001.654	-892
1001.730	-863
1001.806	-609
1001.882	-2088
1001.958	-1266
1002.034	-1146
1002.110	-1033
1002.186	-1359
1002.262	-1179
1002.338	-1685
1002.414	-509
1002.490	-972
1002.566	-1473
1002.642	-1393
1002.718	-772
1002.794	-2013
1002.870	-1541
1002.945	-1767
1003.021	-624
1003.097	-1471
1003.173	-65
1003.248	-2137
1003.324	-540
1003.400	-1148
1003.475	-972
1003.551	-1280
1003.626	-811
1003.702	-1233
1003.777	-325
1003.853	-1257
1003.928	-1783
1004.004	-1354
1004.079	-606
1004.155	-921
1004.230	-2310
1004.305	-256
1004.381	-1892
1004.456	-1814
1004.531	-1154
1004.607	-1009
1004.682	-1347
1004.757	-1392
1004.832	-910
1004.907	-1211
1004.982	-481
1005.057	-1281
1005.133	-1631
1005.208	-2094
1005.283	-1719
1005.358	-1291
1005.433	-1603
1005.508	-1442
1005.583	-1360
1005.657	-2135
1005.732	-437
1005.807	-1782
1005.882	-850
1005.957	-1478
1006.032	-1143
1006.106	-934
1006.181	-1316
1006.256	-1393
1006.331	-1881
1006.405	-1968
1006.480	-1951
1006.554	-2126
1006.629	-1349
1006.704	-1641
1006.778	-660
1006.853	-599
1006.927	-1400
1007.002	-2216
1007.076	-1135
1007.150	-1825
1007.225	-1159
1007.299	-992
1007.373	-1401
1007.448	-718
1007.522	-573
1007.596	-1537
1007.671	-1205
1007.745	-254
1007.819	-1156
1007.893	-1250
1007.967	-419
1008.041	-2000
1008.115	-884
1008.190	-2485
1008.264	-881
1008.338	-2170
1008.412	-1310
1008.486	-1774
1008.560	-949
1008.633	-1334
1008.707	-1834
1008.781	-479
1008.855	-1099
1008.929	-2081
1009.003	-1354
1009.076	-2355
1009.150	-1795
1009.224	-1446
1009.298	-601
1009.371	-2087
1009.445	-1145
1009.519	-1537
1009.592	-1843
1009.666	-1378
1009.739	-680
1009.813	-2164
1009.886	-301
1009.960	-2994
1010.033	-897
1010.107	-965
1010.180	-1215
1010.253	-1258
1010.327	-808
1010.400	-1364
1010.473	-1007
1010.547	-263
1010.620	-1619
1010.693	-1252
1010.766	-1348
1010.840	-1520
1010.913	-988
1010.986	-2576
1011.059	-1851
1011.132	-1778
1011.205	-1024
1011.278	-1927
1011.351	-709
1011.424	-1007
1011.497	-2085
1011.570	-1310
1011.643	-1617
1011.716	-1772
1011.789	-1541
1011.862	-1061
1011.934	-397
1012.007	-2189
1012.080	-1063
1012.153	-1149
1012.225	-527
1012.298	-1707
1012.371	-1861
1012.443	-1143
1012.516	-2414
1012.588	-1330
1012.661	-901
1012.733	-1930
1012.806	-298
1012.879	-1978
1012.951	-671
1013.023	-1997
1013.096	-872
1013.168	-2505
1013.241	-794
1013.313	-1717
1013.385	-1377
1013.458	-1346
1013.530	-783
1013.602	-2024
1013.674	-1144
1013.746	-1660
1013.819	-1744
1013.891	-1366
1013.963	-920
1014.035	-1746
1014.107	-1487
1014.179	-1289
1014.251	-1410
1014.323	-1370
1014.395	-1382
1014.467	-1371
1014.539	-249
1014.611	-1831
1014.683	-346
1014.754	-878
1014.826	-2289
1014.898	-1059
1014.970	-2768
1015.042	-1446
1015.113	-732
1015.185	-1491
1015.257	-1702
1015.328	-1231
1015.400	-1828
1015.471	-2022
1015.543	-1486
1015.615	-2230
1015.686	-719
1015.757	-1627
1015.829	-932
1015.901	-1717
1015.972	-835
1016.043	-1467
1016.115	-1001
1016.186	-1341
1016.257	-1147
1016.328	-1055
1016.400	-992
1016.471	-2201
1016.542	-2298
1016.613	-2061
1016.685	-1995
1016.756	-1297
1016.827	-934
1016.898	-1937
1016.969	-351
1017.040	-1674
1017.111	-1667
1017.182	-2180
1017.253	-573
1017.324	-2069
1017.395	-926
1017.466	-828
1017.537	-1098
1017.608	-1407
1017.678	-822
1017.749	-1852
1017.820	-1090
1017.891	-1788
1017.961	-1265
1018.032	-1678
1018.103	-1721
1018.173	-1111
1018.244	-1940
1018.315	-1757
1018.385	-993
1018.456	-1592
1018.526	-1694
1018.597	-982
1018.667	-1230
1018.738	-1961
1018.808	-885
1018.878	-1580
1018.949	-1086
1019.019	-1381
1019.089	-983
1019.160	-1247
1019.230	-966
1019.300	-1014
1019.371	-1795
1019.441	-1294
1019.511	-1395
1019.581	-2106
1019.651	-645
1019.721	-1754
1019.791	-1464
1019.861	-1516
1019.931	-2092
1020.001	-1814
1020.071	-597
1020.141	-2361
1020.211	-1134
1020.281	-1309
1020.351	-853
1020.421	-942
1020.491	-463
1020.560	-1914
1020.630	-2141
1020.700	-1941
1020.770	-287
1020.839	-2119
1020.909	-852
1020.979	-1598
1021.048	-1081
1021.118	-2013
1021.187	-1523
1021.257	-1769
1021.326	-1404
1021.396	-1731
1021.465	-1542
1021.535	-1640
1021.604	-1727
1021.674	-1347
1021.743	-1748
1021.812	-2448
1021.882	-1878
1021.951	-1752
1022.020	-1356
1022.089	-1281
1022.159	-1727
1022.228	-882
1022.297	-2263
1022.366	-2076
1022.435	-1269
1022.504	-2217
1022.573	-1130
1022.642	-1403
1022.711	-1559
1022.781	-1256
1022.849	-805
1022.918	-2034
1022.987	-697
1023.056	-1994
1023.125	-1054
1023.194	-2009
1023.263	-824
1023.331	-1119
1023.400	-1871
1023.469	-2526
1023.538	-1100
1023.606	-1733
1023.675	-1747
1023.744	-2392
1023.812	-1172
1023.881	-1669
1023.949	-1531
1024.018	-1820
1024.086	-1586
1024.155	-2108
1024.223	-1780
1024.292	-1256
1024.360	-1092
1024.429	-1601
1024.497	-1673
1024.565	-1751
1024.634	-1364
1024.702	-1740
1024.770	-1510
1024.838	-1559
1024.907	-824
1024.975	-1572
1025.043	-1203
1025.111	-1560
1025.179	-1555
1025.247	-1310
1025.315	-1399
1025.383	-1940
1025.451	-837
1025.519	-1918
1025.587	-1985
1025.655	-1555
1025.723	-1594
1025.791	-2396
1025.859	-1046
1025.927	-1217
1025.995	-2593
1026.062	-1385
1026.130	-1133
1026.198	-1755
1026.266	-1559
1026.333	-1789
1026.401	-986
1026.469	-1300
1026.536	-1744
1026.604	-2438
1026.671	-2045
1026.739	-1747
1026.806	-1949
1026.874	-1889
1026.941	-1389
1027.009	-2281
1027.076	-1945
1027.144	-1510
1027.211	-1196
1027.278	-1971
1027.345	-641
1027.413	-1877
1027.480	-1919
1027.547	-1711
1027.614	-1712
1027.682	-1058
1027.749	-1846
1027.816	-2086
1027.883	-551
1027.950	-1071
1028.017	-1493
1028.084	-1852
1028.151	-2115
1028.218	-1785
1028.285	-1971
1028.352	-2326
1028.419	-1762
1028.486	-3114
1028.553	-1622
1028.619	-2357
1028.686	-1117
1028.753	-1842
1028.820	-2021
1028.886	-2349
1028.953	-1234
1029.020	-2088
1029.086	-1455
1029.153	-1811
1029.220	-1341
1029.286	-2154
1029.353	-1379
1029.419	-2093
1029.486	-1263
1029.552	-2489
1029.619	-1554
1029.685	-1976
1029.751	-1629
1029.818	-1469
1029.884	-1067
1029.951	-1711
1030.017	-1556
1030.083	-1943
1030.149	-1977
1030.216	-2300
1030.282	-1686
1030.348	-1276
1030.414	-2478
1030.480	-2029
1030.546	-1388
1030.612	-1283
1030.678	-1373
1030.744	-1673
1030.810	-1846
1030.876	-1896
1030.942	-1255
1031.008	-1194
1031.074	-1707
1031.140	-1553
1031.206	-1192
1031.272	-1797
1031.337	-1565
1031.403	-1864
1031.469	-1883
1031.534	-2428
1031.600	-2204
1031.666	-2466
1031.731	-2005
1031.797	-2475
1031.863	-1796
1031.928	-2353
1031.994	-2182
1032.059	-1707
1032.125	-1896
1032.190	-2111
1032.256	-1665
1032.321	-1771
1032.386	-1502
1032.452	-2544
1032.517	-1331
1032.582	-2058
1032.647	-2226
1032.713	-2646
1032.778	-1876
1032.843	-2022
1032.908	-1764
1032.974	-1689
1033.039	-1558
1033.104	-1917
1033.169	-1155
1033.234	-1385
1033.299	-1768
1033.364	-1184
1033.429	-2121
1033.494	-1835
1033.559	-1213
1033.624	-2223
1033.688	-1754
1033.753	-2419
1033.818	-1541
1033.883	-2023
1033.948	-2316
1034.013	-2368
1034.077	-1128
1034.142	-1739
1034.207	-1534
1034.271	-1644
1034.336	-1032
1034.400	-1519
1034.465	-1828
1034.530	-2089
1034.594	-1600
1034.658	-1745
1034.723	-1641
1034.787	-1083
1034.852	-1666
1034.916	-2383
1034.981	-2461
1035.045	-1436
1035.109	-1185
1035.173	-2072
1035.238	-1952
1035.302	-1355
1035.366	-2073
1035.430	-2587
1035.495	-1853
1035.559	-2157
1035.623	-1306
1035.687	-1294
1035.751	-2071
1035.815	-2941
1035.879	-910
1035.943	-2363
1036.007	-1587
1036.071	-2267
1036.135	-1548
1036.198	-2229
1036.262	-1453
1036.326	-1320
1036.390	-1888
1036.454	-2044
1036.517	-1604
1036.581	-2651
1036.645	-1538
1036.709	-1400
1036.772	-1899
1036.836	-2103
1036.900	-1428
1036.963	-2042
1037.026	-1691
1037.090	-1751
1037.154	-1512
1037.217	-3209
1037.280	-1966
1037.344	-2260
1037.407	-2212
1037.471	-1375
1037.534	-1621
1037.597	-2588
1037.661	-2202
1037.724	-1888
1037.787	-1907
1037.850	-1757
1037.913	-1102
1037.977	-1905
1038.040	-1718
1038.103	-1936
1038.166	-1354
1038.229	-1715
1038.292	-2162
1038.355	-2071
1038.418	-1398
1038.481	-1861
1038.544	-1724
1038.607	-2390
1038.670	-1489
1038.732	-1682
1038.795	-2197
1038.858	-1881
1038.921	-1411
1038.984	-2088
1039.046	-1081
1039.109	-2173
1039.172	-2571
1039.234	-1339
1039.297	-2474
1039.360	-1674
1039.422	-1759
1039.485	-984
1039.547	-2713
1039.610	-2433
1039.672	-850
1039.734	-2599
1039.797	-1529
1039.859	-2021
1039.922	-1305
1039.984	-2256
1040.046	-1748
1040.109	-1664
1040.171	-1769
1040.233	-1820
1040.295	-2179
1040.358	-2533
1040.420	-1770
1040.482	-2460
1040.544	-2623
1040.606	-1440
1040.668	-1613
1040.730	-1497
1040.792	-1734
1040.854	-2620
1040.916	-1775
1040.978	-2882
1041.040	-1238
1041.102	-1432
1041.164	-1950
1041.225	-2217
1041.287	-2316
1041.349	-2011
1041.411	-2057
1041.472	-2659
1041.534	-2001
1041.596	-1830
1041.657	-1357
1041.719	-2024
1041.781	-1978
1041.842	-1999
1041.904	-1914
1041.965	-1612
1042.027	-1049
1042.088	-2216
1042.150	-1706
1042.211	-2375
1042.272	-1074
1042.334	-2014
1042.395	-1540
1042.456	-2289
1042.518	-2090
1042.579	-2031
1042.640	-1562
1042.701	-2053
1042.763	-2090
1042.824	-2229
1042.885	-1692
1042.946	-1843
1043.007	-2232
1043.068	-1553
1043.129	-1940
1043.190	-2142
1043.251	-1466
1043.312	-2164
1043.373	-2358
1043.434	-2014
1043.495	-2016
1043.556	-1812
1043.616	-1564
1043.677	-2244
1043.738	-2187
1043.799	-2273
1043.859	-1720
1043.920	-1953
1043.981	-1351
1044.041	-1559
1044.102	-1517
1044.162	-2681
1044.223	-1391
1044.284	-1591
1044.344	-2041
1044.405	-1215
1044.465	-1639
1044.525	-1962
1044.586	-1169
1044.646	-2120
1044.707	-770
1044.767	-1386
1044.827	-1510
1044.887	-1734
1044.948	-1164
1045.008	-1324
1045.068	-1843
1045.128	-1897
1045.188	-1620
1045.249	-1934
1045.309	-2334
1045.369	-1989
1045.429	-1150
1045.489	-1282
1045.549	-1978
1045.609	-1796
1045.669	-1398
1045.729	-2186
1045.789	-1912
1045.848	-979
1045.908	-1892
1045.968	-1107
1046.028	-856
1046.088	-1545
1046.147	-1380
1046.207	-1118
1046.267	-1022
1046.326	-1606
1046.386	-1275
1046.446	-839
1046.505	-904
1046.565	-1179
1046.624	-919
1046.684	-1325
1046.743	-356
1046.803	-1444
1046.862	-491
1046.922	0
