'Start Wavelength	183.907
'End Wavelength	1046.922
'Gate Delay	5.000
'Gate Width (ms)	1.050
'Laser Output Level	0.000
'X Position	0.000
'Y Position	0.000
'Z Position	0.000
'Grid Point Number	1.000
'Shot Number	100.000
183.907	149.000
183.977	109.000
184.047	791
184.116	1173
184.186	4
184.256	279
184.325	-2
184.395	-77
184.465	859
184.534	762
184.604	-286
184.674	651
184.743	240
184.813	749
184.883	140
184.952	648
185.022	358
185.092	798
185.161	528
185.231	609
185.301	-126
185.370	402
185.440	-45
185.509	-35
185.579	203
185.649	540
185.718	636
185.788	724
185.857	488
185.927	1069
185.996	209
186.066	508
186.136	72
186.205	504
186.275	373
186.344	289
186.414	128
186.483	14
186.553	1206
186.622	1984
186.692	343
186.761	683
186.831	349
186.900	470
186.970	495
187.039	791
187.109	296
187.178	955
187.248	384
187.317	1293
187.387	265
187.456	779
187.526	248
187.595	1136
187.664	274
187.734	851
187.803	342
187.873	1103
187.942	275
188.012	957
188.081	614
188.150	382
188.220	962
188.289	761
188.358	10
188.428	681
188.497	-865
188.567	1466
188.636	119
188.705	972
188.775	740
188.844	539
188.913	803
188.983	273
189.052	332
189.121	437
189.191	334
189.260	849
189.329	617
189.399	837
189.468	-191
189.537	429
189.606	1088
189.676	841
189.745	418
189.814	959
189.883	1
189.953	559
190.022	1111
190.091	848
190.161	523
190.230	941
190.299	-3
190.368	334
190.437	478
190.507	455
190.576	-56
190.645	-56
190.714	268
190.783	239
190.853	775
190.922	1281
190.991	771
191.060	626
191.129	288
191.198	280
191.268	872
191.337	11
191.406	905
191.475	701
191.544	-475
191.613	555
191.682	619
191.752	780
191.821	228
191.890	513
191.959	322
192.028	2
192.097	699
192.166	744
192.235	118
192.304	1693
192.373	-94
192.442	579
192.511	541
192.580	505
192.650	1144
192.719	299
192.788	451
192.857	341
192.926	308
192.995	1261
193.064	565
193.133	228
193.202	311
193.271	991
193.340	684
193.409	332
193.478	443
193.547	570
193.615	957
193.684	644
193.753	573
193.822	194
193.891	705
193.960	1043
194.029	131
194.098	489
194.167	-284
194.236	830
194.305	261
194.374	147
194.443	634
194.512	766
194.580	37
194.649	616
194.718	569
194.787	530
194.856	-353
194.925	433
194.994	285
195.062	1334
195.131	848
195.200	831
195.269	556
195.338	637
195.407	496
195.475	18
195.544	278
195.613	692
195.682	776
195.751	419
195.819	611
195.888	959
195.957	487
196.026	-39
196.094	-53
196.163	744
196.232	74
196.301	949
196.369	-208
196.438	506
196.507	170
196.576	797
196.644	-168
196.713	782
196.782	-181
196.850	1263
196.919	-66
196.988	626
197.056	268
197.125	1048
197.194	567
197.262	1473
197.331	-174
197.400	395
197.468	299
197.537	242
197.606	387
197.674	1235
197.743	972
197.812	302
197.880	553
197.949	970
198.017	988
198.086	667
198.155	223
198.223	1192
198.292	1331
198.360	1491
198.429	329
198.497	1035
198.566	592
198.635	1520
198.703	804
198.772	1743
198.840	1683
198.909	2056
198.977	561
199.046	1566
199.114	1237
199.183	864
199.251	149
199.320	513
199.388	419
199.457	50
199.525	255
199.594	-80
199.662	246
199.731	872
199.799	107
199.867	1590
199.936	130
200.004	414
200.073	570
200.141	1289
200.210	222
200.278	805
200.346	940
200.415	1002
200.483	995
200.552	1271
200.620	706
200.688	903
200.757	758
200.825	898
200.893	856
200.962	697
201.030	401
201.098	519
201.167	985
201.235	799
201.303	66
201.372	1544
201.440	647
201.508	787
201.577	747
201.645	761
201.713	891
201.781	577
201.850	1412
201.918	662
201.986	1131
202.055	703
202.123	199
202.191	976
202.259	388
202.327	528
202.396	986
202.464	437
202.532	900
202.600	1899
202.669	1107
202.737	844
202.805	106
202.873	903
202.941	951
203.009	983
203.078	-330
203.146	1104
203.214	939
203.282	-932
203.350	1412
203.418	693
203.487	749
203.555	263
203.623	316
203.691	405
203.759	352
203.827	531
203.895	849
203.963	1127
204.031	653
204.099	1141
204.168	131
204.236	1710
204.304	358
204.372	1664
204.440	920
204.508	-315
204.576	306
204.644	349
204.712	-429
204.780	1002
204.848	185
204.916	82
204.984	1184
205.052	93
205.120	532
205.188	228
205.256	308
205.324	377
205.392	715
205.460	1163
205.528	37
205.596	354
205.664	549
205.732	229
205.799	492
205.867	1487
205.935	-167
206.003	1059
206.071	129
206.139	3
206.207	319
206.275	-110
206.343	957
206.411	259
206.478	905
206.546	1218
206.614	1007
206.682	710
206.750	466
206.818	1791
206.885	1202
206.953	-533
207.021	1335
207.089	617
207.157	161
207.225	1216
207.292	563
207.360	946
207.428	837
207.496	1149
207.563	501
207.631	914
207.699	415
207.767	553
207.834	131
207.902	1072
207.970	-4
208.038	497
208.105	1011
208.173	885
208.241	971
208.309	1862
208.376	853
208.444	745
208.512	1353
208.579	33
208.647	1113
208.715	1501
208.782	345
208.850	679
208.918	948
208.985	974
209.053	284
209.120	1247
209.188	753
209.256	456
209.323	90
209.391	773
209.459	1328
209.526	1282
209.594	256
209.661	1319
209.729	615
209.796	541
209.864	1381
209.932	458
209.999	1404
210.067	784
210.134	973
210.202	448
210.269	711
210.337	2098
210.404	1188
210.472	1057
210.539	860
210.607	645
210.674	482
210.742	1244
210.809	1036
210.877	952
210.944	517
211.012	352
211.079	1898
211.146	887
211.214	1306
211.281	2451
211.349	1863
211.416	1557
211.484	1298
211.551	669
211.618	442
211.686	1406
211.753	670
211.821	2397
211.888	359
211.955	974
212.023	813
212.090	1595
212.157	1110
212.225	924
212.292	1680
212.359	2370
212.427	5318
212.494	2250
212.561	695
212.629	948
212.696	831
212.763	879
212.831	-235
212.898	1109
212.965	1202
213.032	906
213.100	1026
213.167	738
213.234	472
213.301	1349
213.369	904
213.436	746
213.503	1513
213.570	1052
213.638	-161
213.705	-603
213.772	276
213.839	-288
213.906	503
213.973	680
214.041	190
214.108	1482
214.175	866
214.242	1178
214.309	776
214.376	1442
214.444	582
214.511	1243
214.578	338
214.645	1366
214.712	1359
214.779	955
214.846	437
214.913	1004
214.980	1715
215.048	1746
215.115	2520
215.182	1650
215.249	855
215.316	351
215.383	1981
215.450	346
215.517	585
215.584	1301
215.651	-73
215.718	570
215.785	971
215.852	486
215.919	1163
215.986	1399
216.053	767
216.120	750
216.187	823
216.254	547
216.321	752
216.388	511
216.455	693
216.522	1049
216.589	685
216.656	1395
216.722	1036
216.789	1307
216.856	1062
216.923	941
216.990	885
217.057	1422
217.124	1598
217.191	1333
217.258	1287
217.324	1905
217.391	1710
217.458	704
217.525	1198
217.592	887
217.659	-325
217.725	2194
217.792	763
217.859	1774
217.926	923
217.993	585
218.059	1273
218.126	856
218.193	464
218.260	952
218.327	888
218.393	651
218.460	177
218.527	6
218.594	834
218.660	636
218.727	958
218.794	1075
218.860	1208
218.927	-65
218.994	534
219.061	911
219.127	800
219.194	1126
219.261	1023
219.327	379
219.394	1416
219.461	266
219.527	156
219.594	1257
219.661	1124
219.727	797
219.794	2259
219.860	557
219.927	2022
219.994	2512
220.060	4532
220.127	4879
220.193	3611
220.260	1695
220.326	1749
220.393	1991
220.460	2926
220.526	1935
220.593	1054
220.659	2368
220.726	351
220.792	3531
220.859	2619
220.925	4015
220.992	4156
221.058	4535
221.125	3951
221.191	2625
221.258	723
221.324	1925
221.391	418
221.457	871
221.524	1114
221.590	1737
221.657	3188
221.723	1957
221.789	1523
221.856	2650
221.922	1214
221.989	1016
222.055	822
222.121	1618
222.188	2641
222.254	1309
222.321	1888
222.387	1234
222.453	1712
222.520	440
222.586	451
222.652	1357
222.719	-315
222.785	1544
222.851	646
222.918	1470
222.984	-60
223.050	1113
223.116	-512
223.183	1179
223.249	11
223.315	264
223.382	616
223.448	765
223.514	279
223.580	998
223.647	626
223.713	147
223.779	883
223.845	109
223.911	606
223.978	-318
224.044	1170
224.110	-39
224.176	266
224.242	689
224.309	-118
224.375	1229
224.441	663
224.507	397
224.573	-477
224.639	1231
224.705	-209
224.772	714
224.838	-186
224.904	1556
224.970	792
225.036	894
225.102	290
225.168	1130
225.234	938
225.300	891
225.366	918
225.432	1569
225.499	708
225.565	1475
225.631	1207
225.697	1875
225.763	1526
225.829	1757
225.895	1403
225.961	2027
226.027	2111
226.093	1476
226.159	2343
226.225	3363
226.291	5664
226.357	8533
226.423	4299
226.489	3600
226.554	1677
226.620	1338
226.686	1187
226.752	3205
226.818	4663
226.884	12097
226.950	10030
227.016	4219
227.082	2083
227.148	2295
227.214	1458
227.279	2106
227.345	1353
227.411	3161
227.477	4091
227.543	7911
227.609	8889
227.674	6324
227.740	2651
227.806	2038
227.872	1819
227.938	1852
228.003	1763
228.069	557
228.135	622
228.201	1690
228.267	366
228.332	1518
228.398	-700
228.464	1528
228.530	393
228.595	933
228.661	508
228.727	1053
228.792	1537
228.858	485
228.924	-836
228.990	1600
229.055	-135
229.121	1295
229.187	291
229.252	687
229.318	318
229.384	799
229.449	1170
229.515	-1162
229.581	-379
229.646	1909
229.712	1060
229.777	788
229.843	813
229.909	1844
229.974	978
230.040	1307
230.105	645
230.171	10
230.236	1277
230.302	1359
230.368	958
230.433	129
230.499	1233
230.564	1191
230.630	202
230.695	1344
230.761	526
230.826	-742
230.892	2236
230.957	550
231.023	633
231.088	1059
231.154	333
231.219	1101
231.284	347
231.350	1678
231.415	93
231.481	1766
231.546	910
231.612	632
231.677	5
231.742	-186
231.808	1777
231.873	290
231.939	-1543
232.004	1921
232.069	1370
232.135	405
232.200	540
232.265	1634
232.331	39
232.396	488
232.461	96
232.527	275
232.592	48
232.657	1328
232.723	293
232.788	607
232.853	649
232.918	1071
232.984	-497
233.049	723
233.114	258
233.179	1156
233.245	1922
233.310	1917
233.375	-378
233.440	1438
233.506	367
233.571	672
233.636	670
233.701	542
233.766	481
233.832	996
233.897	387
233.962	-572
234.027	767
234.092	824
234.157	709
234.222	1173
234.288	1472
234.353	1638
234.418	1451
234.483	2284
234.548	956
234.613	911
234.678	1236
234.743	1109
234.808	2331
234.873	-462
234.938	1365
235.004	1104
235.069	-1
235.134	507
235.199	1476
235.264	1442
235.329	-54
235.394	1471
235.459	1870
235.524	183
235.589	2018
235.654	1018
235.719	163
235.784	1593
235.849	727
235.913	1640
235.978	1391
236.043	1136
236.108	573
236.173	991
236.238	1771
236.303	1016
236.368	625
236.433	1821
236.498	1118
236.563	1848
236.627	3797
236.692	15619
236.757	12564
236.822	4847
236.887	1963
236.952	2949
237.017	-32
237.081	3472
237.146	1921
237.211	6171
237.276	14664
237.341	24497
237.405	10281
237.470	3963
237.535	2828
237.600	1982
237.664	1972
237.729	533
237.794	1583
237.859	4312
237.923	1831
237.988	721
238.053	2403
238.118	1131
238.182	2943
238.247	3958
238.312	135
238.376	1933
238.441	-158
238.506	2397
238.570	175
238.635	2391
238.700	1377
238.764	688
238.829	963
238.893	627
238.958	1560
239.023	1287
239.087	1374
239.152	2209
239.216	1514
239.281	1800
239.346	951
239.410	1480
239.475	1222
239.539	3878
239.604	2277
239.668	3177
239.733	3949
239.797	8414
239.862	16565
239.926	13188
239.991	6431
240.055	2695
240.120	2261
240.184	1703
240.249	1095
240.313	1408
240.378	1017
240.442	2304
240.507	2630
240.571	1607
240.635	272
240.700	1404
240.764	837
240.829	1012
240.893	567
240.957	1995
241.022	1634
241.086	2821
241.151	158
241.215	693
241.279	1973
241.344	1057
241.408	1224
241.472	292
241.537	1954
241.601	1622
241.665	-393
241.730	709
241.794	1889
241.858	569
241.922	633
241.987	1850
242.051	1049
242.115	526
242.179	1683
242.244	294
242.308	2064
242.372	1892
242.436	865
242.501	1680
242.565	252
242.629	937
242.693	1819
242.757	983
242.822	790
242.886	1575
242.950	1604
243.014	-22
243.078	1268
243.142	1193
243.206	584
243.271	1976
243.335	261
243.399	2821
243.463	4761
243.527	15625
243.591	4108
243.655	2441
243.719	537
243.783	2485
243.847	2008
243.911	2758
243.975	1563
244.040	988
244.104	2488
244.168	1637
244.232	444
244.296	1104
244.360	3034
244.424	746
244.488	882
244.552	1663
244.615	-155
244.679	1280
244.743	635
244.807	463
244.871	610
244.935	1208
244.999	-836
245.063	1008
245.127	1547
245.191	2049
245.255	756
245.319	1785
245.383	-711
245.446	2712
245.510	145
245.574	798
245.638	1883
245.702	286
245.766	2316
245.829	1874
245.893	-129
245.957	567
246.021	1228
246.085	1070
246.149	1363
246.212	4230
246.276	4843
246.340	1713
246.404	1340
246.467	2436
246.531	48
246.595	2501
246.659	1629
246.722	552
246.786	1241
246.850	970
246.913	1369
246.977	603
247.041	1448
247.104	895
247.168	37
247.232	2971
247.295	5852
247.359	3069
247.423	1227
247.486	2063
247.550	3099
247.614	1472
247.677	1086
247.741	2032
247.804	1135
247.868	3041
247.932	2246
247.995	6627
248.059	2210
248.122	532
248.186	2649
248.249	2959
248.313	9754
248.376	10144
248.440	5883
248.503	1200
248.567	3219
248.630	2271
248.694	2702
248.757	5476
248.821	11061
248.884	7353
248.948	4279
249.011	7751
249.075	11962
249.138	10745
249.202	3960
249.265	2593
249.328	3007
249.392	1804
249.455	2570
249.519	2452
249.582	1943
249.645	4061
249.709	3081
249.772	2699
249.835	1839
249.899	2832
249.962	2664
250.025	1434
250.089	4045
250.152	5303
250.215	2481
250.279	2613
250.342	3182
250.405	2518
250.468	2136
250.532	2856
250.595	4322
250.658	14281
250.721	24839
250.785	6762
250.848	5486
250.911	2497
250.974	3308
251.038	4027
251.101	7266
251.164	3998
251.227	3997
251.290	3605
251.354	5912
251.417	21167
251.480	19562
251.543	13601
251.606	39324
251.669	27546
251.732	10102
251.795	9925
251.859	9816
251.922	24382
251.985	13415
252.048	6093
252.111	4276
252.174	2766
252.237	6484
252.300	13260
252.363	13541
252.426	32337
252.489	11268
252.552	6278
252.615	3621
252.678	4627
252.741	10543
252.804	13508
252.867	32262
252.930	16239
252.993	8260
253.056	6030
253.119	2684
253.182	2849
253.245	4511
253.308	3464
253.371	2883
253.434	3015
253.497	2905
253.559	6713
253.622	2982
253.685	4132
253.748	3462
253.811	2269
253.874	3057
253.937	2281
254.000	2645
254.062	4437
254.125	6282
254.188	5501
254.251	2884
254.314	2008
254.376	3021
254.439	3032
254.502	2780
254.565	3479
254.628	7400
254.690	2678
254.753	1767
254.816	1852
254.878	1106
254.941	5044
255.004	4222
255.067	2211
255.129	912
255.192	1841
255.255	-118
255.317	2087
255.380	1645
255.443	786
255.505	738
255.568	828
255.631	856
255.693	1850
255.756	751
255.819	2764
255.881	1375
255.944	1850
256.006	1419
256.069	756
256.132	887
256.194	1096
256.257	2323
256.319	2053
256.382	1739
256.444	3459
256.507	3865
256.569	2433
256.632	2556
256.694	2185
256.757	8261
256.819	26118
256.882	8160
256.944	3333
257.007	3219
257.069	1596
257.132	1848
257.194	3066
257.257	2232
257.319	1973
257.381	1850
257.444	6263
257.506	28310
257.569	28997
257.631	8468
257.693	5686
257.756	2598
257.818	2218
257.880	1367
257.943	2188
258.005	1308
258.067	1540
258.130	1529
258.192	1490
258.254	1846
258.317	1736
258.379	1790
258.441	3446
258.503	3230
258.566	3663
258.628	4089
258.690	533
258.753	2679
258.815	2703
258.877	1346
258.939	1727
259.001	1438
259.064	1614
259.126	1406
259.188	1514
259.250	1972
259.312	1304
259.375	1965
259.437	1181
259.499	1808
259.561	1698
259.623	2827
259.685	1765
259.747	1039
259.809	3576
259.872	4503
259.934	7467
259.996	7066
260.058	2629
260.120	1245
260.182	1678
260.244	1628
260.306	1488
260.368	1992
260.430	1132
260.492	2058
260.554	4176
260.616	2397
260.678	4836
260.740	4356
260.802	2009
260.864	2567
260.926	2181
260.988	2279
261.050	1721
261.112	3110
261.174	6117
261.236	4239
261.298	2444
261.359	2563
261.421	3648
261.483	777
261.545	2988
261.607	-426
261.669	2127
261.731	2209
261.793	4450
261.854	701
261.916	2800
261.978	1148
262.040	2260
262.102	1909
262.164	1068
262.225	2006
262.287	1617
262.349	2301
262.411	2746
262.472	2234
262.534	2224
262.596	2535
262.658	3074
262.719	1057
262.781	2593
262.843	1978
262.904	2287
262.966	2927
263.028	2682
263.090	6612
263.151	15998
263.213	5159
263.275	3025
263.336	2023
263.398	2733
263.459	1508
263.521	1914
263.583	2809
263.644	3124
263.706	1990
263.767	848
263.829	1538
263.891	1345
263.952	696
264.014	1326
264.075	1956
264.137	2614
264.198	2623
264.260	680
264.321	997
264.383	2384
264.444	5186
264.506	2335
264.567	2030
264.629	3203
264.690	3030
264.752	2460
264.813	2124
264.875	1025
264.936	1785
264.998	1650
265.059	2595
265.120	3101
265.182	2515
265.243	12483
265.305	12323
265.366	3730
265.427	1706
265.489	2930
265.550	902
265.611	2112
265.673	1608
265.734	2591
265.795	1507
265.857	1458
265.918	855
265.979	4229
266.040	20998
266.102	17070
266.163	4900
266.224	3163
266.286	2070
266.347	1074
266.408	1477
266.469	2516
266.530	1910
266.592	2032
266.653	2295
266.714	3023
266.775	2094
266.836	2051
266.898	1255
266.959	2122
267.020	1855
267.081	3047
267.142	1928
267.203	1194
267.264	1325
267.326	2742
267.387	1619
267.448	1611
267.509	1532
267.570	1751
267.631	1181
267.692	1174
267.753	2011
267.814	872
267.875	1999
267.936	3053
267.997	1640
268.058	1711
268.119	1337
268.180	1370
268.241	1045
268.302	1782
268.363	1685
268.424	1830
268.485	1333
268.546	863
268.607	991
268.668	1412
268.729	1798
268.790	1504
268.851	919
268.912	2104
268.972	2569
269.033	1178
269.094	-141
269.155	2125
269.216	1034
269.277	2006
269.338	1405
269.398	1338
269.459	1447
269.520	1832
269.581	2193
269.642	1055
269.702	932
269.763	1091
269.824	1376
269.885	1474
269.945	1826
270.006	1999
270.067	1012
270.128	1491
270.188	1892
270.249	1234
270.310	764
270.370	1577
270.431	760
270.492	1524
270.553	1255
270.613	1607
270.674	3831
270.734	1560
270.795	1196
270.856	2171
270.916	1384
270.977	1088
271.038	2025
271.098	2322
271.159	2128
271.219	2080
271.280	1732
271.340	2089
271.401	1235
271.462	2551
271.522	2314
271.583	2262
271.643	1500
271.704	1789
271.764	1425
271.825	3096
271.885	9131
271.946	13475
272.006	4092
272.066	7229
272.127	12306
272.187	11552
272.248	6773
272.308	3340
272.369	8381
272.429	5684
272.489	3693
272.550	3333
272.610	3797
272.671	2247
272.731	2696
272.791	3465
272.852	2210
272.912	3105
272.972	2014
273.033	1929
273.093	1898
273.153	3090
273.214	2385
273.274	2350
273.334	5793
273.394	10238
273.455	4174
273.515	5848
273.575	8553
273.635	4560
273.696	5880
273.756	10941
273.816	5284
273.876	3528
273.936	4318
273.997	5436
274.057	2676
274.117	3276
274.177	3544
274.237	10715
274.297	9340
274.358	5579
274.418	7884
274.478	5412
274.538	2205
274.598	2458
274.658	4098
274.718	4429
274.778	1917
274.838	2611
274.898	2560
274.958	4606
275.018	9877
275.078	6584
275.138	3109
275.198	2336
275.258	1676
275.318	2398
275.378	3311
275.438	3340
275.498	2951
275.558	4023
275.618	7067
275.678	7085
275.738	4022
275.798	3014
275.858	2641
275.918	1976
275.978	2383
276.038	2656
276.098	2040
276.157	3379
276.217	5682
276.277	3459
276.337	2131
276.397	2150
276.457	2290
276.517	2501
276.576	2053
276.636	2231
276.696	2096
276.756	4462
276.815	3446
276.875	3248
276.935	3012
276.995	3626
277.055	2538
277.114	3077
277.174	3129
277.234	5596
277.293	3156
277.353	2607
277.413	2101
277.472	3042
277.532	2813
277.592	4511
277.651	11733
277.711	20210
277.771	7608
277.830	22380
277.890	17380
277.950	13591
278.009	35128
278.069	14459
278.128	16926
278.188	20506
278.248	9839
278.307	24376
278.367	13755
278.426	5815
278.486	4060
278.545	3998
278.605	3552
278.664	3388
278.724	3526
278.783	6326
278.843	11633
278.902	5252
278.962	3458
279.021	4069
279.081	5896
279.140	6851
279.199	5019
279.259	5465
279.318	6657
279.378	7887
279.437	10260
279.496	26230
279.556	79921
279.615	62958
279.675	18486
279.734	12252
279.793	11789
279.853	17771
279.912	8424
279.971	6998
280.031	7259
280.090	9458
280.149	13294
280.208	14130
280.268	56097
280.327	56438
280.386	14563
280.445	9719
280.505	6977
280.564	5607
280.623	4347
280.682	5358
280.742	7108
280.801	4293
280.860	3603
280.919	3524
280.978	2885
281.037	2567
281.097	2652
281.156	3647
281.215	2717
281.274	3713
281.333	7259
281.392	6066
281.451	2389
281.510	2685
281.569	2716
281.628	2596
281.688	3558
281.747	3564
281.806	2932
281.865	2696
281.924	2885
281.983	2803
282.042	2476
282.101	2894
282.160	3084
282.219	3068
282.278	2021
282.337	4582
282.396	3595
282.454	1586
282.513	3019
282.572	5065
282.631	3829
282.690	2805
282.749	2753
282.808	2764
282.867	3535
282.926	3293
282.985	2326
283.043	2612
283.102	3125
283.161	2558
283.220	5108
283.279	6243
283.338	3725
283.396	2993
283.455	3680
283.514	3960
283.573	3978
283.631	3766
283.690	3208
283.749	3115
283.808	4506
283.866	4222
283.925	3936
283.984	4082
284.043	3691
284.101	5073
284.160	4359
284.219	5022
284.277	3793
284.336	5375
284.395	9875
284.453	8348
284.512	6659
284.570	7064
284.629	7344
284.688	8563
284.746	10170
284.805	12543
284.863	15428
284.922	20150
284.981	25017
285.039	35429
285.098	56135
285.156	93938
285.215	96120
285.273	98372
285.332	94306
285.390	63789
285.449	40270
285.507	29797
285.566	22115
285.624	17828
285.683	14710
285.741	13053
285.799	10637
285.858	9241
285.916	7807
285.975	8128
286.033	6691
286.091	6277
286.150	5558
286.208	5360
286.267	5513
286.325	5661
286.383	5842
286.442	4719
286.500	4694
286.558	3911
286.616	3447
286.675	4399
286.733	3845
286.791	4233
286.850	4531
286.908	4254
286.966	4694
287.024	3944
287.083	3534
287.141	3195
287.199	4027
287.257	4341
287.315	3923
287.374	3206
287.432	4675
287.490	4065
287.548	3113
287.606	3747
287.664	3689
287.723	3664
287.781	3902
287.839	3541
287.897	4167
287.955	4743
288.013	6053
288.071	9212
288.129	29209
288.187	80121
288.245	35274
288.303	12603
288.361	8095
288.419	6085
288.477	4098
288.535	3655
288.593	4139
288.651	3589
288.709	3043
288.767	3382
288.825	2602
288.883	2764
288.941	2583
288.999	2549
289.057	2200
289.115	2724
289.173	2364
289.231	2175
289.289	1843
289.346	2373
289.404	3169
289.462	3424
289.520	2505
289.578	2330
289.636	2239
289.694	2225
289.751	2500
289.809	2600
289.867	2575
289.925	3079
289.983	2619
290.040	2555
290.098	1446
290.156	2663
290.214	1968
290.271	2067
290.329	3053
290.387	2647
290.444	2164
290.502	2785
290.560	2438
290.617	1963
290.675	3091
290.733	3013
290.790	1969
290.848	2383
290.906	2492
290.963	2216
291.021	2425
291.078	3467
291.136	2665
291.194	4453
291.251	6440
291.309	2866
291.366	2022
291.424	2448
291.481	2428
291.539	2945
291.596	2459
291.654	2221
291.711	2994
291.769	2342
291.826	2730
291.884	3007
291.941	1605
291.999	1755
292.056	2245
292.114	2648
292.171	2500
292.228	3853
292.286	3221
292.343	3001
292.401	3176
292.458	3472
292.515	2566
292.573	3267
292.630	2930
292.687	2736
292.745	2575
292.802	2221
292.859	4720
292.917	7359
292.974	4502
293.031	3395
293.089	2800
293.146	2987
293.203	2554
293.260	1925
293.318	2485
293.375	2985
293.432	2250
293.489	2688
293.546	3260
293.604	3371
293.661	5988
293.718	12785
293.775	6956
293.832	5125
293.889	4793
293.947	4282
294.004	2815
294.061	3289
294.118	4121
294.175	7272
294.232	8274
294.289	5235
294.346	3394
294.403	4477
294.460	3438
294.517	3013
294.574	2775
294.631	2779
294.688	2348
294.745	4525
294.802	12674
294.859	12565
294.916	4179
294.973	3461
295.030	3002
295.087	3193
295.144	2781
295.201	3238
295.258	2579
295.315	3768
295.372	5828
295.429	10339
295.486	4524
295.542	3026
295.599	6319
295.656	7567
295.713	5886
295.770	8997
295.827	5021
295.883	2923
295.940	2880
295.997	3736
296.054	2872
296.111	3287
296.167	2823
296.224	2809
296.281	3192
296.338	2514
296.394	1389
296.451	2028
296.508	4337
296.564	6807
296.621	5707
296.678	11214
296.734	15831
296.791	6458
296.848	4127
296.904	4417
296.961	6241
297.018	10490
297.074	8333
297.131	4645
297.187	3446
297.244	4087
297.301	11774
297.357	19651
297.414	8066
297.470	4479
297.527	3072
297.583	3423
297.640	2549
297.696	2534
297.753	2700
297.809	2638
297.866	2178
297.922	2757
297.979	2245
298.035	2629
298.092	2846
298.148	6096
298.204	6532
298.261	3823
298.317	5841
298.374	13180
298.430	8159
298.486	4788
298.543	2942
298.599	3481
298.656	3262
298.712	4467
298.768	8992
298.824	7415
298.881	3843
298.937	2512
298.993	2726
299.050	2591
299.106	3107
299.162	2181
299.218	3510
299.275	2711
299.331	3150
299.387	6037
299.443	14616
299.500	27541
299.556	18072
299.612	7914
299.668	7169
299.724	19145
299.780	21421
299.837	8764
299.893	7383
299.949	18271
300.005	24924
300.061	19519
300.117	31189
300.173	15300
300.229	6678
300.285	5744
300.341	6166
300.397	4671
300.453	4180
300.510	3506
300.566	5312
300.622	8471
300.678	28034
300.734	36957
300.790	20586
300.845	17374
300.901	19605
300.957	26659
301.013	13696
301.069	6403
301.125	5295
301.181	3534
301.237	4059
301.293	3664
301.349	3337
301.405	2790
301.461	2382
301.516	3991
301.572	3525
301.628	3807
301.684	3279
301.740	4880
301.796	7166
301.851	5167
301.907	6565
301.963	6755
302.019	11390
302.074	30568
302.130	31027
302.186	15183
302.242	6259
302.297	4042
302.353	4263
302.409	7890
302.464	5727
302.520	5161
302.576	9754
302.631	12389
302.687	6849
302.743	4504
302.798	2652
302.854	2917
302.910	3381
302.965	2949
303.021	4164
303.076	4188
303.132	3658
303.187	4381
303.243	3010
303.299	3019
303.354	2701
303.410	2353
303.465	1976
303.521	2231
303.576	3341
303.632	3111
303.687	4912
303.743	11168
303.798	10317
303.853	5270
303.909	3059
303.964	3096
304.020	3324
304.075	3888
304.130	3258
304.186	5329
304.241	6648
304.297	5445
304.352	3234
304.358	3223
304.407	3129
304.449	2979
304.463	2928
304.518	2767
304.539	2522
304.573	2107
304.629	3271
304.630	3277
304.684	3847
304.720	7743
304.739	9566
304.794	12793
304.811	11230
304.850	7404
304.902	4628
304.905	4464
304.960	3720
304.992	3406
305.015	3131
305.071	3468
305.083	3378
305.126	3045
305.173	2636
305.181	2596
305.236	2714
305.264	2671
305.292	2558
305.347	3444
305.354	3580
305.402	4606
305.445	3995
305.457	3760
305.512	4793
305.535	4474
305.567	4179
305.622	4092
305.626	4160
305.678	7493
305.716	12785
305.733	13817
305.788	13966
305.807	12224
305.843	10796
305.897	14484
305.898	14498
305.953	13686
305.988	9099
306.008	7031
306.063	5099
306.078	4860
306.118	4433
306.168	3328
306.173	3253
306.228	3779
306.259	3922
306.283	4075
306.338	4023
306.349	4166
306.393	4706
306.440	4541
306.448	4509
306.503	4657
306.530	4875
306.558	6091
306.613	8399
306.620	8844
306.668	12029
306.711	15754
306.723	15573
306.778	11251
306.801	8905
306.833	7218
306.888	4868
306.892	4758
306.943	4496
306.982	4474
306.997	4468
307.052	5151
307.072	4881
307.107	4698
307.162	5499
307.163	5498
307.217	6686
307.253	7414
307.272	7438
307.327	7183
307.343	6981
307.381	6995
307.434	7296
307.436	7495
307.491	11743
307.524	14896
307.546	14775
307.600	13803
307.614	12975
307.655	10114
307.704	7294
307.710	7390
307.765	8566
307.795	9616
307.819	10598
307.874	13100
307.885	13477
307.929	13804
307.975	13954
307.984	14984
308.038	22850
308.065	26854
308.093	48892
308.148	98766
308.156	108104
308.202	141895
308.246	163566
308.257	155509
308.312	85506
308.336	56007
308.366	43082
308.421	25910
308.426	24424
308.475	19293
308.517	15483
308.530	14915
308.585	13783
308.607	13263
308.639	13573
308.694	14647
308.697	14654
308.748	18705
308.787	22505
308.803	22184
308.857	19925
308.877	18830
308.912	20485
308.967	24081
308.967	24074
309.021	35892
309.058	44384
309.076	54747
309.130	87718
309.148	99008
309.185	155830
309.238	246707
309.239	247534
309.293	250959
309.328	237017
309.348	208895
309.402	120216
309.418	95985
309.457	75098
309.508	51876
309.511	52065
309.566	56018
309.598	59045
309.620	71527
309.674	105230
309.688	113740
309.729	105462
309.778	89755
309.783	87763
309.837	60695
309.868	45306
309.892	44433
309.946	43348
309.959	43269
310.001	44421
310.049	44981
310.055	43462
310.109	28069
310.139	19428
310.163	17343
310.218	13747
310.229	12998
310.272	12494
310.319	11892
310.326	11763
310.381	10373
310.409	9871
310.435	9916
310.489	9772
310.499	9719
310.543	9729
310.589	9772
310.598	9802
310.652	9694
310.679	9686
310.706	9543
310.760	8892
310.769	8788
310.814	8879
310.859	8997
310.868	9032
310.923	8896
310.948	8815
310.977	9176
311.031	9844
311.038	9924
311.085	9328
311.128	8383
311.139	8530
311.193	9480
311.218	9771
311.247	9515
311.301	9123
311.308	9037
311.356	8944
311.398	8764
311.410	8804
311.464	8760
311.488	8777
311.518	9043
311.572	9478
311.578	9486
311.626	9993
311.668	10324
311.680	10363
311.734	10456
311.758	10444
311.788	10358
311.842	10115
311.847	10053
311.896	12052
311.937	13725
311.950	13552
312.004	12564
312.027	12072
312.058	11393
312.112	10116
312.117	9952
312.165	9438
312.207	8938
312.297	11506
312.386	9410
312.476	10453
312.566	12560
312.656	10332
312.745	10178
312.835	10836
312.925	10564
313.015	11007
313.104	11506
313.194	12122
313.284	12129
313.374	13794
313.463	12760
313.553	13617
313.643	13322
313.732	14410
313.822	13919
313.912	15578
314.001	16820
314.091	18166
314.180	18586
314.270	18616
314.360	17863
314.449	17940
314.539	15710
314.628	17049
314.718	17007
314.808	17831
314.897	18424
314.987	19580
315.076	20828
315.166	21081
315.255	19572
315.345	19619
315.434	19710
315.524	19311
315.613	22114
315.703	30215
315.792	79014
315.881	261971
315.971	75290
316.060	29784
316.150	25200
316.239	24641
316.328	18241
316.418	19303
316.507	20352
316.597	23195
316.686	23643
316.775	23814
316.865	25729
316.954	18022
317.043	16433
317.133	16164
317.222	15222
317.311	13810
317.400	14047
317.490	18094
317.579	19535
317.668	22572
317.757	38159
317.847	128416
317.936	362919
318.025	109271
318.114	111969
318.203	47478
318.293	25699
318.382	40222
318.471	37287
318.560	38839
318.649	52056
318.738	20699
318.828	16380
318.917	13866
319.006	14579
319.095	23594
319.184	56726
319.273	30134
319.362	19311
319.451	13509
319.540	12943
319.629	17862
319.718	21905
319.807	16130
319.896	25285
319.985	69169
320.074	25613
320.163	15630
320.252	17394
320.341	17436
320.430	17977
320.519	20303
320.608	18184
320.697	20577
320.786	21275
320.875	25871
320.964	29102
321.053	32351
321.142	37882
321.230	40730
321.319	42021
321.408	57530
321.497	41397
321.586	37430
321.675	35064
321.764	35040
321.852	31993
321.941	38833
322.030	34411
322.119	40140
322.207	55677
322.296	50684
322.385	49391
322.474	56380
322.562	72442
322.651	47713
322.740	39784
322.829	38280
322.917	34641
323.006	28503
323.095	27781
323.183	24705
323.272	28374
323.361	32335
323.449	58221
323.538	26154
323.626	44482
323.715	27826
323.804	20545
323.892	39464
323.981	23313
324.069	17448
324.158	27030
324.246	23338
324.335	17403
324.424	20350
324.512	14512
324.601	15817
324.689	16464
324.778	19885
324.866	19528
324.954	14128
325.043	13893
325.131	15739
325.220	20577
325.308	20997
325.397	18778
325.485	15107
325.574	11865
325.662	11884
325.750	12637
325.839	12813
325.927	12473
326.015	13822
326.104	14646
326.192	15436
326.280	11847
326.369	12359
326.457	13484
326.545	17023
326.634	11532
326.722	12176
326.810	11787
326.898	14845
326.987	16210
327.075	18198
327.163	16483
327.251	14313
327.340	16661
327.428	21467
327.516	21664
327.604	19129
327.692	15142
327.781	13793
327.869	14057
327.957	13228
328.045	12175
328.133	11462
328.221	10295
328.309	11494
328.397	12158
328.485	13849
328.574	23253
328.662	39975
328.750	24406
328.838	16758
328.926	13204
329.014	11264
329.102	12302
329.190	18932
329.278	14301
329.366	10947
329.454	10561
329.542	10335
329.630	10331
329.718	10622
329.806	11662
329.893	11013
329.981	11090
330.069	10932
330.157	11537
330.245	14692
330.333	11722
330.421	10933
330.509	13697
330.597	27456
330.684	18799
330.772	13726
330.860	14623
330.948	17325
331.036	12814
331.123	11643
331.211	12233
331.299	13452
331.387	16923
331.475	20339
331.562	13624
331.650	12772
331.738	11983
331.825	13397
331.913	11574
332.001	12111
332.089	13110
332.176	15799
332.264	22698
332.352	19393
332.439	13489
332.527	12839
332.614	11830
332.702	13748
332.790	12957
332.877	17907
332.965	32258
333.052	23179
333.140	26908
333.228	55701
333.315	22244
333.403	16319
333.490	22818
333.578	31418
333.665	82068
333.753	38230
333.840	20964
333.928	21621
334.015	29521
334.103	40922
334.190	82591
334.278	53210
334.365	60824
334.452	57386
334.540	44023
334.627	44870
334.715	55016
334.802	80290
334.889	155118
334.977	165407
335.064	87317
335.151	50416
335.239	38863
335.326	34812
335.413	58967
335.501	63835
335.588	35877
335.675	38711
335.762	50380
335.850	66908
335.937	91385
336.024	142393
336.111	233026
336.199	169458
336.286	84730
336.373	52124
336.460	36955
336.547	30245
336.635	25462
336.722	23342
336.809	19914
336.896	21292
336.983	32133
337.070	54541
337.157	72308
337.245	50818
337.332	36949
337.419	20009
337.506	18047
337.593	18511
337.680	27643
337.767	47950
337.854	20492
337.941	22254
338.028	22648
338.115	16672
338.202	17525
338.289	23119
338.376	42813
338.463	20568
338.550	33836
338.637	32112
338.724	18477
338.811	19121
338.898	13847
338.984	13250
339.071	12894
339.158	15264
339.245	19644
339.332	16214
339.419	17219
339.506	15723
339.593	11720
339.679	13620
339.766	13353
339.853	15064
339.940	17176
340.027	13033
340.113	12977
340.200	13526
340.287	12261
340.374	13876
340.460	15365
340.547	12516
340.634	14247
340.720	29578
340.807	18783
340.894	12200
340.980	13481
341.067	11868
341.154	12968
341.240	15173
341.327	19637
341.414	13742
341.500	12650
341.587	13390
341.674	12758
341.760	15943
341.847	16918
341.933	12527
342.020	10979
342.106	11943
342.193	12656
342.279	14136
342.366	13359
342.452	15956
342.539	12131
342.625	18824
342.712	28149
342.798	17018
342.885	12253
342.971	11266
343.058	9928
343.144	10905
343.230	11447
343.317	11407
343.403	10399
343.490	10572
343.576	10450
343.662	11960
343.749	10980
343.835	12774
343.921	16728
344.008	60412
344.094	109061
344.180	27986
344.267	15884
344.353	37517
344.439	33195
344.525	19022
344.612	19011
344.698	18634
344.784	13557
344.870	11962
344.957	11014
345.043	14191
345.129	10533
345.215	15330
345.301	12762
345.387	10458
345.474	10357
345.560	11318
345.646	11066
345.732	10975
345.818	11376
345.904	11625
345.990	11261
346.076	12031
346.162	13434
346.249	11367
346.335	11167
346.421	12989
346.507	23236
346.593	49842
346.679	16275
346.765	16572
346.851	23530
346.937	18643
347.023	13601
347.108	13831
347.194	12353
347.280	14110
347.366	18387
347.452	49585
347.538	89014
347.624	52093
347.710	36846
347.796	15846
347.882	12990
347.967	13118
348.053	14085
348.139	12707
348.225	12158
348.311	12824
348.397	13203
348.482	15480
348.568	15712
348.654	21447
348.740	58210
348.825	62569
348.911	30101
348.997	38650
349.083	53288
349.168	16640
349.254	12952
349.340	13909
349.425	12652
349.511	14921
349.597	13957
349.682	18065
349.768	36757
349.854	21077
349.939	12605
350.025	12748
350.110	12424
350.196	11942
350.282	10912
350.367	12439
350.453	13214
350.538	13415
350.624	12320
350.709	12882
350.795	11484
350.880	12025
350.966	12939
351.051	13588
351.137	11602
351.222	11966
351.308	18448
351.393	31456
351.479	14598
351.564	12406
351.649	12518
351.735	11599
351.820	10946
351.906	12274
351.991	12475
352.076	24048
352.162	28588
352.247	13342
352.332	12116
352.418	15046
352.503	15999
352.588	40095
352.673	30233
352.759	13914
352.844	11317
352.929	12209
353.014	12921
353.100	12290
353.185	12770
353.270	15891
353.355	15930
353.441	12157
353.526	11118
353.611	16622
353.696	15058
353.781	13837
353.866	10882
353.952	12217
354.037	15748
354.122	22294
354.207	21692
354.292	14057
354.377	12747
354.462	12680
354.547	12325
354.632	13860
354.717	13622
354.802	14299
354.887	11093
354.972	12540
355.057	11383
355.142	11629
355.227	13114
355.312	14794
355.397	19123
355.482	31563
355.567	19313
355.652	19738
355.737	19810
355.822	41234
355.907	31915
355.991	14709
356.076	12283
356.161	12770
356.246	12923
356.331	13893
356.416	18644
356.501	70382
356.585	61750
356.670	18147
356.755	17613
356.840	18539
356.924	49352
357.009	130783
357.094	50100
357.179	20518
357.263	17144
357.348	17968
357.433	17105
357.517	17444
357.602	16613
357.687	15974
357.771	20213
357.856	40808
357.941	28251
358.025	45096
358.110	135368
358.195	60909
358.279	21442
358.364	19876
358.448	34107
358.533	68036
358.617	49123
358.702	50008
358.787	24793
358.871	19997
358.956	18041
359.040	15465
359.125	13907
359.209	15081
359.294	28793
359.378	43325
359.462	25609
359.547	16122
359.631	13309
359.716	12482
359.800	13755
359.885	15370
359.969	12866
360.053	14059
360.138	13582
360.222	14307
360.306	17162
360.391	16735
360.475	26031
360.559	38378
360.644	32415
360.728	25191
360.812	44353
360.896	91283
360.981	39514
361.065	24587
361.149	17536
361.233	16949
361.318	16312
361.402	16820
361.486	17986
361.570	17426
361.654	18693
361.739	25840
361.823	72312
361.907	95535
361.991	33932
362.075	34558
362.159	51421
362.243	78904
362.327	166320
362.411	207351
362.495	88444
362.580	49475
362.664	47553
362.748	56905
362.832	86407
362.916	172211
363.000	397233
363.084	497278
363.168	254243
363.252	85691
363.336	49565
363.420	44809
363.503	69225
363.587	71033
363.671	34372
363.755	34427
363.839	40474
363.923	40867
364.007	55252
364.091	72401
364.175	117188
364.258	255647
364.342	479674
364.426	675806
364.510	369560
364.594	136406
364.677	78920
364.761	112191
364.845	75250
364.929	38356
365.013	31490
365.096	28675
365.180	26993
365.264	37281
365.347	80924
365.431	40183
365.515	20689
365.598	18129
365.682	18617
365.766	19512
365.849	21129
365.933	19214
366.017	20649
366.100	18946
366.184	17235
366.267	18023
366.351	16905
366.435	16513
366.518	15026
366.602	16802
366.685	16560
366.769	17191
366.852	20081
366.936	22748
367.019	18923
367.103	18378
367.186	22047
367.270	17699
367.353	16554
367.436	19946
367.520	19138
367.603	20202
367.687	19970
367.770	24114
367.853	20897
367.937	35866
368.020	46765
368.104	19953
368.187	20335
368.270	22939
368.353	20191
368.437	22018
368.520	31685
368.603	24962
368.687	34173
368.770	51549
368.853	20462
368.936	20512
369.020	19875
369.103	14821
369.186	14326
369.269	14666
369.352	17645
369.436	19009
369.519	16468
369.602	12725
369.685	16115
369.768	13981
369.851	14625
369.934	13829
370.018	14429
370.101	17921
370.184	18042
370.267	17310
370.350	19972
370.433	27556
370.516	77315
370.599	163643
370.682	73144
370.765	38118
370.848	41138
370.931	64348
371.014	30848
371.097	16380
371.180	16684
371.263	15552
371.346	14208
371.429	15297
371.511	14936
371.594	17734
371.677	20646
371.760	23551
371.843	23318
371.926	64675
372.009	112033
372.091	47926
372.174	37689
372.257	67427
372.340	34691
372.423	29272
372.505	30398
372.588	21180
372.671	31203
372.754	63899
372.836	37990
372.919	35037
373.002	48800
373.085	24507
373.167	24308
373.250	37852
373.332	65100
373.415	89077
373.498	151727
373.580	87584
373.663	223898
373.746	216992
373.828	48816
373.911	27293
373.993	25718
374.076	50273
374.159	44997
374.241	30246
374.324	56163
374.406	43238
374.489	60091
374.571	128082
374.654	55992
374.736	40405
374.819	86005
374.901	117582
374.983	112699
375.066	35851
375.148	25933
375.231	48082
375.313	71257
375.395	36477
375.478	23709
375.560	24216
375.643	24206
375.725	42456
375.807	104194
375.890	75732
375.972	34532
376.054	27825
376.136	30540
376.219	22736
376.301	42339
376.383	88116
376.465	39554
376.548	27567
376.630	35149
376.712	75951
376.794	39040
376.877	16541
376.959	13675
377.041	15986
377.123	19146
377.205	19765
377.287	13825
377.369	15680
377.452	14863
377.534	15074
377.616	15598
377.698	15185
377.780	14642
377.862	15216
377.944	15498
378.026	14197
378.108	15610
378.190	14459
378.272	14868
378.354	14429
378.436	13189
378.518	16878
378.600	24375
378.682	24073
378.764	40586
378.846	31663
378.928	18525
379.010	19255
379.091	17147
379.173	15269
379.255	13912
379.337	15616
379.419	27700
379.501	53137
379.583	26448
379.664	17151
379.746	20687
379.828	40562
379.910	49428
379.991	43888
380.073	16701
380.155	16578
380.237	15172
380.318	15803
380.400	15766
380.482	19793
380.564	20720
380.645	20933
380.727	19308
380.809	18192
380.890	16162
380.972	15373
381.053	16131
381.135	18092
381.217	23745
381.298	41670
381.380	27416
381.461	27730
381.543	79540
381.624	89075
381.706	27187
381.787	22336
381.869	24827
381.951	48783
382.032	118890
382.113	78323
382.195	29856
382.276	30588
382.358	42417
382.439	78226
382.521	93949
382.602	128293
382.684	85589
382.765	144604
382.846	277759
382.928	484151
383.009	293834
383.090	259310
383.172	647620
383.253	762738
383.334	297534
383.416	179370
383.497	121893
383.578	121391
383.659	231510
383.741	597059
383.822	972676
383.903	551323
383.984	204113
384.066	167895
384.147	105584
384.228	54999
384.309	48755
384.390	45101
384.471	39283
384.553	37052
384.634	35950
384.715	35961
384.796	31942
384.877	34248
384.958	53835
385.039	56113
385.120	33468
385.201	28517
385.282	30419
385.363	35732
385.444	40018
385.525	45461
385.606	74181
385.687	63906
385.768	35934
385.849	37262
385.930	75419
386.011	105353
386.092	46054
386.173	32914
386.254	29032
386.335	28934
386.416	29235
386.496	40739
386.577	50596
386.658	33143
386.739	29312
386.820	30900
386.901	30656
386.981	32979
387.062	36048
387.143	41717
387.224	62123
387.304	60771
387.385	46917
387.466	42753
387.547	45699
387.627	45882
387.708	53801
387.789	89934
387.869	94854
387.950	50950
388.031	35717
388.111	34071
388.192	39963
388.273	45152
388.353	36144
388.434	27331
388.514	33003
388.595	74169
388.676	81347
388.756	46448
388.837	41192
388.917	33662
388.998	21368
389.078	23816
389.159	22294
389.239	20341
389.320	25516
389.400	22336
389.480	30304
389.561	48042
389.641	33468
389.722	23480
389.802	25261
389.883	34400
389.963	54589
390.043	39694
390.124	24469
390.204	29389
390.284	48089
390.365	37218
390.445	48134
390.525	105350
390.605	92199
390.686	36370
390.766	26036
390.846	24813
390.927	22012
391.007	22884
391.087	26046
391.167	25129
391.247	23941
391.328	28047
391.408	30514
391.488	30323
391.568	27187
391.648	30845
391.728	33911
391.808	33578
391.888	35743
391.969	48633
392.049	58279
392.129	48462
392.209	53937
392.289	77340
392.369	63767
392.449	63391
392.529	63470
392.609	70579
392.689	83736
392.769	118163
392.849	133127
392.929	156528
393.009	232641
393.089	315470
393.169	522907
393.248	963057
393.328	1298260
393.408	1222462
393.488	890448
393.568	483232
393.648	274760
393.728	180051
393.807	127143
393.887	100908
393.967	83296
394.047	73912
394.127	66473
394.206	73955
394.286	149718
394.366	420431
394.446	420595
394.525	136148
394.605	60414
394.685	49997
394.764	60900
394.844	99042
394.924	102575
395.003	52733
395.083	38068
395.163	36318
395.242	34769
395.322	34569
395.402	32522
395.481	38578
395.561	56053
395.640	133141
395.720	207957
395.799	144118
395.879	87803
395.958	81360
396.038	198734
396.117	526161
396.197	543592
396.276	219113
396.356	116659
396.435	118121
396.515	139620
396.594	209313
396.673	399632
396.753	836598
396.832	1188880
396.912	995416
396.991	508884
397.070	239652
397.150	144242
397.229	116870
397.308	179986
397.388	284860
397.467	152429
397.546	64862
397.625	45168
397.705	43628
397.784	38058
397.863	34033
397.942	30898
398.022	29560
398.101	36982
398.180	59546
398.259	39187
398.338	27267
398.417	23521
398.497	21479
398.576	22417
398.655	19077
398.734	20120
398.813	20247
398.892	30234
398.971	57401
399.050	34436
399.129	17957
399.208	17187
399.287	17221
399.366	16616
399.445	16184
399.524	16746
399.603	14708
399.682	18394
399.761	27715
399.840	57613
399.919	45913
399.998	16931
400.077	14018
400.156	13619
400.235	16663
400.313	13712
400.392	14853
400.471	26461
400.550	32689
400.629	16189
400.708	13758
400.786	12627
400.865	18384
400.944	18036
401.023	16660
401.102	11311
401.180	12176
401.259	12215
401.338	12465
401.416	13422
401.495	11962
401.574	12899
401.652	10930
401.731	12996
401.810	10926
401.888	10378
401.967	10251
402.046	11104
402.124	11553
402.203	12562
402.281	11738
402.360	12056
402.438	18892
402.517	15146
402.596	10906
402.674	11490
402.753	10876
402.831	11359
402.910	12077
402.988	16597
403.066	33149
403.145	23946
403.223	19814
403.302	28440
403.380	25619
403.459	23374
403.537	17782
403.615	14964
403.694	12240
403.772	13826
403.850	13918
403.929	12693
404.007	12183
404.085	14709
404.164	14031
404.242	14206
404.320	28651
404.398	63614
404.477	65179
404.555	98487
404.633	86744
404.711	51535
404.789	34489
404.868	14207
404.946	11950
405.024	11197
405.102	10482
405.180	8792
405.258	9223
405.336	10393
405.415	9689
405.493	13100
405.571	12641
405.649	10011
405.727	10754
405.805	14191
405.883	13501
405.961	13557
406.039	12769
406.117	10561
406.195	13202
406.273	27616
406.351	73271
406.429	45668
406.507	13401
406.585	10173
406.663	10472
406.740	12074
406.818	10500
406.896	9230
406.974	10725
407.052	12813
407.130	46360
407.208	57971
407.285	19477
407.363	9728
407.441	10581
407.519	10660
407.596	13955
407.674	32513
407.752	97605
407.830	75114
407.907	20578
407.985	10971
408.063	11101
408.141	8824
408.218	11218
408.296	10710
408.373	12129
408.451	12917
408.529	13576
408.606	12108
408.684	14138
408.762	12319
408.839	14077
408.917	15494
408.994	16939
409.072	19124
409.149	24187
409.227	36213
409.304	51468
409.382	58956
409.459	65352
409.537	79337
409.614	76192
409.692	63540
409.769	62968
409.846	81340
409.924	96304
410.001	78891
410.079	57654
410.156	44561
410.233	34121
410.311	29235
410.388	24870
410.465	23351
410.543	21996
410.620	21152
410.697	20885
410.775	20261
410.852	18888
410.929	21220
411.006	22071
411.083	18777
411.161	21024
411.238	20611
411.315	17621
411.392	15854
411.469	16688
411.547	15710
411.624	13667
411.701	12721
411.778	14265
411.855	15727
411.932	12925
412.009	11047
412.086	12184
412.163	12246
412.240	12334
412.317	12944
412.394	12127
412.471	11543
412.548	10327
412.625	10041
412.702	10703
412.779	12349
412.856	10995
412.933	9488
413.010	11487
413.087	11792
413.164	21574
413.241	25497
413.318	12558
413.395	11585
413.471	11832
413.548	10186
413.625	9399
413.702	9174
413.779	8608
413.855	8891
413.932	8334
414.009	7702
414.086	8444
414.162	9689
414.239	10032
414.316	19856
414.393	35457
414.469	16958
414.546	8483
414.623	7867
414.699	7975
414.776	8049
414.853	7571
414.929	8178
415.006	7921
415.082	8591
415.159	8172
415.236	8002
415.312	9007
415.389	9648
415.465	10295
415.542	8258
415.618	7861
415.695	9974
415.771	8016
415.848	8475
415.924	8371
416.000	7428
416.077	9127
416.153	6396
416.230	7558
416.306	7438
416.383	8260
416.459	8214
416.535	7861
416.612	7715
416.688	8039
416.764	8144
416.841	8513
416.917	8431
416.993	9205
417.069	8552
417.146	9826
417.222	11597
417.298	9754
417.374	7447
417.451	8639
417.527	8224
417.603	9306
417.679	8360
417.755	8851
417.831	7465
417.908	8341
417.984	7911
418.060	7207
418.136	11066
418.212	10916
418.288	8527
418.364	8178
418.440	8655
418.516	9923
418.592	9892
418.668	13096
418.744	14473
418.820	12972
418.896	9174
418.972	7947
419.048	9619
419.124	11953
419.200	10534
419.276	9974
419.352	8743
419.428	10188
419.504	10151
419.579	11024
419.655	11414
419.731	10839
419.807	15389
419.883	18818
419.959	16518
420.034	13585
420.110	16281
420.186	29561
420.262	24752
420.337	15786
420.413	15734
420.489	15715
420.565	17312
420.640	17119
420.716	17683
420.792	17892
420.867	19561
420.943	19950
421.019	22598
421.094	23041
421.170	23463
421.245	25392
421.321	26704
421.397	30695
421.472	47771
421.548	81313
421.623	64389
421.699	47445
421.774	50619
421.850	55760
421.925	66485
422.001	77546
422.076	93527
422.152	118684
422.227	153586
422.302	212146
422.378	303100
422.453	454207
422.529	606186
422.604	538406
422.679	365778
422.755	525667
422.830	597353
422.905	452727
422.981	316659
423.056	225771
423.131	168369
423.207	129370
423.282	104774
423.357	89111
423.432	72680
423.508	65786
423.583	58874
423.658	52814
423.733	44103
423.808	42418
423.883	41704
423.959	44806
424.034	49224
424.109	45154
424.184	34020
424.259	28171
424.334	25613
424.409	22956
424.484	20799
424.559	20696
424.634	18538
424.709	18183
424.784	19054
424.859	17186
424.934	17095
425.009	26255
425.084	31744
425.159	20281
425.234	14601
425.309	13095
425.384	19349
425.459	23025
425.534	15022
425.609	12342
425.683	12066
425.758	12193
425.833	11684
425.908	12746
425.983	17711
426.058	28539
426.132	17204
426.207	11192
426.282	12890
426.357	12051
426.431	10082
426.506	10323
426.581	8956
426.655	9744
426.730	9724
426.805	8925
426.879	10244
426.954	9386
427.029	11732
427.103	30709
427.178	58457
427.253	29188
427.327	10729
427.402	13354
427.476	19666
427.551	13473
427.625	9914
427.700	9580
427.774	8804
427.849	11140
427.923	10257
427.998	11668
428.072	14980
428.147	31138
428.221	119359
428.296	281453
428.370	158299
428.444	32958
428.519	18424
428.593	20181
428.667	18371
428.742	24512
428.816	52177
428.890	191825
428.965	258888
429.039	77978
429.113	25306
429.188	15029
429.262	11718
429.336	13135
429.410	17605
429.485	15727
429.559	15655
429.633	15799
429.707	18274
429.781	47754
429.855	185191
429.930	236950
430.004	86961
430.078	77914
430.152	158663
430.226	374407
430.300	343581
430.374	101365
430.448	35032
430.522	34583
430.596	56638
430.670	85276
430.744	237701
430.818	246296
430.892	55392
430.966	16756
431.040	10858
431.114	9388
431.188	8300
431.262	8181
431.336	8063
431.410	11954
431.484	15980
431.557	15395
431.631	12847
431.705	24142
431.779	96811
431.853	268985
431.927	178017
432.000	35045
432.074	13593
432.148	9791
432.222	7651
432.295	6741
432.369	5902
432.443	8021
432.516	28098
432.590	55642
432.664	22546
432.737	6833
432.811	4504
432.885	4884
432.958	5349
433.032	4447
433.106	4469
433.179	4971
433.253	4751
433.326	4347
433.400	4578
433.473	4969
433.547	4501
433.620	5379
433.694	5782
433.767	6947
433.841	5816
433.914	5099
433.988	6409
434.061	5873
434.134	5455
434.208	5915
434.281	4731
434.355	4894
434.428	5424
434.501	6019
434.575	5036
434.648	6352
434.721	5775
434.795	6485
434.868	5328
434.941	6455
435.014	6543
435.088	8725
435.161	10250
435.234	14484
435.307	15755
435.381	17843
435.454	23637
435.527	35666
435.600	40582
435.673	35688
435.746	28242
435.819	21875
435.892	17740
435.966	13936
436.039	11785
436.112	10539
436.185	8746
436.258	8199
436.331	7170
436.404	7736
436.477	6098
436.550	6343
436.623	5320
436.696	6004
436.769	5887
436.842	5700
436.915	5120
436.987	6508
437.060	4989
437.133	5350
437.206	4617
437.279	5102
437.352	4080
437.425	5310
437.498	5232
437.570	7043
437.643	5172
437.716	4404
437.789	4128
437.861	5869
437.934	8599
438.007	5415
438.080	4431
438.152	5270
438.225	8454
438.298	35813
438.370	79296
438.443	31889
438.516	8664
438.588	5454
438.661	4133
438.734	5543
438.806	4803
438.879	5660
438.951	5224
439.024	6478
439.096	4586
439.169	4140
439.241	3720
439.314	4731
439.386	4499
439.459	6114
439.531	6771
439.604	4954
439.676	4716
439.749	4746
439.821	4005
439.893	4573
439.966	4580
440.038	5140
440.110	4955
440.183	4671
440.255	4240
440.327	6904
440.400	16725
440.472	47492
440.544	29867
440.617	7182
440.689	7200
440.761	7665
440.833	8104
440.905	6914
440.978	4671
441.050	4539
441.122	5720
441.194	5656
441.266	4730
441.338	5406
441.411	7437
441.483	17692
441.555	21610
441.627	8346
441.699	7442
441.771	7338
441.843	6978
441.915	7442
441.987	7074
442.059	8823
442.131	9509
442.203	13270
442.275	17866
442.347	28039
442.419	69064
442.491	253499
442.563	422152
442.635	183826
442.706	51158
442.778	28002
442.850	17157
442.922	16093
442.994	15297
443.066	19141
443.137	21976
443.209	29876
443.281	46638
443.353	99587
443.425	291792
443.496	610919
443.568	617854
443.640	284748
443.711	79655
443.783	37469
443.855	23653
443.926	17465
443.998	15482
444.070	13200
444.141	11737
444.213	11679
444.285	11475
444.356	11669
444.428	10879
444.499	10932
444.571	9877
444.642	11105
444.714	11423
444.785	14092
444.857	15079
444.928	19860
445.000	19310
445.071	24404
445.143	32195
445.214	46775
445.285	79850
445.357	190312
445.428	466959
445.500	662191
445.571	602909
445.642	408026
445.714	157408
445.785	61284
445.856	31047
445.928	22951
445.999	16514
446.070	14194
446.141	12032
446.213	10935
446.284	9437
446.355	8042
446.426	7884
446.497	6904
446.569	6650
446.640	7636
446.711	6691
446.782	5646
446.853	5776
446.924	4910
446.995	4706
447.066	5424
447.138	5667
447.209	4886
447.280	3843
447.351	3842
447.422	3375
447.493	4680
447.564	4044
447.635	4722
447.706	3839
447.777	3946
447.847	3061
447.918	3269
447.989	3989
448.060	4568
448.131	5906
448.202	5989
448.273	4075
448.344	4117
448.414	3524
448.485	3644
448.556	3270
448.627	3565
448.698	3195
448.768	2693
448.839	2869
448.910	3552
448.981	4019
449.051	3342
449.122	3540
449.193	2988
449.263	2845
449.334	3203
449.405	3665
449.475	6085
449.546	4961
449.616	5916
449.687	6105
449.758	4311
449.828	2483
449.899	3098
449.969	3325
450.040	3332
450.110	2995
450.181	3924
450.251	2773
450.322	2988
450.392	3260
450.463	3288
450.533	3272
450.604	3878
450.674	3062
450.744	5976
450.815	5315
450.885	5942
450.955	5853
451.026	6081
451.096	5102
451.166	5766
451.237	8158
451.307	13337
451.377	7283
451.447	5162
451.518	3948
451.588	3432
451.658	3337
451.728	4654
451.799	9285
451.869	9426
451.939	4064
452.009	4164
452.079	2342
452.149	4887
452.219	4790
452.289	11365
452.360	8935
452.430	6027
452.500	9259
452.570	15397
452.640	33794
452.710	74728
452.780	79977
452.850	44328
452.920	24243
452.990	14141
453.060	9433
453.129	8124
453.199	7441
453.269	14527
453.339	21065
453.409	27640
453.479	30420
453.549	40394
453.619	38482
453.688	13862
453.758	4780
453.828	4130
453.898	3534
453.968	3690
454.037	2660
454.087	3041
454.107	3193
454.168	2656
454.177	2567
454.247	3340
454.249	3306
454.316	2205
454.330	2434
454.386	3280
454.411	4061
454.456	5322
454.492	6088
454.525	6769
454.574	4902
454.595	4111
454.655	3597
454.665	3500
454.734	3525
454.736	3583
454.804	5306
454.817	6019
454.873	8848
454.898	8787
454.943	8763
454.979	6297
455.013	4016
455.060	3618
455.082	3469
455.141	3404
455.152	3382
455.221	7493
455.222	7558
455.291	11173
455.303	11441
455.360	12264
455.384	15797
455.430	21954
455.465	16290
455.499	10999
455.546	9096
455.569	8257
455.627	5542
455.638	5010
455.707	2797
455.708	2812
455.777	3445
455.789	3420
455.846	3343
455.869	3281
455.916	3117
455.950	3462
455.985	3706
456.031	3561
456.054	3495
456.112	2689
456.124	2520
456.193	3258
456.193	3245
456.262	3355
456.274	3529
456.332	4124
456.355	4008
456.401	3862
456.436	4130
456.470	4278
456.516	3869
456.540	3713
456.597	3689
456.609	3647
456.678	3733
456.678	3720
456.747	4325
456.759	4282
456.817	3893
456.840	3948
456.886	4177
456.920	4343
456.955	4365
457.001	4228
457.024	4221
457.082	4955
457.093	5034
457.162	6362
457.163	6372
457.232	5701
457.243	5739
457.301	5593
457.324	5187
457.370	4846
457.405	5843
457.439	6643
457.485	6569
457.508	6730
457.566	8255
457.577	8954
457.646	14431
457.647	14540
457.715	31195
457.727	35390
457.784	55906
457.808	76805
457.853	106410
457.889	122468
457.922	130277
457.969	89938
457.991	82012
458.050	89581
458.060	90851
458.129	165013
458.130	166763
458.198	185976
458.211	166143
458.267	92025
458.292	67595
458.336	42468
458.372	40981
458.405	50900
458.453	74495
458.474	87289
458.533	150610
458.543	155625
458.611	258513
458.614	258471
458.680	179894
458.694	147180
458.749	63216
458.775	46554
458.818	25815
458.855	19985
458.887	16217
458.936	13156
458.955	11982
459.016	10227
459.024	10108
459.093	9136
459.097	9088
459.162	7500
459.177	7499
459.230	7717
459.257	7488
459.299	7355
459.338	7701
459.368	7575
459.418	7118
459.437	7143
459.499	6785
459.505	6691
459.574	6791
459.579	6796
459.643	6933
459.659	6724
459.711	6219
459.740	6476
459.780	6745
459.820	6417
459.849	6148
459.900	6599
459.917	6796
459.981	6750
459.986	6717
460.054	7064
460.061	7054
460.123	6933
460.141	6903
460.191	7035
460.222	7184
460.260	7599
460.302	8501
460.328	8576
460.382	8059
460.397	8065
460.462	8152
460.465	8432
460.534	15032
460.543	15960
460.602	32383
460.623	39407
460.671	56056
460.703	76758
460.739	74058
460.783	52480
460.808	45184
460.864	13703
460.876	9776
460.944	7326
460.945	7277
461.013	6126
461.024	5810
461.081	5527
461.104	5960
461.150	6133
461.184	5774
461.218	5880
461.264	6162
461.286	6047
461.345	5819
461.355	5809
461.423	5873
461.425	5866
461.491	5698
461.505	5756
461.559	6544
461.585	6802
461.628	7605
461.665	8903
461.696	9243
461.745	10277
461.764	10012
461.825	6291
461.832	6237
461.901	6136
461.905	6223
461.969	5526
461.985	5251
462.037	5937
462.065	6458
462.105	6413
462.145	6221
462.173	6408
462.225	6966
462.241	7124
462.305	8058
462.310	8067
462.378	8098
462.385	7969
462.446	6565
462.465	6334
462.514	6881
462.545	7107
462.582	6250
462.625	5494
462.650	5756
462.705	6012
462.718	5930
462.785	6026
462.786	6037
462.854	6051
462.865	6105
462.922	6432
462.945	6661
462.990	6825
463.025	6555
463.058	6386
463.104	6364
463.126	6121
463.184	5626
463.194	5711
463.262	5689
463.264	5714
463.330	6441
463.344	6575
463.398	6922
463.424	6723
463.466	6029
463.504	5989
463.533	6372
463.583	6702
463.601	6659
463.663	6405
463.669	6362
463.737	5877
463.743	5841
463.805	8073
463.823	8765
463.873	9257
463.903	9506
463.940	9501
463.982	9900
464.008	9431
464.062	7120
464.076	7075
464.142	7416
464.144	7393
464.211	6143
464.221	6004
464.279	6375
464.301	6527
464.347	6142
464.381	5792
464.414	5862
464.461	6027
464.482	6250
464.540	7007
464.550	7011
464.617	6484
464.620	6472
464.685	7297
464.699	7404
464.753	8307
464.779	8879
464.820	8903
464.859	8857
464.888	8531
464.938	7850
464.956	8046
465.018	8782
465.023	8749
465.091	7934
465.098	7862
465.158	7123
465.177	6950
465.226	7690
465.257	7950
465.293	7774
465.336	7757
465.361	8077
465.416	8623
465.428	8597
465.495	8551
465.496	8576
465.563	10759
465.575	11165
465.631	11718
465.654	11949
465.698	10393
465.734	8853
465.765	8211
465.813	7163
465.833	7397
465.893	8368
465.900	8306
465.968	7620
465.972	7563
466.035	8322
466.052	8488
466.102	7885
466.131	7566
466.170	7768
466.210	7928
466.237	7958
466.290	8070
466.304	8107
466.369	8037
466.372	8042
466.439	7941
466.449	7903
466.506	8131
466.528	8211
466.573	9335
466.607	10158
466.641	11580
466.687	13536
466.708	13794
466.766	14598
466.775	14162
466.842	10496
466.845	10308
466.909	8310
466.925	7854
466.977	9037
467.004	9651
467.044	9561
467.083	9451
467.111	10135
467.163	11369
467.178	11528
467.242	12112
467.245	12093
467.312	11322
467.321	11204
467.379	10379
467.400	10053
467.446	10815
467.480	11338
467.559	11112
467.638	10764
467.717	10481
467.796	12145
467.875	12467
467.955	12772
468.034	15636
468.113	20098
468.192	24255
468.271	23405
468.350	30184
468.429	38923
468.508	39343
468.588	26030
468.667	16972
468.746	14741
468.825	12388
468.904	12207
468.983	11044
469.062	12628
469.141	12782
469.220	9648
469.299	9724
469.378	10376
469.456	12643
469.535	12433
469.614	11009
469.693	10659
469.772	12591
469.851	12967
469.930	12117
470.009	12187
470.088	12772
470.166	16678
470.245	21128
470.324	23326
470.403	16785
470.482	14278
470.560	11420
470.639	11171
470.718	11689
470.797	11366
470.875	10871
470.954	11156
471.033	11680
471.111	10310
471.190	9657
471.269	9149
471.347	9193
471.426	10112
471.505	10158
471.583	11434
471.662	11152
471.740	11102
471.819	9171
471.898	10385
471.976	11179
472.055	10002
472.133	10539
472.212	12858
472.290	10628
472.369	9824
472.447	9447
472.526	9666
472.604	10340
472.683	10693
472.761	9580
472.839	10857
472.918	10495
472.996	10261
473.075	10413
473.153	11431
473.231	9713
473.310	11081
473.388	10412
473.466	10556
473.545	11093
473.623	11805
473.701	11003
473.780	11505
473.858	9248
473.936	12855
474.014	10692
474.093	11927
474.171	12779
474.249	13512
474.327	10940
474.405	10330
474.484	11062
474.562	11115
474.640	9224
474.718	10923
474.796	9824
474.874	10770
474.952	8994
475.030	10190
475.108	9013
475.187	9805
475.265	10166
475.343	11111
475.421	11987
475.499	10026
475.577	10141
475.655	11602
475.733	12933
475.811	15585
475.889	13194
475.966	12436
476.044	9687
476.122	10063
476.200	10162
476.278	9533
476.356	9508
476.434	9957
476.512	10311
476.590	10890
476.667	10035
476.745	9662
476.823	9639
476.901	10367
476.979	9454
477.056	10302
477.134	10024
477.212	10806
477.290	10038
477.367	9057
477.445	9675
477.523	9138
477.601	9290
477.678	9963
477.756	9194
477.834	9705
477.911	9506
477.989	8706
478.066	8789
478.144	10541
478.222	9372
478.299	10932
478.377	11236
478.454	10519
478.532	8629
478.609	8924
478.687	8738
478.764	10069
478.842	8887
478.919	9250
478.997	9556
479.074	8925
479.152	10113
479.229	10594
479.307	8497
479.384	9544
479.461	9584
479.539	9473
479.616	8373
479.694	9674
479.771	8956
479.848	9817
479.926	9484
480.003	11171
480.080	9231
480.157	10467
480.235	8945
480.312	9928
480.389	10149
480.467	11206
480.544	11723
480.621	11548
480.698	12065
480.775	11508
480.853	10079
480.930	9642
481.007	11500
481.084	12103
481.161	14930
481.238	12368
481.315	9547
481.392	10314
481.470	10213
481.547	10178
481.624	9956
481.701	10799
481.778	10660
481.855	11131
481.932	13010
482.009	15379
482.086	13802
482.163	16101
482.240	17821
482.317	17245
482.393	15565
482.470	14719
482.547	14391
482.624	12941
482.701	13328
482.778	12884
482.855	12426
482.932	12796
483.009	12910
483.085	16900
483.162	18805
483.239	19245
483.316	17984
483.393	17300
483.469	15826
483.546	15541
483.623	13387
483.699	12537
483.776	11303
483.853	10787
483.930	12278
484.006	17131
484.083	23004
484.160	22394
484.236	31228
484.313	25060
484.389	20717
484.466	23461
484.543	25793
484.619	31312
484.696	30978
484.772	23990
484.849	21101
484.925	19361
485.002	18476
485.078	18241
485.155	16527
485.231	16411
485.308	16199
485.384	17351
485.461	16760
485.537	18708
485.614	20909
485.690	16246
485.766	15439
485.843	15842
485.919	17253
485.995	17920
486.072	14863
486.148	15425
486.224	14427
486.301	15753
486.377	16095
486.453	14901
486.530	17709
486.606	21903
486.682	21340
486.758	22536
486.835	21638
486.911	20793
486.987	24830
487.063	26336
487.139	30661
487.215	30153
487.292	29254
487.368	30006
487.444	34579
487.520	46645
487.596	72655
487.672	192621
487.748	509615
487.824	699698
487.900	237057
487.976	74230
488.052	42566
488.128	32668
488.204	25216
488.280	23048
488.356	21461
488.432	23711
488.508	26203
488.584	18265
488.660	16504
488.736	17358
488.812	15300
488.888	18333
488.964	18936
489.039	24645
489.115	29392
489.191	21769
489.267	15811
489.343	15754
489.418	14992
489.494	14113
489.570	13046
489.646	15319
489.722	14124
489.797	15181
489.873	16834
489.949	20758
490.024	18327
490.100	14929
490.176	13911
490.251	15104
490.327	15927
490.403	14345
490.478	14431
490.554	13337
490.629	12344
490.705	14135
490.781	13969
490.856	13539
490.932	14482
491.007	13892
491.083	12825
491.158	13308
491.234	15022
491.309	17637
491.385	15437
491.460	12591
491.536	13825
491.611	12656
491.686	12408
491.762	13271
491.837	17179
491.913	22553
491.988	26998
492.063	29406
492.139	15369
492.214	12954
492.289	10911
492.365	12280
492.440	12760
492.515	11225
492.590	11659
492.666	11371
492.741	12238
492.816	13510
492.891	11576
492.967	12288
493.042	11053
493.117	12093
493.192	11770
493.267	18489
493.342	30995
493.418	35454
493.493	12887
493.568	10865
493.643	9991
493.718	11235
493.793	11600
493.868	12492
493.943	10891
494.018	11775
494.093	9776
494.168	11934
494.243	9589
494.318	11063
494.393	10351
494.468	11353
494.543	9909
494.618	10956
494.693	10713
494.768	10703
494.842	10492
494.917	11124
494.992	10636
495.067	10610
495.142	10390
495.217	11274
495.292	10967
495.366	10894
495.441	10487
495.516	12777
495.591	14850
495.665	28831
495.740	44090
495.815	23267
495.890	11208
495.964	9419
496.039	13009
496.114	14188
496.188	16942
496.263	15321
496.338	10478
496.412	11006
496.487	12652
496.561	12509
496.636	11919
496.710	11808
496.785	11864
496.860	12062
496.934	10379
497.009	11810
497.083	11623
497.158	13812
497.232	13124
497.307	13666
497.381	12443
497.455	13077
497.530	13229
497.604	12783
497.679	11400
497.753	14084
497.827	12971
497.902	12894
497.976	15554
498.050	34172
498.125	88093
498.199	79651
498.273	15505
498.348	13162
498.422	13269
498.496	14877
498.570	13813
498.645	11162
498.719	9575
498.793	13147
498.867	13654
498.941	18491
499.016	45017
499.090	86537
499.164	31641
499.238	12262
499.312	11737
499.386	13771
499.460	13420
499.534	13822
499.609	15144
499.683	14823
499.757	12911
499.831	25073
499.905	59493
499.979	51743
500.053	13538
500.127	14546
500.201	12493
500.275	12317
500.349	12082
500.422	12236
500.496	14580
500.570	23416
500.644	43736
500.718	60615
500.792	16534
500.866	11453
500.940	11326
501.013	11484
501.087	11110
501.161	13501
501.235	14355
501.309	26001
501.382	49731
501.456	43091
501.530	16026
501.603	18934
501.677	12263
501.751	8865
501.825	11922
501.898	15567
501.972	23542
502.046	17015
502.119	10587
502.193	16312
502.266	23120
502.340	15823
502.413	15720
502.487	22097
502.561	13973
502.634	11118
502.708	11279
502.781	10975
502.855	11509
502.928	9451
503.002	9910
503.075	9196
503.149	10277
503.222	10573
503.295	10770
503.369	12917
503.442	13706
503.516	25826
503.589	40957
503.662	33169
503.736	24160
503.809	35462
503.882	39919
503.956	62650
504.029	125832
504.102	304653
504.175	400878
504.249	160834
504.322	62974
504.395	34816
504.468	23467
504.542	17728
504.615	14487
504.688	14539
504.761	10392
504.834	13153
504.907	11102
504.980	12518
505.053	10351
505.127	8794
505.200	12526
505.273	10319
505.346	8662
505.419	8033
505.492	9302
505.565	7968
505.638	9368
505.711	8472
505.784	7078
505.857	7684
505.930	9267
506.003	7470
506.076	9939
506.149	8170
506.221	7065
506.294	11204
506.367	13502
506.440	29054
506.513	17219
506.586	8850
506.659	7104
506.731	7340
506.804	8184
506.877	8572
506.950	8410
507.022	8477
507.095	6383
507.168	8936
507.241	8221
507.313	7398
507.386	6424
507.459	9162
507.531	8125
507.604	7002
507.677	7789
507.749	6135
507.822	10433
507.894	11055
507.967	15306
508.040	10151
508.112	10717
508.185	9852
508.257	9008
508.330	11763
508.402	9434
508.475	9630
508.547	10206
508.620	9315
508.692	9805
508.765	9538
508.837	8894
508.909	9061
508.982	8402
509.054	9971
509.127	8967
509.199	9622
509.271	8105
509.344	8740
509.416	9365
509.488	8168
509.560	8863
509.633	9992
509.705	9372
509.777	10304
509.849	11427
509.922	9298
509.994	9590
510.066	10780
510.138	8989
510.210	17173
510.283	12599
510.355	12286
510.427	11439
510.499	10624
510.571	9896
510.643	10527
510.715	12662
510.787	10250
510.859	10950
510.931	10867
511.003	11075
511.076	12557
511.148	9627
511.219	10295
511.291	13090
511.363	12747
511.435	10277
511.507	9556
511.579	10256
511.651	11613
511.723	9023
511.795	9379
511.867	8191
511.939	10565
512.010	11006
512.082	10789
512.154	8590
512.226	10192
512.298	13780
512.369	15492
512.441	13159
512.513	13029
512.585	9775
512.656	11571
512.728	9786
512.800	11054
512.871	9691
512.943	11368
513.015	8986
513.086	10078
513.158	10635
513.230	10070
513.301	10735
513.373	12897
513.444	10066
513.516	10608
513.588	9893
513.659	10708
513.731	10109
513.802	9334
513.874	15207
513.945	15758
514.016	10503
514.088	9847
514.159	8879
514.231	12412
514.302	13595
514.374	12477
514.445	10498
514.516	16146
514.588	12182
514.659	12553
514.730	13239
514.802	13022
514.873	9335
514.944	12722
515.016	11552
515.087	11413
515.158	12262
515.229	14824
515.301	10857
515.372	11881
515.443	10113
515.514	10979
515.585	10345
515.656	13426
515.728	12325
515.799	11783
515.870	13902
515.941	15104
516.012	14048
516.083	16787
516.154	15425
516.225	18557
516.296	19731
516.367	18862
516.438	20876
516.509	25435
516.580	44002
516.651	151090
516.722	384588
516.793	145824
516.864	35166
516.935	31071
517.006	34379
517.077	49416
517.148	136850
517.219	546283
517.289	662400
517.360	116536
517.431	38028
517.502	23503
517.573	23337
517.643	22761
517.714	22557
517.785	25949
517.856	27072
517.926	33985
517.997	36279
518.068	41254
518.138	54986
518.209	104146
518.280	416705
518.350	1060006
518.421	381846
518.492	78355
518.562	62925
518.633	74892
518.703	111877
518.774	261762
518.845	585024
518.915	484498
518.986	149923
519.056	67935
519.127	50141
519.197	44851
519.268	50916
519.338	36370
519.408	23705
519.479	22796
519.549	18542
519.620	19204
519.690	16303
519.760	16043
519.831	14703
519.901	14618
519.971	15710
520.042	15714
520.112	14995
520.182	16708
520.253	15326
520.323	13565
520.393	15168
520.463	19893
520.534	13689
520.604	22095
520.674	16259
520.744	17410
520.814	23169
520.885	22289
520.955	22314
521.025	41174
521.095	20628
521.165	14093
521.235	11151
521.305	12755
521.375	13415
521.445	14877
521.515	14315
521.585	16657
521.655	13223
521.725	14864
521.795	13520
521.865	11584
521.935	15738
522.005	13099
522.075	11904
522.145	14615
522.215	13486
522.285	16243
522.355	15396
522.424	18510
522.494	16890
522.564	14613
522.634	18807
522.704	30987
522.774	16349
522.843	13791
522.913	13950
522.983	15368
523.053	13706
523.122	14862
523.192	14762
523.262	21243
523.331	18955
523.401	13533
523.471	13046
523.540	14197
523.610	11608
523.680	14761
523.749	15279
523.819	16213
523.888	14355
523.958	14500
524.027	14011
524.097	14453
524.166	12971
524.236	13347
524.305	15166
524.375	12956
524.444	12897
524.514	17497
524.583	14069
524.653	13948
524.722	15210
524.791	13443
524.861	15691
524.930	13983
524.999	15413
525.069	16938
525.138	15951
525.207	16803
525.277	19054
525.346	18793
525.415	20276
525.484	23313
525.554	23864
525.623	29798
525.692	34985
525.761	39136
525.830	46681
525.900	58865
525.969	96128
526.038	188991
526.107	442797
526.176	1066413
526.245	736989
526.314	250066
526.383	568017
526.452	711263
526.522	1013312
526.591	766447
526.660	149842
526.729	86694
526.797	92592
526.867	160132
526.935	520439
527.004	1400695
527.073	741665
527.142	127816
527.211	55210
527.280	40282
527.349	30297
527.418	23888
527.487	21580
527.555	19198
527.624	18146
527.693	16569
527.762	18720
527.831	15747
527.899	15480
527.968	15572
528.037	12426
528.106	14584
528.174	16495
528.243	16450
528.312	16865
528.380	16662
528.449	13053
528.518	16819
528.586	12601
528.655	15839
528.723	14079
528.792	15513
528.861	14653
528.929	15106
528.998	19636
529.066	31963
529.135	52896
529.203	50667
529.272	70076
529.340	86849
529.409	75763
529.477	69732
529.545	67999
529.614	73780
529.682	90613
529.751	97090
529.819	102171
529.887	120555
529.956	108257
530.024	102466
530.092	95467
530.161	94610
530.229	98772
530.297	110906
530.365	104958
530.434	115201
530.502	115225
530.570	103064
530.638	89782
530.707	85493
530.775	79221
530.843	84665
530.911	95320
530.979	96082
531.047	110882
531.115	104967
531.183	93889
531.252	88325
531.320	84201
531.388	86132
531.456	99043
531.524	105455
531.592	109776
531.660	124871
531.728	112458
531.796	104977
531.864	102794
531.932	102949
532.000	102765
532.067	117214
532.135	120131
532.203	126368
532.271	131909
532.339	128469
532.407	127227
532.475	119945
532.542	114293
532.610	114931
532.678	124741
532.746	147325
532.814	171078
532.881	140541
532.949	124334
533.017	116302
533.084	113980
533.152	109488
533.220	107221
533.287	109547
533.355	116257
533.423	120255
533.490	122476
533.558	116090
533.625	107428
533.693	105021
533.761	102651
533.828	99984
533.896	101999
533.963	112716
534.031	111952
534.098	120602
534.166	112338
534.233	103864
534.300	104159
534.368	99754
534.435	95673
534.503	98414
534.570	105901
534.637	108692
534.705	114507
534.772	122755
534.840	189769
534.907	581160
534.974	556211
535.041	124637
535.109	88747
535.176	84755
535.243	86909
535.310	85910
535.378	83988
535.445	77895
535.512	75262
535.579	72599
535.646	68846
535.714	69430
535.781	71169
535.848	74992
535.915	76421
535.982	77527
536.049	74461
536.116	69659
536.183	63665
536.250	62390
536.317	60717
536.384	60191
536.451	61798
536.518	64668
536.585	62343
536.652	67274
536.719	64760
536.786	57425
536.853	55385
536.920	57620
536.987	56010
537.053	55433
537.120	76127
537.187	72428
537.254	57562
537.321	59278
537.388	56159
537.454	52878
537.521	50993
537.588	49734
537.654	50572
537.721	50729
537.788	51028
537.855	50122
537.921	50980
537.988	51761
538.055	49608
538.121	44462
538.188	42718
538.254	42988
538.321	44065
538.388	45508
538.454	46431
538.521	47524
538.587	47345
538.654	47654
538.720	46227
538.787	44339
538.853	43095
538.920	41464
538.986	38075
539.053	39749
539.119	38994
539.185	39168
539.252	42536
539.318	45156
539.385	46951
539.451	43509
539.517	41264
539.583	41316
539.650	43739
539.716	52962
539.782	38171
539.849	36122
539.915	37491
539.981	38159
540.047	38313
540.114	38797
540.180	38775
540.246	39892
540.312	40527
540.378	40989
540.444	41576
540.510	43684
540.576	53410
540.643	38785
540.709	35453
540.775	38144
540.841	35713
540.907	35277
540.973	37346
541.039	36001
541.105	37130
541.171	36382
541.237	37239
541.303	36935
541.369	38469
541.435	39012
541.500	37909
541.566	33418
541.632	33038
541.698	34251
541.764	34996
541.830	33632
541.896	32788
541.961	32927
542.027	32679
542.093	36351
542.159	36165
542.224	34552
542.290	37152
542.356	36290
542.421	35706
542.487	31758
542.553	30413
542.618	31710
542.684	31848
542.750	31843
542.815	32969
542.881	36251
542.947	48694
543.012	43265
543.078	31086
543.143	30930
543.209	32112
543.274	30484
543.340	31779
543.405	37013
543.471	38899
543.536	34179
543.602	32400
543.667	32717
543.732	32779
543.798	31715
543.863	34172
543.928	31854
543.994	31237
544.059	33826
544.124	33094
544.190	34016
544.255	33945
544.320	34777
544.386	33275
544.451	37792
544.516	34275
544.581	36344
544.646	45471
544.712	49956
544.777	35853
544.842	35655
544.907	35529
544.972	36032
545.037	37757
545.102	39306
545.168	38620
545.233	39189
545.298	38955
545.363	40669
545.428	43048
545.493	46412
545.558	50810
545.623	43727
545.688	40921
545.753	42761
545.818	44433
545.883	47391
545.947	47666
546.012	49057
546.077	48367
546.142	53073
546.207	54019
546.272	58122
546.337	58047
546.401	60179
546.466	63400
546.531	63871
546.596	69652
546.661	71638
546.725	74867
546.790	79027
546.855	84677
546.919	92561
546.984	103553
547.049	109823
547.113	127749
547.178	139803
547.243	157730
547.307	183246
547.372	200461
547.436	200082
547.501	211928
547.565	225781
547.630	204790
547.695	200727
547.759	198848
547.823	200930
547.888	205260
547.952	213586
548.017	221375
548.081	225512
548.146	222468
548.210	231005
548.274	248279
548.339	239004
548.403	219522
548.468	207810
548.532	205150
548.596	211074
548.660	211099
548.725	232377
548.789	249030
548.853	239072
548.917	230620
548.982	223508
549.046	201078
549.110	184155
549.174	192153
549.238	226034
549.303	243857
549.367	246620
549.431	235299
549.495	219348
549.559	222914
549.623	261718
549.687	277869
549.751	277554
549.815	329039
549.879	327865
549.943	317358
550.007	332046
550.071	325203
550.135	292599
550.199	278974
550.263	274915
550.327	258027
550.391	268886
550.455	299042
550.519	311899
550.582	333305
550.646	376050
550.710	377476
550.774	373585
550.838	378013
550.901	389253
550.965	412112
551.029	427647
551.093	463691
551.156	508030
551.220	573415
551.284	589382
551.347	466014
551.411	412451
551.475	397204
551.538	405865
551.602	374548
551.666	356388
551.729	333834
551.793	325562
551.856	317955
551.920	319078
551.983	314153
552.047	310694
552.110	315573
552.174	318988
552.237	322897
552.301	299341
552.364	286693
552.428	281024
552.491	293134
552.554	297462
552.618	292548
552.681	301079
552.745	290882
552.808	315084
552.871	337558
552.934	315593
552.998	299999
553.061	289380
553.124	277429
553.187	277134
553.251	285207
553.314	284652
553.377	290201
553.440	312681
553.503	333947
553.567	340879
553.630	311453
553.693	306178
553.756	305491
553.819	298613
553.882	287407
553.945	289915
554.008	291462
554.071	295069
554.134	293998
554.197	277524
554.260	267823
554.323	274285
554.386	282645
554.449	296054
554.512	292614
554.575	279521
554.638	276615
554.701	276613
554.764	270623
554.827	262532
554.889	254211
554.952	238798
555.015	236496
555.078	240287
555.141	244542
555.203	238276
555.266	236865
555.329	234518
555.391	228305
555.454	226886
555.517	218407
555.580	210748
555.642	204330
555.705	202121
555.768	199437
555.830	194031
555.893	184057
555.955	179224
556.018	177443
556.080	178941
556.143	183940
556.206	181397
556.268	175880
556.330	173145
556.393	166338
556.455	164442
556.518	162220
556.580	156600
556.643	150298
556.705	146768
556.767	144499
556.830	144341
556.892	142569
556.955	141365
557.017	135392
557.079	137258
557.142	132531
557.204	131739
557.266	133760
557.328	123445
557.391	115950
557.453	113352
557.515	112762
557.577	115766
557.639	117141
557.701	116679
557.764	114953
557.826	115816
557.888	117253
557.950	123160
558.012	135678
558.074	182250
558.136	425769
558.198	768689
558.260	253717
558.322	131778
558.384	127681
558.446	130305
558.508	137470
558.570	151997
558.632	172132
558.694	224818
558.756	401931
558.818	1109480
558.880	1680975
558.942	781254
559.003	841927
559.065	350587
559.127	162655
559.189	152305
559.251	169940
559.312	256263
559.374	652510
559.436	1403027
559.498	604279
559.559	186729
559.621	151675
559.683	176605
559.744	313768
559.806	921560
559.868	979368
559.929	240800
559.991	176747
560.052	331904
560.114	783426
560.176	430114
560.237	520699
560.299	634345
560.360	140907
560.422	73574
560.483	64271
560.545	60434
560.606	57585
560.667	55856
560.729	51831
560.790	50979
560.852	50238
560.913	48445
560.974	45964
561.036	46110
561.097	46811
561.158	45931
561.220	45317
561.281	44626
561.342	43351
561.403	43630
561.465	43092
561.526	47895
561.587	49145
561.648	41113
561.709	39915
561.771	39157
561.832	39194
561.893	38255
561.954	37171
562.015	37117
562.076	36779
562.137	37338
562.198	36436
562.259	36322
562.320	36351
562.381	37588
562.442	37350
562.503	36205
562.564	33501
562.625	34217
562.686	33308
562.747	33695
562.808	33318
562.869	33626
562.930	33135
562.991	32597
563.051	32180
563.112	32366
563.173	32633
563.234	31914
563.294	31244
563.355	31019
563.416	30854
563.477	31477
563.537	30411
563.598	30535
563.659	30567
563.720	29288
563.780	30644
563.841	30018
563.901	30001
563.962	29675
564.023	28931
564.083	29634
564.144	28645
564.204	29828
564.265	28502
564.325	28925
564.386	32152
564.446	30757
564.507	27994
564.567	28828
564.628	26478
564.688	28386
564.749	27418
564.809	28797
564.869	28902
564.930	27601
564.990	27578
565.050	26765
565.111	27513
565.171	27983
565.231	27585
565.292	27975
565.352	26685
565.412	28537
565.472	27580
565.532	27015
565.593	27228
565.653	27276
565.713	26886
565.773	27871
565.833	28939
565.893	29486
565.953	26953
566.013	26510
566.074	26122
566.134	27423
566.194	26646
566.254	27731
566.314	26423
566.374	25953
566.434	25234
566.494	25569
566.554	25172
566.614	26930
566.673	27114
566.733	27530
566.793	26801
566.853	27604
566.913	27653
566.973	27300
567.033	28407
567.092	26927
567.152	26755
567.212	27464
567.272	26624
567.331	28025
567.391	28990
567.451	29972
567.511	30072
567.570	29305
567.630	28478
567.690	27287
567.749	26315
567.809	27168
567.868	27001
567.928	26674
567.988	26127
568.047	27378
568.107	26715
568.166	28618
568.226	26603
568.285	28491
568.345	28183
568.404	29048
568.464	27255
568.523	27983
568.582	27291
568.642	27876
568.701	26320
568.761	26366
568.820	25917
568.879	27853
568.939	27616
568.998	27049
569.057	26228
569.116	26924
569.176	26536
569.235	26829
569.294	26067
569.353	25283
569.413	26217
569.472	24833
569.531	24495
569.590	25422
569.649	25179
569.708	24697
569.767	25512
569.827	26538
569.886	25069
569.945	25145
570.004	25883
570.063	26301
570.122	27093
570.181	26813
570.240	26570
570.299	27600
570.358	27583
570.417	26598
570.475	27513
570.534	27399
570.593	26231
570.652	27863
570.711	27224
570.770	27440
570.829	26582
570.887	26523
570.946	27772
571.005	27748
571.064	28136
571.122	29389
571.181	26860
571.240	27113
571.299	24819
571.357	26054
571.416	25324
571.475	26134
571.533	27399
571.592	28433
571.650	27874
571.709	29254
571.768	32081
571.826	32188
571.885	30219
571.943	26796
572.002	25985
572.060	26147
572.119	24993
572.177	25527
572.236	25574
572.294	26132
572.352	27601
572.411	27397
572.469	27102
572.528	25421
572.586	24598
572.644	25750
572.703	25109
572.761	24953
572.819	23923
572.877	23591
572.936	23216
572.994	23685
573.052	23388
573.110	25256
573.169	25323
573.227	25289
573.285	24669
573.343	24882
573.401	23955
573.459	25744
573.517	24665
573.576	25799
573.634	25930
573.692	24823
573.750	24970
573.808	24464
573.866	24409
573.924	24492
573.982	23724
574.040	24109
574.098	23431
574.155	22620
574.213	23147
574.271	24700
574.329	25881
574.387	24422
574.445	22018
574.503	21553
574.560	21865
574.618	22003
574.676	22926
574.734	22759
574.792	22281
574.849	21724
574.907	19196
574.965	19282
575.022	19173
575.080	19770
575.138	19156
575.195	19716
575.253	18572
575.311	19140
575.368	19161
575.426	18434
575.483	19916
575.541	20135
575.598	18367
575.656	19727
575.713	20364
575.771	21804
575.828	19765
575.886	19623
575.943	18497
576.001	18080
576.058	17246
576.115	17624
576.173	20013
576.230	19455
576.287	19399
576.345	20268
576.402	19326
576.459	20217
576.517	18608
576.574	18106
576.631	17949
576.688	18340
576.746	17460
576.803	17978
576.860	16685
576.917	18949
576.974	18047
577.031	18785
577.089	17662
577.146	17245
577.203	16769
577.260	18041
577.317	16719
577.374	17387
577.431	17379
577.488	17609
577.545	16733
577.602	17947
577.659	18489
577.716	17750
577.773	18188
577.830	18028
577.886	17450
577.943	17300
578.000	17392
578.057	18043
578.114	19279
578.171	21477
578.227	23835
578.284	21906
578.341	19599
578.398	18508
578.454	18472
578.511	18681
578.568	19234
578.625	18208
578.681	18852
578.738	17896
578.794	19042
578.851	18456
578.908	18350
578.964	18573
579.021	19183
579.077	18333
579.134	19152
579.190	18828
579.247	18964
579.303	19241
579.360	18679
579.416	19795
579.473	19872
579.529	19721
579.586	19134
579.642	20719
579.698	19938
579.755	21436
579.811	21612
579.867	21946
579.924	21203
579.980	23254
580.036	25136
580.093	28788
580.149	33906
580.205	33645
580.261	29371
580.317	27605
580.374	26559
580.430	26915
580.486	26253
580.542	25771
580.598	26075
580.619	26635
580.654	27629
580.692	26415
580.710	25842
580.765	26963
580.767	27017
580.823	26494
580.838	26982
580.879	28318
580.911	28069
580.935	27926
580.984	28607
580.991	28724
581.047	29151
581.057	29205
581.103	29537
581.130	30002
581.159	30497
581.203	31570
581.215	31867
581.270	30626
581.276	30587
581.326	30352
581.349	30808
581.382	31556
581.422	31455
581.438	31391
581.494	32085
581.494	32068
581.550	31751
581.567	31756
581.606	31699
581.640	32310
581.661	32722
581.713	33090
581.717	33132
581.773	32811
581.786	32974
581.829	33490
581.859	34897
581.885	36121
581.932	35404
581.940	35299
581.996	36329
582.004	36378
582.052	36431
582.077	37234
582.107	38345
582.150	37777
582.163	37534
582.219	38352
582.223	38344
582.274	38554
582.296	39055
582.330	39860
582.368	40500
582.386	40860
582.441	42938
582.441	42941
582.497	42928
582.514	43132
582.552	43949
582.587	44499
582.608	44749
582.659	45644
582.663	45710
582.719	47308
582.732	47470
582.774	48291
582.805	49522
582.830	50520
582.877	53712
582.885	54386
582.941	60649
582.950	62116
582.996	70024
583.023	74386
583.052	78556
583.095	79180
583.107	79051
583.162	74438
583.168	74096
583.218	70206
583.240	66825
583.273	61992
583.313	59213
583.328	58251
583.384	54704
583.385	54621
583.439	52829
583.458	52444
583.494	51460
583.531	50551
583.549	50310
583.603	50914
583.605	50921
583.660	48189
583.676	48529
583.715	49684
583.748	48827
583.770	48365
583.820	48596
583.825	48595
583.881	48720
583.893	48461
583.936	47619
583.965	48508
583.991	49380
584.038	50088
584.046	50227
584.101	50073
584.110	50400
584.156	52343
584.183	53061
584.211	53508
584.255	52843
584.266	52923
584.321	57111
584.328	57225
584.376	57582
584.400	57421
584.431	57135
584.472	57466
584.486	57828
584.541	62470
584.545	62496
584.596	62623
584.617	62790
584.651	63261
584.689	64316
584.706	64893
584.761	68045
584.762	68021
584.816	67526
584.834	68401
584.871	70114
584.906	70349
584.926	70675
584.978	72392
584.980	72516
585.035	74947
585.051	75588
585.090	77217
585.123	78735
585.145	80512
585.195	85189
585.200	85832
585.254	92402
585.267	94539
585.309	103261
585.340	109395
585.364	115303
585.412	130090
585.419	133129
585.473	161025
585.484	169118
585.528	220330
585.556	267885
585.583	366332
585.628	584834
585.637	665654
585.692	1299479
585.700	1378164
585.747	1579865
585.772	1444944
585.801	988269
585.845	463531
585.856	400212
585.910	209280
585.917	188422
585.965	147919
585.989	130619
586.019	121165
586.061	110253
586.074	108388
586.128	98717
586.133	97924
586.183	92059
586.205	89092
586.237	85705
586.277	82583
586.292	81717
586.346	77955
586.349	77681
586.401	75557
586.421	74569
586.455	72959
586.493	71150
586.509	71548
586.564	72781
586.565	72785
586.618	80351
586.637	82237
586.672	85557
586.709	90540
586.727	93618
586.781	98723
586.781	98826
586.835	81966
586.853	77399
586.889	70650
586.925	64533
586.944	63277
586.996	60825
586.998	60890
587.052	60022
587.068	59695
587.106	59350
587.140	58987
587.161	58941
587.212	58216
587.215	58263
587.269	57954
587.284	57847
587.323	58997
587.356	59504
587.377	59812
587.427	60349
587.431	60486
587.485	61626
587.499	61696
587.539	62324
587.571	62992
587.593	64231
587.643	66126
587.648	66247
587.702	67032
587.715	66861
587.755	67127
587.786	67261
587.810	67468
587.858	67656
587.864	67826
587.917	68770
587.930	68610
587.971	68421
588.001	68757
588.025	69068
588.073	68230
588.079	68219
588.133	67929
588.145	67714
588.187	69055
588.217	69751
588.241	70823
588.288	72987
588.295	73353
588.348	75196
588.360	75277
588.402	75418
588.431	75633
588.456	76866
588.503	78874
588.510	79580
588.564	84436
588.575	85391
588.617	89996
588.646	92972
588.671	96133
588.718	102200
588.725	104321
588.778	122633
588.789	127434
588.832	187016
588.861	233651
588.886	341687
588.932	573827
588.939	597751
588.993	732413
589.004	737199
589.047	400342
589.075	205686
589.100	165213
589.147	103001
589.154	102183
589.207	95862
589.218	94417
589.261	95432
589.290	96132
589.314	99238
589.361	106726
589.368	110322
589.421	141221
589.433	148932
589.475	252888
589.504	334791
589.528	448908
589.576	667349
589.582	644257
589.635	340818
589.647	282020
589.689	167472
589.718	93645
589.742	89715
589.790	81413
589.795	81494
589.849	81195
589.861	80992
589.902	82349
589.932	82691
589.955	80886
590.004	76419
590.009	76484
590.062	75465
590.075	74992
590.115	74798
590.146	74481
590.168	74827
590.218	74719
590.222	74969
590.275	76326
590.289	76377
590.328	78424
590.360	79793
590.381	79783
590.431	78935
590.435	79214
590.488	80624
590.503	80795
590.541	81782
590.574	82430
590.594	83680
590.645	85823
590.647	86138
590.700	88807
590.716	89222
590.753	90459
590.787	91436
590.806	92490
590.859	94335
590.859	94604
590.912	95581
590.930	95574
590.965	96884
591.001	97942
591.018	98053
591.071	97168
591.072	96894
591.124	96297
591.143	95729
591.177	96727
591.214	97341
591.230	98300
591.283	100529
591.285	100335
591.336	100712
591.356	100455
591.389	100227
591.427	99201
591.442	99322
591.495	98761
591.498	98441
591.547	99558
591.569	99748
591.600	101457
591.640	102933
591.653	103571
591.706	104826
591.711	104686
591.759	107615
591.782	108646
591.811	111709
591.853	115281
591.864	115337
591.917	113884
591.924	113349
591.969	114207
591.995	114125
592.022	115032
592.066	115775
592.075	116805
592.127	121020
592.137	121444
592.180	124386
592.208	125682
592.233	126609
592.279	127294
592.285	128020
592.338	130884
592.350	131133
592.390	130387
592.421	129148
592.443	130849
592.491	133341
592.495	133864
592.548	135513
592.562	135554
592.600	135970
592.633	135581
592.653	136437
592.704	136822
592.705	137624
592.775	138218
592.846	143360
592.916	144591
592.987	144972
593.058	149428
593.128	149751
593.199	149519
593.270	151414
593.341	153454
593.411	158122
593.482	163553
593.553	166922
593.623	169040
593.694	174568
593.764	179999
593.835	176142
593.906	176986
593.976	182310
594.047	190181
594.117	197126
594.188	205230
594.258	200496
594.329	200503
594.399	206711
594.470	213975
594.540	219787
594.611	224406
594.681	224139
594.751	224631
594.822	232543
594.892	243039
594.963	247518
595.033	255119
595.103	263811
595.174	265454
595.244	277370
595.314	287577
595.384	284825
595.455	293276
595.525	302530
595.595	313643
595.665	314695
595.736	307362
595.806	316076
595.876	321767
595.946	323626
596.016	335711
596.087	348879
596.157	347731
596.227	350201
596.297	370808
596.367	390524
596.437	413096
596.507	414692
596.577	416272
596.647	423947
596.717	444800
596.787	452918
596.857	452204
596.927	457466
596.997	461896
597.067	466894
597.137	476300
597.207	478976
597.277	484672
597.347	468362
597.417	458980
597.487	459587
597.557	469897
597.626	484761
597.696	489057
597.766	492879
597.836	473911
597.906	452006
597.975	445795
598.045	458013
598.115	474506
598.185	507742
598.254	556732
598.324	595441
598.394	607359
598.464	592739
598.533	589738
598.603	561145
598.672	549658
598.742	567937
598.812	571788
598.881	591203
598.951	586342
599.020	596514
599.090	615601
599.159	627368
599.229	611040
599.299	608289
599.368	627068
599.437	623560
599.507	594504
599.576	582631
599.646	582690
599.715	585154
599.785	588435
599.854	578606
599.924	581255
599.993	584738
600.062	598331
600.132	616217
600.201	641447
600.270	709846
600.340	741653
600.409	737968
600.478	742001
600.547	760921
600.617	721014
600.686	644107
600.755	624314
600.824	613695
600.894	615342
600.963	627567
601.032	632619
601.101	628738
601.170	627782
601.239	627395
601.308	638396
601.378	649851
601.447	662751
601.516	678322
601.585	688417
601.654	704421
601.723	718013
601.792	740876
601.861	762958
601.930	793146
601.999	820347
602.068	814601
602.137	818606
602.206	825065
602.275	833745
602.343	839336
602.412	842533
602.481	849372
602.550	857212
602.619	873045
602.688	869883
602.756	885441
602.825	875574
602.894	900028
602.963	891582
603.032	908021
603.100	908798
603.169	890979
603.238	928009
603.307	888652
603.375	898443
603.444	937246
603.513	880535
603.581	906490
603.650	941802
603.719	821655
603.787	797754
603.856	815453
603.924	830014
603.993	848840
604.061	873394
604.130	894447
604.198	916675
604.267	922058
604.335	944513
604.404	941984
604.472	971769
604.541	970618
604.609	997570
604.678	1016978
604.746	1031902
604.815	1079891
604.883	1040924
604.951	1016682
605.020	1039137
605.088	987640
605.156	960322
605.225	963639
605.293	957634
605.361	967924
605.429	955479
605.498	983181
605.566	969799
605.634	1015904
605.702	1015607
605.771	1031349
605.839	1047004
605.907	997416
605.975	1012187
606.043	971090
606.111	949878
606.180	1008638
606.248	927988
606.316	918046
606.384	969208
606.452	823489
606.520	745260
606.588	762263
606.656	771156
606.724	752237
606.792	711506
606.860	655425
606.928	603200
606.996	579842
607.064	573159
607.132	589302
607.200	621244
607.267	638999
607.335	653662
607.403	664152
607.471	646868
607.539	627003
607.607	629716
607.674	564974
607.742	564022
607.810	558503
607.878	557582
607.946	571992
608.013	592502
608.081	602606
608.149	602195
608.216	623722
608.284	636993
608.352	634780
608.419	626383
608.487	614565
608.555	598556
608.622	620167
608.690	651458
608.757	704415
608.825	715582
608.893	697293
608.960	657863
609.028	633018
609.095	632932
609.163	627733
609.230	563477
609.298	520306
609.365	551366
609.432	590977
609.500	638203
609.567	723601
609.635	814249
609.702	856527
609.769	816727
609.837	653960
609.904	580013
609.971	608293
610.039	682452
610.106	877725
610.173	1523657
610.241	2694892
610.308	2178762
610.375	1009450
610.442	699002
610.509	624543
610.577	604623
610.644	603315
610.711	621555
610.778	631027
610.845	657743
610.912	691369
610.980	717661
611.047	719970
611.114	703514
611.181	681039
611.248	679886
611.315	710550
611.382	733900
611.449	759167
611.516	769030
611.583	760259
611.650	769250
611.717	781747
611.784	798718
611.851	837598
611.918	892382
611.984	1030653
612.051	1359005
612.118	2205174
612.185	3162281
612.252	2802661
612.319	1461992
612.386	1093839
612.452	963700
612.519	896248
612.586	868579
612.653	872745
612.719	892684
612.786	857069
612.853	800337
612.919	779142
612.986	789280
613.053	747932
613.120	707065
613.186	680094
613.253	685045
613.319	683909
613.386	689231
613.453	698386
613.519	703175
613.586	691605
613.652	702975
613.719	693157
613.785	703512
613.852	711078
613.918	704489
613.985	710171
614.051	747670
614.118	757058
614.184	728248
614.250	706867
614.317	722060
614.383	708279
614.449	724321
614.516	714712
614.582	719875
614.648	710793
614.715	705283
614.781	684821
614.847	687683
614.914	685442
614.980	667012
615.046	669973
615.112	687175
615.179	691235
615.245	704585
615.311	689252
615.377	700728
615.443	712910
615.509	724504
615.575	750186
615.642	748791
615.708	768294
615.774	804862
615.840	857920
615.906	927098
615.972	1106281
616.038	1553272
616.104	2513475
616.170	3297401
616.236	3158521
616.302	2091552
616.368	1550344
616.434	1144617
616.500	994413
616.565	1090281
616.631	1377466
616.697	1180520
616.763	1164444
616.829	1664129
616.895	2607116
616.961	2604232
617.026	1432251
617.092	919625
617.158	800859
617.224	758850
617.289	692192
617.355	653262
617.421	644660
617.487	638616
617.552	605568
617.618	598122
617.684	602228
617.749	599901
617.815	576762
617.880	563484
617.946	561542
618.012	571419
618.077	582852
618.143	556689
618.208	558984
618.274	603797
618.339	602569
618.405	508214
618.470	506625
618.536	506051
618.601	499052
618.667	468189
618.732	442338
618.798	436627
618.863	437159
618.928	432122
618.994	438151
619.059	435714
619.124	446503
619.190	437775
619.255	433739
619.320	432918
619.386	436214
619.451	433517
619.516	418965
619.581	426073
619.647	436810
619.712	439429
619.777	417731
619.842	423262
619.907	430301
619.972	438420
620.038	436379
620.103	423638
620.168	423748
620.233	431189
620.298	432573
620.363	437688
620.428	451707
620.493	458343
620.558	465988
620.623	472272
620.688	470096
620.753	470067
620.818	479700
620.883	480772
620.948	478838
621.013	471317
621.078	466962
621.143	474266
621.207	477915
621.272	470798
621.337	458817
621.402	455689
621.467	452686
621.532	455067
621.596	455905
621.661	439338
621.726	436154
621.791	443450
621.855	441515
621.920	437644
621.985	447123
622.049	456665
622.114	456348
622.179	463407
622.243	474157
622.308	486950
622.373	501260
622.437	492117
622.502	466891
622.566	461658
622.631	462289
622.695	469890
622.760	468624
622.824	465632
622.889	468467
622.953	470894
623.018	499157
623.082	505822
623.147	493718
623.211	483637
623.276	481574
623.340	461166
623.404	455130
623.469	453502
623.533	458953
623.597	447988
623.662	443057
623.726	414570
623.790	394452
623.854	384842
623.919	393330
623.983	394026
624.047	401679
624.111	402639
624.176	410431
624.240	415163
624.304	424304
624.368	407850
624.432	409060
624.496	419349
624.560	437209
624.625	443998
624.689	438713
624.753	457424
624.817	432490
624.881	423022
624.945	385756
625.009	376102
625.073	382758
625.137	394443
625.201	407893
625.265	410125
625.329	392905
625.393	399438
625.456	397748
625.520	409399
625.584	412070
625.648	430142
625.712	443104
625.776	462115
625.839	446038
625.903	357881
625.967	330634
626.031	359500
626.095	425619
626.158	382591
626.222	304423
626.286	282783
626.349	274697
626.413	261378
626.477	254585
626.540	258225
626.604	259068
626.668	251383
626.731	248993
626.795	251259
626.858	248750
626.922	243730
626.986	239085
627.049	242180
627.113	253768
627.176	248379
627.240	236601
627.303	236307
627.366	232184
627.430	238298
627.493	235315
627.557	234369
627.620	239870
627.684	244780
627.747	243721
627.810	225495
627.874	206869
627.937	198998
628.000	208249
628.064	202760
628.127	176521
628.190	173915
628.253	171230
628.317	165887
628.380	157469
628.443	154756
628.506	156369
628.569	145494
628.632	137984
628.696	139209
628.759	138220
628.822	131745
628.885	129193
628.948	125667
629.011	125905
629.074	124249
629.137	119101
629.200	116187
629.263	116646
629.326	114841
629.389	115273
629.452	114361
629.515	112772
629.578	112068
629.641	113127
629.704	115332
629.767	111927
629.830	108248
629.892	107387
629.955	105327
630.018	109833
630.081	109966
630.144	109809
630.207	104575
630.269	108253
630.332	104845
630.395	102785
630.458	100420
630.520	97617
630.583	99978
630.646	100694
630.708	102864
630.771	103253
630.834	108921
630.896	107138
630.959	106465
631.021	104735
631.084	106168
631.146	107796
631.209	110081
631.272	108122
631.334	110666
631.397	114046
631.459	116063
631.522	123979
631.584	129772
631.646	140316
631.709	146062
631.771	148809
631.834	141975
631.896	131573
631.958	121995
632.021	116557
632.083	109581
632.145	106632
632.208	106413
632.270	104587
632.332	102796
632.395	99511
632.457	103440
632.519	100552
632.581	99450
632.643	97579
632.706	99882
632.768	97190
632.830	98807
632.892	101512
632.954	101588
633.016	103362
633.078	101459
633.141	102168
633.203	101351
633.265	100006
633.327	100502
633.389	103275
633.451	104928
633.513	105816
633.575	109842
633.637	106435
633.698	109740
633.760	115911
633.822	121189
633.884	125675
633.946	130595
634.008	137218
634.070	144738
634.132	156969
634.193	172330
634.255	187087
634.317	190798
634.379	184600
634.441	165757
634.502	147433
634.564	135487
634.626	122384
634.687	115076
634.749	110105
634.811	108034
634.873	106253
634.934	105609
634.996	106580
635.057	106486
635.119	108280
635.181	112328
635.242	113188
635.304	110856
635.365	113264
635.427	111717
635.488	112609
635.550	112688
635.611	116234
635.673	118623
635.734	129055
635.796	137848
635.857	153724
635.918	167383
635.980	183906
636.041	198445
636.102	210905
636.164	214922
636.225	203538
636.286	179222
636.348	156359
636.409	136435
636.470	126410
636.531	118710
636.593	113843
636.654	106740
636.715	100721
636.776	99871
636.838	96150
636.899	92940
636.960	92604
637.021	90966
637.082	88338
637.143	86830
637.204	85238
637.265	86048
637.326	87093
637.387	89357
637.448	86513
637.509	87240
637.570	84178
637.631	86379
637.692	81974
637.753	78979
637.814	79959
637.875	78927
637.936	79593
637.997	78298
638.058	77684
638.119	79548
638.179	77561
638.240	78457
638.301	77606
638.362	75264
638.423	72087
638.483	73076
638.544	72037
638.605	71878
638.666	72114
638.726	71913
638.787	71792
638.848	72211
638.908	70242
638.969	68418
639.030	68411
639.090	66805
639.151	68657
639.211	71257
639.272	72745
639.332	77345
639.393	77922
639.453	83565
639.514	86356
639.574	74175
639.635	65949
639.695	67129
639.756	64529
639.816	64750
639.877	66448
639.937	70659
639.997	73307
640.058	65494
640.118	64291
640.178	67417
640.239	65784
640.299	67096
640.359	70043
640.420	75139
640.480	84526
640.540	99122
640.600	103597
640.661	92690
640.721	86090
640.781	87832
640.841	78440
640.901	69073
640.961	70389
641.021	73605
641.082	82749
641.142	74279
641.202	66188
641.262	62200
641.322	62674
641.382	60812
641.442	61807
641.502	61010
641.562	63941
641.622	66751
641.682	72835
641.742	86483
641.802	81237
641.861	67495
641.921	61585
641.981	59712
642.041	58827
642.101	59645
642.161	56761
642.221	57879
642.280	58148
642.340	57741
642.400	57695
642.460	61332
642.519	60176
642.579	62903
642.639	62228
642.698	61800
642.758	64946
642.818	63744
642.877	62346
642.937	63416
642.997	62898
643.056	65620
643.116	62719
643.175	65216
643.235	66517
643.294	68607
643.354	74017
643.414	80840
643.473	92088
643.532	113816
643.592	147708
643.651	220686
643.711	361275
643.770	664112
643.830	1422968
643.889	2217610
643.948	921191
644.008	258962
644.067	146858
644.126	109026
644.186	90095
644.245	78550
644.304	71089
644.363	72322
644.423	66410
644.482	67816
644.541	71770
644.600	76808
644.659	95220
644.719	121685
644.778	176842
644.837	295871
644.896	586747
644.955	1226366
645.014	462714
645.073	129050
645.132	93955
645.191	81601
645.250	78398
645.309	82144
645.368	90945
645.427	122949
645.486	218140
645.545	381376
645.604	116552
645.663	69975
645.722	68777
645.781	75409
645.840	83943
645.898	102420
645.957	136235
646.016	202521
646.075	340373
646.134	629959
646.192	1444871
646.251	1846286
646.310	516156
646.369	179909
646.427	136958
646.486	101277
646.545	75859
646.603	68519
646.662	63209
646.721	61515
646.779	61927
646.838	67407
646.896	82920
646.955	114313
647.014	177586
647.072	343657
647.131	886645
647.189	445429
647.248	84823
647.306	60654
647.365	53518
647.423	47472
647.481	48333
647.540	45841
647.598	45168
647.657	44266
647.715	44141
647.773	42469
647.832	42671
647.890	38733
647.948	38865
648.007	39032
648.065	37535
648.123	37138
648.181	37378
648.240	38074
648.298	36646
648.356	36439
648.414	36491
648.472	36067
648.531	35809
648.589	34707
648.647	35520
648.705	36193
648.763	35828
648.821	38669
648.879	39969
648.937	46105
648.995	55209
649.053	71673
649.111	102688
649.169	164488
649.227	287913
649.285	589229
649.343	1411473
649.401	764461
649.459	151291
649.516	84091
649.574	65845
649.632	73821
649.690	82980
649.748	89549
649.806	135569
649.863	250050
649.921	660518
649.979	454270
650.037	73668
650.094	42559
650.152	37715
650.210	34053
650.268	32783
650.325	32626
650.383	34162
650.440	28811
650.498	27895
650.556	27679
650.613	26776
650.671	28426
650.728	28843
650.786	32716
650.843	46735
650.901	35346
650.958	26048
651.016	24096
651.073	23249
651.131	23292
651.188	22680
651.246	23237
651.303	21169
651.360	22697
651.418	21794
651.475	23425
651.532	21619
651.590	23277
651.647	21294
651.704	22218
651.762	21470
651.819	21511
651.876	20032
651.933	20143
651.990	20417
652.048	19760
652.105	19466
652.162	21151
652.219	19151
652.276	19881
652.333	19942
652.390	19032
652.448	19757
652.505	19506
652.562	19366
652.619	19833
652.676	20988
652.733	22280
652.790	19259
652.847	16839
652.904	18262
652.961	16667
653.017	16666
653.074	18645
653.131	18625
653.188	17815
653.245	17775
653.302	18052
653.359	17620
653.415	19210
653.472	17262
653.529	19163
653.586	17636
653.642	18465
653.699	19463
653.756	17410
653.813	18053
653.869	18930
653.926	17687
653.983	18480
654.039	18575
654.096	18183
654.152	18619
654.209	15578
654.266	17324
654.322	16705
654.379	17447
654.435	19237
654.492	17445
654.548	18691
654.605	20114
654.661	19339
654.717	17223
654.774	17225
654.830	17199
654.887	17219
654.943	17119
655.000	19822
655.056	17769
655.112	17969
655.168	17316
655.225	18941
655.281	19360
655.337	19964
655.394	20124
655.450	19125
655.506	17692
655.562	19254
655.618	20492
655.675	15321
655.731	16181
655.787	16110
655.843	16558
655.899	16052
655.955	17043
656.011	18021
656.067	16989
656.123	17548
656.179	16813
656.235	18839
656.291	16387
656.347	19026
656.403	17205
656.459	16850
656.515	16422
656.571	17566
656.627	16196
656.683	16421
656.739	16255
656.795	15944
656.850	15686
656.906	17025
656.962	18526
657.018	18548
657.074	22600
657.129	30283
657.185	45924
657.241	102971
657.297	59538
657.352	19833
657.408	16463
657.464	16762
657.519	14434
657.575	13435
657.630	14515
657.686	15161
657.742	14339
657.797	15321
657.853	14889
657.908	16073
657.964	13942
658.019	15370
658.075	13916
658.130	14100
658.186	13099
658.241	15000
658.297	13418
658.352	13777
658.407	13889
658.463	13457
658.518	14338
658.573	14079
658.629	13637
658.684	14122
658.739	14042
658.795	14548
658.850	13546
658.905	14049
658.960	13251
659.016	13192
659.071	12487
659.126	13012
659.181	12248
659.236	15369
659.291	15402
659.346	13582
659.401	13650
659.457	15216
659.512	15493
659.567	15708
659.622	12928
659.677	13531
659.732	11868
659.787	12910
659.842	12045
659.897	13624
659.952	13270
660.007	12345
660.061	13089
660.116	11987
660.171	11832
660.226	13022
660.281	12619
660.336	12689
660.391	13183
660.445	12124
660.500	12393
660.555	11852
660.610	11988
660.664	12658
660.719	11946
660.774	13196
660.828	12783
660.883	11916
660.938	11793
660.992	11164
661.047	11863
661.101	12418
661.156	11375
661.211	11978
661.265	12558
661.320	11871
661.374	12216
661.429	11331
661.483	11891
661.538	11903
661.592	12192
661.647	13197
661.701	14675
661.755	13065
661.810	11985
661.864	11697
661.919	11351
661.973	12526
662.027	11072
662.081	10686
662.136	11328
662.190	12111
662.244	12414
662.299	11245
662.353	12492
662.407	11057
662.461	11001
662.515	11752
662.569	10723
662.624	12471
662.678	11659
662.732	11509
662.786	12148
662.840	10616
662.894	11111
662.948	10725
663.002	11753
663.056	10938
663.110	11255
663.164	11727
663.218	11882
663.272	12249
663.326	12207
663.380	11909
663.434	11729
663.488	12185
663.542	12364
663.595	11249
663.649	11275
663.703	12060
663.757	12847
663.811	12008
663.864	12344
663.918	12398
663.972	11804
664.026	12465
664.079	11551
664.133	12951
664.187	11850
664.240	11909
664.294	12427
664.348	13152
664.401	11567
664.455	12034
664.508	11587
664.562	12185
664.615	12317
664.669	11320
664.722	11270
664.776	11240
664.829	10901
664.883	11366
664.936	11681
664.990	11341
665.043	12707
665.097	11739
665.150	13235
665.203	12319
665.257	12040
665.310	12505
665.363	12598
665.417	13426
665.470	13185
665.523	12952
665.576	14029
665.630	13575
665.683	13482
665.736	13750
665.789	13524
665.842	11709
665.895	12304
665.949	13123
666.002	12266
666.055	13204
666.108	12958
666.161	12870
666.214	13124
666.267	13552
666.320	13051
666.373	14582
666.426	13906
666.479	14676
666.532	14270
666.585	15134
666.638	15135
666.691	15288
666.744	14252
666.796	13290
666.849	12755
666.902	13499
666.955	12806
667.008	12155
667.060	12311
667.113	13169
667.166	12706
667.219	12886
667.271	13494
667.324	13916
667.377	13171
667.430	13088
667.482	13580
667.535	12348
667.587	13393
667.640	12681
667.693	12961
667.745	14518
667.798	15196
667.850	13198
667.903	12677
667.955	13251
668.008	13450
668.060	13973
668.113	13271
668.165	13176
668.218	12981
668.270	13087
668.322	12556
668.375	12697
668.427	13386
668.479	11782
668.532	13588
668.584	12774
668.636	12241
668.689	13279
668.741	12618
668.793	12941
668.845	13062
668.898	12509
668.950	12396
669.002	13573
669.054	12136
669.106	12105
669.158	13337
669.211	12258
669.263	11957
669.315	14252
669.367	13519
669.419	12932
669.471	14271
669.523	14768
669.575	16140
669.627	15248
669.679	13668
669.731	14196
669.783	13930
669.835	15271
669.886	14437
669.938	14214
669.990	14424
670.042	14841
670.094	15104
670.146	17415
670.197	18546
670.249	21239
670.301	24453
670.353	32072
670.404	40633
670.456	56983
670.508	82084
670.560	127181
670.611	200860
670.663	339957
670.715	680145
670.766	877695
670.818	427247
670.869	115016
670.921	60795
670.972	43451
671.024	32086
671.075	27418
671.127	24650
671.178	22706
671.230	22993
671.281	23119
671.333	25486
671.384	29645
671.436	36717
671.487	50112
671.538	69527
671.590	103752
671.641	164341
671.692	283142
671.744	498456
671.795	406701
671.846	171057
671.897	82897
671.949	53691
672.000	38533
672.051	29617
672.102	24748
672.153	21343
672.204	18677
672.256	16928
672.307	15954
672.358	15430
672.409	13783
672.460	13611
672.511	13720
672.562	11761
672.613	11620
672.664	10733
672.715	11943
672.766	11558
672.817	10143
672.868	9653
672.919	11024
672.970	9938
673.021	9763
673.071	9745
673.122	9512
673.173	10193
673.224	10159
673.275	9493
673.326	9412
673.376	9195
673.427	8573
673.478	8906
673.528	10295
673.579	10046
673.630	9720
673.680	10111
673.731	10085
673.782	9322
673.832	9512
673.883	9775
673.934	9714
673.984	9523
674.035	11106
674.085	10170
674.136	10560
674.186	10668
674.237	11422
674.287	12383
674.338	12274
674.388	11306
674.438	11541
674.489	12085
674.539	12564
674.589	12701
674.640	11294
674.690	11926
674.740	11666
674.791	9547
674.841	10953
674.891	9323
674.942	8159
674.992	8667
675.042	8448
675.092	8350
675.142	8421
675.193	8109
675.243	8071
675.293	9053
675.343	9530
675.393	8678
675.443	9188
675.493	8657
675.543	8458
675.593	8642
675.643	8644
675.693	8071
675.743	9545
675.793	7757
675.843	7823
675.893	7252
675.943	8141
675.993	6896
676.043	7396
676.093	7049
676.142	7249
676.192	7618
676.242	6820
676.292	7858
676.341	7639
676.391	7109
676.441	7611
676.491	6578
676.540	6259
676.590	7140
676.640	7072
676.689	6647
676.739	6553
676.789	6692
676.838	6377
676.888	6470
676.937	6906
676.987	6584
677.037	6742
677.086	5874
677.136	6036
677.185	5965
677.235	6579
677.284	5883
677.333	6583
677.383	5508
677.432	6679
677.482	6306
677.531	5915
677.580	5492
677.630	6126
677.679	6452
677.728	5876
677.778	6265
677.827	6625
677.876	6325
677.925	6476
677.975	6472
678.024	6110
678.073	7180
678.122	8170
678.171	8159
678.220	9124
678.269	10758
678.319	11913
678.368	12112
678.417	9942
678.466	8258
678.515	6990
678.564	5482
678.613	5677
678.662	5834
678.711	6554
678.760	6454
678.809	6492
678.857	7446
678.906	7447
678.955	6810
679.004	6407
679.053	5588
679.102	6187
679.151	5937
679.199	5370
679.248	6026
679.297	5634
679.346	4443
679.394	4480
679.443	5023
679.492	6004
679.540	5726
679.589	5866
679.638	5991
679.686	6691
679.735	7795
679.784	9332
679.832	10208
679.881	7410
679.929	6495
679.978	6011
680.026	5877
680.075	5861
680.123	5586
680.172	5441
680.220	5595
680.268	5308
680.317	4260
680.365	4799
680.414	4832
680.462	5084
680.510	5364
680.559	5329
680.607	5019
680.655	5777
680.703	5568
680.752	5807
680.800	4800
680.848	5189
680.896	4728
680.945	5261
680.993	4952
681.041	5123
681.089	4520
681.137	4556
681.185	4238
681.233	5038
681.258	4968
681.281	4877
681.329	4343
681.377	4147
681.380	4201
681.425	4730
681.473	5856
681.502	6049
681.521	6133
681.569	5659
681.617	6330
681.624	6248
681.665	5526
681.713	6171
681.745	5881
681.761	5707
681.809	5082
681.857	5994
681.867	5958
681.904	5749
681.952	5456
681.989	5393
682.000	5338
682.048	6227
682.096	6261
682.111	5985
682.143	5308
682.191	5972
682.233	6189
682.239	6198
682.286	6203
682.334	4952
682.354	5738
682.382	6763
682.430	6612
682.476	5892
682.477	5852
682.525	5971
682.572	5582
682.598	6004
682.620	6365
682.667	6877
682.715	6509
682.720	6557
682.763	6684
682.810	7144
682.841	6725
682.857	6489
682.905	5988
682.952	6381
682.963	6356
683.000	6203
683.047	6809
683.085	7142
683.095	7194
683.142	6364
683.190	6716
683.206	6782
683.237	6850
683.284	6970
683.328	6815
683.332	6786
683.379	6940
683.426	6998
683.449	7078
683.473	7133
683.521	7161
683.568	6995
683.571	7011
683.615	6861
683.662	8231
683.693	7515
683.709	7067
683.757	6753
683.804	7275
683.814	7140
683.851	6715
683.898	7253
683.936	7837
683.945	7960
683.992	7273
684.039	7344
684.057	7359
684.086	7317
684.133	7211
684.179	7266
684.180	7248
684.227	7787
684.274	6874
684.300	6658
684.321	6537
684.368	6802
684.415	7558
684.422	7599
684.462	7693
684.509	7503
684.543	7777
684.556	7885
684.603	7468
684.649	7782
684.665	8004
684.696	8316
684.743	8529
684.786	8502
684.790	8491
684.837	8508
684.883	8123
684.908	7927
684.930	7696
684.977	8197
685.023	8307
685.029	8267
685.070	7962
685.117	8852
685.150	8729
685.164	8638
685.210	8325
685.257	8837
685.272	8963
685.303	9274
685.350	8748
685.393	8853
685.396	8840
685.443	8586
685.490	9504
685.514	9187
685.536	8935
685.583	8693
685.629	8615
685.636	8541
685.675	8039
685.722	9855
685.757	9326
685.768	9109
685.815	8920
685.861	9854
685.878	9336
685.908	8565
685.954	8937
686.000	8975
686.000	8971
686.047	10290
686.093	10228
686.121	10546
686.139	10582
686.185	10220
686.232	9415
686.242	9489
686.278	9864
686.324	9813
686.363	9677
686.370	9644
686.416	9987
686.463	10107
686.484	9925
686.509	9712
686.555	9629
686.601	9661
686.606	9702
686.647	9891
686.693	9412
686.727	9297
686.739	9352
686.785	9654
686.831	10154
686.848	10150
686.877	9993
686.923	10426
686.969	10073
686.969	10071
687.015	10286
687.061	11038
687.090	11250
687.107	11217
687.153	11006
687.199	10999
687.211	10767
687.245	10258
687.291	10323
687.332	10614
687.336	10661
687.382	11068
687.428	11304
687.453	11163
687.474	10954
687.520	11367
687.565	11198
687.574	11204
687.611	11546
687.657	11619
687.695	12172
687.702	12303
687.748	13260
687.794	14550
687.816	14530
687.839	13894
687.885	13501
687.931	12432
687.937	12247
687.976	11736
688.022	11938
688.058	11691
688.067	11617
688.113	11864
688.158	11094
688.179	10922
688.204	10867
688.249	11283
688.295	11518
688.300	11553
688.340	11754
688.386	11220
688.421	11249
688.431	11301
688.477	11161
688.522	12051
688.542	12148
688.567	12396
688.613	12639
688.658	13152
688.663	13162
688.703	12895
688.749	12503
688.784	12568
688.794	12591
688.839	12403
688.884	12477
688.905	12341
688.930	12308
688.975	12708
689.020	12247
689.026	12264
689.065	12465
689.110	12278
689.146	12279
689.155	12276
689.201	12676
689.246	12426
689.267	12488
689.291	12566
689.336	12698
689.381	12392
689.388	12421
689.426	12697
689.471	12431
689.509	12901
689.516	13010
689.561	12776
689.606	12668
689.630	12753
689.651	12815
689.696	12959
689.741	12852
689.750	12969
689.785	13498
689.830	13379
689.871	13149
689.875	13121
689.920	12881
689.965	13023
689.992	13117
690.010	13264
690.054	13221
690.099	12786
690.112	12865
690.144	13191
690.189	13277
690.233	13233
690.233	13247
690.278	12978
690.323	13328
690.354	13188
690.367	13356
690.412	13091
690.457	13450
690.474	13899
690.501	14344
690.546	13988
690.590	13966
690.595	13912
690.635	13934
690.680	14589
690.716	14760
690.724	14855
690.769	15425
690.813	16590
690.836	16631
690.857	17816
690.902	21566
690.946	24871
690.957	25784
690.991	31971
691.035	41048
691.077	49747
691.080	49762
691.124	44308
691.168	39162
691.198	36116
691.213	33753
691.257	27623
691.301	21239
691.318	18832
691.346	17978
691.390	16792
691.434	15407
691.439	15302
691.478	15467
691.522	14794
691.559	14664
691.567	14774
691.611	14942
691.655	15511
691.680	15656
691.699	15568
691.743	15409
691.787	15227
691.800	15103
691.831	14965
691.875	14993
691.919	15040
691.921	15004
691.964	14646
692.008	14938
692.041	14721
692.052	14687
692.096	14434
692.139	14385
692.162	14367
692.183	14337
692.227	14399
692.271	13766
692.282	13694
692.315	14078
692.359	14827
692.402	15355
692.403	15378
692.447	14740
692.490	14594
692.523	14225
692.534	14295
692.578	14463
692.622	14565
692.643	14625
692.666	14479
692.709	14477
692.753	14115
692.763	13977
692.797	14011
692.840	14504
692.884	14711
692.884	14738
692.928	14820
692.971	14883
693.004	14808
693.015	14860
693.059	14800
693.102	15545
693.124	15558
693.146	15538
693.189	15393
693.233	15575
693.245	15561
693.276	15994
693.320	16719
693.363	17077
693.365	17058
693.407	17594
693.450	18379
693.485	19027
693.493	19459
693.537	21685
693.580	23696
693.605	24908
693.624	27527
693.667	33553
693.710	40262
693.725	42614
693.753	54853
693.797	75252
693.840	95650
693.845	97434
693.883	87662
693.926	76071
693.966	66230
693.970	64901
694.013	51024
694.056	37169
694.086	27643
694.099	26786
694.142	23970
694.185	20962
694.206	19540
694.229	19240
694.272	18668
694.315	18308
694.326	18121
694.358	17872
694.401	17622
694.444	17290
694.446	17232
694.487	16917
694.530	16693
694.566	16438
694.573	16440
694.616	16277
694.659	15958
694.686	15894
694.702	16025
694.745	16144
694.787	16316
694.806	16366
694.830	16344
694.873	16116
694.916	15772
694.926	15724
694.959	16138
695.002	16547
695.044	16930
695.046	16921
695.087	17370
695.130	17277
695.166	17206
695.172	17249
695.215	17649
695.258	17757
695.286	17991
695.301	18092
695.343	18077
695.386	18236
695.406	18102
695.428	18578
695.471	19715
695.514	20761
695.526	21084
695.556	22138
695.599	23547
695.641	24666
695.646	24720
695.684	23803
695.726	22889
695.766	22116
695.769	22116
695.811	21330
695.854	20590
695.886	19903
695.896	20040
695.938	20526
695.981	20970
696.005	21240
696.023	21795
696.065	23156
696.108	24249
696.125	24677
696.150	24851
696.192	25021
696.235	25229
696.245	25243
696.277	25349
696.319	25218
696.361	25366
696.365	25304
696.404	25252
696.446	25127
696.485	25042
696.488	25084
696.530	24909
696.572	24757
696.604	24505
696.614	24507
696.656	24462
696.698	24163
696.724	24022
696.740	24213
696.783	24531
696.825	24976
696.844	25075
696.867	25155
696.909	25143
696.951	25181
696.964	25138
696.992	25255
697.034	25187
697.076	25472
697.083	25425
697.118	26138
697.160	26954
697.202	27754
697.203	27715
697.244	27401
697.286	26891
697.323	26403
697.327	26462
697.369	26511
697.411	26502
697.442	26425
697.453	26443
697.494	26344
697.536	26176
697.562	25991
697.578	26168
697.620	26536
697.661	26934
697.682	27058
697.703	27594
697.744	28483
697.786	29449
697.801	29688
697.828	29779
697.869	29855
697.911	30018
697.921	29981
697.952	29589
697.994	28916
698.035	28201
698.040	28068
698.077	28431
698.118	28621
698.160	28840
698.160	28772
698.201	29141
698.243	29473
698.279	29682
698.284	29853
698.325	30811
698.367	31741
698.399	32402
698.408	32460
698.449	32352
698.491	32280
698.518	32135
698.532	32422
698.573	33078
698.614	33748
698.638	34057
698.656	33890
698.697	33282
698.738	32695
698.757	32330
698.779	32542
698.820	32825
698.862	33094
698.877	33115
698.903	33238
698.944	33306
698.985	33383
698.996	33326
699.026	33412
699.067	33422
699.116	33358
699.235	31661
699.354	31728
699.474	30300
699.593	30168
699.713	30939
699.832	31394
699.951	33793
700.070	31698
700.190	29361
700.309	30406
700.428	28398
700.547	28546
700.667	28792
700.786	29800
700.905	26860
701.024	27882
701.143	27122
701.262	28290
701.381	28439
701.500	29618
701.619	28659
701.738	28974
701.857	28174
701.976	26858
702.095	27958
702.214	29077
702.333	27381
702.452	28854
702.571	28451
702.690	28685
702.809	27637
702.928	27065
703.047	25518
703.165	26145
703.284	26606
703.403	25294
703.522	25674
703.640	26086
703.759	25652
703.878	26724
703.997	26179
704.115	26720
704.234	26067
704.353	26579
704.471	23916
704.590	24537
704.708	23584
704.827	22717
704.946	23539
705.064	23884
705.183	23352
705.301	24464
705.420	24665
705.538	24042
705.656	22291
705.775	22832
705.893	27971
706.012	30482
706.130	22323
706.249	23860
706.367	21678
706.485	23546
706.604	21123
706.722	22728
706.840	25147
706.958	30546
707.077	24664
707.195	22584
707.313	22171
707.431	19905
707.549	20332
707.668	19370
707.786	22193
707.904	20823
708.022	21683
708.140	20312
708.258	20187
708.376	21981
708.494	19245
708.612	22729
708.730	23325
708.848	22559
708.966	22822
709.084	22069
709.202	21443
709.320	19700
709.438	18907
709.556	20203
709.674	18942
709.791	19493
709.909	18391
710.027	19275
710.145	19094
710.263	19021
710.380	19330
710.498	19037
710.616	18785
710.733	17803
710.851	18386
710.969	19238
711.086	18259
711.204	19594
711.322	17396
711.439	18046
711.557	17877
711.674	17532
711.792	17306
711.909	17752
712.027	17172
712.144	17732
712.262	18030
712.379	18440
712.497	18814
712.614	19619
712.732	18369
712.849	18252
712.966	18601
713.084	20629
713.201	17668
713.318	19621
713.436	20137
713.553	20195
713.670	22504
713.787	22826
713.905	21732
714.022	21377
714.139	23963
714.256	31518
714.373	48082
714.490	98855
714.608	277904
714.725	1106774
714.842	933536
714.959	98144
715.076	38936
715.193	29443
715.310	25195
715.427	20446
715.544	20332
715.661	19900
715.778	18684
715.895	19200
716.011	19194
716.128	18551
716.245	17261
716.362	18049
716.479	15977
716.596	15409
716.713	16477
716.829	15426
716.946	15083
717.063	15658
717.180	13834
717.296	14338
717.413	14953
717.530	14672
717.646	14408
717.763	14735
717.880	13513
717.996	13332
718.113	13521
718.229	13897
718.346	12706
718.462	13266
718.579	14740
718.695	16117
718.812	15259
718.928	15393
719.045	14046
719.161	14326
719.277	13346
719.394	14877
719.510	14580
719.626	18067
719.743	24296
719.859	43713
719.975	102163
720.092	432658
720.208	805490
720.324	93840
720.440	25663
720.557	20006
720.673	19840
720.789	19224
720.905	24626
721.021	16633
721.137	12623
721.253	13143
721.369	12157
721.486	14025
721.602	14051
721.718	12355
721.834	12339
721.950	12837
722.066	11724
722.181	11913
722.297	11337
722.413	12361
722.529	11418
722.645	11758
722.761	11955
722.877	12233
722.993	14869
723.108	21130
723.224	15382
723.340	13253
723.456	11094
723.571	10539
723.687	11039
723.803	12453
723.918	11456
724.034	10500
724.150	10330
724.265	11200
724.381	13400
724.497	14208
724.612	11317
724.728	11534
724.843	9554
724.959	10877
725.074	13591
725.190	14463
725.305	11302
725.421	11715
725.536	10303
725.651	11601
725.767	9341
725.882	10626
725.997	8840
726.113	11373
726.228	9586
726.343	9993
726.459	8787
726.574	10495
726.689	8833
726.804	9390
726.920	9474
727.035	9860
727.150	10199
727.265	10658
727.380	9858
727.495	10228
727.610	9265
727.725	10247
727.841	10383
727.956	14242
728.071	11688
728.186	9821
728.301	9040
728.416	10815
728.531	9547
728.645	8728
728.760	9828
728.875	10709
728.990	9700
729.105	10357
729.220	9826
729.335	10673
729.449	9729
729.564	9529
729.679	9073
729.794	9738
729.908	9664
730.023	10255
730.138	9887
730.253	9745
730.367	9637
730.482	10005
730.596	10117
730.711	12824
730.826	14854
730.940	15787
731.055	12068
731.169	12672
731.284	12743
731.398	14370
731.513	14458
731.627	16069
731.742	21713
731.856	24127
731.970	25768
732.085	35127
732.199	55008
732.313	108605
732.428	305351
732.542	810050
732.656	394401
732.771	77167
732.885	40818
732.999	35110
733.113	33256
733.227	30135
733.342	26765
733.456	27344
733.570	25536
733.684	23024
733.798	22522
733.912	23410
734.026	23472
734.140	22374
734.254	23045
734.368	23351
734.482	25065
734.596	21880
734.710	20803
734.824	20909
734.938	19676
735.052	21618
735.166	19816
735.280	20122
735.393	19486
735.507	21391
735.621	20661
735.735	20579
735.849	20057
735.962	18734
736.076	19811
736.190	19351
736.303	20612
736.417	19890
736.531	17482
736.644	18882
736.758	18213
736.872	17739
736.985	18239
737.099	18735
737.212	17710
737.326	17084
737.439	19374
737.553	17815
737.666	17371
737.780	16820
737.893	16584
738.007	16961
738.120	17081
738.233	16569
738.347	16512
738.460	16793
738.573	16604
738.687	15608
738.800	17566
738.913	18227
739.026	15883
739.140	16272
739.253	16285
739.366	15625
739.479	15243
739.592	16228
739.705	13841
739.818	16989
739.932	14645
740.045	17047
740.158	14175
740.271	16714
740.384	14501
740.497	14396
740.610	16419
740.723	14659
740.836	15597
740.949	16020
741.062	16965
741.174	14714
741.287	14783
741.400	15681
741.513	12061
741.626	15956
741.739	14916
741.851	14462
741.964	14811
742.077	14347
742.189	13378
742.302	15888
742.415	14973
742.527	14542
742.640	14340
742.753	11693
742.865	13828
742.978	13467
743.090	12521
743.203	14180
743.316	12045
743.428	12243
743.541	13102
743.653	12265
743.766	12967
743.878	13330
743.990	12409
744.103	14039
744.215	12651
744.327	12547
744.440	15259
744.552	13741
744.664	11190
744.777	14119
744.889	12158
745.001	12512
745.113	12718
745.226	11818
745.338	11436
745.450	13721
745.562	12134
745.674	11836
745.786	12988
745.898	12980
746.010	10130
746.122	12634
746.234	11800
746.347	12892
746.459	12144
746.570	11242
746.682	12781
746.794	14274
746.906	11194
747.018	12170
747.130	11439
747.242	10474
747.354	10375
747.466	12812
747.577	10835
747.689	12534
747.801	11534
747.913	10731
748.024	10440
748.136	11460
748.248	10561
748.359	11040
748.471	11062
748.583	9564
748.694	10332
748.806	11926
748.918	10358
749.029	10842
749.141	11567
749.252	11302
749.364	10080
749.475	11199
749.587	9867
749.698	9552
749.809	9875
749.921	10647
750.032	9247
750.144	9653
750.255	9250
750.366	10276
750.478	8822
750.589	9706
750.700	8514
750.811	10722
750.923	9904
751.034	11203
751.145	11732
751.256	8884
751.367	9018
751.479	10166
751.590	8275
751.701	10092
751.812	8902
751.923	9694
752.034	10995
752.145	11080
752.256	9670
752.367	9594
752.478	9451
752.589	10276
752.700	8991
752.811	8795
752.922	9455
753.032	10068
753.143	10128
753.254	8698
753.365	11502
753.476	10805
753.586	9288
753.697	9448
753.808	8885
753.919	8818
754.029	8293
754.140	9468
754.251	8270
754.361	9057
754.472	9149
754.582	8624
754.693	9514
754.804	10549
754.914	8357
755.025	8250
755.135	8577
755.246	10042
755.356	7789
755.466	8109
755.577	8603
755.687	9135
755.798	8066
755.908	8389
756.018	8740
756.129	9006
756.239	9274
756.349	11276
756.460	11457
756.570	11349
756.680	9770
756.790	10358
756.900	9857
757.011	9094
757.121	8261
757.231	8798
757.341	9465
757.451	7924
757.561	8558
757.671	9997
757.781	8525
757.891	9360
758.001	9003
758.111	10338
758.221	10401
758.331	11166
758.441	11747
758.551	11816
758.661	11827
758.771	11896
758.880	11275
758.990	10219
759.100	10046
759.210	11291
759.320	11676
759.429	12962
759.539	13929
759.649	14931
759.758	17019
759.868	18031
759.978	17082
760.087	19130
760.197	19007
760.307	18082
760.416	16134
760.526	15447
760.635	16479
760.745	18191
760.854	19895
760.964	23559
761.073	23143
761.182	20603
761.292	17625
761.401	16464
761.511	13074
761.620	13786
761.729	13387
761.839	13556
761.948	12566
762.057	12821
762.166	12913
762.276	12272
762.385	13599
762.494	14239
762.603	13322
762.712	13584
762.822	13952
762.931	13654
763.040	12773
763.149	13829
763.258	13598
763.367	14442
763.476	15038
763.585	15746
763.694	15668
763.803	16569
763.912	16701
764.021	17349
764.130	18043
764.238	20798
764.347	21512
764.456	24270
764.565	24127
764.674	25438
764.783	27078
764.891	29326
765.000	32504
765.109	36547
765.217	40583
765.326	49020
765.435	57289
765.543	70207
765.652	87464
765.761	113663
765.869	158171
765.978	234974
766.086	370494
766.195	612629
766.303	927827
766.412	809365
766.520	866686
766.629	797477
766.737	471297
766.846	290337
766.954	196459
767.062	143552
767.171	107244
767.279	85161
767.387	68678
767.496	58283
767.604	49399
767.712	45810
767.820	40140
767.928	37586
768.037	33634
768.145	33416
768.253	31534
768.361	31152
768.469	30217
768.577	31284
768.685	32627
768.793	36117
768.901	37553
769.009	44076
769.117	52988
769.225	70237
769.333	96024
769.441	151949
769.549	259655
769.657	497986
769.765	812670
769.873	756615
769.981	700774
770.088	365868
770.196	199435
770.304	127899
770.412	92910
770.519	70416
770.627	55352
770.735	46980
770.842	39553
770.950	36078
771.058	31939
771.165	30796
771.273	29063
771.380	28163
771.488	29427
771.595	29496
771.703	26456
771.810	26245
771.918	24184
772.025	26724
772.133	28821
772.240	26206
772.348	28828
772.455	27122
772.562	24910
772.670	24089
772.777	24730
772.884	23867
772.991	22169
773.099	23336
773.206	20711
773.313	21460
773.420	21179
773.528	21301
773.635	20647
773.742	20756
773.849	20563
773.956	20699
774.063	19257
774.170	19648
774.277	18948
774.384	18704
774.491	18270
774.598	19434
774.705	16830
774.812	18309
774.919	17834
775.026	18741
775.133	17226
775.239	17895
775.346	16812
775.453	17586
775.560	15860
775.667	17163
775.773	15411
775.880	17070
775.987	15815
776.093	17295
776.200	15422
776.307	13970
776.413	14637
776.520	17505
776.627	14791
776.733	13963
776.840	13324
776.946	18662
777.053	16162
777.159	17895
777.266	14210
777.372	17387
777.478	18375
777.585	15691
777.691	12375
777.798	14866
777.904	13297
778.010	14639
778.117	13993
778.223	13802
778.329	12598
778.435	12978
778.542	14386
778.648	13071
778.754	10960
778.860	13589
778.966	12501
779.072	13236
779.178	12991
779.284	11851
779.391	12507
779.497	13243
779.603	16320
779.708	17799
779.815	31694
779.920	104023
780.026	132970
780.132	23155
780.238	12702
780.344	12036
780.450	14461
780.556	9809
780.661	10957
780.767	12639
780.873	8952
780.979	10657
781.085	11286
781.190	10473
781.296	9604
781.402	10812
781.507	11048
781.613	9048
781.719	9455
781.824	11102
781.930	10015
782.035	10442
782.141	10511
782.246	8175
782.352	9313
782.457	11767
782.563	9775
782.668	10972
782.773	7892
782.879	8031
782.984	10057
783.090	9712
783.195	10521
783.300	11204
783.405	8499
783.511	7849
783.616	9167
783.721	9272
783.826	7839
783.932	8238
784.037	9331
784.142	9688
784.247	7677
784.352	8675
784.457	7095
784.562	10104
784.667	8789
784.772	7370
784.877	5688
784.982	9877
785.087	8219
785.192	8352
785.297	7649
785.402	9110
785.507	8144
785.611	8367
785.716	7415
785.821	8580
785.926	7969
786.031	7367
786.135	7798
786.240	7695
786.345	5871
786.450	7635
786.554	7173
786.659	7018
786.763	6341
786.868	8087
786.973	9030
787.077	6385
787.182	6418
787.286	7730
787.391	7825
787.495	5516
787.600	5910
787.704	5913
787.809	7076
787.913	7538
788.017	7087
788.122	8154
788.226	6506
788.330	5670
788.435	7220
788.539	7826
788.643	6192
788.747	5657
788.852	6432
788.956	5727
789.060	7584
789.164	7760
789.268	5064
789.372	7028
789.476	4987
789.580	5114
789.684	5140
789.788	7768
789.892	5858
789.996	5424
790.100	4630
790.204	7196
790.308	7014
790.412	5394
790.516	4946
790.620	5647
790.724	6402
790.828	5512
790.931	4136
791.035	6145
791.139	4572
791.242	5567
791.346	5411
791.450	5698
791.554	4409
791.657	4912
791.761	5385
791.864	6520
791.968	6640
792.072	6181
792.175	4428
792.279	5186
792.382	4728
792.486	5674
792.589	4718
792.693	6060
792.796	4240
792.899	5793
793.003	6406
793.106	4618
793.209	5301
793.313	5731
793.416	2428
793.519	6003
793.623	7218
793.726	6758
793.829	3512
793.932	3903
794.035	4039
794.138	6547
794.242	5632
794.345	6614
794.448	8726
794.551	16922
794.654	53645
794.757	73926
794.860	11150
794.963	6538
795.066	5106
795.169	6231
795.272	4576
795.375	6898
795.477	3600
795.580	4483
795.683	3238
795.786	6266
795.889	3769
795.991	5312
796.094	5021
796.197	3761
796.300	5791
796.402	5539
796.505	3803
796.608	4067
796.710	4947
796.813	6288
796.915	5873
797.018	5748
797.120	5810
797.223	4701
797.326	6076
797.428	3945
797.530	3626
797.633	4230
797.735	6295
797.838	5169
797.940	6172
798.042	3148
798.145	3632
798.247	4780
798.349	2527
798.452	5296
798.554	4581
798.656	5692
798.758	5896
798.860	5842
798.962	3080
799.065	4217
799.167	3304
799.269	5643
799.371	5816
799.473	8786
799.575	5516
799.677	4833
799.779	5757
799.881	3444
799.983	5538
800.085	3589
800.187	3056
800.289	3159
800.390	3731
800.492	5170
800.594	4483
800.696	3448
800.798	3759
800.899	3851
801.001	3918
801.103	4979
801.205	4296
801.306	4669
801.408	3374
801.509	4055
801.611	3937
801.713	4524
801.814	1907
801.916	3225
802.017	3299
802.119	3556
802.220	3497
802.322	2734
802.423	4522
802.525	2355
802.626	3094
802.727	3576
802.829	4310
802.930	1135
803.031	3813
803.133	3318
803.234	3370
803.335	4004
803.436	2343
803.538	4123
803.639	1887
803.740	3987
803.841	2660
803.942	4182
804.043	3540
804.144	2934
804.245	4233
804.346	3383
804.447	2588
804.548	3357
804.649	3944
804.750	3452
804.851	2514
804.952	3340
805.053	2269
805.154	2419
805.255	4169
805.355	3018
805.456	2393
805.557	2593
805.658	885
805.758	3107
805.859	2989
805.960	3346
806.061	1991
806.161	2495
806.262	2613
806.362	2188
806.463	1879
806.564	3285
806.664	2584
806.765	1942
806.865	2239
806.966	2052
807.066	1317
807.166	4064
807.267	2705
807.367	1941
807.468	3319
807.568	1081
807.668	3070
807.769	3192
807.869	2261
807.969	3112
808.069	2020
808.170	3631
808.270	2016
808.370	2534
808.470	2399
808.570	1955
808.670	1558
808.770	3396
808.870	2200
808.970	3945
809.070	1914
809.170	2492
809.271	3013
809.370	2159
809.470	2265
809.570	2058
809.670	1589
809.770	2292
809.870	2359
809.970	3671
810.070	2130
810.169	2980
810.269	866
810.369	3494
810.469	2476
810.568	2594
810.668	1086
810.768	2507
810.867	2168
810.967	2115
811.066	1905
811.166	2751
811.265	2480
811.365	2414
811.464	2628
811.564	2825
811.663	3083
811.763	1769
811.862	2870
811.962	3665
812.061	1975
812.160	1630
812.260	2434
812.359	4201
812.458	4073
812.557	12384
812.657	14086
812.756	5682
812.855	2842
812.954	2935
813.053	2280
813.153	3147
813.252	1586
813.351	2497
813.450	2389
813.549	1915
813.648	2347
813.747	2325
813.846	2419
813.945	2397
814.044	2231
814.143	2688
814.242	2926
814.341	2524
814.439	2595
814.538	3808
814.637	2879
814.736	3060
814.835	3521
814.933	3441
815.032	4434
815.131	6117
815.229	10532
815.328	14203
815.427	10003
815.525	8531
815.624	7604
815.722	8163
815.821	9490
815.919	8970
816.018	7742
816.116	9012
816.215	8690
816.313	9537
816.412	11367
816.510	11869
816.609	13373
816.707	14002
816.805	11919
816.904	13037
817.002	13449
817.100	13286
817.198	13748
817.296	12360
817.395	11193
817.493	11803
817.591	10710
817.689	10857
817.787	10659
817.885	10586
817.983	10603
818.081	11640
818.179	11861
818.277	16766
818.375	13682
818.473	10963
818.571	9241
818.669	11507
818.767	11398
818.865	10121
818.963	8378
819.061	9634
819.158	9931
819.256	12945
819.354	12253
819.452	20151
819.549	14465
819.647	11995
819.745	8358
819.842	9878
819.940	9128
820.038	8990
820.135	8280
820.233	10849
820.330	9477
820.428	7849
820.525	9482
820.623	7252
820.720	6863
820.818	8951
820.915	8647
821.012	9376
821.110	6929
821.207	9588
821.304	6824
821.402	9337
821.499	8707
821.596	7724
821.693	8012
821.791	9210
821.888	7473
821.985	10165
822.082	6657
822.179	10084
822.276	8588
822.373	7421
822.470	7253
822.567	8257
822.664	5801
822.761	8245
822.858	7584
822.955	7059
823.052	6491
823.149	7477
823.246	7366
823.343	5825
823.440	6366
823.536	8334
823.633	6627
823.730	6086
823.827	7773
823.923	6835
824.020	7105
824.117	8701
824.213	7055
824.310	7311
824.407	5021
824.503	7260
824.600	6251
824.696	5775
824.793	7598
824.889	7584
824.986	5633
825.082	5114
825.179	6554
825.275	7899
825.371	7487
825.468	6248
825.564	3921
825.660	8416
825.757	8294
825.853	6286
825.949	5267
826.045	5656
826.142	5603
826.238	5948
826.334	6476
826.430	5716
826.526	4258
826.622	4793
826.718	6296
826.814	7066
826.910	6018
827.006	3053
827.102	4192
827.198	6090
827.294	6382
827.390	6662
827.486	4589
827.582	3750
827.678	4874
827.774	7351
827.869	3618
827.965	5381
828.061	3599
828.157	6752
828.252	5843
828.348	4391
828.444	4872
828.539	3873
828.635	5544
828.731	5337
828.826	5126
828.922	7056
829.017	5765
829.113	6937
829.208	4454
829.304	5546
829.399	8183
829.495	5502
829.590	4893
829.685	4586
829.781	5546
829.876	5490
829.971	3132
830.066	2639
830.162	4696
830.257	7376
830.352	3840
830.447	5032
830.543	4804
830.638	4414
830.733	6165
830.828	5441
830.923	5529
831.018	5912
831.113	6192
831.208	3535
831.303	3448
831.398	3003
831.493	4618
831.588	7404
831.683	3677
831.778	3111
831.873	3588
831.967	6113
832.062	5520
832.157	3423
832.252	4882
832.346	4130
832.441	5305
832.536	4968
832.631	5206
832.725	3984
832.820	4173
832.914	4445
833.009	2779
833.104	3487
833.198	3309
833.293	4308
833.387	4632
833.482	4447
833.576	4271
833.670	5410
833.765	5136
833.859	6255
833.954	5224
834.048	4278
834.142	3531
834.237	3871
834.331	2941
834.425	5154
834.519	2510
834.613	3422
834.708	3084
834.802	4171
834.896	2807
834.990	4267
835.084	2783
835.178	3684
835.272	2906
835.366	4565
835.460	4883
835.554	3984
835.648	2921
835.742	2718
835.836	3189
835.930	3076
836.024	3658
836.117	4560
836.211	2752
836.305	3025
836.399	3257
836.493	2541
836.586	4255
836.680	3351
836.774	2524
836.867	3953
836.961	2533
837.055	2251
837.148	2490
837.242	3109
837.335	3567
837.429	2698
837.522	2163
837.616	2968
837.709	3032
837.803	2507
837.896	3455
837.989	3541
838.083	2112
838.176	2877
838.269	2340
838.363	4347
838.456	1649
838.549	3217
838.642	2538
838.735	4218
838.829	3153
838.922	2546
839.015	2104
839.108	2011
839.201	2043
839.294	2772
839.387	2518
839.480	1822
839.573	2308
839.666	2635
839.759	2270
839.852	2030
839.945	3065
840.038	1981
840.131	1631
840.223	2268
840.316	2797
840.409	2603
840.502	2340
840.594	3767
840.687	733
840.780	1717
840.873	946
840.965	1882
841.058	2892
841.150	3762
841.243	1761
841.336	2710
841.428	1653
841.521	2103
841.613	1922
841.706	2569
841.798	2082
841.890	2220
841.983	1222
842.075	3011
842.167	1647
842.260	3041
842.352	2644
842.444	2692
842.537	1914
842.629	3724
842.721	2116
842.813	2625
842.905	1057
842.997	2299
843.090	1993
843.182	2702
843.274	1549
843.366	4208
843.458	6183
843.550	6086
843.642	1960
843.734	3278
843.826	2097
843.918	1970
844.009	2611
844.101	1255
844.193	2181
844.285	2255
844.377	1623
844.469	2593
844.560	1587
844.652	2512
844.744	2130
844.835	2269
844.927	2651
845.019	2999
845.110	1586
845.202	3043
845.293	1146
845.385	1203
845.476	1777
845.568	2623
845.659	1782
845.751	2451
845.842	1525
845.934	1918
846.025	833
846.116	2194
846.208	1635
846.299	1396
846.390	752
846.482	2634
846.573	2326
846.664	2339
846.755	1439
846.846	3004
846.937	295
847.029	1123
847.120	1079
847.211	1482
847.302	2581
847.393	1161
847.484	2142
847.575	1753
847.666	1863
847.757	1168
847.847	1924
847.938	3486
848.029	1648
848.120	2255
848.211	1009
848.302	895
848.392	1362
848.483	1847
848.574	1692
848.664	2345
848.755	1725
848.846	2598
848.936	2366
849.027	2770
849.118	3713
849.208	3995
849.299	6832
849.389	13124
849.480	25292
849.570	51248
849.661	97434
849.751	142756
849.841	49367
849.932	9853
850.022	4280
850.112	4193
850.203	3363
850.293	2915
850.383	1663
850.474	2296
850.564	1981
850.654	1953
850.744	1536
850.834	2458
850.924	2151
851.014	2737
851.104	2503
851.194	2041
851.284	1886
851.374	2523
851.464	1475
851.554	2558
851.644	1650
851.734	3212
851.824	2293
851.914	2983
852.004	5090
852.094	3474
852.183	1238
852.273	1935
852.363	1754
852.452	2545
852.542	2286
852.632	2182
852.721	2452
852.811	2207
852.901	3448
852.990	3197
853.080	3265
853.169	4216
853.259	4475
853.348	5794
853.438	7416
853.527	11030
853.617	16569
853.706	29717
853.795	51523
853.885	101769
853.974	174888
854.063	300201
854.152	365819
854.242	168587
854.331	51932
854.420	24273
854.509	15435
854.598	12498
854.687	8891
854.777	8007
854.866	4714
854.955	5449
855.044	2948
855.133	3952
855.222	2926
855.311	3013
855.400	2560
855.488	3155
855.577	2327
855.666	3407
855.755	2947
855.844	2548
855.933	1915
856.021	2526
856.110	2570
856.199	1897
856.288	915
856.376	1288
856.465	1486
856.554	2348
856.642	1796
856.731	3024
856.819	1886
856.908	2164
856.996	1671
857.085	1118
857.173	811
857.262	1397
857.350	866
857.438	2327
857.527	1194
857.615	1073
857.703	2284
857.792	1621
857.880	914
857.968	959
858.056	1398
858.145	1702
858.233	1817
858.321	1754
858.409	1913
858.497	2021
858.585	632
858.673	1782
858.761	888
858.849	504
858.937	1001
859.025	1282
859.113	907
859.201	1730
859.289	1742
859.377	2498
859.465	1207
859.552	1567
859.640	893
859.728	1919
859.816	769
859.903	2769
859.991	817
860.079	1174
860.166	548
860.254	1856
860.342	1901
860.429	912
860.517	1026
860.604	1141
860.692	781
860.779	1306
860.867	1053
860.954	1760
861.042	1459
861.129	2555
861.216	812
861.304	2027
861.391	1119
861.478	2255
861.565	1377
861.653	2922
861.740	132
861.827	2010
861.914	1260
862.001	1575
862.089	805
862.176	1983
862.263	243
862.350	1414
862.437	348
862.524	2212
862.611	1697
862.698	2642
862.785	1432
862.871	2381
862.958	1665
863.045	1564
863.132	2024
863.219	1532
863.306	570
863.392	2063
863.479	1322
863.566	1585
863.652	1633
863.739	1951
863.826	2188
863.912	2603
863.999	2185
864.086	2003
864.172	1214
864.259	2731
864.345	2867
864.432	3171
864.518	2099
864.604	3164
864.691	1602
864.777	3770
864.863	4791
864.950	5846
865.036	7321
865.122	14193
865.209	13068
865.295	13135
865.381	11958
865.467	14127
865.553	16548
865.639	22317
865.726	33919
865.812	60690
865.898	100234
865.984	148453
866.070	243737
866.156	230784
866.242	84312
866.328	30569
866.414	18302
866.499	16451
866.585	13307
866.671	12275
866.757	11939
866.843	10602
866.928	9357
867.014	9452
867.100	9838
867.186	9032
867.271	8329
867.357	9019
867.442	9477
867.528	7399
867.614	7662
867.699	8756
867.785	7991
867.870	8022
867.956	7783
868.041	8612
868.127	7849
868.212	8906
868.297	8314
868.383	8291
868.468	7700
868.553	8685
868.639	7662
868.724	8909
868.809	8154
868.894	6989
868.979	6332
869.065	7383
869.150	5599
869.235	7277
869.320	6199
869.405	6564
869.490	7131
869.575	6589
869.660	5938
869.745	7932
869.830	7523
869.915	5199
870.000	6255
870.085	6661
870.169	7970
870.254	8640
870.339	4556
870.424	6365
870.509	6791
870.593	7193
870.678	6505
870.763	5763
870.847	5303
870.932	7177
871.016	6222
871.101	5127
871.186	6910
871.270	7831
871.355	5048
871.439	5218
871.523	6254
871.608	4999
871.692	4966
871.777	7957
871.861	5913
871.945	5760
872.030	5939
872.114	5597
872.198	5243
872.282	5677
872.367	5297
872.451	5417
872.535	4922
872.619	6312
872.703	5440
872.787	5768
872.871	5615
872.955	4584
873.039	4197
873.123	5301
873.207	5413
873.291	4562
873.375	4787
873.459	6711
873.543	5118
873.627	4763
873.711	3438
873.794	5674
873.878	4552
873.962	4430
874.045	4689
874.129	5026
874.137	4981
874.213	4533
874.245	4495
874.296	4435
874.352	3957
874.380	3721
874.460	4544
874.464	4579
874.547	3527
874.568	3993
874.631	5386
874.676	4851
874.714	4385
874.784	5062
874.798	5202
874.881	4618
874.892	4529
874.965	3957
874.999	4640
875.048	5544
875.107	5141
875.131	4978
875.215	3844
875.215	3843
875.298	3494
875.323	3644
875.381	4063
875.430	5357
875.465	6187
875.538	4331
875.548	4080
875.631	3375
875.646	3181
875.714	2410
875.753	3611
875.798	4949
875.861	4319
875.881	4076
875.964	3625
875.968	3616
876.047	3695
876.076	3871
876.130	4136
876.183	3742
876.213	3570
876.291	4693
876.296	4755
876.379	3602
876.398	3650
876.462	3821
876.506	3428
876.545	3120
876.613	3331
876.628	3406
876.711	3602
876.721	3732
876.794	4559
876.828	4209
876.877	3626
876.935	3442
876.960	3426
877.043	2991
877.043	2997
877.125	4741
877.150	4936
877.208	5087
877.258	4321
877.291	3892
877.365	3749
877.374	3709
877.456	3717
877.472	3607
877.539	3574
877.579	4061
877.622	4415
877.687	4375
877.704	4400
877.787	4223
877.794	4246
877.869	4405
877.901	4687
877.952	4822
878.008	3323
878.034	2804
878.115	2719
878.117	2719
878.199	3190
878.222	3469
878.282	4232
878.329	4632
878.364	4850
878.437	4718
878.447	4651
878.529	2523
878.544	2570
878.611	3121
878.651	3125
878.694	3407
878.758	4586
878.776	4782
878.858	4064
878.865	4020
878.941	3282
878.972	3083
879.023	2887
879.078	3009
879.105	3348
879.185	4161
879.187	4164
879.269	4392
879.292	4298
879.351	4003
879.399	3736
879.433	3649
879.506	3932
879.516	3957
879.598	3515
879.613	3381
879.680	3010
879.720	3630
879.762	4201
879.827	3509
879.844	3315
879.926	3860
879.933	3838
880.007	3812
880.040	4063
880.089	4391
880.147	4941
880.171	5316
880.253	8028
880.254	8036
880.335	8342
880.360	8837
880.417	10836
880.467	14187
880.499	16147
880.574	17761
880.580	17731
880.662	8108
880.680	7132
880.744	3819
880.787	3016
880.825	2926
880.893	3994
880.907	4157
880.989	2530
881.000	2681
881.070	4302
881.106	4269
881.152	3616
881.213	3019
881.233	2899
881.315	3055
881.319	3058
881.396	3627
881.426	3615
881.478	3746
881.532	4437
881.559	4557
881.639	3865
881.641	3844
881.722	3128
881.745	2994
881.803	3545
881.852	4139
881.885	4026
881.958	2583
881.966	2554
882.047	3937
882.064	3951
882.129	2875
882.171	2486
882.210	2590
882.277	2686
882.291	2756
882.372	3426
882.383	3545
882.454	4678
882.489	4831
882.535	4518
882.596	4229
882.616	4195
882.697	4219
882.702	4179
882.778	2820
882.808	2647
882.859	3015
882.914	3074
882.940	3262
883.020	4261
883.021	4269
883.102	4012
883.127	4163
883.183	4979
883.233	4971
883.264	4266
883.339	2737
883.345	2667
883.426	1873
883.445	1821
883.507	2816
883.551	3302
883.587	3471
883.657	4056
883.668	4170
883.749	4698
883.763	4692
883.830	3261
883.869	2627
883.910	2798
883.975	3181
883.991	3257
884.072	3632
884.081	3665
884.152	4693
884.187	5035
884.233	4881
884.292	4722
884.314	4190
884.394	1676
884.398	1588
884.475	1855
884.504	1878
884.555	2146
884.610	2440
884.636	2772
884.716	3736
884.716	3752
884.797	5341
884.821	5616
884.877	4601
884.927	3700
884.958	3358
885.033	2389
885.038	2371
885.118	2485
885.139	2457
885.199	2671
885.244	3014
885.279	3439
885.350	4000
885.359	4192
885.439	6151
885.456	6336
885.520	4129
885.561	3093
885.600	3103
885.667	3121
885.680	3223
885.760	3457
885.773	3477
885.840	2802
885.878	2736
885.920	3185
885.984	3493
886.000	3493
886.080	3548
886.089	3522
886.160	3852
886.195	4139
886.240	4108
886.300	3853
886.320	3872
886.400	4072
886.406	4063
886.480	2907
886.511	2572
886.560	2928
886.616	2832
886.640	2727
886.720	3086
886.722	3082
886.800	3117
886.827	3171
886.879	3445
886.932	3591
886.959	3948
887.038	5079
887.039	5086
887.119	4639
887.143	4520
887.198	4327
887.248	4082
887.278	3826
887.354	3333
887.358	3375
887.437	3769
887.459	3977
887.517	4364
887.564	4482
887.596	3728
887.669	2097
887.676	2149
887.755	2671
887.774	2825
887.835	2757
887.880	2737
887.914	3264
887.985	4162
887.994	4264
888.073	5173
888.090	5345
888.153	5526
888.195	5524
888.232	4954
888.300	4122
888.311	4018
888.391	2979
888.405	2811
888.470	2680
888.510	2595
888.549	2870
888.615	3328
888.628	3538
888.708	4677
888.720	4849
888.787	4358
888.825	4061
888.866	3223
888.930	1933
888.945	2286
889.024	4107
889.035	4347
889.103	4228
889.140	4121
889.182	4011
889.245	3878
889.261	4100
889.340	5086
889.349	5189
889.419	3900
889.454	3215
889.498	3028
889.559	2804
889.577	3168
889.656	4710
889.664	4855
889.735	4175
889.768	3830
889.814	4126
889.873	4497
889.978	4054
890.083	3648
890.187	3790
890.292	5089
890.397	3778
890.501	4251
890.606	3263
890.710	3998
890.815	5378
890.919	3461
891.024	4697
891.128	2317
891.233	2755
891.337	5157
891.442	4137
891.546	3995
891.650	3455
891.755	2928
891.859	4674
891.963	4518
892.068	4623
892.172	3431
892.276	2037
892.380	3332
892.484	4676
892.589	4949
892.693	3611
892.797	2355
892.901	2611
893.005	3518
893.109	5384
893.213	5058
893.317	4472
893.421	2559
893.525	1835
893.629	2814
893.733	4769
893.837	4188
893.941	3005
894.045	2859
894.148	1872
894.252	3829
894.356	5262
894.460	5033
894.564	3150
894.667	3073
894.771	2528
894.875	2448
894.978	3594
895.082	3685
895.186	3903
895.289	3273
895.393	2938
895.496	4235
895.600	2729
895.703	1881
895.807	2948
895.910	2808
896.014	3121
896.117	2929
896.221	3940
896.324	2930
896.427	2859
896.531	2716
896.634	3270
896.737	2947
896.840	3378
896.944	4571
897.047	3872
897.150	2590
897.253	2138
897.356	2477
897.460	1510
897.563	2091
897.666	4766
897.769	3444
897.872	1217
897.975	2401
898.078	2568
898.181	2197
898.284	2725
898.387	4679
898.490	3779
898.593	2351
898.695	2621
898.798	2570
898.901	2517
899.004	2630
899.107	2951
899.209	3745
899.312	5146
899.415	2496
899.518	1288
899.620	1145
899.723	1779
899.826	2467
899.928	2370
900.031	2562
900.133	3821
900.236	2837
900.338	1671
900.441	2256
900.543	2453
900.646	2553
900.748	2245
900.851	3732
900.953	2181
901.055	2293
901.158	2307
901.260	1969
901.362	1100
901.465	2762
901.567	3941
901.669	3439
901.771	2480
901.873	2229
901.976	2300
902.078	2355
902.180	2030
902.282	2423
902.384	2687
902.486	3463
902.588	2344
902.690	1809
902.792	2077
902.894	2714
902.996	3300
903.098	2919
903.200	1623
903.302	2318
903.404	1624
903.505	1704
903.607	2066
903.709	4133
903.811	3269
903.913	2211
904.014	1017
904.116	1206
904.218	1808
904.319	3337
904.421	4616
904.523	3347
904.624	1977
904.726	2325
904.827	1760
904.929	2162
905.030	2535
905.132	3750
905.233	2110
905.335	1556
905.436	1434
905.537	1306
905.639	2364
905.740	3041
905.841	3507
905.943	3151
906.044	1424
906.145	1569
906.247	1775
906.348	2665
906.449	2144
906.550	3118
906.651	2423
906.752	1809
906.854	2295
906.955	1411
907.056	2292
907.157	3883
907.258	3069
907.359	1186
907.460	665
907.561	1449
907.662	1733
907.762	2262
907.863	2565
907.964	3195
908.065	2678
908.166	2015
908.267	1624
908.367	1864
908.468	2007
908.569	3465
908.670	2868
908.770	3427
908.871	2341
908.971	2525
909.072	1514
909.173	2078
909.273	2234
909.374	3656
909.474	1689
909.575	1702
909.675	1127
909.776	2482
909.876	2256
909.977	3015
910.077	2751
910.177	2930
910.278	2251
910.378	1966
910.478	2550
910.579	2622
910.679	3071
910.779	2601
910.879	2447
910.980	2862
911.080	2805
911.180	1919
911.280	918
911.380	2617
911.480	1298
911.580	2342
911.680	2282
911.780	2760
911.880	2688
911.980	1889
912.080	2159
912.180	2484
912.280	1724
912.380	1838
912.480	1135
912.580	2025
912.679	2101
912.779	3467
912.879	3182
912.979	2865
913.078	1864
913.178	1137
913.278	2297
913.377	2216
913.477	2209
913.577	2338
913.676	3370
913.776	3316
913.875	2308
913.975	2356
914.074	2809
914.174	2123
914.273	1868
914.373	3236
914.472	1982
914.572	1845
914.671	2586
914.770	2367
914.870	1914
914.969	1260
915.068	3154
915.167	2514
915.267	1726
915.366	1923
915.465	2255
915.564	3268
915.663	3477
915.763	2449
915.862	3295
915.961	2763
916.060	1409
916.159	2020
916.258	1864
916.357	2569
916.456	2585
916.555	1941
916.654	2296
916.752	2189
916.851	2665
916.950	2305
917.049	2068
917.148	1836
917.247	1880
917.345	1732
917.444	1729
917.543	2283
917.642	3026
917.740	2996
917.839	4015
917.937	4066
918.036	2508
918.135	2976
918.233	1729
918.332	2045
918.430	1956
918.529	2490
918.627	3444
918.726	2779
918.824	2636
918.923	1990
919.021	2051
919.119	2319
919.218	1988
919.316	3137
919.414	2202
919.512	2996
919.611	2484
919.709	2317
919.807	4033
919.905	4629
920.003	3355
920.102	3584
920.200	3083
920.298	4337
920.396	2990
920.494	3457
920.592	3231
920.690	3755
920.788	2674
920.886	2857
920.984	4393
921.082	3854
921.180	4593
921.277	5049
921.375	6709
921.473	7508
921.571	6624
921.669	6324
921.766	5704
921.864	6461
921.962	5532
922.060	6249
922.157	6097
922.255	7459
922.352	6599
922.450	7468
922.548	7781
922.645	7848
922.743	10217
922.840	18147
922.938	18310
923.035	16108
923.133	16165
923.230	19230
923.327	21995
923.425	19838
923.522	20242
923.619	17503
923.717	16752
923.814	16997
923.911	15363
924.008	17223
924.106	14649
924.203	16307
924.300	17245
924.397	16057
924.494	16283
924.591	15285
924.688	15691
924.786	16201
924.883	16286
924.979	16252
925.077	14903
925.173	15167
925.270	14953
925.367	16154
925.464	16426
925.561	17317
925.658	15929
925.755	14202
925.852	15945
925.948	15421
926.045	14431
926.142	15787
926.239	14799
926.335	12548
926.432	14959
926.529	15628
926.625	16953
926.722	12798
926.818	12633
926.915	16306
927.011	14338
927.108	14257
927.204	14253
927.301	13147
927.397	15902
927.494	15535
927.590	10100
927.687	13232
927.783	15152
927.879	14832
927.976	12767
928.072	12786
928.168	13520
928.264	13462
928.361	12555
928.457	14617
928.553	11801
928.649	13283
928.745	12842
928.841	12269
928.937	12748
929.033	11945
929.129	12681
929.225	14662
929.321	11138
929.417	11785
929.513	14220
929.609	12414
929.705	12516
929.801	12836
929.897	10682
929.993	11648
930.089	11602
930.184	10988
930.280	12557
930.376	15007
930.471	10420
930.567	10121
930.663	11002
930.758	11116
930.854	11128
930.950	10364
931.045	9976
931.141	11947
931.236	15001
931.332	10628
931.427	9512
931.523	13010
931.618	11441
931.714	8420
931.809	10420
931.905	12102
932.000	8427
932.095	9348
932.191	12405
932.286	13600
932.381	9634
932.476	8711
932.572	9783
932.667	9046
932.762	9912
932.857	10550
932.952	12060
933.047	9176
933.142	8149
933.237	9697
933.332	11078
933.427	11620
933.522	9046
933.617	8223
933.712	9970
933.807	11992
933.902	11955
933.997	11659
934.092	8450
934.187	9232
934.282	9692
934.376	11235
934.471	9677
934.566	8822
934.661	7996
934.755	10118
934.850	11480
934.945	8665
935.039	7615
935.134	6568
935.228	10662
935.323	12035
935.417	7473
935.512	6341
935.606	6840
935.701	10761
935.795	9709
935.890	9452
935.984	6983
936.079	7235
936.173	8215
936.267	8001
936.362	7896
936.456	10117
936.550	10780
936.644	8672
936.738	6920
936.833	6555
936.927	5755
937.021	7053
937.115	9144
937.209	8492
937.303	7932
937.397	7228
937.491	7932
937.585	9717
937.679	8116
937.773	6662
937.867	5915
937.961	7094
938.055	9745
938.149	8014
938.243	5106
938.337	5728
938.430	7376
938.524	8902
938.618	7546
938.712	6916
938.805	6328
938.899	8701
938.993	9078
939.086	5873
939.180	5154
939.274	6247
939.367	8838
939.461	8662
939.554	6563
939.648	5131
939.741	6109
939.835	7834
939.928	9729
940.022	8474
940.115	7160
940.208	8081
940.302	9197
940.395	9405
940.488	5835
940.582	7508
940.675	4379
940.768	6360
940.861	8393
940.954	8299
941.048	3899
941.141	5093
941.234	6360
941.327	7015
941.420	6960
941.513	7158
941.606	5253
941.699	6217
941.792	7196
941.885	6699
941.978	7101
942.071	7009
942.164	3521
942.257	5392
942.349	5332
942.442	6395
942.535	5365
942.628	5591
942.721	6419
942.813	5449
942.906	7368
942.999	5646
943.091	5680
943.184	5720
943.277	5396
943.369	4262
943.462	4014
943.554	5380
943.647	5169
943.739	7483
943.832	6877
943.924	3506
944.017	4545
944.109	4399
944.201	4615
944.294	4911
944.386	5310
944.478	5060
944.571	3670
944.663	5231
944.755	5871
944.847	6472
944.940	4238
945.032	3059
945.124	3870
945.216	6078
945.308	5211
945.400	5416
945.492	4323
945.584	6624
945.676	6930
945.768	6057
945.860	6282
945.952	6347
946.044	4605
946.136	5160
946.228	4624
946.320	4542
946.412	6004
946.503	6705
946.595	6416
946.687	4189
946.779	2686
946.870	4332
946.962	3920
947.054	4526
947.145	5067
947.237	4184
947.329	4425
947.420	5136
947.512	4132
947.603	3301
947.695	3485
947.786	3848
947.878	4375
947.969	5243
948.061	5691
948.152	4674
948.243	2700
948.335	3253
948.426	3379
948.517	4517
948.609	5747
948.700	4919
948.791	3716
948.882	2656
948.973	3788
949.065	4448
949.156	3930
949.247	3030
949.338	4440
949.429	1949
949.520	3973
949.611	4330
949.702	5004
949.793	3680
949.884	4007
949.975	3638
950.066	2882
950.157	2943
950.247	3642
950.338	2838
950.429	2982
950.520	3925
950.611	3129
950.701	4810
950.792	5752
950.883	5233
950.973	4240
951.064	4280
951.155	4323
951.245	4708
951.336	5299
951.427	4675
951.517	5882
951.608	4474
951.698	3790
951.788	2847
951.879	1996
951.969	3222
952.060	3923
952.150	4404
952.240	5229
952.331	3882
952.421	5294
952.511	2267
952.602	2506
952.692	2116
952.782	3202
952.872	3946
952.962	4077
953.052	3108
953.143	2839
953.233	3690
953.323	3328
953.413	4574
953.503	4143
953.593	4183
953.683	2576
953.773	2557
953.863	2819
953.953	2992
954.042	3949
954.132	3844
954.222	3758
954.312	1713
954.402	2713
954.492	3282
954.581	3683
954.671	3732
954.761	3988
954.850	3216
954.940	2128
955.030	3072
955.119	2390
955.209	3105
955.298	4187
955.388	4361
955.477	4078
955.567	1963
955.656	3345
955.746	3958
955.835	2551
955.925	2186
956.014	3779
956.103	4183
956.193	5319
956.282	3746
956.371	3830
956.461	3564
956.550	2477
956.639	2679
956.728	3283
956.817	3177
956.906	3733
956.995	3786
957.085	1545
957.174	2749
957.263	3042
957.352	2821
957.441	3150
957.530	2966
957.619	3031
957.708	2714
957.796	2801
957.885	3913
957.974	2610
958.063	3152
958.152	1754
958.241	2299
958.329	2538
958.418	3001
958.507	3392
958.596	3803
958.684	3208
958.773	3766
958.861	2663
958.950	1593
959.039	1935
959.127	3068
959.216	3863
959.304	2432
959.393	2974
959.481	3186
959.570	2635
959.658	2420
959.746	2514
959.835	3102
959.923	2671
960.011	2187
960.100	3892
960.188	4211
960.276	2763
960.365	1871
960.453	1590
960.541	2115
960.629	2642
960.717	1938
960.805	1575
960.893	2951
960.981	2296
961.069	4365
961.158	4507
961.245	4765
961.333	3383
961.421	2341
961.509	2290
961.597	3074
961.685	3391
961.773	2449
961.861	2530
961.949	3253
962.036	1635
962.124	2410
962.212	1941
962.299	1939
962.387	1114
962.475	3456
962.562	1772
962.650	2758
962.738	3089
962.825	1715
962.913	1269
963.000	2106
963.088	2817
963.175	2241
963.263	1667
963.350	2526
963.438	2488
963.525	1547
963.612	1945
963.700	1717
963.787	3501
963.874	2864
963.962	1673
964.049	1248
964.136	1555
964.223	2384
964.310	1943
964.398	1987
964.485	2186
964.572	2326
964.659	2004
964.746	2407
964.833	2006
964.920	1817
965.007	2123
965.094	1904
965.181	2096
965.268	2349
965.355	1972
965.441	1780
965.528	1072
965.615	2919
965.702	1753
965.789	2365
965.875	2407
965.962	2625
966.049	2126
966.136	3431
966.222	2624
966.309	3724
966.395	2319
966.482	3489
966.569	2152
966.655	3177
966.742	2075
966.828	2717
966.915	1255
967.001	2046
967.087	1104
967.174	1644
967.260	2305
967.347	1972
967.433	1668
967.519	3267
967.605	2932
967.692	2907
967.778	1755
967.864	1884
967.950	2162
968.036	1918
968.123	2786
968.209	1398
968.295	397
968.381	2619
968.467	1477
968.553	-22
968.639	2419
968.725	1969
968.811	2365
968.897	2357
968.983	1014
969.069	733
969.154	1182
969.240	1630
969.326	467
969.412	1356
969.497	801
969.583	825
969.669	2567
969.755	2734
969.840	2238
969.926	5197
970.012	4297
970.097	5750
970.183	3426
970.268	3207
970.354	2486
970.439	731
970.525	1525
970.610	978
970.696	2376
970.781	2442
970.866	-36
970.952	2396
971.037	1384
971.122	1536
971.208	2865
971.293	1620
971.378	820
971.463	1204
971.549	1762
971.634	1775
971.719	2136
971.804	2492
971.889	1864
971.974	2086
972.059	1042
972.144	2830
972.229	2457
972.314	1119
972.399	1893
972.484	1164
972.569	1810
972.654	569
972.739	2703
972.824	1564
972.908	2087
972.993	1312
973.078	802
973.163	1678
973.247	2121
973.332	157
973.417	2357
973.501	1359
973.586	1231
973.671	2372
973.755	1178
973.840	2746
973.924	3099
974.009	3290
974.093	3420
974.178	3239
974.262	2274
974.346	2683
974.431	1884
974.515	2452
974.600	1574
974.684	1942
974.768	1971
974.852	2695
974.937	1579
975.021	2839
975.105	2040
975.189	1751
975.273	2484
975.358	482
975.442	549
975.526	2523
975.610	642
975.694	1193
975.778	2000
975.862	1966
975.946	-587
976.030	3946
976.114	1031
976.198	1557
976.281	1660
976.365	2570
976.449	1580
976.533	1578
976.617	476
976.700	1889
976.784	1222
976.868	1114
976.951	2342
977.035	1280
977.119	1470
977.202	1694
977.286	2007
977.369	3739
977.453	4597
977.536	3344
977.620	2538
977.703	2614
977.787	2239
977.870	2944
977.953	2306
978.037	1588
978.120	2771
978.203	1937
978.287	2700
978.370	2646
978.453	1635
978.536	2067
978.620	2355
978.703	1860
978.786	1444
978.869	922
978.952	1031
979.035	3508
979.118	2688
979.201	1899
979.284	2586
979.367	1565
979.450	1990
979.533	1017
979.616	1688
979.699	1906
979.782	2139
979.865	1729
979.948	1448
980.030	1209
980.113	1769
980.196	1709
980.279	1791
980.361	1867
980.444	1858
980.526	2857
980.609	4180
980.692	4573
980.774	4688
980.857	2696
980.939	4217
981.022	1816
981.104	2431
981.187	2179
981.269	2694
981.352	2055
981.434	2812
981.516	2048
981.599	2957
981.681	2391
981.763	2175
981.846	1914
981.928	1545
982.010	1587
982.092	2085
982.174	2978
982.256	1450
982.339	2104
982.421	2786
982.503	2199
982.585	890
982.667	2716
982.749	1787
982.831	2276
982.913	1576
982.995	2614
983.077	1453
983.158	3220
983.240	1710
983.322	3808
983.404	5623
983.486	4369
983.568	3086
983.649	3673
983.731	3355
983.813	3444
983.894	3198
983.976	2049
984.058	3080
984.139	2815
984.221	3177
984.302	2749
984.384	1989
984.465	2644
984.547	2201
984.628	2974
984.710	3055
984.791	2973
984.872	2746
984.954	2184
985.035	3227
985.116	2017
985.198	1856
985.279	3313
985.360	3103
985.441	3362
985.522	3529
985.604	3418
985.685	1596
985.766	3972
985.847	4109
985.928	2217
986.009	3149
986.090	2221
986.171	3551
986.252	2501
986.333	2785
986.414	3421
986.495	3246
986.576	3452
986.656	3323
986.737	2961
986.818	3295
986.899	3693
986.980	3253
987.060	4058
987.141	2727
987.222	4010
987.302	4743
987.383	4977
987.464	4051
987.544	5187
987.625	3300
987.705	5241
987.786	4688
987.866	5220
987.947	4247
988.027	4520
988.108	3219
988.188	3300
988.268	4104
988.349	4547
988.429	3333
988.509	3087
988.589	3152
988.670	1860
988.750	4199
988.830	3761
988.910	4327
988.990	2771
989.070	3516
989.151	3248
989.231	2638
989.311	3772
989.391	2272
989.471	3452
989.551	3166
989.631	3444
989.711	3991
989.791	3034
989.870	2284
989.950	3909
990.030	2933
990.110	3492
990.190	2454
990.269	2529
990.349	3284
990.429	3543
990.509	2569
990.588	2689
990.668	2840
990.747	3292
990.827	2266
990.907	3491
990.986	3308
991.066	3260
991.145	1561
991.225	2946
991.304	2249
991.383	2164
991.463	2272
991.542	2726
991.622	1863
991.701	1720
991.780	1126
991.859	2240
991.939	2452
992.018	2422
992.097	2299
992.176	1913
992.256	1777
992.335	2113
992.414	3280
992.493	1243
992.572	2052
992.651	2947
992.730	2157
992.809	2398
992.888	1699
992.967	1944
993.046	1124
993.125	1677
993.203	1533
993.282	2123
993.361	1372
993.440	2424
993.519	597
993.597	1757
993.676	1197
993.755	2352
993.834	1646
993.912	1041
993.991	2702
994.069	1534
994.148	1768
994.226	1574
994.305	1574
994.384	1317
994.462	2951
994.540	688
994.619	1465
994.697	2405
994.776	1723
994.854	2604
994.932	608
995.011	2037
995.089	1224
995.167	711
995.245	1615
995.324	805
995.402	1644
995.480	1421
995.558	912
995.636	254
995.714	1587
995.792	1168
995.870	570
995.948	1452
996.026	1007
996.104	237
996.182	1672
996.260	522
996.338	1491
996.416	462
996.494	1290
996.572	2317
996.649	544
996.727	132
996.805	165
996.883	1865
996.960	385
997.038	1785
997.116	1234
997.193	588
997.271	374
997.348	-330
997.426	791
997.504	1378
997.581	925
997.658	1267
997.736	-276
997.813	425
997.891	1747
997.968	263
998.046	1195
998.123	770
998.200	593
998.277	-324
998.355	927
998.432	88
998.509	1143
998.586	1357
998.663	1334
998.741	790
998.818	1266
998.895	207
998.972	620
999.049	932
999.126	460
999.203	482
999.280	412
999.357	664
999.434	433
999.511	316
999.587	105
999.664	-219
999.741	795
999.818	761
999.895	289
999.971	513
1000.048	120
1000.125	1683
1000.202	-506
1000.278	972
1000.355	633
1000.431	537
1000.508	272
1000.584	1023
1000.661	543
1000.738	-550
1000.814	-194
1000.890	334
1000.967	-299
1001.043	628
1001.120	152
1001.196	-86
1001.272	-144
1001.349	90
1001.425	690
1001.501	46
1001.577	99
1001.654	1014
1001.730	-372
1001.806	300
1001.882	-404
1001.958	1086
1002.034	337
1002.110	407
1002.186	-925
1002.262	-68
1002.338	-639
1002.414	310
1002.490	804
1002.566	141
1002.642	10
1002.718	224
1002.794	207
1002.870	327
1002.945	-173
1003.021	62
1003.097	-749
1003.173	708
1003.248	-122
1003.324	376
1003.400	445
1003.475	-859
1003.551	-13
1003.626	-616
1003.702	-202
1003.777	189
1003.853	-300
1003.928	-1043
1004.004	-1065
1004.079	359
1004.155	-37
1004.230	-714
1004.305	491
1004.381	-406
1004.456	-203
1004.531	535
1004.607	-38
1004.682	-893
1004.757	-207
1004.832	-661
1004.907	-1421
1004.982	551
1005.057	40
1005.133	-239
1005.208	-1588
1005.283	-1009
1005.358	-26
1005.433	-968
1005.508	523
1005.583	-535
1005.657	-881
1005.732	55
1005.807	-511
1005.882	-293
1005.957	-277
1006.032	-989
1006.106	338
1006.181	-110
1006.256	-579
1006.331	-1040
1006.405	-1293
1006.480	-423
1006.554	-615
1006.629	412
1006.704	-496
1006.778	-100
1006.853	-44
1006.927	-1033
1007.002	-1336
1007.076	-886
1007.150	-823
1007.225	-213
1007.299	48
1007.373	-396
1007.448	-515
1007.522	-158
1007.596	-1093
1007.671	-378
1007.745	-524
1007.819	-867
1007.893	-223
1007.967	432
1008.041	-1288
1008.115	-656
1008.190	-1082
1008.264	-255
1008.338	-1340
1008.412	-759
1008.486	-1101
1008.560	-643
1008.633	-1347
1008.707	210
1008.781	-393
1008.855	19
1008.929	-905
1009.003	-1449
1009.076	-21
1009.150	-980
1009.224	-586
1009.298	273
1009.371	-983
1009.445	130
1009.519	-1086
1009.592	-424
1009.666	-1696
1009.739	-139
1009.813	-1241
1009.886	-357
1009.960	-1451
1010.033	-235
1010.107	-163
1010.180	-1247
1010.253	-815
1010.327	-1163
1010.400	-599
1010.473	-1132
1010.547	518
1010.620	-1490
1010.693	-867
1010.766	-843
1010.840	-386
1010.913	-552
1010.986	-1746
1011.059	-132
1011.132	-960
1011.205	-5
1011.278	-1267
1011.351	-767
1011.424	-686
1011.497	-1697
1011.570	-1365
1011.643	-864
1011.716	-1011
1011.789	-688
1011.862	-525
1011.934	-56
1012.007	-2865
1012.080	-1227
1012.153	-628
1012.225	-425
1012.298	-1564
1012.371	-1683
1012.443	-957
1012.516	-1367
1012.588	-1102
1012.661	-904
1012.733	-1601
1012.806	-267
1012.879	-1598
1012.951	-823
1013.023	-1622
1013.096	-62
1013.168	-1507
1013.241	-404
1013.313	-1411
1013.385	-757
1013.458	-942
1013.530	-1027
1013.602	-1324
1013.674	-236
1013.746	-1093
1013.819	-582
1013.891	-1018
1013.963	-1319
1014.035	-705
1014.107	-1089
1014.179	-1106
1014.251	-1579
1014.323	-1263
1014.395	-487
1014.467	-975
1014.539	-986
1014.611	-1654
1014.683	-1248
1014.754	-1299
1014.826	-1118
1014.898	-514
1014.970	-1204
1015.042	-337
1015.113	214
1015.185	-332
1015.257	-1396
1015.328	-551
1015.400	-1050
1015.471	-609
1015.543	-1936
1015.615	-1190
1015.686	-499
1015.757	-1416
1015.829	-976
1015.901	-1047
1015.972	-1983
1016.043	-1655
1016.115	-1789
1016.186	-2368
1016.257	-715
1016.328	-606
1016.400	-714
1016.471	-1609
1016.542	-757
1016.613	-860
1016.685	-972
1016.756	-747
1016.827	-1271
1016.898	-1180
1016.969	-752
1017.040	-1578
1017.111	-1095
1017.182	-1783
1017.253	-1298
1017.324	-817
1017.395	-530
1017.466	-1469
1017.537	-1033
1017.608	-942
1017.678	-1164
1017.749	-1930
1017.820	-1238
1017.891	-1584
1017.961	-1062
1018.032	-1247
1018.103	-737
1018.173	-1915
1018.244	-1583
1018.315	-1743
1018.385	-835
1018.456	-1383
1018.526	-983
1018.597	-1866
1018.667	-1351
1018.738	-1636
1018.808	-662
1018.878	-2539
1018.949	-951
1019.019	-688
1019.089	-676
1019.160	-1607
1019.230	-1843
1019.300	-1640
1019.371	-2440
1019.441	-805
1019.511	-1340
1019.581	-1768
1019.651	-1619
1019.721	-960
1019.791	-2334
1019.861	-1725
1019.931	-1422
1020.001	-1745
1020.071	-2222
1020.141	-1598
1020.211	-1390
1020.281	-2296
1020.351	-1534
1020.421	-1819
1020.491	-461
1020.560	-2149
1020.630	-1195
1020.700	-1265
1020.770	-2097
1020.839	-1763
1020.909	-515
1020.979	-2113
1021.048	-1684
1021.118	-1799
1021.187	-1428
1021.257	-2335
1021.326	-1362
1021.396	-979
1021.465	-1030
1021.535	-2318
1021.604	-1497
1021.674	-1309
1021.743	-1699
1021.812	-1891
1021.882	-1270
1021.951	-2584
1022.020	-1277
1022.089	-1200
1022.159	-1774
1022.228	-1279
1022.297	-1046
1022.366	-2433
1022.435	-1826
1022.504	-1913
1022.573	-1389
1022.642	-1291
1022.711	-1599
1022.781	-1230
1022.849	-1811
1022.918	-2498
1022.987	-907
1023.056	-1953
1023.125	-2038
1023.194	-1770
1023.263	-1787
1023.331	-1011
1023.400	-2587
1023.469	-2138
1023.538	-1366
1023.606	-1437
1023.675	-830
1023.744	-1527
1023.812	-1568
1023.881	-1158
1023.949	-1453
1024.018	-1616
1024.086	-2248
1024.155	-2024
1024.223	-1752
1024.292	-1654
1024.360	-1626
1024.429	-2302
1024.497	-1633
1024.565	-1981
1024.634	-1632
1024.702	-1714
1024.770	-1464
1024.838	-1818
1024.907	-1471
1024.975	-1858
1025.043	-1969
1025.111	-1645
1025.179	-1516
1025.247	-1918
1025.315	-2073
1025.383	-1669
1025.451	-2100
1025.519	-1679
1025.587	-1584
1025.655	-2108
1025.723	-1958
1025.791	-1921
1025.859	-1252
1025.927	-1699
1025.995	-2129
1026.062	-2088
1026.130	-1806
1026.198	-2196
1026.266	-1489
1026.333	-1483
1026.401	-1253
1026.469	-2333
1026.536	-1155
1026.604	-2051
1026.671	-1166
1026.739	-1798
1026.806	-1698
1026.874	-2520
1026.941	-1624
1027.009	-1827
1027.076	-1699
1027.144	-989
1027.211	-2183
1027.278	-2536
1027.345	-1450
1027.413	-1612
1027.480	-1588
1027.547	-1359
1027.614	-1667
1027.682	-1644
1027.749	-1669
1027.816	-1420
1027.883	-745
1027.950	-1929
1028.017	-1822
1028.084	-2199
1028.151	-2113
1028.218	-1696
1028.285	-1453
1028.352	-2595
1028.419	-2142
1028.486	-2310
1028.553	-1749
1028.619	-1512
1028.686	-2174
1028.753	-1928
1028.820	-1781
1028.886	-2052
1028.953	-2438
1029.020	-1264
1029.086	-2091
1029.153	-2647
1029.220	-2082
1029.286	-2336
1029.353	-2059
1029.419	-1311
1029.486	-2040
1029.552	-1929
1029.619	-1466
1029.685	-1405
1029.751	-1870
1029.818	-1769
1029.884	-1286
1029.951	-1138
1030.017	-2310
1030.083	-963
1030.149	-2016
1030.216	-1978
1030.282	-1689
1030.348	-1727
1030.414	-1988
1030.480	-2388
1030.546	-1563
1030.612	-1880
1030.678	-2326
1030.744	-1406
1030.810	-2194
1030.876	-1930
1030.942	-1874
1031.008	-1805
1031.074	-1927
1031.140	-2414
1031.206	-1409
1031.272	-2448
1031.337	-2219
1031.403	-1685
1031.469	-2537
1031.534	-2038
1031.600	-1692
1031.666	-2499
1031.731	-1570
1031.797	-2074
1031.863	-1952
1031.928	-2404
1031.994	-1826
1032.059	-1287
1032.125	-1576
1032.190	-2436
1032.256	-1844
1032.321	-2323
1032.386	-2258
1032.452	-1840
1032.517	-1331
1032.582	-1869
1032.647	-2222
1032.713	-1520
1032.778	-1453
1032.843	-2027
1032.908	-1481
1032.974	-2352
1033.039	-2379
1033.104	-1887
1033.169	-1758
1033.234	-1683
1033.299	-949
1033.364	-1841
1033.429	-1898
1033.494	-1650
1033.559	-1296
1033.624	-2009
1033.688	-2049
1033.753	-1820
1033.818	-2034
1033.883	-2045
1033.948	-918
1034.013	-1024
1034.077	-234
1034.142	-248
1034.207	498
1034.271	1534
1034.336	3303
1034.400	1362
1034.465	-692
1034.530	-959
1034.594	-1538
1034.658	-1955
1034.723	-1656
1034.787	-2278
1034.852	-2119
1034.916	-2240
1034.981	-1013
1035.045	-1946
1035.109	-2381
1035.173	-1823
1035.238	-2243
1035.302	-1921
1035.366	-1988
1035.430	-1921
1035.495	-2063
1035.559	-1557
1035.623	-1772
1035.687	-2009
1035.751	-1817
1035.815	-1433
1035.879	-1582
1035.943	-1453
1036.007	-1880
1036.071	-2162
1036.135	-2277
1036.198	-2271
1036.262	-2072
1036.326	-1057
1036.390	-1613
1036.454	-1582
1036.517	-1877
1036.581	-2271
1036.645	-2031
1036.709	-2087
1036.772	-1967
1036.836	-1711
1036.900	-2348
1036.963	-2284
1037.026	-1987
1037.090	-2497
1037.154	-1576
1037.217	-1788
1037.280	-1537
1037.344	-1677
1037.407	-1689
1037.471	-1791
1037.534	-2042
1037.597	-2282
1037.661	-1196
1037.724	-2453
1037.787	-1818
1037.850	-2147
1037.913	-2026
1037.977	-1409
1038.040	-2307
1038.103	-2775
1038.166	-2126
1038.229	-2433
1038.292	-2481
1038.355	-1470
1038.418	-2080
1038.481	-1028
1038.544	-1372
1038.607	-2216
1038.670	-2074
1038.732	-1716
1038.795	-2443
1038.858	-2533
1038.921	-1271
1038.984	-1624
1039.046	-2581
1039.109	-1562
1039.172	-1576
1039.234	-1682
1039.297	-2879
1039.360	-1982
1039.422	-1658
1039.485	-1104
1039.547	-1973
1039.610	-2173
1039.672	-1684
1039.734	-1681
1039.797	-2025
1039.859	-2504
1039.922	-1888
1039.984	-1983
1040.046	-1326
1040.109	-1457
1040.171	-1807
1040.233	-2412
1040.295	-1529
1040.358	-2212
1040.420	-1590
1040.482	-2150
1040.544	-1908
1040.606	-1626
1040.668	-1017
1040.730	-2513
1040.792	-2266
1040.854	-2072
1040.916	-2463
1040.978	-2610
1041.040	-1472
1041.102	-1487
1041.164	-2118
1041.225	-2359
1041.287	-1983
1041.349	-1409
1041.411	-2176
1041.472	-1886
1041.534	-2052
1041.596	-1893
1041.657	-1766
1041.719	-1810
1041.781	-1444
1041.842	-2432
1041.904	-2322
1041.965	-2947
1042.027	-1775
1042.088	-1802
1042.150	-2384
1042.211	-2130
1042.272	-1710
1042.334	-2101
1042.395	-1916
1042.456	-2929
1042.518	-1552
1042.579	-1898
1042.640	-1732
1042.701	-2264
1042.763	-2299
1042.824	-2116
1042.885	-1609
1042.946	-2290
1043.007	-1964
1043.068	-2647
1043.129	-1871
1043.190	-2507
1043.251	-1116
1043.312	-1786
1043.373	-1401
1043.434	-1991
1043.495	-1919
1043.556	-1620
1043.616	-1432
1043.677	-1974
1043.738	-2226
1043.799	-1742
1043.859	-2047
1043.920	-1875
1043.981	-1497
1044.041	-1971
1044.102	-1833
1044.162	-1677
1044.223	-1803
1044.284	-2124
1044.344	-1924
1044.405	-1207
1044.465	-1353
1044.525	-2008
1044.586	-1387
1044.646	-2270
1044.707	-1898
1044.767	-1482
1044.827	-2535
1044.887	-832
1044.948	-1345
1045.008	-1672
1045.068	-1876
1045.128	-1821
1045.188	-1291
1045.249	-934
1045.309	-2037
1045.369	-1021
1045.429	-1310
1045.489	-2289
1045.549	-1758
1045.609	-1856
1045.669	-1955
1045.729	-1601
1045.789	-1249
1045.848	-2063
1045.908	-1364
1045.968	-1804
1046.028	-1882
1046.088	-1854
1046.147	-1335
1046.207	-1903
1046.267	-1437
1046.326	-2138
1046.386	-1574
1046.446	-1255
1046.505	-569
1046.565	-523
1046.624	-378
1046.684	-767
1046.743	-202
1046.803	-895
1046.862	-827
1046.922	0
