'Start Wavelength	183.907
'End Wavelength	1046.922
'Gate Delay	5.000
'Gate Width (ms)	1.050
'Laser Output Level	0.000
'X Position	0.000
'Y Position	0.000
'Z Position	0.000
'Grid Point Number	1.000
'Shot Number	100.000
183.907	275.000
183.977	-458.000
184.047	-42
184.116	639
184.186	-394
184.256	-701
184.325	249
184.395	-581
184.465	1564
184.534	100
184.604	670
184.674	237
184.743	340
184.813	607
184.883	396
184.952	247
185.022	203
185.092	799
185.161	489
185.231	709
185.301	867
185.370	-81
185.440	272
185.509	-702
185.579	460
185.649	555
185.718	30
185.788	260
185.857	-210
185.927	-510
185.996	15
186.066	-450
186.136	69
186.205	90
186.275	454
186.344	-326
186.414	-19
186.483	120
186.553	2284
186.622	2526
186.692	188
186.761	-39
186.831	560
186.900	-115
186.970	137
187.039	-348
187.109	1615
187.178	102
187.248	324
187.317	917
187.387	-285
187.456	1551
187.526	2545
187.595	1369
187.664	-33
187.734	924
187.803	578
187.873	470
187.942	2103
188.012	759
188.081	540
188.150	1032
188.220	2562
188.289	2082
188.358	556
188.428	520
188.497	268
188.567	463
188.636	98
188.705	846
188.775	160
188.844	-85
188.913	471
188.983	234
189.052	458
189.121	1085
189.191	918
189.260	2768
189.329	4207
189.399	3102
189.468	1403
189.537	240
189.606	1118
189.676	948
189.745	1575
189.814	1149
189.883	1592
189.953	1685
190.022	4460
190.091	16462
190.161	26124
190.230	8003
190.299	2467
190.368	2110
190.437	2313
190.507	2311
190.576	1571
190.645	285
190.714	936
190.783	901
190.853	366
190.922	855
190.991	735
191.060	782
191.129	230
191.198	1070
191.268	743
191.337	96
191.406	2170
191.475	1021
191.544	637
191.613	247
191.682	859
191.752	126
191.821	1405
191.890	665
191.959	856
192.028	743
192.097	851
192.166	823
192.235	503
192.304	1377
192.373	771
192.442	566
192.511	476
192.580	1317
192.650	57
192.719	1026
192.788	1153
192.857	1345
192.926	1272
192.995	1537
193.064	3791
193.133	3844
193.202	5006
193.271	5030
193.340	3010
193.409	3263
193.478	3522
193.547	5837
193.615	8212
193.684	7416
193.753	3960
193.822	3657
193.891	1640
193.960	1766
194.029	1471
194.098	1593
194.167	1161
194.236	1413
194.305	1124
194.374	819
194.443	2050
194.512	569
194.580	1748
194.649	1063
194.718	1321
194.787	868
194.856	648
194.925	2000
194.994	512
195.062	712
195.131	1757
195.200	1223
195.269	1845
195.338	1636
195.407	1254
195.475	2399
195.544	2696
195.613	104
195.682	1371
195.751	1089
195.819	1323
195.888	1103
195.957	1601
196.026	1224
196.094	1255
196.163	956
196.232	1830
196.301	1563
196.369	1949
196.438	1834
196.507	1860
196.576	1343
196.644	2109
196.713	1926
196.782	1179
196.850	2128
196.919	1531
196.988	1409
197.056	1752
197.125	1697
197.194	2072
197.262	1586
197.331	2361
197.400	1777
197.468	1586
197.537	2890
197.606	3572
197.674	7308
197.743	24744
197.812	9183
197.880	22043
197.949	15077
198.017	19771
198.086	13841
198.155	5727
198.223	7107
198.292	27002
198.360	11170
198.429	5313
198.497	5843
198.566	13988
198.635	25813
198.703	7247
198.772	7899
198.840	29214
198.909	35276
198.977	8736
199.046	6816
199.114	5021
199.183	5057
199.251	2382
199.320	2362
199.388	2691
199.457	2424
199.525	2344
199.594	2827
199.662	1670
199.731	2631
199.799	2441
199.867	2808
199.936	2612
200.004	1834
200.073	2054
200.141	2475
200.210	2078
200.278	2356
200.346	2533
200.415	2764
200.483	3147
200.552	2403
200.620	1965
200.688	2432
200.757	1982
200.825	2422
200.893	2268
200.962	2873
201.030	1664
201.098	2385
201.167	2808
201.235	1902
201.303	1988
201.372	2705
201.440	1951
201.508	2640
201.577	2438
201.645	2722
201.713	2026
201.781	2625
201.850	2404
201.918	2767
201.986	2241
202.055	2357
202.123	2031
202.191	2078
202.259	2645
202.327	2210
202.396	2302
202.464	2186
202.532	2086
202.600	3026
202.669	2617
202.737	2127
202.805	1863
202.873	2616
202.941	2979
203.009	2259
203.078	2403
203.146	2958
203.214	2146
203.282	2018
203.350	2612
203.418	2296
203.487	2828
203.555	2414
203.623	1864
203.691	3192
203.759	2296
203.827	2028
203.895	2860
203.963	2672
204.031	2610
204.099	3263
204.168	2477
204.236	3602
204.304	2857
204.372	3266
204.440	3382
204.508	3023
204.576	2759
204.644	2858
204.712	2127
204.780	3060
204.848	3096
204.916	2789
204.984	3106
205.052	2909
205.120	3462
205.188	2441
205.256	3332
205.324	3773
205.392	4658
205.460	5451
205.528	8066
205.596	4476
205.664	4217
205.732	6951
205.799	28816
205.867	53316
205.935	11518
206.003	6465
206.071	5307
206.139	7223
206.207	6036
206.275	4344
206.343	3116
206.411	4099
206.478	3790
206.546	5370
206.614	5433
206.682	3344
206.750	4695
206.818	6058
206.885	6079
206.953	3328
207.021	4477
207.089	4035
207.157	3266
207.225	4746
207.292	5388
207.360	4496
207.428	4609
207.496	3896
207.563	4535
207.631	3742
207.699	3813
207.767	3830
207.834	4499
207.902	3036
207.970	4316
208.038	3599
208.105	3636
208.173	5787
208.241	10749
208.309	7236
208.376	5315
208.444	11434
208.512	9797
208.579	4367
208.647	5984
208.715	6278
208.782	4425
208.850	4147
208.918	4443
208.985	3867
209.053	4327
209.120	3438
209.188	4053
209.256	3790
209.323	3701
209.391	3646
209.459	6008
209.526	4623
209.594	3460
209.661	4490
209.729	3866
209.796	4693
209.864	4818
209.932	3908
209.999	5475
210.067	5039
210.134	4654
210.202	4818
210.269	5752
210.337	6502
210.404	5751
210.472	6057
210.539	5668
210.607	4854
210.674	4148
210.742	5514
210.809	4989
210.877	4280
210.944	5310
211.012	4637
211.079	6464
211.146	5097
211.214	4957
211.281	8150
211.349	7912
211.416	6131
211.484	6616
211.551	6124
211.618	6494
211.686	6510
211.753	5633
211.821	7145
211.888	6517
211.955	6144
212.023	6878
212.090	8044
212.157	8579
212.225	10031
212.292	26117
212.359	58469
212.427	181766
212.494	78901
212.561	24194
212.629	14922
212.696	11926
212.763	9665
212.831	7675
212.898	7629
212.965	7810
213.032	6925
213.100	6741
213.167	6185
213.234	7113
213.301	6192
213.369	6553
213.436	7602
213.503	6649
213.570	6312
213.638	6161
213.705	5518
213.772	4931
213.839	5591
213.906	6451
213.973	5663
214.041	5537
214.108	6241
214.175	5761
214.242	5978
214.309	5813
214.376	6078
214.444	6313
214.511	6745
214.578	6594
214.645	6310
214.712	6606
214.779	6878
214.846	6786
214.913	7422
214.980	7801
215.048	9438
215.115	8795
215.182	6720
215.249	6387
215.316	5575
215.383	6687
215.450	5581
215.517	4888
215.584	4821
215.651	3884
215.718	5060
215.785	4884
215.852	3984
215.919	4877
215.986	4635
216.053	4208
216.120	4662
216.187	4701
216.254	5153
216.321	5514
216.388	6639
216.455	6361
216.522	6353
216.589	5581
216.656	7534
216.722	8235
216.789	9729
216.856	12137
216.923	9965
216.990	9017
217.057	7261
217.124	7861
217.191	8619
217.258	10633
217.324	14921
217.391	18523
217.458	13926
217.525	9634
217.592	8172
217.659	8000
217.725	9204
217.792	7912
217.859	7769
217.926	6258
217.993	5372
218.059	6270
218.126	4820
218.193	5632
218.260	5123
218.327	4573
218.393	5123
218.460	4850
218.527	4603
218.594	5278
218.660	4979
218.727	5402
218.794	3095
218.860	5246
218.927	4032
218.994	3729
219.061	4392
219.127	4918
219.194	4487
219.261	3530
219.327	4136
219.394	3780
219.461	3627
219.527	4331
219.594	4895
219.661	4114
219.727	4602
219.794	5561
219.860	4128
219.927	6211
219.994	7093
220.060	7355
220.127	7340
220.193	7129
220.260	8788
220.326	12127
220.393	19615
220.460	31692
220.526	19743
220.593	11964
220.659	12847
220.726	16190
220.792	64357
220.859	43563
220.925	37010
220.992	57787
221.058	75618
221.125	95205
221.191	73602
221.258	25080
221.324	13933
221.391	11723
221.457	9219
221.524	10059
221.590	19168
221.657	94236
221.723	67800
221.789	56951
221.856	49321
221.922	22222
221.989	12461
222.055	9613
222.121	7740
222.188	8131
222.254	7858
222.321	6188
222.387	4699
222.453	6124
222.520	5886
222.586	4573
222.652	5484
222.719	3966
222.785	5905
222.851	4083
222.918	4474
222.984	3728
223.050	4824
223.116	3559
223.183	4934
223.249	3919
223.315	3724
223.382	4094
223.448	3725
223.514	2986
223.580	3771
223.647	3970
223.713	4284
223.779	4248
223.845	4003
223.911	4312
223.978	2679
224.044	4474
224.110	3507
224.176	4012
224.242	4271
224.309	3539
224.375	3807
224.441	4129
224.507	3672
224.573	2907
224.639	3607
224.705	2945
224.772	3960
224.838	3486
224.904	4097
224.970	4154
225.036	3560
225.102	3113
225.168	3513
225.234	4555
225.300	3506
225.366	4332
225.432	3586
225.499	4645
225.565	3990
225.631	5151
225.697	5742
225.763	6780
225.829	8330
225.895	8598
225.961	13812
226.027	12440
226.093	9099
226.159	11943
226.225	17878
226.291	42573
226.357	83645
226.423	34226
226.489	17345
226.554	13122
226.620	12188
226.686	13139
226.752	17912
226.818	37167
226.884	113494
226.950	102443
227.016	33781
227.082	17931
227.148	11818
227.214	10524
227.279	8098
227.345	7248
227.411	6645
227.477	6468
227.543	9698
227.609	8127
227.674	6353
227.740	5736
227.806	7507
227.872	8344
227.938	5503
228.003	5523
228.069	4417
228.135	5022
228.201	5395
228.267	4991
228.332	4158
228.398	3293
228.464	4701
228.530	4355
228.595	4264
228.661	4083
228.727	3974
228.792	4990
228.858	4250
228.924	6148
228.990	11567
229.055	6028
229.121	9340
229.187	4464
229.252	3357
229.318	3339
229.384	3718
229.449	3864
229.515	2412
229.581	2263
229.646	4471
229.712	3984
229.777	4191
229.843	4356
229.909	5589
229.974	6581
230.040	6470
230.105	8256
230.171	9208
230.236	18674
230.302	35296
230.368	18148
230.433	9806
230.499	8274
230.564	7805
230.630	5169
230.695	6080
230.761	5529
230.826	4145
230.892	5761
230.957	4728
231.023	5369
231.088	4612
231.154	5368
231.219	5517
231.284	4893
231.350	6416
231.415	4848
231.481	5881
231.546	4673
231.612	4768
231.677	3568
231.742	3089
231.808	4922
231.873	4033
231.939	3464
232.004	4794
232.069	5721
232.135	5743
232.200	6364
232.265	4515
232.331	3149
232.396	3650
232.461	3700
232.527	3410
232.592	3676
232.657	3751
232.723	3879
232.788	4097
232.853	3279
232.918	3595
232.984	2991
233.049	3989
233.114	3823
233.179	4625
233.245	5112
233.310	5708
233.375	3097
233.440	4159
233.506	3908
233.571	3722
233.636	4006
233.701	3197
233.766	4466
233.832	4951
233.897	3473
233.962	1954
234.027	4870
234.092	3538
234.157	3327
234.222	3950
234.288	5090
234.353	9803
234.418	8908
234.483	6689
234.548	6070
234.613	5419
234.678	5989
234.743	4920
234.808	10856
234.873	8124
234.938	6516
235.004	6080
235.069	5633
235.134	5706
235.199	6190
235.264	5316
235.329	3704
235.394	6523
235.459	6135
235.524	4988
235.589	5861
235.654	6111
235.719	4572
235.784	5369
235.849	6692
235.913	7270
235.978	7497
236.043	7744
236.108	6962
236.173	5367
236.238	7015
236.303	5318
236.368	6392
236.433	8723
236.498	10343
236.563	14171
236.627	33512
236.692	151242
236.757	118786
236.822	37270
236.887	22633
236.952	22355
237.017	17522
237.081	16381
237.146	20672
237.211	55931
237.276	151867
237.341	272209
237.405	90812
237.470	34261
237.535	21898
237.600	16945
237.664	14051
237.729	10385
237.794	14789
237.859	29587
237.923	14811
237.988	9220
238.053	8741
238.118	8104
238.182	19457
238.247	20755
238.312	8677
238.376	7240
238.441	5926
238.506	7401
238.570	4809
238.635	5896
238.700	5444
238.764	5190
238.829	8267
238.893	8121
238.958	6601
239.023	5506
239.087	4684
239.152	6202
239.216	4502
239.281	5831
239.346	4950
239.410	4592
239.475	4760
239.539	14998
239.604	13695
239.668	6551
239.733	4897
239.797	6654
239.862	12683
239.926	11615
239.991	6211
240.055	5015
240.120	4183
240.184	4584
240.249	3717
240.313	3034
240.378	4561
240.442	7564
240.507	12269
240.571	5726
240.635	5680
240.700	6754
240.764	4464
240.829	3745
240.893	3271
240.957	4675
241.022	7597
241.086	10048
241.151	5655
241.215	2970
241.279	5334
241.344	5597
241.408	6797
241.472	6167
241.537	7960
241.601	6642
241.665	6420
241.730	6548
241.794	6779
241.858	5894
241.922	6203
241.987	6556
242.051	6064
242.115	5514
242.179	6322
242.244	5960
242.308	7287
242.372	6906
242.436	6910
242.501	6728
242.565	5532
242.629	6340
242.693	7280
242.757	6017
242.822	6563
242.886	7838
242.950	7781
243.014	6362
243.078	7481
243.142	7551
243.206	8257
243.271	11027
243.335	14135
243.399	30852
243.463	152140
243.527	446200
243.591	126268
243.655	37607
243.719	22783
243.783	20353
243.847	36800
243.911	47264
243.975	16886
244.040	10575
244.104	10422
244.168	8346
244.232	8069
244.296	19139
244.360	39520
244.424	11578
244.488	8359
244.552	7763
244.615	4871
244.679	6115
244.743	5172
244.807	4098
244.871	5413
244.935	6244
244.999	4172
245.063	4958
245.127	8003
245.191	27224
245.255	26427
245.319	8552
245.383	4589
245.446	6716
245.510	3966
245.574	5193
245.638	4488
245.702	3028
245.766	5504
245.829	5806
245.893	4546
245.957	5912
246.021	6429
246.085	5571
246.149	5233
246.212	7942
246.276	9922
246.340	5233
246.404	5520
246.467	6536
246.531	5011
246.595	7241
246.659	5745
246.722	5290
246.786	4831
246.850	4766
246.913	4412
246.977	3883
247.041	4778
247.104	4661
247.168	5551
247.232	6073
247.295	12874
247.359	7207
247.423	4865
247.486	5072
247.550	5659
247.614	4172
247.677	5139
247.741	4675
247.804	4662
247.868	6947
247.932	6488
247.995	12760
248.059	6439
248.122	4932
248.186	7030
248.249	8572
248.313	33254
248.376	28701
248.440	12884
248.503	6562
248.567	9134
248.630	7334
248.694	9667
248.757	14239
248.821	36988
248.884	19839
248.948	16018
249.011	20492
249.075	34801
249.138	27707
249.202	13988
249.265	11185
249.328	13559
249.392	11345
249.455	11650
249.519	11721
249.582	11964
249.645	12636
249.709	12980
249.772	13520
249.835	13444
249.899	13271
249.962	14455
250.025	12943
250.089	17179
250.152	19644
250.215	16640
250.279	15619
250.342	18367
250.405	18293
250.468	20630
250.532	30842
250.595	67546
250.658	379335
250.721	670636
250.785	168268
250.848	70677
250.911	47517
250.974	40443
251.038	35819
251.101	37705
251.164	32637
251.227	33936
251.290	44666
251.354	100935
251.417	545900
251.480	539578
251.543	327948
251.606	1065223
251.669	757791
251.732	222677
251.795	133064
251.859	173131
251.922	628002
251.985	323053
252.048	93874
252.111	60312
252.174	47823
252.237	51850
252.300	90310
252.363	232167
252.426	739399
252.489	247640
252.552	82821
252.615	56041
252.678	53350
252.741	83256
252.804	258395
252.867	805210
252.930	278438
252.993	86891
253.056	54394
253.119	41683
253.182	45100
253.245	115954
253.308	65652
253.371	25809
253.434	21092
253.497	17874
253.559	19467
253.622	15048
253.685	13643
253.748	12690
253.811	11272
253.874	13384
253.937	10765
254.000	10192
254.062	12327
254.125	13733
254.188	11453
254.251	9246
254.314	9027
254.376	8816
254.439	9879
254.502	8475
254.565	9080
254.628	13832
254.690	8658
254.753	6035
254.816	6383
254.878	6506
254.941	8799
255.004	9738
255.067	6728
255.129	5179
255.192	5005
255.255	3575
255.317	5552
255.380	4660
255.443	4698
255.505	4472
255.568	3414
255.631	4561
255.693	4795
255.756	4959
255.819	5860
255.881	5218
255.944	5293
256.006	4145
256.069	5088
256.132	4587
256.194	5540
256.257	9022
256.319	8023
256.382	7487
256.444	8045
256.507	7536
256.569	6852
256.632	9557
256.694	15626
256.757	64605
256.819	214060
256.882	79814
256.944	27447
257.007	16781
257.069	12722
257.132	9891
257.194	9748
257.257	8879
257.319	8857
257.381	15523
257.444	44447
257.506	264252
257.569	235324
257.631	57434
257.693	29087
257.756	21629
257.818	14744
257.880	11495
257.943	9482
258.005	5626
258.067	6409
258.130	5825
258.192	7228
258.254	6734
258.317	6475
258.379	6265
258.441	6739
258.503	7946
258.566	11264
258.628	14515
258.690	6143
258.753	7809
258.815	6531
258.877	6127
258.939	6710
259.001	6673
259.064	6596
259.126	5625
259.188	7065
259.250	6174
259.312	6744
259.375	10162
259.437	7295
259.499	5261
259.561	5669
259.623	5809
259.685	4357
259.747	5961
259.809	11092
259.872	19049
259.934	36208
259.996	26796
260.058	8062
260.120	5897
260.182	5001
260.244	5156
260.306	3612
260.368	5180
260.430	2884
260.492	4069
260.554	7163
260.616	6030
260.678	9958
260.740	14887
260.802	5558
260.864	4303
260.926	3534
260.988	4578
261.050	4891
261.112	5458
261.174	15086
261.236	15304
261.298	6098
261.359	8504
261.421	11368
261.483	4821
261.545	5384
261.607	3582
261.669	5644
261.731	5837
261.793	8935
261.854	4279
261.916	5226
261.978	4492
262.040	5042
262.102	5080
262.164	5143
262.225	5393
262.287	4280
262.349	3756
262.411	4393
262.472	5700
262.534	5615
262.596	10031
262.658	6603
262.719	4494
262.781	7023
262.843	10355
262.904	8253
262.966	11672
263.028	26640
263.090	155579
263.151	492268
263.213	128961
263.275	36270
263.336	22341
263.398	15684
263.459	11202
263.521	8592
263.583	7621
263.644	5965
263.706	3887
263.767	3369
263.829	4144
263.891	3970
263.952	3566
264.014	3234
264.075	3033
264.137	3933
264.198	3930
264.260	2560
264.321	3455
264.383	3448
264.444	4004
264.506	3177
264.567	4025
264.629	4758
264.690	2211
264.752	3616
264.813	3220
264.875	2818
264.936	4415
264.998	3646
265.059	5081
265.120	6847
265.182	15357
265.243	88992
265.305	80931
265.366	16463
265.427	9109
265.489	8484
265.550	4710
265.611	5122
265.673	3604
265.734	4269
265.795	4832
265.857	4557
265.918	8221
265.979	26411
266.040	167144
266.102	120128
266.163	24860
266.224	13000
266.286	10039
266.347	6143
266.408	5815
266.469	5111
266.530	3889
266.592	3044
266.653	3336
266.714	2985
266.775	3043
266.836	3132
266.898	3047
266.959	4722
267.020	3536
267.081	4008
267.142	3942
267.203	2664
267.264	2284
267.326	4588
267.387	3383
267.448	2148
267.509	3095
267.570	3297
267.631	2553
267.692	2104
267.753	3191
267.814	1821
267.875	3946
267.936	3930
267.997	3333
268.058	3527
268.119	2817
268.180	2687
268.241	1704
268.302	2936
268.363	2382
268.424	2734
268.485	3082
268.546	2217
268.607	2252
268.668	2761
268.729	2079
268.790	2507
268.851	2399
268.912	2681
268.972	2577
269.033	1970
269.094	1704
269.155	2509
269.216	2182
269.277	2116
269.338	2910
269.398	2628
269.459	2065
269.520	3691
269.581	3277
269.642	2962
269.702	2577
269.763	3195
269.824	2086
269.885	2740
269.945	2884
270.006	2446
270.067	2450
270.128	2080
270.188	2212
270.249	2575
270.310	2226
270.370	3458
270.431	2991
270.492	1903
270.553	2464
270.613	3089
270.674	2933
270.734	2269
270.795	2887
270.856	2810
270.916	2131
270.977	2606
271.038	2342
271.098	2207
271.159	1686
271.219	2342
271.280	3373
271.340	1969
271.401	1728
271.462	4689
271.522	3290
271.583	2484
271.643	1894
271.704	2373
271.764	1854
271.825	3196
271.885	18196
271.946	27705
272.006	6760
272.066	9886
272.127	17720
272.187	5420
272.248	4158
272.308	2834
272.369	8780
272.429	4941
272.489	3490
272.550	2251
272.610	3254
272.671	2672
272.731	3138
272.791	4563
272.852	2347
272.912	2281
272.972	2203
273.033	2440
273.093	2178
273.153	2853
273.214	2541
273.274	2248
273.334	5228
273.394	6293
273.455	3651
273.515	3709
273.575	4616
273.635	3137
273.696	5356
273.756	9596
273.816	3602
273.876	2720
273.936	7739
273.997	12725
274.057	3347
274.117	3156
274.177	2987
274.237	10556
274.297	11054
274.358	7874
274.418	6297
274.478	4277
274.538	2785
274.598	2737
274.658	10089
274.718	11811
274.778	4411
274.838	3026
274.898	5085
274.958	17521
275.018	12407
275.078	6851
275.138	3291
275.198	1731
275.258	1835
275.318	1768
275.378	3239
275.438	2380
275.498	2462
275.558	8984
275.618	16872
275.678	5462
275.738	3603
275.798	2450
275.858	1929
275.918	2239
275.978	2416
276.038	2259
276.098	1836
276.157	1654
276.217	3886
276.277	2409
276.337	2385
276.397	2105
276.457	2366
276.517	2169
276.576	1832
276.636	1956
276.696	2140
276.756	3752
276.815	2530
276.875	1910
276.935	2060
276.995	2215
277.055	2437
277.114	1427
277.174	1533
277.234	3233
277.293	2002
277.353	1607
277.413	1641
277.472	1969
277.532	1617
277.592	2474
277.651	3003
277.711	3734
277.771	831
277.830	5129
277.890	3897
277.950	4425
278.009	11705
278.069	5807
278.128	4790
278.188	4871
278.248	3338
278.307	5068
278.367	4123
278.426	2402
278.486	2282
278.545	2281
278.605	2283
278.664	3271
278.724	2862
278.783	4616
278.843	9958
278.902	4558
278.962	2902
279.021	3366
279.081	5365
279.140	6055
279.199	3661
279.259	4845
279.318	6518
279.378	8327
279.437	14187
279.496	45605
279.556	282725
279.615	229255
279.675	41166
279.734	21831
279.793	20290
279.853	22477
279.912	10415
279.971	6844
280.031	5783
280.090	7032
280.149	13381
280.208	22259
280.268	154102
280.327	169595
280.386	28729
280.445	14460
280.505	10595
280.564	8237
280.623	6147
280.682	4971
280.742	5650
280.801	3330
280.860	3614
280.919	2841
280.978	2325
281.037	2475
281.097	1411
281.156	3204
281.215	3090
281.274	2535
281.333	5540
281.392	3628
281.451	2139
281.510	2979
281.569	2372
281.628	5271
281.688	4308
281.747	2653
281.806	1724
281.865	2605
281.924	1819
281.983	1485
282.042	981
282.101	1798
282.160	1721
282.219	1614
282.278	1325
282.337	2240
282.396	2060
282.454	2468
282.513	2065
282.572	3041
282.631	2208
282.690	1419
282.749	1060
282.808	1684
282.867	1412
282.926	1473
282.985	1661
283.043	1530
283.102	1573
283.161	986
283.220	1904
283.279	3850
283.338	1468
283.396	1982
283.455	1898
283.514	1674
283.573	2421
283.631	2520
283.690	2182
283.749	1510
283.808	2821
283.866	2490
283.925	2274
283.984	1879
284.043	1297
284.101	1853
284.160	1185
284.219	2026
284.277	2849
284.336	2313
284.395	3874
284.453	3704
284.512	1734
284.570	2378
284.629	2380
284.688	1721
284.746	2292
284.805	2213
284.863	3001
284.922	2905
284.981	3784
285.039	5042
285.098	11667
285.156	33409
285.215	191694
285.273	173819
285.332	41123
285.390	18798
285.449	12430
285.507	9548
285.566	7558
285.624	5811
285.683	5392
285.741	3952
285.799	3643
285.858	3561
285.916	2686
285.975	3730
286.033	2180
286.091	3516
286.150	2260
286.208	3774
286.267	3649
286.325	4036
286.383	3832
286.442	3518
286.500	3106
286.558	3403
286.616	3766
286.675	3727
286.733	3761
286.791	4152
286.850	4168
286.908	4088
286.966	4520
287.024	3939
287.083	4548
287.141	5010
287.199	5078
287.257	5926
287.315	5979
287.374	5851
287.432	6306
287.490	6751
287.548	7177
287.606	7679
287.664	8536
287.723	9866
287.781	11324
287.839	13766
287.897	19648
287.955	31342
288.013	68492
288.071	177253
288.129	675603
288.187	1799400
288.245	794222
288.303	241380
288.361	134742
288.419	93539
288.477	64961
288.535	48023
288.593	33697
288.651	22898
288.709	16934
288.767	13917
288.825	10318
288.883	9354
288.941	8219
288.999	7872
289.057	7107
289.115	6641
289.173	5724
289.231	5847
289.289	6248
289.346	5656
289.404	5607
289.462	5261
289.520	4849
289.578	5018
289.636	3906
289.694	3754
289.751	4355
289.809	3638
289.867	3972
289.925	4308
289.983	4249
290.040	2909
290.098	3436
290.156	4261
290.214	3278
290.271	2543
290.329	3061
290.387	2717
290.444	2300
290.502	2805
290.560	2433
290.617	2153
290.675	2180
290.733	1616
290.790	2395
290.848	2198
290.906	1467
290.963	1852
291.021	1515
291.078	959
291.136	1634
291.194	1258
291.251	2477
291.309	1706
291.366	1918
291.424	1061
291.481	653
291.539	1452
291.596	1464
291.654	1524
291.711	1433
291.769	821
291.826	1658
291.884	1014
291.941	713
291.999	798
292.056	504
292.114	663
292.171	-163
292.228	1382
292.286	695
292.343	1523
292.401	1346
292.458	1274
292.515	550
292.573	767
292.630	496
292.687	805
292.745	581
292.802	1725
292.859	2505
292.917	3270
292.974	1545
293.031	1008
293.089	762
293.146	1032
293.203	1186
293.260	763
293.318	1448
293.375	1867
293.432	793
293.489	1407
293.546	634
293.604	1669
293.661	3700
293.718	8566
293.775	2961
293.832	1328
293.889	1536
293.947	2010
294.004	1386
294.061	588
294.118	1174
294.175	1420
294.232	1762
294.289	388
294.346	1426
294.403	2324
294.460	1200
294.517	862
294.574	944
294.631	-170
294.688	682
294.745	1572
294.802	7783
294.859	5175
294.916	3537
294.973	2409
295.030	744
295.087	1171
295.144	2328
295.201	1172
295.258	1182
295.315	895
295.372	3158
295.429	4991
295.486	2344
295.542	1465
295.599	2214
295.656	565
295.713	2098
295.770	4007
295.827	1316
295.883	1523
295.940	610
295.997	823
296.054	855
296.111	450
296.167	807
296.224	1009
296.281	773
296.338	671
296.394	735
296.451	1411
296.508	1347
296.564	2580
296.621	4016
296.678	10996
296.734	15333
296.791	4644
296.848	2803
296.904	906
296.961	3613
297.018	7902
297.074	9067
297.131	3716
297.187	2287
297.244	3314
297.301	7868
297.357	13927
297.414	4514
297.470	2575
297.527	779
297.583	1125
297.640	1110
297.696	885
297.753	1724
297.809	1032
297.866	757
297.922	1614
297.979	879
298.035	347
298.092	1119
298.148	2664
298.204	2527
298.261	1870
298.317	4857
298.374	11358
298.430	7015
298.486	3254
298.543	2834
298.599	5467
298.656	10646
298.712	30062
298.768	130418
298.824	115674
298.881	29559
298.937	13085
298.993	8637
299.050	6983
299.106	5674
299.162	2889
299.218	3615
299.275	2733
299.331	2781
299.387	3478
299.443	10794
299.500	13072
299.556	5183
299.612	2714
299.668	1941
299.724	4274
299.780	5408
299.837	2531
299.893	1872
299.949	5823
300.005	7541
300.061	6961
300.117	14379
300.173	6470
300.229	2583
300.285	2307
300.341	2259
300.397	1247
300.453	888
300.510	1294
300.566	1730
300.622	2844
300.678	10629
300.734	13802
300.790	6669
300.845	7479
300.901	5549
300.957	6836
301.013	3542
301.069	1145
301.125	1798
301.181	1142
301.237	556
301.293	190
301.349	936
301.405	1240
301.461	490
301.516	167
301.572	447
301.628	-181
301.684	523
301.740	1612
301.796	1979
301.851	1285
301.907	3349
301.963	4875
302.019	13719
302.074	43673
302.130	38995
302.186	15130
302.242	5445
302.297	3475
302.353	3232
302.409	3745
302.464	2985
302.520	2435
302.576	5042
302.631	6403
302.687	3174
302.743	1326
302.798	1359
302.854	1282
302.910	1276
302.965	1766
303.021	2638
303.076	2149
303.132	2303
303.187	2517
303.243	1498
303.299	1611
303.354	786
303.410	1526
303.465	1118
303.521	1887
303.576	2104
303.632	1591
303.687	3658
303.743	7892
303.798	6827
303.853	2351
303.909	1165
303.964	1725
304.020	1282
304.075	1891
304.130	1670
304.186	2558
304.241	2706
304.297	1806
304.352	1261
304.358	1258
304.407	1235
304.449	1472
304.463	1552
304.518	1244
304.539	1449
304.573	1769
304.629	1696
304.630	1693
304.684	1669
304.720	4907
304.739	6520
304.794	10360
304.811	8798
304.850	5093
304.902	3111
304.905	3007
304.960	4072
304.992	6758
305.015	8443
305.071	7105
305.083	6133
305.126	2679
305.173	2438
305.181	2427
305.236	1353
305.264	1610
305.292	1915
305.347	1250
305.354	1561
305.402	3956
305.445	6375
305.457	6883
305.512	8218
305.535	6961
305.567	5262
305.622	4539
305.626	4741
305.678	10608
305.716	20778
305.733	23652
305.788	15982
305.807	13107
305.843	9209
305.897	11098
305.898	11114
305.953	11487
305.988	8518
306.008	6924
306.063	4347
306.078	3995
306.118	3225
306.168	2616
306.173	2581
306.228	2240
306.259	2339
306.283	2440
306.338	3699
306.349	4075
306.393	6897
306.440	11015
306.448	11250
306.503	8375
306.530	6614
306.558	6577
306.613	11329
306.620	11685
306.668	10863
306.711	8166
306.723	7604
306.778	5712
306.801	4826
306.833	4071
306.888	3765
306.892	3730
306.943	3549
306.982	3548
306.997	3436
307.052	2780
307.072	2974
307.107	3722
307.162	4107
307.163	4110
307.217	4314
307.253	4395
307.272	4441
307.327	4505
307.343	4477
307.381	4326
307.434	4714
307.436	4789
307.491	6481
307.524	7360
307.546	7555
307.600	8137
307.614	7792
307.655	6885
307.704	7562
307.710	7733
307.765	8878
307.795	10048
307.819	11176
307.874	13257
307.885	13802
307.929	18196
307.975	24396
307.984	27309
308.038	51853
308.065	71023
308.093	150606
308.148	338986
308.156	382815
308.202	613292
308.246	761293
308.257	729913
308.312	326506
308.336	179134
308.366	114256
308.421	55533
308.426	51415
308.475	37239
308.517	29260
308.530	27668
308.585	23105
308.607	21125
308.639	18843
308.694	16918
308.697	16850
308.748	17512
308.787	18587
308.803	18577
308.857	18547
308.877	18600
308.912	21109
308.967	26721
308.967	26785
309.021	40976
309.058	54236
309.076	75770
309.130	153824
309.148	186097
309.185	482692
309.238	990375
309.239	993111
309.293	1066402
309.328	924940
309.348	760621
309.402	289327
309.418	177415
309.457	113042
309.508	58530
309.511	56915
309.566	41431
309.598	32822
309.620	29556
309.674	23396
309.688	22108
309.729	18354
309.778	13616
309.783	13232
309.837	10885
309.868	9978
309.892	9803
309.946	9669
309.959	9881
310.001	9934
310.049	9223
310.055	8990
310.109	6833
310.139	5901
310.163	5667
310.218	5213
310.229	5155
310.272	5054
310.319	5046
310.326	5013
310.381	4459
310.409	4299
310.435	4001
310.489	3331
310.499	3240
310.543	4016
310.589	4643
310.598	4512
310.652	4128
310.679	3694
310.706	3768
310.760	3918
310.769	3993
310.814	3600
310.859	3054
310.868	3136
310.923	3472
310.948	3688
310.977	3643
311.031	3563
311.038	3560
311.085	3211
311.128	2669
311.139	2687
311.193	3076
311.218	3171
311.247	3408
311.301	3752
311.308	3811
311.356	3435
311.398	3000
311.410	3114
311.464	3653
311.488	3906
311.518	3399
311.572	2373
311.578	2267
311.626	2719
311.668	3044
311.680	3171
311.734	3737
311.758	3991
311.788	3722
311.842	3219
311.847	3158
311.896	3156
311.937	3191
311.950	3141
312.004	2884
312.027	2776
312.058	2899
312.112	3114
312.117	3131
312.165	3367
312.207	3564
312.297	2650
312.386	3380
312.476	3302
312.566	3553
312.656	2885
312.745	3202
312.835	3730
312.925	4185
313.015	5929
313.104	5999
313.194	3195
313.284	3591
313.374	3217
313.463	3249
313.553	3537
313.643	3434
313.732	3351
313.822	3747
313.912	3531
314.001	4206
314.091	3052
314.180	3262
314.270	4396
314.360	3904
314.449	3269
314.539	3411
314.628	3576
314.718	4016
314.808	3990
314.897	5270
314.987	4378
315.076	5619
315.166	5295
315.255	6136
315.345	6069
315.434	6670
315.524	8287
315.613	14469
315.703	24967
315.792	86366
315.881	414490
315.971	133687
316.060	20890
316.150	10953
316.239	6541
316.328	5724
316.418	4650
316.507	3925
316.597	5177
316.686	5185
316.775	5782
316.865	6736
316.954	4807
317.043	5975
317.133	4844
317.222	6162
317.311	6607
317.400	7361
317.490	12678
317.579	17682
317.668	27596
317.757	54093
317.847	176796
317.936	742156
318.025	201431
318.114	113173
318.203	46649
318.293	10722
318.382	7272
318.471	7056
318.560	5274
318.649	6357
318.738	4284
318.828	3887
318.917	3113
319.006	3449
319.095	3879
319.184	4999
319.273	4001
319.362	3635
319.451	2485
319.540	2855
319.629	3274
319.718	3971
319.807	2505
319.896	3402
319.985	5625
320.074	3303
320.163	3070
320.252	3785
320.341	2002
320.430	2029
320.519	2795
320.608	2707
320.697	2603
320.786	2477
320.875	3349
320.964	4025
321.053	4331
321.142	5226
321.230	4859
321.319	4894
321.408	5563
321.497	4950
321.586	3574
321.675	4460
321.764	3815
321.852	3790
321.941	4045
322.030	3334
322.119	3701
322.207	6234
322.296	5044
322.385	5205
322.474	5849
322.562	7585
322.651	4157
322.740	4184
322.829	5781
322.917	4284
323.006	3145
323.095	3667
323.183	3003
323.272	4477
323.361	5400
323.449	10729
323.538	4401
323.626	8151
323.715	4576
323.804	3828
323.892	6368
323.981	4247
324.069	3698
324.158	6325
324.246	3975
324.335	4026
324.424	3856
324.512	3817
324.601	4049
324.689	9443
324.778	12767
324.866	4079
324.954	2470
325.043	3244
325.131	3648
325.220	5328
325.308	3758
325.397	4520
325.485	2637
325.574	2729
325.662	2180
325.750	2739
325.839	2518
325.927	3071
326.015	2043
326.104	2341
326.192	3267
326.280	3196
326.369	1758
326.457	3184
326.545	3306
326.634	1971
326.722	2057
326.810	2284
326.898	2096
326.987	2795
327.075	2526
327.163	3536
327.251	2701
327.340	7108
327.428	6982
327.516	3167
327.604	2399
327.692	3236
327.781	2240
327.869	2587
327.957	2159
328.045	2163
328.133	2781
328.221	2813
328.309	2670
328.397	3063
328.485	2873
328.574	2965
328.662	4432
328.750	2710
328.838	2320
328.926	2648
329.014	2189
329.102	2434
329.190	2801
329.278	2450
329.366	1997
329.454	2210
329.542	2278
329.630	2160
329.718	3272
329.806	3302
329.893	3734
329.981	4825
330.069	13191
330.157	52168
330.245	161334
330.333	74784
330.421	9773
330.509	4669
330.597	4720
330.684	2859
330.772	2548
330.860	2636
330.948	2002
331.036	2552
331.123	1580
331.211	2125
331.299	2126
331.387	2201
331.475	2689
331.562	2117
331.650	1991
331.738	2020
331.825	2157
331.913	2263
332.001	1586
332.089	1966
332.176	2192
332.264	3933
332.352	2036
332.439	1857
332.527	1771
332.614	1896
332.702	1926
332.790	1834
332.877	3502
332.965	3922
333.052	1995
333.140	2953
333.228	2197
333.315	2155
333.403	1321
333.490	3267
333.578	2135
333.665	2829
333.753	1853
333.840	2644
333.928	3231
334.015	3907
334.103	4332
334.190	7099
334.278	3639
334.365	5091
334.452	5367
334.540	3148
334.627	3024
334.715	4119
334.802	6491
334.889	18762
334.977	17878
335.064	8419
335.151	3440
335.239	4160
335.326	2547
335.413	3878
335.501	4021
335.588	3016
335.675	2087
335.762	3735
335.850	4619
335.937	6664
336.024	12159
336.111	23152
336.199	15939
336.286	7325
336.373	3755
336.460	3099
336.547	2486
336.635	3190
336.722	2426
336.809	2196
336.896	2234
336.983	3054
337.070	4099
337.157	5592
337.245	8061
337.332	5366
337.419	2394
337.506	2347
337.593	1484
337.680	2790
337.767	2866
337.854	2463
337.941	2745
338.028	6725
338.115	6184
338.202	3162
338.289	3424
338.376	7028
338.463	2586
338.550	2313
338.637	1612
338.724	3032
338.811	3295
338.898	2310
338.984	1792
339.071	2240
339.158	1744
339.245	1831
339.332	2083
339.419	2446
339.506	1729
339.593	1038
339.679	1432
339.766	1487
339.853	1568
339.940	2433
340.027	1072
340.113	1677
340.200	1666
340.287	1566
340.374	839
340.460	2337
340.547	1055
340.634	2230
340.720	3111
340.807	1972
340.894	981
340.980	2421
341.067	1607
341.154	2369
341.240	1220
341.327	2218
341.414	1401
341.500	2447
341.587	1203
341.674	2162
341.760	1865
341.847	2463
341.933	864
342.020	829
342.106	890
342.193	1070
342.279	1783
342.366	1339
342.452	1820
342.539	779
342.625	1673
342.712	3575
342.798	1794
342.885	2130
342.971	1256
343.058	1306
343.144	1362
343.230	1847
343.317	1315
343.403	1491
343.490	1204
343.576	189
343.662	1111
343.749	2316
343.835	1363
343.921	4502
344.008	18082
344.094	25132
344.180	5039
344.267	2069
344.353	4337
344.439	4020
344.525	1173
344.612	1745
344.698	1718
344.784	1745
344.870	1514
344.957	1682
345.043	1709
345.129	1627
345.215	1988
345.301	671
345.387	1332
345.474	1266
345.560	655
345.646	1356
345.732	1683
345.818	1939
345.904	2101
345.990	1533
346.076	956
346.162	1979
346.249	2080
346.335	2727
346.421	9347
346.507	9860
346.593	6521
346.679	1922
346.765	1804
346.851	2370
346.937	985
347.023	2305
347.108	1795
347.194	1770
347.280	850
347.366	2210
347.452	5833
347.538	10378
347.624	6346
347.710	3846
347.796	2156
347.882	1696
347.967	2014
348.053	1724
348.139	1158
348.225	2307
348.311	1161
348.397	1924
348.482	1457
348.568	1715
348.654	1089
348.740	3763
348.825	2050
348.911	3827
348.997	6444
349.083	7931
349.168	1112
349.254	795
349.340	826
349.425	1162
349.511	705
349.597	1525
349.682	1541
349.768	3854
349.854	1611
349.939	2260
350.025	1683
350.110	1473
350.196	1014
350.282	630
350.367	1449
350.453	1456
350.538	1190
350.624	1376
350.709	1096
350.795	920
350.880	4
350.966	2847
351.051	882
351.137	1479
351.222	1402
351.308	1508
351.393	2939
351.479	1515
351.564	752
351.649	1851
351.735	1265
351.820	1275
351.906	770
351.991	1122
352.076	1725
352.162	2713
352.247	1095
352.332	1974
352.418	1105
352.503	1969
352.588	4563
352.673	2814
352.759	1287
352.844	1437
352.929	1311
353.014	1507
353.100	2416
353.185	1538
353.270	2235
353.355	2015
353.441	931
353.526	1258
353.611	2113
353.696	1977
353.781	1900
353.866	1745
353.952	1657
354.037	2029
354.122	2846
354.207	2603
354.292	1415
354.377	1962
354.462	1482
354.547	879
354.632	1951
354.717	2436
354.802	946
354.887	1538
354.972	1378
355.057	1299
355.142	383
355.227	2185
355.312	1686
355.397	2835
355.482	3837
355.567	1988
355.652	1733
355.737	2204
355.822	3511
355.907	2969
355.991	2396
356.076	1302
356.161	1695
356.246	1218
356.331	1622
356.416	2492
356.501	12982
356.585	8862
356.670	1418
356.755	3201
356.840	2923
356.924	14075
357.009	32710
357.094	9905
357.179	1880
357.263	1498
357.348	2029
357.433	2464
357.517	1613
357.602	1659
357.687	1276
357.771	2476
357.856	1927
357.941	4157
358.025	18615
358.110	56600
358.195	18147
358.279	2169
358.364	2473
358.448	5230
358.533	7177
358.617	6095
358.702	7294
358.787	3421
358.871	1806
358.956	2178
359.040	980
359.125	2218
359.209	1831
359.294	1748
359.378	2236
359.462	2226
359.547	1513
359.631	1311
359.716	843
359.800	719
359.885	900
359.969	787
360.053	2015
360.138	1752
360.222	1540
360.306	1947
360.391	1451
360.475	2538
360.559	2527
360.644	3132
360.728	2116
360.812	8780
360.896	15974
360.981	5038
361.065	1492
361.149	2694
361.233	1183
361.318	879
361.402	1394
361.486	2579
361.570	1468
361.654	1832
361.739	3492
361.823	14022
361.907	15841
361.991	3398
362.075	1840
362.159	1894
362.243	3432
362.327	7782
362.411	15541
362.495	5235
362.580	2695
362.664	2009
362.748	1373
362.832	2688
362.916	5259
363.000	24062
363.084	49856
363.168	28479
363.252	6147
363.336	3670
363.420	3566
363.503	4122
363.587	2784
363.671	1296
363.755	1056
363.839	3810
363.923	881
364.007	2783
364.091	2731
364.175	3944
364.258	11516
364.342	23629
364.426	61928
364.510	31104
364.594	8321
364.677	7269
364.761	15775
364.845	8591
364.929	2445
365.013	2056
365.096	2388
365.180	1586
365.264	2598
365.347	5277
365.431	1029
365.515	676
365.598	-165
365.682	2684
365.766	224
365.849	1379
365.933	534
366.017	2579
366.100	186
366.184	1216
366.267	1399
366.351	1466
366.435	803
366.518	1117
366.602	922
366.685	1722
366.769	883
366.852	939
366.936	1310
367.019	1953
367.103	205
367.186	1499
367.270	1286
367.353	624
367.436	1475
367.520	679
367.603	1449
367.687	1108
367.770	1489
367.853	2465
367.937	3718
368.020	4814
368.104	1013
368.187	2630
368.270	1960
368.353	2172
368.437	2641
368.520	4773
368.603	2389
368.687	3495
368.770	4137
368.853	2030
368.936	2719
369.020	2451
369.103	1318
369.186	915
369.269	857
369.352	1735
369.436	1130
369.519	2271
369.602	237
369.685	2586
369.768	343
369.851	2189
369.934	1139
370.018	1388
370.101	851
370.184	3241
370.267	2298
370.350	3333
370.433	5844
370.516	30076
370.599	110431
370.682	56315
370.765	10789
370.848	7462
370.931	7285
371.014	3892
371.097	489
371.180	2407
371.263	936
371.346	264
371.429	1661
371.511	1028
371.594	1247
371.677	2186
371.760	2062
371.843	4747
371.926	26563
372.009	44346
372.091	11241
372.174	4794
372.257	8156
372.340	2556
372.423	1601
372.505	3539
372.588	1168
372.671	4681
372.754	5751
372.836	3195
372.919	2558
373.002	3390
373.085	1343
373.167	3077
373.250	4845
373.332	10910
373.415	31890
373.498	55701
373.580	41931
373.663	185396
373.746	186946
373.828	28656
373.911	8359
373.993	4335
374.076	4421
374.159	3141
374.241	3232
374.324	6717
374.406	6419
374.489	14600
374.571	25537
374.654	7389
374.736	6714
374.819	16887
374.901	30993
374.983	27843
375.066	4508
375.148	2727
375.231	2908
375.313	3264
375.395	1610
375.478	1516
375.560	1710
375.643	3001
375.725	7334
375.807	21757
375.890	14240
375.972	4048
376.054	2872
376.136	4284
376.219	2133
376.301	7934
376.383	12715
376.465	4912
376.548	2989
376.630	4244
376.712	10169
376.794	3773
376.877	1266
376.959	1174
377.041	666
377.123	878
377.205	836
377.287	1084
377.369	785
377.452	481
377.534	435
377.616	1015
377.698	538
377.780	188
377.862	554
377.944	2410
378.026	222
378.108	1792
378.190	798
378.272	1569
378.354	1244
378.436	457
378.518	438
378.600	2232
378.682	1883
378.764	3661
378.846	2346
378.928	1284
379.010	441
379.091	2132
379.173	1406
379.255	695
379.337	776
379.419	3006
379.501	5828
379.583	2275
379.664	1838
379.746	958
379.828	4267
379.910	4398
379.991	3741
380.073	1261
380.155	2167
380.237	1201
380.318	954
380.400	1250
380.482	1777
380.564	1537
380.645	1045
380.727	1487
380.809	2141
380.890	958
380.972	187
381.053	866
381.135	1043
381.217	2368
381.298	4072
381.380	1385
381.461	2865
381.543	13394
381.624	11047
381.706	2340
381.787	1506
381.869	4318
381.951	12784
382.032	36526
382.113	17042
382.195	1779
382.276	2685
382.358	4273
382.439	9486
382.521	16814
382.602	24003
382.684	8353
382.765	11299
382.846	8227
382.928	9980
383.009	5395
383.090	4985
383.172	16874
383.253	21072
383.334	10440
383.416	14855
383.497	6819
383.578	2179
383.659	4531
383.741	17269
383.822	36806
383.903	13437
383.984	8509
384.066	14756
384.147	7797
384.228	2796
384.309	2955
384.390	2407
384.471	2113
384.553	1138
384.634	2810
384.715	1964
384.796	1930
384.877	1605
384.958	5940
385.039	3660
385.120	2271
385.201	2892
385.282	3031
385.363	4568
385.444	4546
385.525	9751
385.606	23525
385.687	11969
385.768	3858
385.849	4235
385.930	22462
386.011	27700
386.092	7199
386.173	5865
386.254	11185
386.335	6954
386.416	2759
386.496	4614
386.577	5382
386.658	2054
386.739	2066
386.820	2731
386.901	1896
386.981	3397
387.062	3531
387.143	3632
387.224	6032
387.304	5931
387.385	4247
387.466	1880
387.547	4445
387.627	2723
387.708	5813
387.789	9863
387.869	9452
387.950	4940
388.031	2767
388.111	1078
388.192	4306
388.273	5174
388.353	4332
388.434	2374
388.514	5532
388.595	12788
388.676	11242
388.756	4996
388.837	4802
388.917	3357
388.998	1403
389.078	3945
389.159	3405
389.239	2045
389.320	4406
389.400	1873
389.480	5039
389.561	4741
389.641	4389
389.722	4104
389.802	2408
389.883	5187
389.963	8900
390.043	5774
390.124	3496
390.204	5743
390.284	10242
390.365	15235
390.445	93070
390.525	501899
390.605	426654
390.686	52194
390.766	12751
390.846	8090
390.927	5814
391.007	4131
391.087	6467
391.167	4453
391.247	4108
391.328	6560
391.408	6604
391.488	5858
391.568	4503
391.648	5759
391.728	7244
391.808	7139
391.888	7109
391.969	8754
392.049	9944
392.129	9672
392.209	11975
392.289	13750
392.369	13567
392.449	13281
392.529	14982
392.609	17539
392.689	21308
392.769	25527
392.849	29579
392.929	35524
393.009	52267
393.089	79304
393.169	173385
393.248	725213
393.328	2843240
393.408	2852092
393.488	660418
393.568	159659
393.648	75124
393.728	47423
393.807	34497
393.887	31286
393.967	27125
394.047	26865
394.127	30665
394.206	56359
394.286	256578
394.366	1244067
394.446	1236201
394.525	226184
394.605	50462
394.685	27381
394.764	21004
394.844	18426
394.924	17751
395.003	13979
395.083	14025
395.163	13262
395.242	13165
395.322	13495
395.402	12896
395.481	14892
395.561	16662
395.640	23059
395.720	30486
395.799	29107
395.879	38917
395.958	77551
396.038	369679
396.117	1642699
396.197	1679374
396.276	349783
396.356	84741
396.435	51229
396.515	49356
396.594	62861
396.673	148792
396.753	791806
396.832	2530214
396.912	1541906
396.991	244708
397.070	71373
397.150	37284
397.229	26514
397.308	25855
397.388	31220
397.467	19236
397.546	12714
397.625	9652
397.705	12030
397.784	7902
397.863	7497
397.942	6441
398.022	5795
398.101	5736
398.180	5916
398.259	4877
398.338	5025
398.417	4191
398.497	2489
398.576	4200
398.655	2447
398.734	3782
398.813	2791
398.892	4076
398.971	4219
399.050	2720
399.129	1453
399.208	3362
399.287	2676
399.366	2200
399.445	2127
399.524	2854
399.603	906
399.682	2435
399.761	2834
399.840	4223
399.919	2982
399.998	1268
400.077	890
400.156	741
400.235	3231
400.313	1505
400.392	715
400.471	3607
400.550	3552
400.629	615
400.708	1848
400.786	1057
400.865	386
400.944	463
401.023	2853
401.102	905
401.180	1364
401.259	1638
401.338	865
401.416	1098
401.495	749
401.574	1423
401.652	666
401.731	2248
401.810	-360
401.888	895
401.967	174
402.046	787
402.124	2027
402.203	412
402.281	1428
402.360	810
402.438	1372
402.517	-223
402.596	1180
402.674	1079
402.753	871
402.831	1419
402.910	1634
402.988	1731
403.066	3583
403.145	2732
403.223	3262
403.302	4208
403.380	3985
403.459	2091
403.537	730
403.615	1229
403.694	-183
403.772	1869
403.850	1213
403.929	840
404.007	-392
404.085	2413
404.164	511
404.242	721
404.320	2687
404.398	4175
404.477	5461
404.555	18101
404.633	10840
404.711	3608
404.789	1389
404.868	452
404.946	134
405.024	1243
405.102	512
405.180	189
405.258	-565
405.336	1202
405.415	-119
405.493	1243
405.571	589
405.649	645
405.727	-618
405.805	1736
405.883	982
405.961	1731
406.039	589
406.117	-182
406.195	1355
406.273	3800
406.351	10258
406.429	5457
406.507	519
406.585	1110
406.663	399
406.740	936
406.818	189
406.896	807
406.974	1875
407.052	1056
407.130	6991
407.208	7504
407.285	2734
407.363	1110
407.441	1736
407.519	4023
407.596	9290
407.674	72811
407.752	339280
407.830	233140
407.907	24561
407.985	4633
408.063	2441
408.141	1820
408.218	1602
408.296	100
408.373	-67
408.451	2059
408.529	1362
408.606	620
408.684	1012
408.762	1105
408.839	803
408.917	895
408.994	689
409.072	175
409.149	1037
409.227	2573
409.304	2659
409.382	3393
409.459	2952
409.537	5376
409.614	4017
409.692	2523
409.769	2736
409.846	5503
409.924	7170
410.001	1937
410.079	1380
410.156	2501
410.233	4163
410.311	6947
410.388	2236
410.465	1609
410.543	-410
410.620	1913
410.697	463
410.775	1212
410.852	91
410.929	2080
411.006	2213
411.083	1450
411.161	60
411.238	1335
411.315	645
411.392	1087
411.469	661
411.547	1068
411.624	-512
411.701	979
411.778	1182
411.855	1365
411.932	551
412.009	-75
412.086	1000
412.163	358
412.240	-44
412.317	861
412.394	807
412.471	344
412.548	-135
412.625	715
412.702	1228
412.779	2191
412.856	2823
412.933	904
413.010	2304
413.087	5029
413.164	3139
413.241	3169
413.318	114
413.395	1380
413.471	693
413.548	783
413.625	1123
413.702	-343
413.779	-32
413.855	-341
413.932	-644
414.009	-843
414.086	122
414.162	1026
414.239	321
414.316	2644
414.393	4349
414.469	756
414.546	29
414.623	298
414.699	572
414.776	-140
414.853	24
414.929	541
415.006	-18
415.082	795
415.159	189
415.236	581
415.312	840
415.389	1044
415.465	2
415.542	700
415.618	-636
415.695	675
415.771	-800
415.848	252
415.924	-15
416.000	484
416.077	746
416.153	515
416.230	-252
416.306	561
416.383	-415
416.459	943
416.535	-241
416.612	-455
416.688	-453
416.764	-397
416.841	-641
416.917	161
416.993	558
417.069	1187
417.146	20
417.222	930
417.298	527
417.374	-177
417.451	117
417.527	-46
417.603	-1183
417.679	-432
417.755	79
417.831	-388
417.908	453
417.984	303
418.060	-1099
418.136	1265
418.212	-1091
418.288	-262
418.364	-389
418.440	-648
418.516	349
418.592	-266
418.668	424
418.744	128
418.820	418
418.896	250
418.972	-443
419.048	499
419.124	1162
419.200	-913
419.276	151
419.352	-49
419.428	-408
419.504	-317
419.579	-192
419.655	362
419.731	174
419.807	1060
419.883	657
419.959	623
420.034	251
420.110	-29
420.186	1196
420.262	985
420.337	305
420.413	403
420.489	-47
420.565	1400
420.640	646
420.716	1313
420.792	-791
420.867	1658
420.943	-627
421.019	1571
421.094	704
421.170	1552
421.245	1116
421.321	2080
421.397	6278
421.472	53914
421.548	182730
421.623	91417
421.699	9824
421.774	4194
421.850	1676
421.925	3066
422.001	3357
422.076	4195
422.152	3163
422.227	4927
422.302	6966
422.378	10952
422.453	20188
422.529	67406
422.604	348353
422.679	742754
422.755	332189
422.830	62705
422.905	21282
422.981	10712
423.056	7343
423.131	5684
423.207	3595
423.282	2707
423.357	3335
423.432	2216
423.508	1868
423.583	1316
423.658	2060
423.733	991
423.808	914
423.883	1146
423.959	1116
424.034	2043
424.109	2134
424.184	1526
424.259	650
424.334	934
424.409	-126
424.484	342
424.559	147
424.634	377
424.709	43
424.784	2174
424.859	1804
424.934	44
425.009	1108
425.084	1799
425.159	90
425.234	1227
425.309	-1027
425.384	715
425.459	-831
425.534	716
425.609	-410
425.683	499
425.758	77
425.833	-566
425.908	168
425.983	52
426.058	2581
426.132	250
426.207	-134
426.282	1371
426.357	-1090
426.431	429
426.506	-104
426.581	-281
426.655	295
426.730	-107
426.805	-1069
426.879	847
426.954	23
427.029	307
427.103	2729
427.178	6225
427.253	1686
427.327	640
427.402	204
427.476	254
427.551	-756
427.625	323
427.700	-62
427.774	-106
427.849	791
427.923	-80
427.998	-641
428.072	577
428.147	3256
428.221	21641
428.296	82411
428.370	41777
428.444	3569
428.519	788
428.593	-45
428.667	1216
428.742	601
428.816	6092
428.890	40490
428.965	67639
429.039	12748
429.113	1042
429.188	103
429.262	629
429.336	457
429.410	1168
429.485	381
429.559	858
429.633	126
429.707	928
429.781	4345
429.855	34540
429.930	52121
430.004	10833
430.078	5543
430.152	28089
430.226	153153
430.300	151229
430.374	17552
430.448	4011
430.522	3363
430.596	4802
430.670	11037
430.744	55708
430.818	61389
430.892	7985
430.966	1168
431.040	885
431.114	-445
431.188	197
431.262	-521
431.336	193
431.410	684
431.484	282
431.557	548
431.631	258
431.705	1236
431.779	16356
431.853	76271
431.927	47912
432.000	4546
432.074	1254
432.148	-57
432.222	-584
432.295	-259
432.369	-299
432.443	-4
432.516	3752
432.590	6829
432.664	1454
432.737	-753
432.811	-77
432.885	-597
432.958	384
433.032	-494
433.106	-339
433.179	-470
433.253	-50
433.326	-393
433.400	-70
433.473	-698
433.547	-396
433.620	-259
433.694	-829
433.767	-778
433.841	-396
433.914	-530
433.988	50
434.061	1
434.134	-443
434.208	-577
434.281	-72
434.355	-676
434.428	-414
434.501	-728
434.575	-915
434.648	-816
434.721	-444
434.795	-479
434.868	-572
434.941	-689
435.014	-416
435.088	-569
435.161	323
435.234	-234
435.307	207
435.381	161
435.454	935
435.527	2158
435.600	1636
435.673	1288
435.746	403
435.819	-570
435.892	803
435.966	-1048
436.039	-91
436.112	-861
436.185	-737
436.258	-1587
436.331	-778
436.404	-385
436.477	-262
436.550	-688
436.623	147
436.696	-702
436.769	-404
436.842	-493
436.915	58
436.987	-565
437.060	-441
437.133	-546
437.206	-1073
437.279	-268
437.352	-1413
437.425	-1199
437.498	-689
437.570	-792
437.643	-805
437.716	-729
437.789	-509
437.861	-1127
437.934	353
438.007	-1321
438.080	-885
438.152	-767
438.225	476
438.298	6567
438.370	13332
438.443	2089
438.516	50
438.588	-640
438.661	-472
438.734	-205
438.806	-450
438.879	-372
438.951	273
439.024	-1197
439.096	-1001
439.169	-646
439.241	-1094
439.314	-535
439.386	-1197
439.459	-385
439.531	-520
439.604	-631
439.676	-30
439.749	-621
439.821	-59
439.893	-537
439.966	-827
440.038	-876
440.110	-257
440.183	-797
440.255	-895
440.327	-294
440.400	532
440.472	4203
440.544	2172
440.617	-1160
440.689	169
440.761	-556
440.833	-1
440.905	-197
440.978	-525
441.050	-1262
441.122	233
441.194	-733
441.266	-281
441.338	-632
441.411	-22
441.483	754
441.555	624
441.627	-352
441.699	-318
441.771	-1059
441.843	-265
441.915	-896
441.987	-617
442.059	101
442.131	390
442.203	-173
442.275	2
442.347	1165
442.419	3733
442.491	25213
442.563	62189
442.635	19636
442.706	1738
442.778	375
442.850	319
442.922	-508
442.994	-167
443.066	-492
443.137	266
443.209	265
443.281	2188
443.353	6354
443.425	33539
443.496	133963
443.568	110604
443.640	30337
443.711	4336
443.783	663
443.855	633
443.926	-498
443.998	-146
444.070	-44
444.141	374
444.213	-140
444.285	-33
444.356	-689
444.428	-121
444.499	-1317
444.571	-286
444.642	-304
444.714	-666
444.785	-433
444.857	-166
444.928	-419
445.000	234
445.071	244
445.143	840
445.214	801
445.285	2929
445.357	12824
445.428	91646
445.500	219721
445.571	99019
445.642	43046
445.714	9084
445.785	1657
445.856	-73
445.928	50
445.999	-121
446.070	-577
446.141	-133
446.213	148
446.284	-415
446.355	-850
446.426	-438
446.497	-1156
446.569	-1185
446.640	-1369
446.711	-541
446.782	-212
446.853	-161
446.924	-753
446.995	-1039
447.066	-1085
447.138	-831
447.209	-1007
447.280	-563
447.351	-1129
447.422	-837
447.493	-1051
447.564	-642
447.635	-1029
447.706	-1071
447.777	-1162
447.847	-398
447.918	-1328
447.989	-1276
448.060	-284
448.131	-585
448.202	-1284
448.273	-201
448.344	-776
448.414	-920
448.485	-937
448.556	-433
448.627	-1205
448.698	444
448.768	-1099
448.839	-1052
448.910	-1173
448.981	-90
449.051	-761
449.122	-205
449.193	39
449.263	-520
449.334	-1299
449.405	-59
449.475	662
449.546	-110
449.616	57
449.687	429
449.758	-367
449.828	-37
449.899	-402
449.969	-162
450.040	-519
450.110	-651
450.181	-246
450.251	-201
450.322	-681
450.392	-61
450.463	-610
450.533	443
450.604	-426
450.674	-352
450.744	-356
450.815	-991
450.885	-511
450.955	-28
451.026	-1355
451.096	-985
451.166	-1185
451.237	-249
451.307	-184
451.377	-372
451.447	-1294
451.518	-597
451.588	-1919
451.658	-683
451.728	-111
451.799	-324
451.869	-787
451.939	-383
452.009	-680
452.079	-946
452.149	-404
452.219	-568
452.289	-840
452.360	-409
452.430	-922
452.500	-2
452.570	-177
452.640	1748
452.710	4220
452.780	3160
452.850	1134
452.920	393
452.990	-520
453.060	-457
453.129	-954
453.199	-631
453.269	-91
453.339	-83
453.409	-81
453.479	760
453.549	155
453.619	61
453.688	-682
453.758	-308
453.828	155
453.898	-17
453.968	-203
454.037	-562
454.087	-761
454.107	-852
454.168	-330
454.177	-268
454.247	-882
454.249	-855
454.316	-470
454.330	-627
454.386	-1335
454.411	-876
454.456	-97
454.492	-394
454.525	-682
454.574	-387
454.595	-271
454.655	-755
454.665	-854
454.734	-549
454.736	-552
454.804	-1072
454.817	-766
454.873	499
454.898	258
454.943	-252
454.979	-97
455.013	59
455.060	-535
455.082	-846
455.141	414
455.152	668
455.221	-800
455.222	-756
455.291	1833
455.303	2572
455.360	5163
455.384	8022
455.430	12552
455.465	8066
455.499	3840
455.546	1346
455.569	352
455.627	-739
455.638	-987
455.707	-214
455.708	-206
455.777	-374
455.789	-259
455.846	111
455.869	-160
455.916	-636
455.950	-246
455.985	-3
456.031	-696
456.054	-968
456.112	-54
456.124	115
456.193	-235
456.193	-248
456.262	139
456.274	95
456.332	-310
456.355	-291
456.401	-117
456.436	-107
456.470	-297
456.516	-545
456.540	-574
456.597	-540
456.609	-566
456.678	-60
456.678	-67
456.747	-886
456.759	-802
456.817	-99
456.840	-62
456.886	-382
456.920	-256
456.955	-38
457.001	7
457.024	10
457.082	-103
457.093	-106
457.162	-224
457.163	-213
457.232	246
457.243	212
457.301	-140
457.324	-173
457.370	-147
457.405	97
457.439	246
457.485	-347
457.508	-513
457.566	289
457.577	399
457.646	1091
457.647	1095
457.715	1487
457.727	1867
457.784	3759
457.808	5214
457.853	7319
457.889	8413
457.922	8388
457.969	4704
457.991	4082
458.050	5354
458.060	5596
458.129	11478
458.130	11622
458.198	12618
458.211	11181
458.267	4762
458.292	3021
458.336	1987
458.372	1741
458.405	2204
458.453	4253
458.474	5874
458.533	10999
458.543	11372
458.611	21581
458.614	21557
458.680	11256
458.694	8617
458.749	2964
458.775	1898
458.818	988
458.855	970
458.887	913
458.936	607
458.955	541
459.016	945
459.024	975
459.093	415
459.097	426
459.162	602
459.177	603
459.230	391
459.257	500
459.299	1105
459.338	1373
459.368	1091
459.418	583
459.437	581
459.499	465
459.505	431
459.574	598
459.579	584
459.643	413
459.659	547
459.711	889
459.740	820
459.780	806
459.820	1001
459.849	1020
459.900	994
459.917	1027
459.981	817
459.986	769
460.054	229
460.061	260
460.123	1175
460.141	1277
460.191	1332
460.222	1405
460.260	1540
460.302	1641
460.328	1639
460.382	2144
460.397	2372
460.462	2073
460.465	2191
460.534	7573
460.543	7986
460.602	28754
460.623	37473
460.671	58366
460.703	80670
460.739	81271
460.783	67880
460.808	55318
460.864	9244
460.876	5276
460.944	2335
460.945	2294
461.013	1820
461.024	1644
461.081	1170
461.104	1261
461.150	1201
461.184	956
461.218	1036
461.264	1138
461.286	1095
461.345	1234
461.355	1241
461.423	1382
461.425	1374
461.491	972
461.505	1003
461.559	1416
461.585	1322
461.628	1179
461.665	1459
461.696	1733
461.745	2130
461.764	1997
461.825	1062
461.832	1102
461.901	1912
461.905	1959
461.969	821
461.985	513
462.037	1271
462.065	1804
462.105	1506
462.145	1121
462.173	1297
462.225	1323
462.241	1246
462.305	1384
462.310	1418
462.378	1702
462.385	1769
462.446	2044
462.465	2048
462.514	1834
462.545	1757
462.582	1555
462.625	1129
462.650	1183
462.705	1712
462.718	1717
462.785	1288
462.786	1279
462.854	875
462.865	828
462.922	1717
462.945	1982
462.990	1759
463.025	1569
463.058	1499
463.104	1555
463.126	1694
463.184	1990
463.194	1978
463.262	1721
463.264	1704
463.330	1588
463.344	1726
463.398	2235
463.424	2153
463.466	1633
463.504	1440
463.533	1569
463.583	1771
463.601	1812
463.663	1521
463.669	1453
463.737	1043
463.743	981
463.805	1737
463.823	2009
463.873	1636
463.903	1504
463.940	2275
463.982	2836
464.008	2473
464.062	1835
464.076	1800
464.142	1688
464.144	1696
464.211	1810
464.221	1804
464.279	1760
464.301	1801
464.347	1762
464.381	1576
464.414	1628
464.461	1878
464.482	1927
464.540	1939
464.550	1941
464.617	1973
464.620	1969
464.685	2960
464.699	3214
464.753	4224
464.779	4592
464.820	5462
464.859	6478
464.888	6088
464.938	5122
464.956	4993
465.018	4499
465.023	4509
465.091	4438
465.098	4452
465.158	4447
465.177	4450
465.226	4492
465.257	4314
465.293	4332
465.336	4476
465.361	4573
465.416	4884
465.428	5027
465.495	5619
465.496	5623
465.563	4679
465.575	4522
465.631	5276
465.654	5641
465.698	5195
465.734	4702
465.765	4791
465.813	4920
465.833	5096
465.893	5623
465.900	5599
465.968	5479
465.972	5436
466.035	5480
466.052	5550
466.102	5104
466.131	4775
466.170	5314
466.210	5937
466.237	6290
466.290	6882
466.304	6891
466.369	6916
466.372	6951
466.439	7519
466.449	7616
466.506	8051
466.528	8144
466.573	7871
466.607	7685
466.641	7868
466.687	8056
466.708	8501
466.766	9714
466.775	9717
466.842	9542
466.845	9517
466.909	9559
466.925	9541
466.977	9131
467.004	8882
467.044	9130
467.083	9365
467.111	9954
467.163	10999
467.178	11176
467.242	11802
467.245	11735
467.312	9888
467.321	9625
467.379	8179
467.400	7631
467.446	8356
467.480	8858
467.559	7485
467.638	7692
467.717	7411
467.796	8053
467.875	6880
467.955	7181
468.034	7515
468.113	6906
468.192	8093
468.271	6708
468.350	8367
468.429	8539
468.508	9682
468.588	7391
468.667	6403
468.746	6090
468.825	5885
468.904	5262
468.983	6450
469.062	5526
469.141	5827
469.220	5325
469.299	6523
469.378	7064
469.456	8914
469.535	9205
469.614	7351
469.693	6083
469.772	7297
469.851	6895
469.930	6155
470.009	6448
470.088	6194
470.166	6975
470.245	6277
470.324	6851
470.403	6337
470.482	6573
470.560	5873
470.639	5076
470.718	5605
470.797	6338
470.875	5516
470.954	5582
471.033	6172
471.111	6002
471.190	4712
471.269	4489
471.347	5484
471.426	5512
471.505	6809
471.583	7639
471.662	7449
471.740	6730
471.819	6412
471.898	5875
471.976	6402
472.055	6644
472.133	6385
472.212	8055
472.290	5381
472.369	5336
472.447	6117
472.526	5392
472.604	5865
472.683	5740
472.761	4959
472.839	5195
472.918	5225
472.996	5110
473.075	6081
473.153	5555
473.231	4543
473.310	5054
473.388	5132
473.466	5282
473.545	5604
473.623	7331
473.701	5779
473.780	5911
473.858	4463
473.936	7208
474.014	5774
474.093	6520
474.171	6593
474.249	7368
474.327	5568
474.405	5060
474.484	4798
474.562	5573
474.640	5518
474.718	6230
474.796	6293
474.874	6755
474.952	5086
475.030	6352
475.108	5744
475.187	7406
475.265	6375
475.343	6496
475.421	7610
475.499	5394
475.577	6239
475.655	5204
475.733	5460
475.811	5066
475.889	4444
475.966	5123
476.044	4173
476.122	5096
476.200	3731
476.278	4846
476.356	3953
476.434	4465
476.512	3417
476.590	4956
476.667	4719
476.745	3968
476.823	4190
476.901	4137
476.979	3894
477.056	4653
477.134	4279
477.212	4578
477.290	5372
477.367	4499
477.445	3765
477.523	4528
477.601	4111
477.678	4254
477.756	4566
477.834	3819
477.911	3303
477.989	3886
478.066	3086
478.144	3633
478.222	5154
478.299	4936
478.377	5751
478.454	5060
478.532	3309
478.609	3187
478.687	3975
478.764	3696
478.842	2997
478.919	3815
478.997	4092
479.074	3869
479.152	3834
479.229	4907
479.307	3879
479.384	3684
479.461	3327
479.539	4123
479.616	3640
479.694	3689
479.771	3492
479.848	3619
479.926	2265
480.003	4627
480.080	3281
480.157	3501
480.235	3482
480.312	3599
480.389	3214
480.467	4086
480.544	3987
480.621	3225
480.698	3273
480.775	3487
480.853	4008
480.930	4000
481.007	3169
481.084	4549
481.161	8113
481.238	6169
481.315	2095
481.392	2905
481.470	3726
481.547	3048
481.624	2729
481.701	3506
481.778	2813
481.855	3341
481.932	3292
482.009	3705
482.086	4822
482.163	3501
482.240	3787
482.317	5184
482.393	4252
482.470	3213
482.547	4150
482.624	3212
482.701	2769
482.778	3556
482.855	2992
482.932	4065
483.009	2275
483.085	4667
483.162	4670
483.239	6662
483.316	4065
483.393	3493
483.469	3640
483.546	3477
483.623	3479
483.699	3629
483.776	3048
483.853	3234
483.930	3737
484.006	4541
484.083	7930
484.160	16407
484.236	32145
484.313	25649
484.389	18107
484.466	16797
484.543	14191
484.619	14777
484.696	16722
484.772	15352
484.849	14218
484.925	14114
485.002	14117
485.078	14670
485.155	12901
485.231	12705
485.308	13537
485.384	13602
485.461	12960
485.537	13528
485.614	14213
485.690	13254
485.766	12795
485.843	12203
485.919	12815
485.995	13492
486.072	11705
486.148	12465
486.224	11795
486.301	12119
486.377	12192
486.453	12242
486.530	13646
486.606	18773
486.682	19958
486.758	17605
486.835	16398
486.911	14313
486.987	14716
487.063	16148
487.139	17790
487.215	17914
487.292	15824
487.368	13745
487.444	13342
487.520	16277
487.596	17384
487.672	24896
487.748	50105
487.824	75423
487.900	32580
487.976	14411
488.052	12034
488.128	12418
488.204	10904
488.280	12150
488.356	10733
488.432	11878
488.508	11450
488.584	10652
488.660	9652
488.736	10731
488.812	9884
488.888	12395
488.964	12605
489.039	12916
489.115	15789
489.191	13958
489.267	10928
489.343	9925
489.418	9693
489.494	9784
489.570	8009
489.646	10459
489.722	8258
489.797	9643
489.873	9478
489.949	10239
490.024	10066
490.100	7845
490.176	8003
490.251	8096
490.327	9255
490.403	8404
490.478	8213
490.554	6522
490.629	7421
490.705	8129
490.781	8285
490.856	7232
490.932	7999
491.007	8041
491.083	7408
491.158	7133
491.234	7529
491.309	7779
491.385	6715
491.460	6827
491.536	7426
491.611	7642
491.686	7292
491.762	7434
491.837	7297
491.913	9201
491.988	10409
492.063	13776
492.139	8042
492.214	7690
492.289	6092
492.365	5575
492.440	6922
492.515	5010
492.590	6423
492.666	4907
492.741	6253
492.816	6167
492.891	4911
492.967	7220
493.042	5623
493.117	5191
493.192	6848
493.267	8930
493.342	23944
493.418	36773
493.493	10010
493.568	4956
493.643	4502
493.718	5896
493.793	4556
493.868	6668
493.943	4669
494.018	5704
494.093	4499
494.168	4375
494.243	5133
494.318	5546
494.393	4410
494.468	4013
494.543	3493
494.618	5546
494.693	4441
494.768	4867
494.842	4095
494.917	4580
494.992	4286
495.067	4926
495.142	3767
495.217	4703
495.292	4002
495.366	3855
495.441	3469
495.516	5081
495.591	4714
495.665	8615
495.740	14928
495.815	9485
495.890	4608
495.964	2660
496.039	6652
496.114	5641
496.188	7628
496.263	9677
496.338	4371
496.412	4075
496.487	5416
496.561	4888
496.636	5556
496.710	6160
496.785	5220
496.860	5494
496.934	5483
497.009	5865
497.083	5455
497.158	6346
497.232	5596
497.307	7865
497.381	7500
497.455	7946
497.530	9516
497.604	9925
497.679	10898
497.753	14230
497.827	20087
497.902	22780
497.976	21323
498.050	20096
498.125	27038
498.199	31814
498.273	32232
498.348	31641
498.422	23487
498.496	18569
498.570	15154
498.645	12922
498.719	9986
498.793	9944
498.867	8026
498.941	7911
499.016	9573
499.090	15617
499.164	8814
499.238	6578
499.312	5303
499.386	5801
499.460	5021
499.534	4421
499.609	4550
499.683	5054
499.757	4497
499.831	4362
499.905	8931
499.979	9398
500.053	3684
500.127	5446
500.201	4394
500.275	4326
500.349	3894
500.422	4023
500.496	4193
500.570	6152
500.644	8382
500.718	10142
500.792	5044
500.866	4870
500.940	3899
501.013	4502
501.087	2574
501.161	3571
501.235	2850
501.309	5508
501.382	6985
501.456	7419
501.530	3588
501.603	2900
501.677	3589
501.751	2304
501.825	4109
501.898	4125
501.972	4359
502.046	4144
502.119	3140
502.193	4373
502.266	4078
502.340	3790
502.413	3161
502.487	4689
502.561	2726
502.634	3149
502.708	3793
502.781	2179
502.855	3469
502.928	1619
503.002	2327
503.075	2446
503.149	2159
503.222	2162
503.295	2505
503.369	2229
503.442	2392
503.516	4111
503.589	4962
503.662	4972
503.736	2574
503.809	5549
503.882	3831
503.956	6717
504.029	8821
504.102	24876
504.175	41499
504.249	15825
504.322	6077
504.395	3634
504.468	2957
504.542	2961
504.615	2477
504.688	3668
504.761	641
504.834	4092
504.907	2960
504.980	3271
505.053	2475
505.127	773
505.200	4394
505.273	2871
505.346	1692
505.419	2134
505.492	4354
505.565	4910
505.638	6785
505.711	4522
505.784	2397
505.857	2437
505.930	4144
506.003	1144
506.076	4113
506.149	1669
506.221	210
506.294	2902
506.367	1305
506.440	4546
506.513	3573
506.586	1989
506.659	1856
506.731	2248
506.804	1796
506.877	2009
506.950	2616
507.022	3647
507.095	516
507.168	2971
507.241	2430
507.313	1721
507.386	920
507.459	4287
507.531	1775
507.604	1130
507.677	2995
507.749	1228
507.822	3427
507.894	6248
507.967	11677
508.040	6895
508.112	6624
508.185	4931
508.257	3175
508.330	5480
508.402	3308
508.475	4068
508.547	3977
508.620	4310
508.692	4166
508.765	4884
508.837	3252
508.909	4610
508.982	3276
509.054	4830
509.127	3683
509.199	3415
509.271	1937
509.344	3570
509.416	3392
509.488	3410
509.560	3680
509.633	3191
509.705	3529
509.777	3729
509.849	3889
509.922	3277
509.994	3164
510.066	4620
510.138	3696
510.210	13921
510.283	11739
510.355	9100
510.427	8561
510.499	6253
510.571	6159
510.643	5199
510.715	7494
510.787	4516
510.859	7064
510.931	6906
511.003	6044
511.076	6750
511.148	4529
511.219	4294
511.291	4832
511.363	5690
511.435	5797
511.507	4251
511.579	6786
511.651	6058
511.723	4944
511.795	4734
511.867	4048
511.939	4933
512.010	3625
512.082	5699
512.154	3348
512.226	5367
512.298	8430
512.369	11770
512.441	9256
512.513	8275
512.585	6575
512.656	6883
512.728	6710
512.800	6187
512.871	6505
512.943	7162
513.015	5454
513.086	6600
513.158	5895
513.230	5640
513.301	5018
513.373	7467
513.444	5065
513.516	5516
513.588	5232
513.659	6226
513.731	5660
513.802	4779
513.874	6846
513.945	6473
514.016	5196
514.088	5238
514.159	4136
514.231	6740
514.302	8802
514.374	9933
514.445	6383
514.516	8875
514.588	6378
514.659	6308
514.730	6876
514.802	9053
514.873	9763
514.944	13075
515.016	7932
515.087	6797
515.158	7362
515.229	8702
515.301	10301
515.372	18818
515.443	9747
515.514	7372
515.585	5352
515.656	7077
515.728	5654
515.799	5581
515.870	6033
515.941	5638
516.012	4866
516.083	8582
516.154	8140
516.225	8582
516.296	7194
516.367	6012
516.438	4920
516.509	6880
516.580	5786
516.651	10897
516.722	20840
516.793	13483
516.864	5725
516.935	6009
517.006	6608
517.077	7104
517.148	9139
517.219	24447
517.289	37645
517.360	10090
517.431	6643
517.502	3433
517.573	5968
517.643	5604
517.714	6049
517.785	6767
517.856	4765
517.926	7719
517.997	6699
518.068	6477
518.138	8117
518.209	7036
518.280	17473
518.350	64614
518.421	28623
518.492	8530
518.562	7326
518.633	7194
518.703	7943
518.774	16432
518.845	46308
518.915	55716
518.986	16313
519.056	8245
519.127	8749
519.197	9194
519.268	8473
519.338	6782
519.408	4730
519.479	4987
519.549	4597
519.620	5567
519.690	3781
519.760	4706
519.831	4499
519.901	4052
519.971	3688
520.042	3848
520.112	2977
520.182	4370
520.253	4178
520.323	4049
520.393	2861
520.463	6212
520.534	230
520.604	6174
520.674	3986
520.744	3204
520.814	3669
520.885	4880
520.955	3745
521.025	5429
521.095	3788
521.165	4534
521.235	2777
521.305	2886
521.375	3395
521.445	4770
521.515	2469
521.585	4462
521.655	1714
521.725	4683
521.795	4545
521.865	1185
521.935	5286
522.005	3365
522.075	2276
522.145	3796
522.215	2577
522.285	3873
522.355	3534
522.424	4689
522.494	3122
522.564	4237
522.634	4745
522.704	9288
522.774	4627
522.843	3835
522.913	3350
522.983	3708
523.053	2104
523.122	3704
523.192	1763
523.262	4151
523.331	3872
523.401	3972
523.471	3066
523.540	3701
523.610	1506
523.680	3219
523.749	2817
523.819	4346
523.888	2925
523.958	2361
524.027	2074
524.097	3072
524.166	3121
524.236	1035
524.305	3733
524.375	1695
524.444	1595
524.514	4070
524.583	1594
524.653	2467
524.722	2784
524.791	1490
524.861	3517
524.930	2002
524.999	1876
525.069	2860
525.138	1837
525.207	1374
525.277	3399
525.346	1929
525.415	2575
525.484	3131
525.554	2607
525.623	3734
525.692	6487
525.761	5148
525.830	5572
525.900	5997
525.969	8397
526.038	15684
526.107	27322
526.176	98245
526.245	97995
526.314	27235
526.383	44455
526.452	73311
526.522	112747
526.591	144376
526.660	22296
526.729	11523
526.797	13526
526.867	17201
526.935	53788
527.004	234275
527.073	202645
527.142	17566
527.211	5801
527.280	4654
527.349	3353
527.418	1763
527.487	2956
527.555	1961
527.624	1200
527.693	1061
527.762	2724
527.831	1024
527.899	1543
527.968	2087
528.037	383
528.106	3004
528.174	2346
528.243	2729
528.312	1487
528.380	1978
528.449	198
528.518	2312
528.586	153
528.655	2613
528.723	1669
528.792	1846
528.861	646
528.929	473
528.998	2039
529.066	975
529.135	1094
529.203	798
529.272	366
529.340	2261
529.409	1995
529.477	636
529.545	194
529.614	3140
529.682	-720
529.751	745
529.819	3182
529.887	1459
529.956	530
530.024	2322
530.092	612
530.161	2358
530.229	1302
530.297	280
530.365	2158
530.434	1757
530.502	544
530.570	1034
530.638	-214
530.707	1500
530.775	2224
530.843	396
530.911	-184
530.979	1823
531.047	834
531.115	1280
531.183	837
531.252	1674
531.320	761
531.388	484
531.456	1322
531.524	-507
531.592	1946
531.660	2623
531.728	265
531.796	901
531.864	1157
531.932	1374
532.000	19
532.067	1153
532.135	1656
532.203	2151
532.271	-95
532.339	1591
532.407	3135
532.475	2096
532.542	2019
532.610	1839
532.678	553
532.746	5287
532.814	10502
532.881	3346
532.949	1751
533.017	2427
533.084	1299
533.152	1500
533.220	1161
533.287	584
533.355	1167
533.423	1720
533.490	489
533.558	1579
533.625	1843
533.693	1477
533.761	2107
533.828	2470
533.896	1067
533.963	3280
534.031	2533
534.098	3137
534.166	1530
534.233	1421
534.300	2756
534.368	1776
534.435	1253
534.503	2444
534.570	2442
534.637	2576
534.705	3135
534.772	4858
534.840	7100
534.907	40950
534.974	74092
535.041	9907
535.109	2530
535.176	2089
535.243	2483
535.310	1738
535.378	431
535.445	1818
535.512	1292
535.579	2927
535.646	73
535.714	2523
535.781	3266
535.848	4371
535.915	3015
535.982	1265
536.049	1293
536.116	3568
536.183	1160
536.250	1485
536.317	2161
536.384	2540
536.451	2315
536.518	2200
536.585	21
536.652	3976
536.719	1961
536.786	949
536.853	1429
536.920	2914
536.987	3553
537.053	1737
537.120	5722
537.187	5904
537.254	898
537.321	1497
537.388	2723
537.454	804
537.521	1587
537.588	1764
537.654	3178
537.721	3987
537.788	3312
537.855	1855
537.921	2293
537.988	2760
538.055	3638
538.121	1316
538.188	2608
538.254	2799
538.321	3940
538.388	2948
538.454	1843
538.521	2743
538.587	2151
538.654	1902
538.720	2518
538.787	2272
538.853	2866
538.920	3231
538.986	955
539.053	1878
539.119	2019
539.185	1821
539.252	2675
539.318	3048
539.385	3029
539.451	3097
539.517	3778
539.583	4266
539.650	2313
539.716	5188
539.782	2431
539.849	2161
539.915	2913
539.981	1860
540.047	2304
540.114	3194
540.180	2762
540.246	1766
540.312	2933
540.378	4072
540.444	4914
540.510	4349
540.576	4957
540.643	2997
540.709	1184
540.775	2452
540.841	1639
540.907	2897
540.973	4731
541.039	5184
541.105	4297
541.171	3873
541.237	2892
541.303	3033
541.369	4440
541.435	3900
541.500	3384
541.566	1922
541.632	2451
541.698	2003
541.764	3582
541.830	2257
541.896	1715
541.961	3383
542.027	1750
542.093	3068
542.159	3136
542.224	1614
542.290	4791
542.356	4216
542.421	3992
542.487	3758
542.553	2799
542.618	2413
542.684	2057
542.750	1837
542.815	2594
542.881	2449
542.947	4310
543.012	5337
543.078	2594
543.143	1750
543.209	3397
543.274	2543
543.340	3219
543.405	4166
543.471	3684
543.536	3016
543.602	3114
543.667	1155
543.732	3502
543.798	2291
543.863	3217
543.928	2910
543.994	1956
544.059	2936
544.124	3096
544.190	3071
544.255	3454
544.320	2761
544.386	2398
544.451	3850
544.516	3358
544.581	3099
544.646	4215
544.712	6518
544.777	3482
544.842	3050
544.907	2162
544.972	2984
545.037	2597
545.102	4454
545.168	2203
545.233	3304
545.298	3381
545.363	3671
545.428	4156
545.493	5132
545.558	4059
545.623	3508
545.688	2713
545.753	4412
545.818	2790
545.883	4663
545.947	3240
546.012	3812
546.077	3188
546.142	4625
546.207	3018
546.272	3782
546.337	4181
546.401	4719
546.466	4408
546.531	3783
546.596	5426
546.661	4386
546.725	5282
546.790	4113
546.855	4929
546.919	4310
546.984	5945
547.049	5787
547.113	6094
547.178	6642
547.243	7595
547.307	8505
547.372	8117
547.436	8651
547.501	9374
547.565	9772
547.630	10323
547.695	8957
547.759	8867
547.823	9556
547.888	9677
547.952	9311
548.017	10980
548.081	14493
548.146	12592
548.210	10712
548.274	10554
548.339	10157
548.403	10825
548.468	9689
548.532	9367
548.596	10190
548.660	9051
548.725	11274
548.789	10348
548.853	11551
548.917	8940
548.982	10552
549.046	8577
549.110	8426
549.174	7658
549.238	9568
549.303	10031
549.367	12645
549.431	10577
549.495	10235
549.559	8634
549.623	12091
549.687	12788
549.751	11936
549.815	14200
549.879	15304
549.943	12869
550.007	15066
550.071	13959
550.135	13864
550.199	11597
550.263	12395
550.327	12423
550.391	12569
550.455	14097
550.519	13063
550.582	14431
550.646	15068
550.710	16406
550.774	15962
550.838	15994
550.901	16681
550.965	17684
551.029	19241
551.093	20990
551.156	23389
551.220	29088
551.284	40773
551.347	29140
551.411	20209
551.475	18062
551.538	18008
551.602	16800
551.666	15425
551.729	13110
551.793	14821
551.856	14015
551.920	13375
551.983	12935
552.047	13094
552.110	13314
552.174	14678
552.237	14343
552.301	13038
552.364	11401
552.428	11202
552.491	10798
552.554	12884
552.618	12120
552.681	13534
552.745	10778
552.808	13314
552.871	14216
552.934	13179
552.998	11138
553.061	11446
553.124	11215
553.187	11594
553.251	11647
553.314	11512
553.377	11703
553.440	13354
553.503	16484
553.567	20346
553.630	13454
553.693	12049
553.756	11586
553.819	11796
553.882	11039
553.945	11282
554.008	11779
554.071	10709
554.134	11191
554.197	10117
554.260	9581
554.323	11974
554.386	11185
554.449	11889
554.512	12215
554.575	10191
554.638	10826
554.701	11268
554.764	10068
554.827	10510
554.889	9487
554.952	9560
555.015	8133
555.078	9162
555.141	9843
555.203	8897
555.266	8847
555.329	9321
555.391	8670
555.454	7501
555.517	7784
555.580	9021
555.642	7871
555.705	8550
555.768	8947
555.830	8945
555.893	8068
555.955	7731
556.018	6824
556.080	6902
556.143	7392
556.206	7493
556.268	6668
556.330	7015
556.393	7608
556.455	6746
556.518	5772
556.580	6317
556.643	5580
556.705	6899
556.767	4332
556.830	5387
556.892	5684
556.955	5434
557.017	6175
557.079	6023
557.142	4959
557.204	5499
557.266	5883
557.328	5303
557.391	4370
557.453	3697
557.515	4572
557.577	5098
557.639	5043
557.701	5078
557.764	4564
557.826	5445
557.888	6088
557.950	7564
558.012	7045
558.074	10010
558.136	25462
558.198	84370
558.260	36070
558.322	9319
558.384	9757
558.446	12620
558.508	15352
558.570	19913
558.632	24167
558.694	31077
558.756	48258
558.818	166455
558.880	552724
558.942	197999
559.003	91825
559.065	54649
559.127	17395
559.189	17159
559.251	18213
559.312	26279
559.374	66453
559.436	285799
559.498	179853
559.559	21012
559.621	15571
559.683	18214
559.744	27362
559.806	103713
559.868	212888
559.929	40309
559.991	14606
560.052	21074
560.114	74746
560.176	58619
560.237	37028
560.299	79142
560.360	18771
560.422	4724
560.483	3135
560.545	2989
560.606	3075
560.667	2497
560.729	981
560.790	2145
560.852	2025
560.913	2200
560.974	1155
561.036	2386
561.097	2033
561.158	2049
561.220	1897
561.281	990
561.342	2316
561.403	2495
561.465	1642
561.526	3864
561.587	5343
561.648	1703
561.709	1003
561.771	2637
561.832	902
561.893	1451
561.954	1372
562.015	1281
562.076	1503
562.137	1863
562.198	1459
562.259	2508
562.320	1727
562.381	1128
562.442	1862
562.503	2369
562.564	1138
562.625	1822
562.686	686
562.747	1499
562.808	1227
562.869	1657
562.930	1647
562.991	1578
563.051	852
563.112	1203
563.173	1464
563.234	1253
563.294	1592
563.355	1580
563.416	1189
563.477	1740
563.537	945
563.598	1664
563.659	1549
563.720	1228
563.780	2543
563.841	1565
563.901	1887
563.962	2331
564.023	1242
564.083	1018
564.144	1240
564.204	1766
564.265	1065
564.325	1590
564.386	1946
564.446	1807
564.507	1501
564.567	4018
564.628	2354
564.688	1343
564.749	1113
564.809	1877
564.869	1450
564.930	1720
564.990	2516
565.050	1498
565.111	2374
565.171	1563
565.231	1044
565.292	2003
565.352	564
565.412	1736
565.472	1702
565.532	2141
565.593	1242
565.653	653
565.713	1499
565.773	2011
565.833	1220
565.893	3229
565.953	1448
566.013	2433
566.074	2348
566.134	2586
566.194	2658
566.254	3244
566.314	3322
566.374	2745
566.434	3451
566.494	3884
566.554	5309
566.614	5342
566.673	4028
566.733	5949
566.793	3476
566.853	5990
566.913	5137
566.973	5840
567.033	5847
567.092	5100
567.152	4384
567.212	5525
567.272	5360
567.331	6334
567.391	6542
567.451	8209
567.511	7794
567.570	8411
567.630	6491
567.690	6874
567.749	8060
567.809	8797
567.868	9503
567.928	11886
567.988	13417
568.047	18525
568.107	23523
568.166	37195
568.226	67953
568.285	110439
568.345	85036
568.404	59972
568.464	47447
568.523	39383
568.582	37961
568.642	43251
568.701	57902
568.761	99466
568.820	188943
568.879	180422
568.939	109099
568.998	70249
569.057	49408
569.116	35449
569.176	25600
569.235	19533
569.294	16131
569.353	13273
569.413	11552
569.472	8949
569.531	8695
569.590	7319
569.649	5808
569.708	6562
569.767	6485
569.827	4940
569.886	4362
569.945	4277
570.004	3878
570.063	5020
570.122	4667
570.181	4395
570.240	2948
570.299	3519
570.358	2395
570.417	3359
570.475	2822
570.534	3812
570.593	3283
570.652	2752
570.711	2974
570.770	4641
570.829	8625
570.887	6758
570.946	3640
571.005	2506
571.064	2091
571.122	2433
571.181	977
571.240	1647
571.299	2021
571.357	2615
571.416	1871
571.475	1584
571.533	1703
571.592	1541
571.650	1515
571.709	1388
571.768	1842
571.826	1230
571.885	1953
571.943	1081
572.002	633
572.060	1141
572.119	188
572.177	1501
572.236	1188
572.294	1130
572.352	1160
572.411	1544
572.469	994
572.528	783
572.586	1069
572.644	1517
572.703	1383
572.761	1112
572.819	931
572.877	851
572.936	746
572.994	1212
573.052	1130
573.110	418
573.169	538
573.227	2260
573.285	1312
573.343	817
573.401	736
573.459	1213
573.517	652
573.576	1345
573.634	1254
573.692	1187
573.750	691
573.808	918
573.866	958
573.924	1534
573.982	1001
574.040	824
574.098	1249
574.155	1073
574.213	1585
574.271	502
574.329	368
574.387	175
574.445	661
574.503	1429
574.560	137
574.618	1110
574.676	565
574.734	882
574.792	1562
574.849	770
574.907	1762
574.965	608
575.022	1569
575.080	483
575.138	964
575.195	1424
575.253	462
575.311	561
575.368	1054
575.426	1307
575.483	1268
575.541	882
575.598	908
575.656	791
575.713	938
575.771	1334
575.828	1233
575.886	2260
575.943	1033
576.001	668
576.058	789
576.115	1040
576.173	1251
576.230	531
576.287	1530
576.345	1586
576.402	-103
576.459	1568
576.517	1336
576.574	1436
576.631	895
576.688	498
576.746	1770
576.803	293
576.860	950
576.917	1362
576.974	615
577.031	937
577.089	1407
577.146	989
577.203	1810
577.260	2004
577.317	1666
577.374	1228
577.431	796
577.488	319
577.545	955
577.602	744
577.659	1167
577.716	847
577.773	529
577.830	326
577.886	1546
577.943	1159
578.000	681
578.057	989
578.114	1675
578.171	2005
578.227	1433
578.284	-260
578.341	1620
578.398	289
578.454	506
578.511	1218
578.568	1294
578.625	95
578.681	363
578.738	314
578.794	1072
578.851	411
578.908	387
578.964	987
579.021	500
579.077	328
579.134	490
579.190	1157
579.247	800
579.303	1294
579.360	831
579.416	1579
579.473	153
579.529	-464
579.586	1154
579.642	1039
579.698	875
579.755	1395
579.811	1628
579.867	1268
579.924	308
579.980	685
580.036	1450
580.093	575
580.149	448
580.205	882
580.261	1102
580.317	1192
580.374	1006
580.430	1152
580.486	1211
580.542	265
580.598	313
580.619	819
580.654	1695
580.692	574
580.710	17
580.765	612
580.767	628
580.823	960
580.838	973
580.879	1004
580.911	895
580.935	809
580.984	582
580.991	554
581.047	1417
581.057	1487
581.103	1760
581.130	1517
581.159	1232
581.203	1633
581.215	1755
581.270	992
581.276	967
581.326	705
581.349	615
581.382	439
581.422	1102
581.438	1384
581.494	1223
581.494	1221
581.550	712
581.567	876
581.606	1220
581.640	1086
581.661	1018
581.713	1562
581.717	1604
581.773	1366
581.786	1137
581.829	347
581.859	901
581.885	1384
581.932	1102
581.940	1053
581.996	1327
582.004	1278
582.052	875
582.077	937
582.107	1090
582.150	1014
582.163	974
582.219	1408
582.223	1427
582.274	1496
582.296	1103
582.330	585
582.368	1235
582.386	1517
582.441	1170
582.441	1168
582.497	1153
582.514	1079
582.552	1036
582.587	1299
582.608	1395
582.659	899
582.663	857
582.719	1046
582.732	1112
582.774	1490
582.805	1269
582.830	1053
582.877	1560
582.885	1614
582.941	1497
582.950	1561
582.996	2027
583.023	1868
583.052	1741
583.095	1767
583.107	1737
583.162	1561
583.168	1623
583.218	2218
583.240	2011
583.273	1705
583.313	2402
583.328	2708
583.384	2009
583.385	2014
583.439	1772
583.458	1721
583.494	1911
583.531	2214
583.549	2377
583.603	1754
583.605	1725
583.660	3012
583.676	2723
583.715	1966
583.748	2093
583.770	2370
583.820	2593
583.825	2577
583.881	2939
583.893	2636
583.936	1796
583.965	2084
583.991	2237
584.038	2631
584.046	2733
584.101	2569
584.110	2591
584.156	2713
584.183	2752
584.211	2718
584.255	2724
584.266	2741
584.321	2946
584.328	2927
584.376	2931
584.400	3280
584.431	3555
584.472	2731
584.486	2546
584.541	3993
584.545	3959
584.596	3088
584.617	3112
584.651	3599
584.689	3943
584.706	3856
584.761	3989
584.762	3983
584.816	4167
584.834	4285
584.871	4482
584.906	4431
584.926	4336
584.978	4506
584.980	4520
585.035	4336
585.051	4490
585.090	5318
585.123	6003
585.145	6265
585.195	6368
585.200	6440
585.254	7541
585.267	8003
585.309	9502
585.340	10150
585.364	10692
585.412	12172
585.419	12404
585.473	13808
585.484	14114
585.528	16442
585.556	19303
585.583	26832
585.628	44046
585.637	51698
585.692	113007
585.700	124815
585.747	163868
585.772	143547
585.801	89165
585.845	27972
585.856	22036
585.910	12128
585.917	11202
585.965	10188
585.989	9450
586.019	8649
586.061	8047
586.074	8074
586.128	8488
586.133	8476
586.183	8574
586.205	8390
586.237	8035
586.277	8598
586.292	8874
586.346	9210
586.349	9201
586.401	9243
586.421	9382
586.455	9575
586.493	9893
586.509	10282
586.564	10405
586.565	10404
586.618	10585
586.637	10939
586.672	12171
586.709	12908
586.727	13077
586.781	13208
586.781	13229
586.835	12553
586.853	12344
586.889	12155
586.925	12078
586.944	12296
586.996	13630
586.998	13693
587.052	13934
587.068	14079
587.106	14535
587.140	14844
587.161	14954
587.212	15921
587.215	16028
587.269	16724
587.284	16912
587.323	17582
587.356	18477
587.377	19267
587.427	20437
587.431	20556
587.485	22061
587.499	22264
587.539	23358
587.571	24578
587.593	25367
587.643	26612
587.648	26920
587.702	30042
587.715	30690
587.755	32435
587.786	33836
587.810	35446
587.858	38825
587.864	39367
587.917	44018
587.930	44940
587.971	49723
588.001	53670
588.025	57358
588.073	63836
588.079	65113
588.133	76527
588.145	78834
588.187	87932
588.217	94982
588.241	102948
588.288	117916
588.295	120608
588.348	143529
588.360	148391
588.402	172112
588.431	188880
588.456	206603
588.503	241351
588.510	247871
588.564	301198
588.575	312248
588.617	372886
588.646	416800
588.671	478294
588.718	601639
588.725	637174
588.778	931770
588.789	999425
588.832	1533806
588.861	1932934
588.886	2383032
588.932	3281048
588.939	3313868
588.993	3293157
589.004	3250616
589.047	2647492
589.075	2178263
589.100	1736442
589.147	1000032
589.154	959313
589.207	693638
589.218	642241
589.261	594019
589.290	568047
589.314	594917
589.361	657615
589.368	693780
589.421	1008288
589.433	1082589
589.475	1714223
589.504	2196312
589.528	2537875
589.576	3130783
589.582	3072736
589.635	2257916
589.647	2062329
589.689	1252565
589.718	734768
589.742	591790
589.790	341226
589.795	330338
589.849	233729
589.861	212046
589.902	175209
589.932	148662
589.955	136929
590.004	112781
590.009	111563
590.062	96345
590.075	92474
590.115	84017
590.146	77195
590.168	73921
590.218	66207
590.222	65880
590.275	59635
590.289	57805
590.328	54032
590.360	50756
590.381	49244
590.431	45274
590.435	45239
590.488	42806
590.503	41942
590.541	40007
590.574	38105
590.594	37405
590.645	35529
590.647	35560
590.700	33390
590.716	32606
590.753	31410
590.787	30289
590.806	29967
590.859	28585
590.859	28659
590.912	27654
590.930	27296
590.965	26923
591.001	26418
591.018	26173
591.071	25082
591.072	24988
591.124	24628
591.143	24400
591.177	23610
591.214	22662
591.230	22812
591.283	22907
591.285	22831
591.336	21621
591.356	21046
591.389	21573
591.427	22035
591.442	21748
591.495	20226
591.498	20052
591.547	19939
591.569	19787
591.600	19559
591.640	19017
591.653	18968
591.706	18457
591.711	18352
591.759	18331
591.782	18139
591.811	18344
591.853	18583
591.864	18493
591.917	17590
591.924	17404
591.969	17558
591.995	17527
592.022	17292
592.066	16741
592.075	16847
592.127	17159
592.137	17144
592.180	16663
592.208	16275
592.233	16439
592.279	16520
592.285	16687
592.338	17641
592.350	17784
592.390	17099
592.421	16477
592.443	16626
592.491	16767
592.495	16834
592.548	16895
592.562	16856
592.600	16479
592.633	16032
592.653	15884
592.704	15279
592.705	15371
592.775	15563
592.846	16815
592.916	15274
592.987	15974
593.058	16275
593.128	15393
593.199	15602
593.270	14983
593.341	14450
593.411	15504
593.482	14785
593.553	16438
593.623	14751
593.694	15722
593.764	16255
593.835	16473
593.906	15130
593.976	15447
594.047	14967
594.117	15772
594.188	17106
594.258	16275
594.329	15507
594.399	16623
594.470	17058
594.540	17288
594.611	16759
594.681	18754
594.751	18119
594.822	23655
594.892	25242
594.963	22215
595.033	20439
595.103	19059
595.174	18486
595.244	19930
595.314	19748
595.384	18843
595.455	19175
595.525	19321
595.595	20309
595.665	20963
595.736	20648
595.806	22137
595.876	20042
595.946	19984
596.016	21028
596.087	21510
596.157	19987
596.227	21439
596.297	22036
596.367	22995
596.437	23727
596.507	24693
596.577	23479
596.647	24814
596.717	25220
596.787	25514
596.857	26238
596.927	27000
596.997	26204
597.067	26652
597.137	27309
597.207	26921
597.277	26032
597.347	26025
597.417	23702
597.487	25459
597.557	25716
597.626	25349
597.696	26058
597.766	26338
597.836	24779
597.906	24577
597.975	23265
598.045	23402
598.115	24697
598.185	25052
598.254	30506
598.324	31594
598.394	30163
598.464	31115
598.533	29073
598.603	27939
598.672	27518
598.742	27906
598.812	27887
598.881	28331
598.951	27940
599.020	29054
599.090	29296
599.159	30020
599.229	28204
599.299	28039
599.368	28249
599.437	29112
599.507	25840
599.576	24916
599.646	24845
599.715	25196
599.785	23727
599.854	22784
599.924	22022
599.993	23568
600.062	23022
600.132	24145
600.201	24452
600.270	29724
600.340	29653
600.409	30092
600.478	29751
600.547	29824
600.617	27070
600.686	21283
600.755	19065
600.824	19262
600.894	19106
600.963	19449
601.032	18372
601.101	18078
601.170	17040
601.239	15751
601.308	16442
601.378	17018
601.447	16171
601.516	15784
601.585	16185
601.654	15666
601.723	16191
601.792	16673
601.861	16917
601.930	18817
601.999	17888
602.068	17436
602.137	17797
602.206	18615
602.275	17652
602.343	18739
602.412	18424
602.481	18297
602.550	18809
602.619	19855
602.688	19932
602.756	19746
602.825	19657
602.894	21547
602.963	20819
603.032	21753
603.100	20964
603.169	20098
603.238	20780
603.307	22103
603.375	21962
603.444	22923
603.513	22690
603.581	23526
603.650	22723
603.719	23628
603.787	24387
603.856	24949
603.924	24944
603.993	26610
604.061	26507
604.130	28696
604.198	28606
604.267	30008
604.335	30081
604.404	30198
604.472	30342
604.541	31519
604.609	31078
604.678	31342
604.746	30868
604.815	31120
604.883	32385
604.951	33176
605.020	32620
605.088	34727
605.156	34765
605.225	35739
605.293	35274
605.361	36101
605.429	35477
605.498	36926
605.566	37097
605.634	40323
605.702	41431
605.771	43114
605.839	42120
605.907	43085
605.975	41315
606.043	39019
606.111	39693
606.180	39621
606.248	37568
606.316	37909
606.384	37490
606.452	38145
606.520	38583
606.588	41295
606.656	41218
606.724	40282
606.792	37518
606.860	34465
606.928	31023
606.996	31221
607.064	28685
607.132	30189
607.200	32046
607.267	33892
607.335	32526
607.403	35453
607.471	31564
607.539	33366
607.607	33145
607.674	29053
607.742	29104
607.810	28483
607.878	27634
607.946	29312
608.013	30391
608.081	31580
608.149	31836
608.216	32218
608.284	34094
608.352	33464
608.419	32100
608.487	33096
608.555	31587
608.622	33709
608.690	35104
608.757	39144
608.825	39726
608.893	37478
608.960	35075
609.028	35269
609.095	34187
609.163	33480
609.230	29917
609.298	28659
609.365	29356
609.432	33813
609.500	35193
609.567	40681
609.635	46593
609.702	48942
609.769	45249
609.837	36677
609.904	32037
609.971	34787
610.039	40866
610.106	57300
610.173	113441
610.241	277344
610.308	137670
610.375	41737
610.442	32686
610.509	32496
610.577	32878
610.644	33056
610.711	32753
610.778	35429
610.845	35091
610.912	38321
610.980	38671
611.047	40196
611.114	38661
611.181	37964
611.248	36461
611.315	39755
611.382	40398
611.449	41815
611.516	43708
611.583	41920
611.650	42859
611.717	44631
611.784	47147
611.851	51197
611.918	59411
611.984	76279
612.051	118980
612.118	260091
612.185	689690
612.252	385464
612.319	77014
612.386	59689
612.452	53237
612.519	49980
612.586	47915
612.653	48940
612.719	50610
612.786	48029
612.853	44109
612.919	43231
612.986	44604
613.053	41245
613.120	38655
613.186	37062
613.253	38316
613.319	37047
613.386	36931
613.453	37669
613.519	38536
613.586	37067
613.652	38180
613.719	37761
613.785	38296
613.852	39424
613.918	38134
613.985	40933
614.051	43841
614.118	51678
614.184	48353
614.250	40921
614.317	39644
614.383	38850
614.449	39906
614.516	40453
614.582	39513
614.648	39763
614.715	38776
614.781	37911
614.847	37464
614.914	36910
614.980	36800
615.046	39069
615.112	39118
615.179	40148
615.245	42374
615.311	50851
615.377	69412
615.443	70922
615.509	49302
615.575	46029
615.642	44731
615.708	48471
615.774	53309
615.840	62758
615.906	78722
615.972	118810
616.038	216730
616.104	398254
616.170	932842
616.236	731919
616.302	124616
616.368	82987
616.434	57866
616.500	53572
616.565	59301
616.631	75315
616.697	58706
616.763	63214
616.829	98539
616.895	183443
616.961	162552
617.026	60482
617.092	40910
617.158	40632
617.224	37451
617.289	35176
617.355	33352
617.421	32056
617.487	32195
617.552	30503
617.618	28271
617.684	28652
617.749	31049
617.815	29302
617.880	27436
617.946	27851
618.012	27855
618.077	28288
618.143	26983
618.208	27124
618.274	29173
618.339	29894
618.405	22913
618.470	24772
618.536	23700
618.601	23665
618.667	21074
618.732	21093
618.798	19971
618.863	20962
618.928	20108
618.994	20310
619.059	19794
619.124	21174
619.190	19029
619.255	19860
619.320	18909
619.386	20151
619.451	19192
619.516	18729
619.581	18677
619.647	19138
619.712	19084
619.777	18682
619.842	18838
619.907	19728
619.972	19045
620.038	19641
620.103	18511
620.168	18492
620.233	18391
620.298	18961
620.363	18856
620.428	20658
620.493	20709
620.558	20053
620.623	20514
620.688	20443
620.753	20180
620.818	20745
620.883	20405
620.948	21517
621.013	20455
621.078	19537
621.143	18912
621.207	22534
621.272	19853
621.337	19423
621.402	18452
621.467	19466
621.532	17938
621.596	18570
621.661	18773
621.726	17459
621.791	17861
621.855	18504
621.920	18253
621.985	18452
622.049	19455
622.114	19103
622.179	18878
622.243	20038
622.308	20093
622.373	23744
622.437	20455
622.502	19395
622.566	19240
622.631	18750
622.695	20727
622.760	19860
622.824	19619
622.889	19656
622.953	19742
623.018	21593
623.082	21318
623.147	22100
623.211	19520
623.276	20484
623.340	19137
623.404	19974
623.469	18108
623.533	20255
623.597	18341
623.662	19108
623.726	17649
623.790	15735
623.854	15156
623.919	16327
623.983	16281
624.047	16124
624.111	17029
624.176	16657
624.240	16812
624.304	19454
624.368	17355
624.432	17769
624.496	18361
624.560	19195
624.625	18518
624.689	20085
624.753	20310
624.817	19089
624.881	17965
624.945	16477
625.009	15896
625.073	16473
625.137	15483
625.201	18213
625.265	18135
625.329	16977
625.393	17225
625.456	18651
625.520	17739
625.584	19101
625.648	18411
625.712	18792
625.776	18573
625.839	18748
625.903	15364
625.967	13595
626.031	16292
626.095	18355
626.158	16330
626.222	12352
626.286	11679
626.349	10598
626.413	9306
626.477	11243
626.540	10023
626.604	9746
626.668	11569
626.731	10397
626.795	10343
626.858	10123
626.922	9345
626.986	11301
627.049	8453
627.113	10886
627.176	10409
627.240	10610
627.303	9929
627.366	9405
627.430	9681
627.493	9718
627.557	9400
627.620	11497
627.684	9957
627.747	11149
627.810	8663
627.874	9561
627.937	7770
628.000	10717
628.064	8893
628.127	6133
628.190	7898
628.253	8291
628.317	6511
628.380	7259
628.443	6611
628.506	7092
628.569	6393
628.632	6528
628.696	6440
628.759	5779
628.822	5628
628.885	6240
628.948	5504
629.011	6239
629.074	5132
629.137	4750
629.200	4263
629.263	6613
629.326	4632
629.389	4317
629.452	5293
629.515	5698
629.578	4562
629.641	5651
629.704	4755
629.767	4878
629.830	5759
629.892	5104
629.955	3525
630.018	6316
630.081	3561
630.144	5889
630.207	3787
630.269	6767
630.332	4334
630.395	5340
630.458	5183
630.520	3839
630.583	5929
630.646	5476
630.708	4155
630.771	4979
630.834	5639
630.896	5269
630.959	5118
631.021	4799
631.084	4954
631.146	5667
631.209	5241
631.272	5434
631.334	5406
631.397	5958
631.459	5034
631.522	6271
631.584	5870
631.646	6937
631.709	7660
631.771	7542
631.834	7383
631.896	6784
631.958	5954
632.021	5738
632.083	4545
632.145	6217
632.208	4588
632.270	6013
632.332	4634
632.395	5063
632.457	6168
632.519	4718
632.581	5337
632.643	3281
632.706	5118
632.768	4348
632.830	4691
632.892	5326
632.954	4335
633.016	6064
633.078	5266
633.141	5955
633.203	3807
633.265	5891
633.327	5235
633.389	4766
633.451	5728
633.513	5006
633.575	4827
633.637	5227
633.698	4868
633.760	6286
633.822	6358
633.884	6339
633.946	5815
634.008	7048
634.070	7483
634.132	8674
634.193	9289
634.255	11483
634.317	10796
634.379	11838
634.441	10055
634.502	11487
634.564	15426
634.626	25876
634.687	33041
634.749	15070
634.811	8396
634.873	5602
634.934	5620
634.996	6642
635.057	4351
635.119	4650
635.181	5906
635.242	6752
635.304	3706
635.365	7577
635.427	3971
635.488	5546
635.550	4320
635.611	5603
635.673	4447
635.734	7172
635.796	5883
635.857	8020
635.918	5969
635.980	10098
636.041	8611
636.102	11719
636.164	10909
636.225	11454
636.286	7571
636.348	7871
636.409	6962
636.470	5473
636.531	5365
636.593	5058
636.654	5281
636.715	5440
636.776	3976
636.838	4709
636.899	6466
636.960	6709
637.021	9630
637.082	17439
637.143	13043
637.204	5908
637.265	3872
637.326	5448
637.387	4630
637.448	3281
637.509	3570
637.570	4048
637.631	5015
637.692	3157
637.753	2697
637.814	3897
637.875	3307
637.936	4487
637.997	3161
638.058	3882
638.119	4181
638.179	3693
638.240	2293
638.301	3714
638.362	1918
638.423	3484
638.483	3647
638.544	2071
638.605	3008
638.666	3426
638.726	3239
638.787	4792
638.848	2519
638.908	2691
638.969	2979
639.030	3296
639.090	2552
639.151	2759
639.211	3409
639.272	3641
639.332	3535
639.393	3836
639.453	3089
639.514	4911
639.574	3756
639.635	2384
639.695	3206
639.756	1810
639.816	2712
639.877	3434
639.937	3601
639.997	3350
640.058	1115
640.118	2433
640.178	4336
640.239	3081
640.299	2456
640.359	3944
640.420	3422
640.480	4549
640.540	5162
640.600	5430
640.661	4641
640.721	3190
640.781	7909
640.841	8287
640.901	3821
640.961	3316
641.021	3196
641.082	3431
641.142	2797
641.202	3781
641.262	1526
641.322	3727
641.382	1730
641.442	4091
641.502	2355
641.562	3663
641.622	2722
641.682	4035
641.742	4426
641.802	4870
641.861	3281
641.921	2039
641.981	3523
642.041	3477
642.101	2398
642.161	1675
642.221	1780
642.280	3518
642.340	2160
642.400	2097
642.460	3262
642.519	2738
642.579	2814
642.639	3817
642.698	430
642.758	4534
642.818	3007
642.877	2768
642.937	2164
642.997	3655
643.056	3124
643.116	2133
643.175	4485
643.235	4178
643.294	3446
643.354	5425
643.414	5812
643.473	9711
643.532	13222
643.592	21381
643.651	36514
643.711	63964
643.770	122163
643.830	290203
643.889	677574
643.948	159392
644.008	20133
644.067	10579
644.126	7445
644.186	6509
644.245	5337
644.304	2821
644.363	5971
644.423	3088
644.482	3721
644.541	4807
644.600	3240
644.659	7451
644.719	8055
644.778	12918
644.837	21606
644.896	46670
644.955	114238
645.014	39581
645.073	6341
645.132	4984
645.191	4569
645.250	3444
645.309	5247
645.368	5174
645.427	6810
645.486	10375
645.545	20383
645.604	6949
645.663	4423
645.722	5472
645.781	6327
645.840	8727
645.898	11765
645.957	20177
646.016	30159
646.075	54793
646.134	102228
646.192	272336
646.251	445833
646.310	61812
646.369	11888
646.427	9421
646.486	5593
646.545	5580
646.603	4174
646.662	5042
646.721	2939
646.779	3705
646.838	3596
646.896	6494
646.955	7149
647.014	12266
647.072	22971
647.131	68035
647.189	35154
647.248	3883
647.306	3025
647.365	4061
647.423	848
647.481	4562
647.540	877
647.598	2881
647.657	1935
647.715	3197
647.773	878
647.832	2865
647.890	492
647.948	2096
648.007	2274
648.065	1336
648.123	2023
648.181	3470
648.240	2953
648.298	2477
648.356	2234
648.414	3337
648.472	2397
648.531	4145
648.589	2615
648.647	3304
648.705	2870
648.763	2930
648.821	3031
648.879	3666
648.937	4826
648.995	5251
649.053	7760
649.111	12645
649.169	20218
649.227	35731
649.285	74144
649.343	222691
649.401	115654
649.459	12551
649.516	7174
649.574	5291
649.632	9575
649.690	11501
649.748	6933
649.806	7998
649.863	16175
649.921	46446
649.979	33722
650.037	5560
650.094	1650
650.152	2747
650.210	2193
650.268	3987
650.325	3409
650.383	5260
650.440	1504
650.498	1754
650.556	1416
650.613	1616
650.671	1288
650.728	1588
650.786	1472
650.843	2316
650.901	593
650.958	1470
651.016	1273
651.073	1490
651.131	545
651.188	440
651.246	1603
651.303	-428
651.360	565
651.418	1312
651.475	1426
651.532	142
651.590	1545
651.647	1874
651.704	260
651.762	618
651.819	713
651.876	73
651.933	1167
651.990	2611
652.048	-745
652.105	153
652.162	1850
652.219	1391
652.276	1118
652.333	1136
652.390	-642
652.448	962
652.505	864
652.562	1158
652.619	428
652.676	1710
652.733	2659
652.790	732
652.847	-988
652.904	1741
652.961	-209
653.017	-28
653.074	430
653.131	1462
653.188	-268
653.245	701
653.302	-57
653.359	1193
653.415	254
653.472	607
653.529	604
653.586	73
653.642	-10
653.699	1639
653.756	761
653.813	411
653.869	1161
653.926	775
653.983	512
654.039	1141
654.096	-127
654.152	2091
654.209	-310
654.266	2027
654.322	-1126
654.379	1664
654.435	659
654.492	932
654.548	866
654.605	556
654.661	1698
654.717	1109
654.774	1274
654.830	960
654.887	652
654.943	1744
655.000	2781
655.056	2400
655.112	1361
655.168	593
655.225	1268
655.281	2309
655.337	1331
655.394	1632
655.450	2176
655.506	2219
655.562	2364
655.618	4351
655.675	2543
655.731	4065
655.787	4399
655.843	5462
655.899	5115
655.955	8216
656.011	8787
656.067	10371
656.123	11812
656.179	15025
656.235	16546
656.291	14535
656.347	12826
656.403	10749
656.459	8811
656.515	7761
656.571	5127
656.627	4801
656.683	3330
656.739	4081
656.795	2871
656.850	3428
656.906	2815
656.962	3846
657.018	1513
657.074	2698
657.129	2253
657.185	2622
657.241	4984
657.297	3823
657.352	1625
657.408	1119
657.464	970
657.519	1062
657.575	190
657.630	782
657.686	703
657.742	66
657.797	-373
657.853	569
657.908	938
657.964	-185
658.019	431
658.075	715
658.130	915
658.186	514
658.241	632
658.297	140
658.352	6
658.407	1014
658.463	-213
658.518	175
658.573	370
658.629	-440
658.684	-168
658.739	814
658.795	-268
658.850	445
658.905	-966
658.960	123
659.016	-630
659.071	761
659.126	-17
659.181	67
659.236	803
659.291	2294
659.346	-147
659.401	268
659.457	396
659.512	114
659.567	1055
659.622	505
659.677	-616
659.732	-658
659.787	-591
659.842	34
659.897	504
659.952	1039
660.007	121
660.061	274
660.116	-305
660.171	-146
660.226	20
660.281	1818
660.336	-261
660.391	968
660.445	389
660.500	574
660.555	-495
660.610	-638
660.664	-73
660.719	-384
660.774	548
660.828	348
660.883	487
660.938	180
660.992	-779
661.047	273
661.101	-103
661.156	-65
661.211	-1226
661.265	755
661.320	-281
661.374	986
661.429	-997
661.483	1048
661.538	-734
661.592	267
661.647	366
661.701	2130
661.755	654
661.810	304
661.864	-454
661.919	336
661.973	-543
662.027	666
662.081	-612
662.136	-353
662.190	-254
662.244	493
662.299	-794
662.353	-23
662.407	-778
662.461	133
662.515	127
662.569	-637
662.624	613
662.678	156
662.732	-875
662.786	99
662.840	-205
662.894	-159
662.948	-586
663.002	-803
663.056	-1263
663.110	227
663.164	-1218
663.218	-505
663.272	-113
663.326	179
663.380	-127
663.434	-122
663.488	-1074
663.542	146
663.595	-660
663.649	114
663.703	-961
663.757	-166
663.811	219
663.864	-680
663.918	-3
663.972	-507
664.026	110
664.079	153
664.133	-14
664.187	877
664.240	-335
664.294	200
664.348	866
664.401	499
664.455	55
664.508	880
664.562	397
664.615	1318
664.669	-468
664.722	900
664.776	-303
664.829	19
664.883	-376
664.936	5
664.990	-352
665.043	154
665.097	-710
665.150	233
665.203	-771
665.257	-239
665.310	120
665.363	810
665.417	-65
665.470	867
665.523	246
665.576	829
665.630	550
665.683	935
665.736	-123
665.789	514
665.842	-847
665.895	154
665.949	-166
666.002	820
666.055	269
666.108	481
666.161	158
666.214	189
666.267	-926
666.320	-120
666.373	-48
666.426	-500
666.479	-658
666.532	-120
666.585	-417
666.638	738
666.691	-439
666.744	-179
666.796	-652
666.849	-650
666.902	249
666.955	117
667.008	-1051
667.060	94
667.113	-1299
667.166	278
667.219	296
667.271	-378
667.324	-881
667.377	457
667.430	36
667.482	123
667.535	-754
667.587	331
667.640	-587
667.693	-931
667.745	-714
667.798	307
667.850	-474
667.903	303
667.955	-499
668.008	-310
668.060	-1025
668.113	88
668.165	-326
668.218	434
668.270	-831
668.322	-180
668.375	-449
668.427	636
668.479	-872
668.532	-284
668.584	-1131
668.636	-527
668.689	-256
668.741	-704
668.793	701
668.845	-440
668.898	-280
668.950	95
669.002	-658
669.054	-38
669.106	-671
669.158	167
669.211	-391
669.263	-322
669.315	125
669.367	534
669.419	164
669.471	2059
669.523	3660
669.575	7046
669.627	4035
669.679	1726
669.731	1034
669.783	1746
669.835	2329
669.886	2236
669.938	1115
669.990	-179
670.042	-495
670.094	161
670.146	-909
670.197	-63
670.249	467
670.301	490
670.353	1070
670.404	1018
670.456	1171
670.508	3018
670.560	4169
670.611	7523
670.663	11629
670.715	30757
670.766	62877
670.818	26395
670.869	2401
670.921	1360
670.972	102
671.024	79
671.075	-182
671.127	65
671.178	-242
671.230	339
671.281	23
671.333	701
671.384	25
671.436	794
671.487	2178
671.538	3098
671.590	4646
671.641	7513
671.692	15030
671.744	31235
671.795	20646
671.846	5051
671.897	721
671.949	277
672.000	683
672.051	864
672.102	440
672.153	-245
672.204	-773
672.256	114
672.307	-492
672.358	-294
672.409	-699
672.460	676
672.511	-597
672.562	-378
672.613	-922
672.664	314
672.715	455
672.766	352
672.817	-753
672.868	106
672.919	-1008
672.970	-368
673.021	-1403
673.071	-134
673.122	-793
673.173	-412
673.224	78
673.275	-617
673.326	-1040
673.376	-77
673.427	-1552
673.478	-896
673.528	-414
673.579	-119
673.630	-366
673.680	-424
673.731	-1301
673.782	-920
673.832	-1508
673.883	-515
673.934	-1436
673.984	-812
674.035	-481
674.085	-210
674.136	-662
674.186	-487
674.237	-968
674.287	-350
674.338	-603
674.388	-417
674.438	-1381
674.489	-44
674.539	-830
674.589	-821
674.640	-658
674.690	-322
674.740	-1197
674.791	-1419
674.841	-235
674.891	-549
674.942	-1259
674.992	-627
675.042	-877
675.092	-763
675.142	-1505
675.193	-411
675.243	-1065
675.293	-207
675.343	-1797
675.393	-867
675.443	-1003
675.493	-498
675.543	-1740
675.593	-614
675.643	-236
675.693	-455
675.743	-961
675.793	-863
675.843	-1553
675.893	-48
675.943	-492
675.993	-501
676.043	-1471
676.093	173
676.142	-1487
676.192	-153
676.242	-1157
676.292	-1033
676.341	-1249
676.391	-907
676.441	-1539
676.491	-1187
676.540	-955
676.590	-1316
676.640	-1084
676.689	-1456
676.739	-1319
676.789	-302
676.838	-1036
676.888	-470
676.937	-1699
676.987	-890
677.037	-1210
677.086	-1289
677.136	-882
677.185	-1162
677.235	-2445
677.284	-507
677.333	-1455
677.383	-1491
677.432	-2311
677.482	-1533
677.531	-1055
677.580	-1715
677.630	-1249
677.679	-920
677.728	-1210
677.778	-400
677.827	-1190
677.876	-99
677.925	-1099
677.975	-732
678.024	-2142
678.073	-891
678.122	-759
678.171	-1469
678.220	-1889
678.269	-661
678.319	-1117
678.368	-446
678.417	-516
678.466	-1329
678.515	-873
678.564	-797
678.613	-1797
678.662	-1287
678.711	-1217
678.760	-1332
678.809	-1338
678.857	-554
678.906	-375
678.955	-1240
679.004	-480
679.053	-503
679.102	-1038
679.151	-1089
679.199	-890
679.248	-76
679.297	-959
679.346	-789
679.394	-781
679.443	-166
679.492	-512
679.540	-407
679.589	-1122
679.638	-898
679.686	-963
679.735	-879
679.784	-697
679.832	-834
679.881	-2130
679.929	-1412
679.978	-1608
680.026	-777
680.075	-1505
680.123	-1421
680.172	-1941
680.220	-580
680.268	-1934
680.317	-1125
680.365	-1589
680.414	-1176
680.462	-1196
680.510	-448
680.559	-1150
680.607	-1171
680.655	-1317
680.703	-1365
680.752	-1445
680.800	-1310
680.848	-774
680.896	-1424
680.945	-1470
680.993	-1016
681.041	-1591
681.089	-932
681.137	-1136
681.185	-1050
681.233	-1991
681.258	-1414
681.281	-876
681.329	-1219
681.377	-1412
681.380	-1404
681.425	-1360
681.473	-905
681.502	-1156
681.521	-1355
681.569	-509
681.617	-1737
681.624	-1662
681.665	-1219
681.713	-910
681.745	-809
681.761	-767
681.809	-2065
681.857	-1135
681.867	-1134
681.904	-1156
681.952	-413
681.989	-1066
682.000	-1276
682.048	-898
682.096	-1292
682.111	-1286
682.143	-1285
682.191	-1524
682.233	-579
682.239	-444
682.286	-907
682.334	-960
682.354	-1024
682.382	-1123
682.430	-1452
682.476	-1044
682.477	-1043
682.525	-719
682.572	-1362
682.598	-1249
682.620	-1138
682.667	-1437
682.715	-830
682.720	-855
682.763	-1226
682.810	-718
682.841	-1067
682.857	-1238
682.905	-799
682.952	-1120
682.963	-1002
683.000	-645
683.047	-1050
683.085	-254
683.095	-32
683.142	-1123
683.190	-712
683.206	-916
683.237	-1337
683.284	-403
683.328	-1550
683.332	-1650
683.379	-368
683.426	-919
683.449	-501
683.473	-73
683.521	-400
683.568	-230
683.571	-250
683.615	-564
683.662	-380
683.693	-1068
683.709	-1480
683.757	-496
683.804	-651
683.814	-536
683.851	-131
683.898	-536
683.936	142
683.945	297
683.992	-595
684.039	-964
684.057	-817
684.086	-563
684.133	-157
684.179	-1254
684.180	-1295
684.227	-810
684.274	-518
684.300	-416
684.321	-304
684.368	118
684.415	-191
684.422	-191
684.462	-327
684.509	-210
684.543	-354
684.556	-383
684.603	116
684.649	-318
684.665	-188
684.696	43
684.743	-689
684.786	-36
684.790	11
684.837	-782
684.883	143
684.908	-239
684.930	-565
684.977	-356
685.023	-641
685.029	-534
685.070	142
685.117	-455
685.150	-304
685.164	-256
685.210	-449
685.257	-120
685.272	-217
685.303	-294
685.350	328
685.393	-12
685.396	-52
685.443	-142
685.490	-58
685.514	78
685.536	259
685.583	-306
685.629	-99
685.636	-94
685.675	-339
685.722	84
685.757	-773
685.768	-976
685.815	204
685.861	64
685.878	165
685.908	279
685.954	-1009
686.000	39
686.000	51
686.047	58
686.093	56
686.121	-146
686.139	-273
686.185	-132
686.232	-357
686.242	-271
686.278	205
686.324	-26
686.363	924
686.370	1064
686.416	-195
686.463	471
686.484	430
686.509	351
686.555	336
686.601	-297
686.606	-182
686.647	896
686.693	-258
686.727	97
686.739	254
686.785	297
686.831	198
686.848	266
686.877	215
686.923	126
686.969	296
686.969	298
687.015	72
687.061	-114
687.090	455
687.107	698
687.153	-22
687.199	620
687.211	419
687.245	-15
687.291	467
687.332	828
687.336	855
687.382	742
687.428	714
687.453	753
687.474	802
687.520	304
687.565	581
687.574	613
687.611	875
687.657	1298
687.695	1071
687.702	1076
687.748	2145
687.794	3519
687.816	3456
687.839	2852
687.885	1460
687.931	1064
687.937	943
687.976	797
688.022	787
688.058	560
688.067	479
688.113	695
688.158	232
688.179	568
688.204	1174
688.249	903
688.295	1366
688.300	1306
688.340	503
688.386	1432
688.421	495
688.431	313
688.477	1045
688.522	773
688.542	1218
688.567	1625
688.613	978
688.658	1033
688.663	1010
688.703	980
688.749	1304
688.784	1275
688.794	1247
688.839	1029
688.884	528
688.905	827
688.930	1277
688.975	1351
689.020	1681
689.026	1638
689.065	1085
689.110	1179
689.146	608
689.155	561
689.201	1641
689.246	1719
689.267	1845
689.291	1785
689.336	1153
689.381	1346
689.388	1267
689.426	969
689.471	1344
689.509	1026
689.516	965
689.561	1277
689.606	981
689.630	847
689.651	880
689.696	966
689.741	1606
689.750	1598
689.785	1322
689.830	1530
689.871	1211
689.875	1199
689.920	1041
689.965	996
689.992	1285
690.010	1467
690.054	1282
690.099	1861
690.112	1756
690.144	1380
690.189	1417
690.233	556
690.233	557
690.278	1777
690.323	1287
690.354	1450
690.367	1500
690.412	1871
690.457	1505
690.474	1608
690.501	1640
690.546	1618
690.590	1136
690.595	1113
690.635	1427
690.680	1510
690.716	2111
690.724	2153
690.769	1603
690.813	1909
690.836	1520
690.857	1344
690.902	1716
690.946	1357
690.957	1527
690.991	2170
691.035	2109
691.077	2723
691.080	2747
691.124	2480
691.168	2728
691.198	2257
691.213	2005
691.257	2153
691.301	1667
691.318	1657
691.346	1830
691.390	1909
691.434	2112
691.439	2089
691.478	1871
691.522	1930
691.559	1669
691.567	1635
691.611	2269
691.655	2035
691.680	2095
691.699	2095
691.743	1985
691.787	1707
691.800	1701
691.831	1883
691.875	2562
691.919	2147
691.921	2146
691.964	2172
692.008	2249
692.041	2154
692.052	2210
692.096	2206
692.139	2729
692.162	2837
692.183	2672
692.227	2562
692.271	2069
692.282	2021
692.315	2345
692.359	2543
692.402	2942
692.403	2949
692.447	2299
692.490	2334
692.523	1861
692.534	1844
692.578	2461
692.622	2242
692.643	2458
692.666	2492
692.709	2060
692.753	2217
692.763	2130
692.797	2269
692.840	2822
692.884	3013
692.884	3020
692.928	2806
692.971	2478
693.004	2370
693.015	2424
693.059	2539
693.102	2832
693.124	2746
693.146	2543
693.189	2218
693.233	1922
693.245	1939
693.276	2338
693.320	2524
693.363	2857
693.365	2842
693.407	2301
693.450	2694
693.485	2381
693.493	2393
693.537	3001
693.580	2643
693.605	3006
693.624	3092
693.667	2879
693.710	2393
693.725	2338
693.753	2927
693.797	3909
693.840	4786
693.845	4872
693.883	4433
693.926	3815
693.966	3439
693.970	3439
694.013	3049
694.056	3033
694.086	2736
694.099	2668
694.142	2571
694.185	2691
694.206	2684
694.229	2871
694.272	3135
694.315	3548
694.326	3561
694.358	3327
694.401	3277
694.444	3060
694.446	3056
694.487	3472
694.530	3551
694.566	3541
694.573	3515
694.616	3350
694.659	3309
694.686	3202
694.702	3258
694.745	3612
694.787	3746
694.806	3778
694.830	3751
694.873	3699
694.916	3880
694.926	3845
694.959	3641
695.002	3577
695.044	3246
695.046	3239
695.087	3596
695.130	3241
695.166	3400
695.172	3497
695.215	3768
695.258	4398
695.286	4492
695.301	4304
695.343	4029
695.386	3715
695.406	3557
695.428	3574
695.471	3424
695.514	3529
695.526	3372
695.556	3211
695.599	3863
695.641	3774
695.646	3799
695.684	3910
695.726	3873
695.766	3765
695.769	3778
695.811	3779
695.854	3775
695.886	3905
695.896	3960
695.938	3751
695.981	3727
696.005	3764
696.023	3833
696.065	3885
696.108	4067
696.125	4041
696.150	4106
696.192	4355
696.235	4512
696.245	4539
696.277	4335
696.319	3917
696.361	3795
696.365	3744
696.404	3849
696.446	4135
696.485	4341
696.488	4357
696.530	4445
696.572	4453
696.604	4501
696.614	4586
696.656	4696
696.698	5088
696.724	5089
696.740	4910
696.783	4665
696.825	4465
696.844	4341
696.867	4476
696.909	4402
696.951	4681
696.964	4689
696.992	4455
697.034	4227
697.076	3912
697.083	3843
697.118	4203
697.160	4642
697.202	5081
697.203	5074
697.244	4877
697.286	4832
697.323	4576
697.327	4614
697.369	4891
697.411	5073
697.442	5355
697.453	5338
697.494	5014
697.536	4796
697.562	4618
697.578	4736
697.620	5052
697.661	5205
697.682	5338
697.703	5307
697.744	5167
697.786	5074
697.801	4996
697.828	5176
697.869	5405
697.911	5681
697.921	5740
697.952	5596
697.994	5343
698.035	5051
698.040	5006
698.077	5111
698.118	5131
698.160	5155
698.160	5135
698.201	5101
698.243	4936
698.279	4861
698.284	4926
698.325	5309
698.367	5745
698.399	6018
698.408	5978
698.449	5737
698.491	5466
698.518	5305
698.532	5409
698.573	5642
698.614	5885
698.638	5983
698.656	5885
698.697	5653
698.738	5394
698.757	5266
698.779	5510
698.820	5904
698.862	6337
698.877	6469
698.903	6297
698.944	6004
698.985	5697
698.996	5599
699.026	5674
699.067	5746
699.116	5817
699.235	5970
699.354	6519
699.474	5782
699.593	6406
699.713	6192
699.832	7354
699.951	6765
700.070	7830
700.190	7222
700.309	8716
700.428	7839
700.547	7569
700.667	6681
700.786	7233
700.905	5794
701.024	7070
701.143	6783
701.262	6104
701.381	6327
701.500	5577
701.619	6721
701.738	6087
701.857	5728
701.976	6212
702.095	5464
702.214	6459
702.333	5374
702.452	5967
702.571	5450
702.690	6565
702.809	4787
702.928	5426
703.047	5824
703.165	6620
703.284	5892
703.403	7173
703.522	6034
703.640	7288
703.759	6567
703.878	7251
703.997	5390
704.115	7015
704.234	5596
704.353	6125
704.471	4264
704.590	5344
704.708	4292
704.827	5682
704.946	5195
705.064	4300
705.183	4888
705.301	5256
705.420	4919
705.538	6037
705.656	5274
705.775	4836
705.893	4683
706.012	5740
706.130	4485
706.249	5147
706.367	3821
706.485	5072
706.604	4727
706.722	5577
706.840	5998
706.958	11454
707.077	5324
707.195	5333
707.313	5144
707.431	4919
707.549	4076
707.668	4801
707.786	5033
707.904	5342
708.022	4742
708.140	4620
708.258	4149
708.376	5818
708.494	4409
708.612	4819
708.730	3586
708.848	4625
708.966	4008
709.084	5722
709.202	3937
709.320	4907
709.438	3349
709.556	4326
709.674	3550
709.791	5220
709.909	2927
710.027	3834
710.145	3956
710.263	4336
710.380	3893
710.498	5559
710.616	4128
710.733	4054
710.851	4180
710.969	4725
711.086	3484
711.204	4697
711.322	2985
711.439	4025
711.557	3346
711.674	4807
711.792	3703
711.909	4250
712.027	3616
712.144	4184
712.262	3116
712.379	4416
712.497	4324
712.614	4599
712.732	4173
712.849	4720
712.966	3022
713.084	4208
713.201	2885
713.318	4572
713.436	3288
713.553	4090
713.670	4357
713.787	5190
713.905	4661
714.022	4802
714.139	3856
714.256	6709
714.373	8173
714.490	15853
714.608	44996
714.725	204074
714.842	120349
714.959	8847
715.076	5325
715.193	5182
715.310	4706
715.427	4875
715.544	6056
715.661	8340
715.778	5414
715.895	4759
716.011	5063
716.128	5256
716.245	3982
716.362	5589
716.479	4630
716.596	6138
716.713	4941
716.829	5925
716.946	3724
717.063	4476
717.180	4234
717.296	4442
717.413	4811
717.530	4082
717.646	3808
717.763	3054
717.880	3664
717.996	4437
718.113	3851
718.229	3719
718.346	3708
718.462	4504
718.579	4562
718.695	4447
718.812	3572
718.928	5235
719.045	3555
719.161	3829
719.277	3927
719.394	5536
719.510	3805
719.626	4098
719.743	4504
719.859	6973
719.975	13436
720.092	55555
720.208	78451
720.324	8634
720.440	3741
720.557	3488
720.673	3550
720.789	3372
720.905	3362
721.021	3194
721.137	3794
721.253	4182
721.369	3003
721.486	4034
721.602	2875
721.718	3662
721.834	3253
721.950	3738
722.066	3439
722.181	3544
722.297	2507
722.413	5515
722.529	4685
722.645	5192
722.761	2763
722.877	3455
722.993	3325
723.108	5034
723.224	3291
723.340	4990
723.456	4679
723.571	4985
723.687	2909
723.803	3953
723.918	2590
724.034	2687
724.150	2972
724.265	4086
724.381	2898
724.497	3348
724.612	3308
724.728	3952
724.843	4024
724.959	5521
725.074	5468
725.190	4148
725.305	3003
725.421	3479
725.536	4174
725.651	3884
725.767	2787
725.882	4480
725.997	2512
726.113	3155
726.228	2988
726.343	3769
726.459	3244
726.574	3583
726.689	2556
726.804	4555
726.920	2210
727.035	3105
727.150	3323
727.265	3551
727.380	4617
727.495	5690
727.610	2925
727.725	3835
727.841	3307
727.956	4612
728.071	3007
728.186	3918
728.301	3191
728.416	3717
728.531	4005
728.645	4291
728.760	5957
728.875	10118
728.990	7886
729.105	5678
729.220	4018
729.335	3740
729.449	3052
729.564	3256
729.679	3263
729.794	3132
729.908	3373
730.023	3984
730.138	2747
730.253	3429
730.367	2726
730.482	3870
730.596	3013
730.711	4214
730.826	5048
730.940	5061
731.055	2306
731.169	3197
731.284	2167
731.398	4374
731.513	2912
731.627	2612
731.742	3091
731.856	4321
731.970	3649
732.085	4297
732.199	4910
732.313	7959
732.428	19406
732.542	60778
732.656	20984
732.771	5125
732.885	3725
732.999	4630
733.113	3639
733.227	3949
733.342	3449
733.456	4297
733.570	3457
733.684	3616
733.798	3711
733.912	3753
734.026	3380
734.140	3808
734.254	3842
734.368	3626
734.482	2666
734.596	4215
734.710	2704
734.824	4787
734.938	3108
735.052	3659
735.166	2412
735.280	3756
735.393	2988
735.507	3843
735.621	3253
735.735	4087
735.849	3116
735.962	4217
736.076	3077
736.190	4294
736.303	3259
736.417	4231
736.531	2895
736.644	3440
736.758	3178
736.872	3589
736.985	3517
737.099	4124
737.212	2993
737.326	4194
737.439	4244
737.553	3580
737.666	2988
737.780	3595
737.893	3500
738.007	3794
738.120	3166
738.233	4228
738.347	2736
738.460	3275
738.573	3279
738.687	3067
738.800	3311
738.913	3789
739.026	3284
739.140	3032
739.253	2508
739.366	4251
739.479	2322
739.592	3285
739.705	2005
739.818	4042
739.932	2595
740.045	4130
740.158	3413
740.271	4076
740.384	3957
740.497	6819
740.610	7972
740.723	6451
740.836	6509
740.949	6106
741.062	4482
741.174	4682
741.287	4045
741.400	4373
741.513	6494
741.626	9396
741.739	4792
741.851	5364
741.964	3829
742.077	5094
742.189	8221
742.302	22179
742.415	16573
742.527	6590
742.640	3570
742.753	4030
742.865	2384
742.978	3685
743.090	2809
743.203	2857
743.316	2607
743.428	2633
743.541	2990
743.653	3056
743.766	2974
743.878	4062
743.990	5235
744.103	14924
744.215	31006
744.327	9179
744.440	4190
744.552	2915
744.664	2428
744.777	3193
744.889	1744
745.001	3622
745.113	3188
745.226	2580
745.338	2707
745.450	2564
745.562	2558
745.674	2752
745.786	2283
745.898	3067
746.010	1994
746.122	2508
746.234	2864
746.347	2991
746.459	3890
746.570	5579
746.682	15013
746.794	46253
746.906	18555
747.018	4780
747.130	2986
747.242	2904
747.354	2418
747.466	3283
747.577	2690
747.689	3571
747.801	1772
747.913	3539
748.024	1747
748.136	2340
748.248	1492
748.359	2412
748.471	1221
748.583	2542
748.694	1936
748.806	2158
748.918	2041
749.029	2670
749.141	1811
749.252	1990
749.364	1363
749.475	1650
749.587	1734
749.698	2370
749.809	1699
749.921	2756
750.032	1805
750.144	2386
750.255	1486
750.366	2294
750.478	1117
750.589	2213
750.700	536
750.811	3244
750.923	1778
751.034	2255
751.145	2271
751.256	1964
751.367	1798
751.479	1953
751.590	1796
751.701	2534
751.812	1032
751.923	2628
752.034	1663
752.145	2048
752.256	1322
752.367	1781
752.478	1092
752.589	1162
752.700	1211
752.811	2142
752.922	1610
753.032	2050
753.143	411
753.254	1512
753.365	1984
753.476	2242
753.586	906
753.697	1443
753.808	2006
753.919	1679
754.029	1945
754.140	1651
754.251	1654
754.361	1891
754.472	1600
754.582	2017
754.693	1687
754.804	2795
754.914	481
755.025	1317
755.135	1025
755.246	1907
755.356	45
755.466	2216
755.577	2440
755.687	2265
755.798	609
755.908	2258
756.018	1495
756.129	1928
756.239	2169
756.349	2572
756.460	1277
756.570	2840
756.680	1550
756.790	1635
756.900	1662
757.011	2236
757.121	1143
757.231	1762
757.341	1973
757.451	1539
757.561	995
757.671	2005
757.781	623
757.891	1600
758.001	666
758.111	1591
758.221	1780
758.331	1311
758.441	969
758.551	1726
758.661	976
758.771	2024
758.880	1014
758.990	932
759.100	1425
759.210	1067
759.320	1665
759.429	1809
759.539	1883
759.649	2239
759.758	1986
759.868	2263
759.978	1388
760.087	2411
760.197	1957
760.307	1534
760.416	1626
760.526	1661
760.635	917
760.745	2622
760.854	1583
760.964	2487
761.073	1940
761.182	3030
761.292	729
761.401	2589
761.511	900
761.620	2196
761.729	874
761.839	1515
761.948	2169
762.057	1949
762.166	1128
762.276	893
762.385	1652
762.494	2000
762.603	743
762.712	1911
762.822	1530
762.931	1993
763.040	170
763.149	855
763.258	1461
763.367	1795
763.476	1337
763.585	1546
763.694	1161
763.803	2034
763.912	1953
764.021	1370
764.130	1242
764.238	2250
764.347	1082
764.456	1754
764.565	1504
764.674	1575
764.783	910
764.891	1083
765.000	1909
765.109	2600
765.217	1295
765.326	3073
765.435	2214
765.543	3618
765.652	1671
765.761	2704
765.869	4905
765.978	8794
766.086	17741
766.195	39956
766.303	134072
766.412	458272
766.520	236353
766.629	28232
766.737	11209
766.846	8281
766.954	4357
767.062	5486
767.171	2199
767.279	4264
767.387	2139
767.496	2173
767.604	2081
767.712	3047
767.820	1839
767.928	2926
768.037	2183
768.145	3275
768.253	2792
768.361	2562
768.469	2138
768.577	2844
768.685	1949
768.793	2006
768.901	1466
769.009	2837
769.117	2358
769.225	4053
769.333	4370
769.441	8986
769.549	16783
769.657	45518
769.765	187012
769.873	334441
769.981	47728
770.088	8377
770.196	4857
770.304	4990
770.412	3309
770.519	3217
770.627	2419
770.735	2328
770.842	2228
770.950	1963
771.058	1238
771.165	2963
771.273	1233
771.380	2519
771.488	1957
771.595	1760
771.703	1280
771.810	2465
771.918	1127
772.025	1249
772.133	1487
772.240	1729
772.348	1561
772.455	2958
772.562	1729
772.670	1917
772.777	1547
772.884	1899
772.991	1282
773.099	1694
773.206	1144
773.313	2621
773.420	1781
773.528	2048
773.635	1281
773.742	2648
773.849	1405
773.956	2542
774.063	500
774.170	2017
774.277	2182
774.384	2512
774.491	1819
774.598	2007
774.705	683
774.812	1936
774.919	1651
775.026	1535
775.133	1430
775.239	1867
775.346	1698
775.453	1960
775.560	556
775.667	2422
775.773	1340
775.880	2505
775.987	1045
776.093	2154
776.200	1230
776.307	2668
776.413	1437
776.520	2399
776.627	2195
776.733	3803
776.840	4873
776.946	11820
777.053	31442
777.159	90948
777.266	50657
777.372	72695
777.478	62641
777.585	29459
777.691	5528
777.798	3733
777.904	2196
778.010	3033
778.117	1201
778.223	1950
778.329	1094
778.435	915
778.542	1780
778.648	982
778.754	964
778.860	1922
778.966	1328
779.072	1623
779.178	1087
779.284	1954
779.391	706
779.497	818
779.603	2380
779.708	612
779.815	2602
779.920	4557
780.026	3098
780.132	1739
780.238	198
780.344	1416
780.450	1655
780.556	969
780.661	1026
780.767	721
780.873	431
780.979	1419
781.085	1108
781.190	1743
781.296	521
781.402	678
781.507	1034
781.613	1463
781.719	474
781.824	1220
781.930	719
782.035	2037
782.141	229
782.246	1574
782.352	943
782.457	1378
782.563	1146
782.668	1411
782.773	397
782.879	518
782.984	1013
783.090	1981
783.195	1789
783.300	1266
783.405	1134
783.511	1309
783.616	2493
783.721	1989
783.826	1468
783.932	2557
784.037	2085
784.142	1519
784.247	407
784.352	2254
784.457	1084
784.562	1974
784.667	927
784.772	1444
784.877	507
784.982	2101
785.087	-316
785.192	2231
785.297	-445
785.402	1307
785.507	402
785.611	1316
785.716	1212
785.821	1613
785.926	-712
786.031	1124
786.135	234
786.240	1325
786.345	-865
786.450	1058
786.554	-127
786.659	654
786.763	-1390
786.868	1330
786.973	1030
787.077	813
787.182	560
787.286	699
787.391	143
787.495	907
787.600	203
787.704	92
787.809	742
787.913	288
788.017	1106
788.122	1012
788.226	-59
788.330	587
788.435	-430
788.539	986
788.643	10
788.747	1511
788.852	35
788.956	854
789.060	1189
789.164	1194
789.268	-593
789.372	1108
789.476	335
789.580	158
789.684	-115
789.788	892
789.892	37
789.996	2010
790.100	42
790.204	746
790.308	267
790.412	1399
790.516	1262
790.620	1162
790.724	537
790.828	24
790.931	-570
791.035	1906
791.139	44
791.242	-7
791.346	1157
791.450	1514
791.554	562
791.657	850
791.761	2458
791.864	2486
791.968	566
792.072	1374
792.175	658
792.279	1414
792.382	1023
792.486	1414
792.589	456
792.693	1472
792.796	-251
792.899	1932
793.003	1501
793.106	481
793.209	797
793.313	2686
793.416	-547
793.519	1234
793.623	742
793.726	1215
793.829	1050
793.932	2248
794.035	161
794.138	2129
794.242	2047
794.345	1845
794.448	1469
794.551	1499
794.654	3132
794.757	5143
794.860	1299
794.963	1926
795.066	2124
795.169	3029
795.272	168
795.375	1611
795.477	-132
795.580	1498
795.683	-221
795.786	1118
795.889	-939
795.991	361
796.094	601
796.197	121
796.300	359
796.402	152
796.505	-266
796.608	691
796.710	117
796.813	465
796.915	-584
797.018	889
797.120	453
797.223	-809
797.326	818
797.428	115
797.530	11
797.633	656
797.735	24
797.838	301
797.940	-67
798.042	95
798.145	-876
798.247	1381
798.349	-940
798.452	905
798.554	-451
798.656	-592
798.758	438
798.860	35
798.962	188
799.065	72
799.167	-860
799.269	1361
799.371	647
799.473	898
799.575	-1584
799.677	-147
799.779	1413
799.881	-1057
799.983	60
800.085	735
800.187	-390
800.289	314
800.390	146
800.492	375
800.594	950
800.696	46
800.798	-341
800.899	945
801.001	-754
801.103	-301
801.205	-805
801.306	623
801.408	-488
801.509	744
801.611	-324
801.713	13
801.814	-752
801.916	135
802.017	-714
802.119	338
802.220	-80
802.322	-753
802.423	48
802.525	-741
802.626	-130
802.727	1010
802.829	-55
802.930	-1139
803.031	915
803.133	-194
803.234	-653
803.335	849
803.436	-901
803.538	684
803.639	-606
803.740	1404
803.841	-774
803.942	1022
804.043	533
804.144	196
804.245	416
804.346	183
804.447	-786
804.548	-244
804.649	139
804.750	162
804.851	-524
804.952	381
805.053	361
805.154	-892
805.255	500
805.355	256
805.456	81
805.557	-547
805.658	-1058
805.758	962
805.859	-476
805.960	156
806.061	-739
806.161	277
806.262	-18
806.362	-265
806.463	-481
806.564	1113
806.664	-359
806.765	95
806.865	-659
806.966	399
807.066	-537
807.166	779
807.267	772
807.367	485
807.468	-164
807.568	-1038
807.668	-394
807.769	1424
807.869	-1449
807.969	-746
808.069	-482
808.170	249
808.270	-1016
808.370	746
808.470	-1093
808.570	-615
808.670	-241
808.770	784
808.870	-873
808.970	715
809.070	-205
809.170	-65
809.271	-327
809.370	863
809.470	-238
809.570	387
809.670	-732
809.770	-525
809.870	-270
809.970	537
810.070	-516
810.169	-21
810.269	-1709
810.369	1683
810.469	-955
810.568	473
810.668	-779
810.768	-370
810.867	74
810.967	212
811.066	-107
811.166	-717
811.265	400
811.365	487
811.464	-125
811.564	1047
811.663	-170
811.763	-837
811.862	-402
811.962	286
812.061	-732
812.160	-678
812.260	-466
812.359	588
812.458	-1439
812.557	188
812.657	-1111
812.756	373
812.855	-1241
812.954	-496
813.053	-392
813.153	-276
813.252	-1486
813.351	716
813.450	-167
813.549	33
813.648	175
813.747	-84
813.846	-298
813.945	-459
814.044	-224
814.143	483
814.242	-390
814.341	-963
814.439	-299
814.538	809
814.637	32
814.736	293
814.835	66
814.933	315
815.032	40
815.131	434
815.229	-126
815.328	614
815.427	-701
815.525	1267
815.624	822
815.722	60
815.821	608
815.919	908
816.018	-480
816.116	1121
816.215	739
816.313	342
816.412	1198
816.510	1046
816.609	971
816.707	1142
816.805	-286
816.904	1641
817.002	1280
817.100	2240
817.198	1170
817.296	1601
817.395	1036
817.493	3431
817.591	1902
817.689	5124
817.787	5177
817.885	12808
817.983	25660
818.081	66075
818.179	171007
818.277	394222
818.375	190964
818.473	42787
818.571	18078
818.669	15376
818.767	20690
818.865	17053
818.963	14981
819.061	26783
819.158	53083
819.256	132579
819.354	343066
819.452	639962
819.549	227935
819.647	42022
819.745	16676
819.842	13807
819.940	9815
820.038	8661
820.135	5875
820.233	4993
820.330	2698
820.428	2981
820.525	2864
820.623	2805
820.720	995
820.818	2531
820.915	2828
821.012	6310
821.110	3776
821.207	3100
821.304	2269
821.402	5767
821.499	12220
821.596	30198
821.693	15829
821.791	3729
821.888	1053
821.985	2173
822.082	1226
822.179	7334
822.276	11409
822.373	7523
822.470	1230
822.567	1213
822.664	-768
822.761	1024
822.858	-763
822.955	1182
823.052	20
823.149	724
823.246	188
823.343	407
823.440	474
823.536	560
823.633	-215
823.730	500
823.827	395
823.923	522
824.020	2586
824.117	5945
824.213	10734
824.310	5146
824.407	271
824.503	818
824.600	-145
824.696	737
824.793	332
824.889	-481
824.986	-207
825.082	375
825.179	111
825.275	172
825.371	-611
825.468	230
825.564	-1039
825.660	-63
825.757	327
825.853	579
825.949	-1236
826.045	-50
826.142	-525
826.238	243
826.334	-675
826.430	-3
826.526	279
826.622	247
826.718	-216
826.814	-447
826.910	591
827.006	793
827.102	-635
827.198	1014
827.294	-1057
827.390	-364
827.486	1
827.582	-1238
827.678	-904
827.774	877
827.869	-1588
827.965	269
828.061	-1128
828.157	-328
828.252	-635
828.348	-786
828.444	-368
828.539	-1143
828.635	-1017
828.731	435
828.826	-1278
828.922	-179
829.017	-1021
829.113	298
829.208	-901
829.304	-220
829.399	-179
829.495	-340
829.590	-452
829.685	-792
829.781	-269
829.876	-389
829.971	-129
830.066	-1042
830.162	-544
830.257	-833
830.352	-1411
830.447	685
830.543	-353
830.638	-1073
830.733	-40
830.828	-416
830.923	-274
831.018	461
831.113	-811
831.208	-1073
831.303	-1209
831.398	-328
831.493	-240
831.588	-558
831.683	-1999
831.778	660
831.873	-706
831.967	-292
832.062	-1318
832.157	-650
832.252	-164
832.346	-669
832.441	-992
832.536	-572
832.631	-655
832.725	641
832.820	-1702
832.914	-566
833.009	-2178
833.104	-404
833.198	-194
833.293	-918
833.387	-659
833.482	-362
833.576	-1406
833.670	-480
833.765	-1180
833.859	-857
833.954	-645
834.048	-130
834.142	-783
834.237	-511
834.331	-873
834.425	-656
834.519	-893
834.613	499
834.708	-1597
834.802	-198
834.896	-1311
834.990	-784
835.084	-614
835.178	-677
835.272	-523
835.366	-1139
835.460	-1040
835.554	-441
835.648	-1271
835.742	-450
835.836	-1311
835.930	-1346
836.024	-962
836.117	51
836.211	-1355
836.305	-595
836.399	-1300
836.493	-320
836.586	-983
836.680	-993
836.774	-940
836.867	1462
836.961	-1339
837.055	-1670
837.148	-1437
837.242	9
837.335	-1388
837.429	-116
837.522	-1146
837.616	-415
837.709	-549
837.803	-379
837.896	-867
837.989	-228
838.083	-1395
838.176	-205
838.269	-1748
838.363	-378
838.456	-1744
838.549	-78
838.642	-927
838.735	-600
838.829	-1655
838.922	-536
839.015	-1355
839.108	-1233
839.201	-786
839.294	23
839.387	-1241
839.480	-1270
839.573	-646
839.666	-428
839.759	-2030
839.852	-716
839.945	-1341
840.038	-1082
840.131	-1449
840.223	-569
840.316	-303
840.409	-726
840.502	-1676
840.594	-79
840.687	-1276
840.780	463
840.873	-1614
840.965	-280
841.058	-846
841.150	-1091
841.243	-1859
841.336	-161
841.428	-903
841.521	-1603
841.613	-1398
841.706	-422
841.798	-1295
841.890	161
841.983	-1970
842.075	493
842.167	-1388
842.260	-1115
842.352	-1588
842.444	-950
842.537	-1480
842.629	-371
842.721	-1143
842.813	-850
842.905	-1034
842.997	-625
843.090	-1332
843.182	-520
843.274	-2352
843.366	870
843.458	-1001
843.550	-147
843.642	-428
843.734	-376
843.826	-1529
843.918	320
844.009	-633
844.101	-505
844.193	-134
844.285	1462
844.377	5676
844.469	13037
844.560	22668
844.652	21484
844.744	5446
844.835	1245
844.927	-112
845.019	53
845.110	-99
845.202	-777
845.293	-974
845.385	-291
845.476	-1092
845.568	-144
845.659	-1795
845.751	-796
845.842	-863
845.934	-811
846.025	-2274
846.116	161
846.208	-1083
846.299	34
846.390	-918
846.482	356
846.573	-1535
846.664	-323
846.755	-1494
846.846	-228
846.937	-2031
847.029	472
847.120	-1493
847.211	-770
847.302	96
847.393	-2153
847.484	-62
847.575	-279
847.666	-909
847.757	-1187
847.847	-810
847.938	191
848.029	-1847
848.120	-1509
848.211	-661
848.302	-485
848.392	-1290
848.483	252
848.574	-1740
848.664	-720
848.755	-443
848.846	-412
848.936	-1157
849.027	-323
849.118	-778
849.208	-882
849.299	-17
849.389	1769
849.480	5583
849.570	12016
849.661	25389
849.751	36860
849.841	8716
849.932	1051
850.022	-887
850.112	536
850.203	-573
850.293	23
850.383	-746
850.474	-762
850.564	-1622
850.654	-139
850.744	-1324
850.834	-329
850.924	-1330
851.014	-425
851.104	-1063
851.194	-702
851.284	-1421
851.374	-412
851.464	-1042
851.554	-118
851.644	-1663
851.734	-836
851.824	-1491
851.914	-741
852.004	-284
852.094	-521
852.183	-1573
852.273	129
852.363	-1161
852.452	-798
852.542	-752
852.632	-568
852.721	-809
852.811	-746
852.901	-750
852.990	-408
853.080	-519
853.169	-147
853.259	-463
853.348	-204
853.438	705
853.527	1644
853.617	3136
853.706	9793
853.795	18444
853.885	49093
853.974	89907
854.063	174349
854.152	243239
854.242	68546
854.331	7041
854.420	2560
854.509	1404
854.598	1998
854.687	1330
854.777	1353
854.866	507
854.955	1546
855.044	-222
855.133	-98
855.222	-764
855.311	186
855.400	-175
855.488	-218
855.577	-683
855.666	491
855.755	-1229
855.844	320
855.933	-1693
856.021	-60
856.110	-1497
856.199	-1096
856.288	-1579
856.376	-140
856.465	-1293
856.554	72
856.642	13
856.731	1872
856.819	-654
856.908	-397
856.996	-1026
857.085	-922
857.173	-1377
857.262	-1161
857.350	-934
857.438	-605
857.527	-896
857.615	109
857.703	-1126
857.792	-570
857.880	-949
857.968	-1148
858.056	-1020
858.145	-132
858.233	-1748
858.321	-1526
858.409	-784
858.497	-1510
858.585	-2468
858.673	62
858.761	-1529
858.849	-823
858.937	-779
859.025	-489
859.113	669
859.201	316
859.289	3071
859.377	3393
859.465	234
859.552	190
859.640	-1218
859.728	-743
859.816	-1283
859.903	-463
859.991	-1303
860.079	-252
860.166	-1401
860.254	-421
860.342	-1041
860.429	-1329
860.517	-1603
860.604	357
860.692	-1220
860.779	-1258
860.867	-1694
860.954	-911
861.042	-1687
861.129	-1180
861.216	-1973
861.304	-1261
861.391	-1535
861.478	-518
861.565	-1384
861.653	86
861.740	-2124
861.827	-1254
861.914	-967
862.001	-926
862.089	-743
862.176	-783
862.263	-1856
862.350	-663
862.437	-777
862.524	205
862.611	1182
862.698	3816
862.785	6172
862.871	9268
862.958	2752
863.045	575
863.132	-775
863.219	-89
863.306	-1958
863.392	-610
863.479	-938
863.566	-738
863.652	-1483
863.739	-895
863.826	-1432
863.912	-257
863.999	-2178
864.086	-533
864.172	-1103
864.259	-867
864.345	-1457
864.432	-448
864.518	-1576
864.604	-346
864.691	-1320
864.777	-25
864.863	-821
864.950	978
865.036	-1242
865.122	696
865.209	674
865.295	1360
865.381	1182
865.467	3577
865.553	4398
865.639	4414
865.726	7763
865.812	21217
865.898	40290
865.984	58302
866.070	117103
866.156	108426
866.242	19989
866.328	3484
866.414	158
866.499	486
866.585	-93
866.671	-34
866.757	-36
866.843	363
866.928	-428
867.014	-1020
867.100	829
867.186	-29
867.271	-721
867.357	734
867.442	75
867.528	2467
867.614	2123
867.699	6902
867.785	10763
867.870	19734
867.956	25607
868.041	14831
868.127	7960
868.212	15080
868.297	13425
868.383	5750
868.468	5284
868.553	5519
868.639	947
868.724	625
868.809	-599
868.894	273
868.979	-935
869.065	198
869.150	-1582
869.235	-1024
869.320	-1401
869.405	-881
869.490	-728
869.575	-446
869.660	-709
869.745	134
869.830	-1096
869.915	415
870.000	491
870.085	2118
870.169	3239
870.254	4771
870.339	89
870.424	-565
870.509	-524
870.593	-306
870.678	-645
870.763	1155
870.847	657
870.932	1796
871.016	4662
871.101	5650
871.186	662
871.270	-44
871.355	-499
871.439	798
871.523	23
871.608	1623
871.692	2419
871.777	4945
871.861	1790
871.945	109
872.030	-1451
872.114	-37
872.198	-964
872.282	-797
872.367	-1558
872.451	-1036
872.535	-805
872.619	558
872.703	-360
872.787	178
872.871	-772
872.955	-420
873.039	-1081
873.123	-777
873.207	-964
873.291	-289
873.375	-1252
873.459	-607
873.543	-1284
873.627	-443
873.711	-1690
873.794	427
873.878	-915
873.962	-1036
874.045	-910
874.129	575
874.137	483
874.213	-433
874.245	-223
874.296	110
874.352	-484
874.380	-776
874.460	-446
874.464	-432
874.547	-881
874.568	-556
874.631	378
874.676	-229
874.714	-708
874.784	-154
874.798	-57
874.881	134
874.892	83
874.965	-183
874.999	29
875.048	281
875.107	138
875.131	86
875.215	-777
875.215	-776
875.298	-605
875.323	-744
875.381	-968
875.430	-294
875.465	150
875.538	-966
875.548	-1120
875.631	-437
875.646	-674
875.714	-1802
875.753	-1175
875.798	-385
875.861	-804
875.881	-971
875.964	-481
875.968	-558
876.047	-1800
876.076	-1220
876.130	-260
876.183	-731
876.213	-957
876.291	-711
876.296	-693
876.379	-896
876.398	-972
876.462	-1235
876.506	-1197
876.545	-1151
876.613	-9
876.628	236
876.711	-1032
876.721	-928
876.794	-158
876.828	-392
876.877	-692
876.935	-213
876.960	-4
877.043	-48
877.043	-44
877.125	925
877.150	815
877.208	574
877.258	1166
877.291	1549
877.365	958
877.374	876
877.456	1252
877.472	1028
877.539	255
877.579	692
877.622	959
877.687	-57
877.704	-252
877.787	393
877.794	329
877.869	-611
877.901	-496
877.952	-45
878.008	-32
878.034	-154
878.115	-181
878.117	-175
878.199	-438
878.222	-333
878.282	-346
878.329	-444
878.364	-320
878.437	101
878.447	117
878.529	-811
878.544	-754
878.611	-312
878.651	-706
878.694	-1111
878.758	-324
878.776	-87
878.858	-142
878.865	-140
878.941	-501
878.972	-791
879.023	-1120
879.078	-678
879.105	-417
879.185	-1258
879.187	-1274
879.269	-692
879.292	-777
879.351	-1037
879.399	-764
879.433	-466
879.506	-527
879.516	-595
879.598	-173
879.613	-328
879.680	-547
879.720	-415
879.762	-424
879.827	-287
879.844	-234
879.926	-365
879.933	-395
880.007	-632
880.040	-468
880.089	-150
880.147	-353
880.171	-547
880.253	-550
880.254	-554
880.335	-802
880.360	-702
880.417	-432
880.467	-366
880.499	-344
880.574	93
880.580	114
880.662	-76
880.680	-65
880.744	30
880.787	-490
880.825	-1095
880.893	-1073
880.907	-962
880.989	-255
881.000	-178
881.070	334
881.106	2
881.152	-690
881.213	-762
881.233	-747
881.315	-1002
881.319	-973
881.396	-104
881.426	-137
881.478	-524
881.532	-582
881.559	-373
881.639	-645
881.641	-663
881.722	-160
881.745	-363
881.803	-484
881.852	-61
881.885	75
881.958	-558
881.966	-601
882.047	-296
882.064	-397
882.129	-672
882.171	-281
882.210	-133
882.277	-655
882.291	-773
882.372	-1132
882.383	-1182
882.454	-812
882.489	-429
882.535	-256
882.596	-802
882.616	-870
882.697	-176
882.702	-185
882.778	-563
882.808	-412
882.859	-275
882.914	-636
882.940	-691
883.020	-276
883.021	-271
883.102	-648
883.127	-556
883.183	-398
883.233	-547
883.264	-408
883.339	38
883.345	24
883.426	-713
883.445	-696
883.507	-89
883.551	93
883.587	-86
883.657	11
883.668	85
883.749	-582
883.763	-527
883.830	-539
883.869	-677
883.910	-641
883.975	-525
883.991	-525
884.072	-506
884.081	-517
884.152	81
884.187	169
884.233	-229
884.292	-100
884.314	-2
884.394	-496
884.398	-498
884.475	-577
884.504	-673
884.555	-349
884.610	52
884.636	72
884.716	-112
884.716	-108
884.797	26
884.821	29
884.877	-35
884.927	-109
884.958	-200
885.033	-699
885.038	-715
885.118	-641
885.139	-720
885.199	-703
885.244	-475
885.279	-373
885.350	-356
885.359	-289
885.439	422
885.456	491
885.520	-121
885.561	-335
885.600	-292
885.667	-434
885.680	-365
885.760	244
885.773	311
885.840	35
885.878	-46
885.920	165
885.984	30
886.000	-121
886.080	-255
886.089	-309
886.160	-228
886.195	-53
886.240	-29
886.300	-242
886.320	-266
886.400	-304
886.406	-313
886.480	-245
886.511	-165
886.560	128
886.616	244
886.640	216
886.720	407
886.722	398
886.800	74
886.827	134
886.879	281
886.932	0
886.959	-33
887.038	288
887.039	294
887.119	257
887.143	263
887.198	16
887.248	-220
887.278	-35
887.354	375
887.358	345
887.437	-430
887.459	-601
887.517	-39
887.564	387
887.596	179
887.669	-328
887.676	-315
887.755	-113
887.774	-92
887.835	42
887.880	184
887.914	240
887.985	256
887.994	228
888.073	-37
888.090	-85
888.153	250
888.195	403
888.232	551
888.300	1005
888.311	1000
888.391	716
888.405	668
888.470	164
888.510	-160
888.549	-34
888.615	228
888.628	280
888.708	523
888.720	553
888.787	379
888.825	259
888.866	238
888.930	262
888.945	410
889.024	1126
889.035	1221
889.103	311
889.140	-193
889.182	469
889.245	1442
889.261	1228
889.340	159
889.349	40
889.419	439
889.454	609
889.498	464
889.559	282
889.577	189
889.656	-232
889.664	-272
889.735	-68
889.768	27
889.814	129
889.873	268
889.978	461
890.083	1129
890.187	-314
890.292	321
890.397	122
890.501	501
890.606	405
890.710	918
890.815	398
890.919	784
891.024	843
891.128	1444
891.233	779
891.337	59
891.442	1364
891.546	659
891.650	-1
891.755	554
891.859	1356
891.963	1146
892.068	646
892.172	-21
892.276	-493
892.380	506
892.484	339
892.589	991
892.693	1054
892.797	830
892.901	-289
893.005	341
893.109	682
893.213	382
893.317	-670
893.421	179
893.525	410
893.629	29
893.733	-717
893.837	383
893.941	-727
894.045	377
894.148	-122
894.252	286
894.356	-387
894.460	774
894.564	30
894.667	247
894.771	145
894.875	785
894.978	-423
895.082	-260
895.186	391
895.289	718
895.393	-295
895.496	12
895.600	-496
895.703	444
895.807	307
895.910	118
896.014	203
896.117	622
896.221	665
896.324	209
896.427	434
896.531	-354
896.634	-121
896.737	631
896.840	35
896.944	797
897.047	-1178
897.150	1246
897.253	-1
897.356	118
897.460	-5
897.563	424
897.666	-364
897.769	444
897.872	-389
897.975	20
898.078	-452
898.181	-103
898.284	-418
898.387	626
898.490	-348
898.593	193
898.695	61
898.798	-28
898.901	-199
899.004	278
899.107	-120
899.209	559
899.312	-570
899.415	446
899.518	-547
899.620	-75
899.723	-1286
899.826	270
899.928	161
900.031	108
900.133	284
900.236	157
900.338	147
900.441	467
900.543	-443
900.646	-257
900.748	-564
900.851	432
900.953	612
901.055	517
901.158	71
901.260	646
901.362	-85
901.465	-63
901.567	-165
901.669	175
901.771	-207
901.873	1080
901.976	-389
902.078	1108
902.180	145
902.282	-125
902.384	-741
902.486	535
902.588	102
902.690	456
902.792	507
902.894	1595
902.996	516
903.098	392
903.200	-200
903.302	162
903.404	212
903.505	237
903.607	-317
903.709	753
903.811	-228
903.913	273
904.014	621
904.116	468
904.218	557
904.319	864
904.421	1968
904.523	3851
904.624	1296
904.726	1891
904.827	728
904.929	2556
905.030	1063
905.132	464
905.233	-155
905.335	364
905.436	196
905.537	379
905.639	73
905.740	478
905.841	470
905.943	1618
906.044	1906
906.145	2509
906.247	-151
906.348	1015
906.449	-507
906.550	294
906.651	345
906.752	71
906.854	-61
906.955	918
907.056	-100
907.157	539
907.258	-1215
907.359	-53
907.460	-316
907.561	-312
907.662	-1011
907.762	315
907.863	-258
907.964	37
908.065	-20
908.166	270
908.267	23
908.367	210
908.468	-226
908.569	296
908.670	-97
908.770	410
908.871	-839
908.971	983
909.072	-1024
909.173	790
909.273	-330
909.374	-145
909.474	-322
909.575	-160
909.675	-338
909.776	60
909.876	-1063
909.977	226
910.077	519
910.177	401
910.278	396
910.378	381
910.478	-779
910.579	345
910.679	-365
910.779	1006
910.879	-168
910.980	353
911.080	-110
911.180	571
911.280	97
911.380	-152
911.480	-6
911.580	-194
911.680	-95
911.780	173
911.880	-556
911.980	-637
912.080	328
912.180	-31
912.280	-846
912.380	523
912.480	-621
912.580	-197
912.679	-235
912.779	946
912.879	-345
912.979	62
913.078	-262
913.178	169
913.278	239
913.377	-46
913.477	-467
913.577	201
913.676	166
913.776	436
913.875	-190
913.975	472
914.074	171
914.174	-477
914.273	-556
914.373	532
914.472	542
914.572	76
914.671	-37
914.770	-138
914.870	-623
914.969	-180
915.068	-13
915.167	280
915.267	-585
915.366	-149
915.465	-1090
915.564	307
915.663	-125
915.763	149
915.862	-1
915.961	576
916.060	-320
916.159	-83
916.258	-372
916.357	-560
916.456	-269
916.555	388
916.654	-712
916.752	577
916.851	-494
916.950	167
917.049	594
917.148	-178
917.247	-284
917.345	182
917.444	-794
917.543	811
917.642	-21
917.740	833
917.839	-407
917.937	572
918.036	213
918.135	754
918.233	-378
918.332	-91
918.430	-365
918.529	615
918.627	7
918.726	549
918.824	-947
918.923	501
919.021	-155
919.119	384
919.218	260
919.316	147
919.414	1072
919.512	65
919.611	-183
919.709	-76
919.807	-332
919.905	-14
920.003	-695
920.102	692
920.200	-441
920.298	542
920.396	-155
920.494	-257
920.592	-512
920.690	158
920.788	-551
920.886	7
920.984	-269
921.082	-271
921.180	-715
921.277	-312
921.375	-388
921.473	-33
921.571	75
921.669	-444
921.766	-429
921.864	49
921.962	-698
922.060	618
922.157	-200
922.255	-79
922.352	-256
922.450	604
922.548	-430
922.645	-53
922.743	-139
922.840	536
922.938	43
923.035	682
923.133	282
923.230	645
923.327	317
923.425	726
923.522	-396
923.619	257
923.717	148
923.814	775
923.911	137
924.008	643
924.106	555
924.203	-702
924.300	-180
924.397	988
924.494	-137
924.591	579
924.688	220
924.786	380
924.883	-620
924.979	843
925.077	-295
925.173	1474
925.270	61
925.367	-83
925.464	-48
925.561	461
925.658	1064
925.755	2077
925.852	1075
925.948	2280
926.045	3309
926.142	4236
926.239	4973
926.335	5598
926.432	3848
926.529	5566
926.625	5524
926.722	4042
926.818	1833
926.915	1678
927.011	312
927.108	1210
927.204	486
927.301	795
927.397	655
927.494	-163
927.590	-51
927.687	1055
927.783	202
927.879	-474
927.976	-681
928.072	-31
928.168	275
928.264	-216
928.361	340
928.457	394
928.553	-217
928.649	70
928.745	-399
928.841	319
928.937	-2
929.033	581
929.129	71
929.225	50
929.321	-209
929.417	108
929.513	74
929.609	200
929.705	-607
929.801	171
929.897	-1368
929.993	-132
930.089	-677
930.184	452
930.280	-666
930.376	490
930.471	-656
930.567	-92
930.663	-572
930.758	-567
930.854	-354
930.950	-195
931.045	-511
931.141	-233
931.236	225
931.332	173
931.427	-613
931.523	508
931.618	-241
931.714	166
931.809	252
931.905	-248
932.000	-663
932.095	220
932.191	463
932.286	-55
932.381	-595
932.476	178
932.572	-791
932.667	-357
932.762	-1047
932.857	-94
932.952	-703
933.047	-284
933.142	-527
933.237	-412
933.332	-1443
933.427	-137
933.522	-757
933.617	-232
933.712	-65
933.807	494
933.902	-271
933.997	358
934.092	-174
934.187	-683
934.282	-870
934.376	-427
934.471	218
934.566	-528
934.661	-551
934.755	15
934.850	-866
934.945	104
935.039	-635
935.134	-272
935.228	-600
935.323	-622
935.417	-1192
935.512	173
935.606	-1020
935.701	38
935.795	-337
935.890	-590
935.984	-390
936.079	-1060
936.173	-305
936.267	1091
936.362	-607
936.456	4
936.550	-676
936.644	-85
936.738	-863
936.833	196
936.927	-153
937.021	-362
937.115	-45
937.209	-919
937.303	-461
937.397	-180
937.491	-819
937.585	374
937.679	-525
937.773	-467
937.867	-251
937.961	245
938.055	-277
938.149	50
938.243	-220
938.337	494
938.430	226
938.524	3234
938.618	5776
938.712	5535
938.805	462
938.899	777
938.993	277
939.086	3504
939.180	8504
939.274	10789
939.367	2794
939.461	1732
939.554	-417
939.648	140
939.741	-490
939.835	-735
939.928	-652
940.022	205
940.115	-603
940.208	2
940.302	186
940.395	228
940.488	-947
940.582	409
940.675	-879
940.768	-292
940.861	-963
940.954	634
941.048	-555
941.141	645
941.234	1386
941.327	4375
941.420	3047
941.513	1507
941.606	-757
941.699	-409
941.792	-775
941.885	85
941.978	-849
942.071	-34
942.164	-963
942.257	111
942.349	-826
942.442	-522
942.535	-894
942.628	570
942.721	-414
942.813	-1188
942.906	447
942.999	-284
943.091	-1238
943.184	-925
943.277	-1555
943.369	249
943.462	-1013
943.554	-426
943.647	-1111
943.739	121
943.832	-691
943.924	-1223
944.017	-1837
944.109	-886
944.201	-1121
944.294	103
944.386	-971
944.478	-764
944.571	-854
944.663	-651
944.755	-995
944.847	-193
944.940	-1326
945.032	-481
945.124	-975
945.216	353
945.308	-1268
945.400	108
945.492	-711
945.584	-472
945.676	-733
945.768	287
945.860	-446
945.952	767
946.044	1049
946.136	794
946.228	-1013
946.320	-335
946.412	-60
946.503	-706
946.595	-990
946.687	-1349
946.779	-1366
946.870	-570
946.962	-1492
947.054	-897
947.145	-639
947.237	-718
947.329	-792
947.420	-948
947.512	-1099
947.603	-897
947.695	-1374
947.786	-1327
947.878	-961
947.969	-343
948.061	-1343
948.152	-1315
948.243	-573
948.335	-297
948.426	-1501
948.517	-822
948.609	-1090
948.700	-468
948.791	-1523
948.882	407
948.973	-1258
949.065	-674
949.156	-604
949.247	-321
949.338	-400
949.429	-654
949.520	-1416
949.611	-770
949.702	-59
949.793	-231
949.884	-225
949.975	-956
950.066	-1475
950.157	-925
950.247	-551
950.338	-613
950.429	-857
950.520	-402
950.611	-942
950.701	-282
950.792	-900
950.883	-498
950.973	-899
951.064	-154
951.155	-582
951.245	-332
951.336	-577
951.427	-1595
951.517	-256
951.608	-75
951.698	-1270
951.788	-550
951.879	-1638
951.969	-1580
952.060	-409
952.150	-643
952.240	-604
952.331	-1683
952.421	439
952.511	-652
952.602	-878
952.692	-1020
952.782	-1221
952.872	-131
952.962	-968
953.052	-507
953.143	-1377
953.233	-744
953.323	-904
953.413	-1256
953.503	-519
953.593	-535
953.683	-1362
953.773	-523
953.863	-1030
953.953	-429
954.042	-606
954.132	-606
954.222	-839
954.312	-129
954.402	-1495
954.492	-1619
954.581	-504
954.671	-696
954.761	-786
954.850	364
954.940	-1033
955.030	-1619
955.119	-787
955.209	-403
955.298	-1418
955.388	-1334
955.477	-408
955.567	-1790
955.656	-305
955.746	-787
955.835	-1432
955.925	-700
956.014	-730
956.103	-1231
956.193	-1059
956.282	-378
956.371	-534
956.461	129
956.550	-1684
956.639	64
956.728	-804
956.817	-527
956.906	-1304
956.995	-686
957.085	-1386
957.174	-821
957.263	-1152
957.352	42
957.441	-1390
957.530	-843
957.619	-834
957.708	-274
957.796	-807
957.885	-614
957.974	-704
958.063	-472
958.152	-2002
958.241	-15
958.329	-890
958.418	-581
958.507	-1367
958.596	125
958.684	-1170
958.773	60
958.861	-1329
958.950	-179
959.039	-914
959.127	-598
959.216	-1535
959.304	-1347
959.393	-1294
959.481	-100
959.570	-951
959.658	-1311
959.746	-921
959.835	-137
959.923	-1683
960.011	-976
960.100	-767
960.188	-1282
960.276	-533
960.365	-786
960.453	-1175
960.541	-1664
960.629	-1484
960.717	-1318
960.805	-1685
960.893	-756
960.981	-1613
961.069	-982
961.158	-1635
961.245	34
961.333	-661
961.421	-1510
961.509	-1509
961.597	-346
961.685	-836
961.773	-947
961.861	-1509
961.949	-14
962.036	-1529
962.124	-360
962.212	-1230
962.299	-750
962.387	-1568
962.475	-560
962.562	-1777
962.650	-892
962.738	-1778
962.825	-281
962.913	-1092
963.000	-716
963.088	-1974
963.175	-1002
963.263	-832
963.350	-892
963.438	-940
963.525	-992
963.612	-1593
963.700	-1203
963.787	-696
963.874	-849
963.962	-1205
964.049	-698
964.136	-1273
964.223	-1372
964.310	-901
964.398	-1037
964.485	-1260
964.572	-1063
964.659	-1425
964.746	-729
964.833	-1133
964.920	-991
965.007	-1784
965.094	-539
965.181	-2551
965.268	-661
965.355	-1657
965.441	-797
965.528	-1310
965.615	-216
965.702	-1387
965.789	-1273
965.875	-603
965.962	-319
966.049	-1831
966.136	-536
966.222	-1314
966.309	-789
966.395	-1539
966.482	-583
966.569	-1351
966.655	-1222
966.742	-1807
966.828	-665
966.915	-1284
967.001	-455
967.087	-1985
967.174	-696
967.260	-843
967.347	-1621
967.433	-682
967.519	-746
967.605	-1195
967.692	-528
967.778	-1042
967.864	-603
967.950	-741
968.036	-808
968.123	-1588
968.209	-1091
968.295	-2538
968.381	-84
968.467	-927
968.553	-990
968.639	-889
968.725	-1589
968.811	-1717
968.897	-741
968.983	-1283
969.069	-1325
969.154	-879
969.240	-931
969.326	-867
969.412	-1118
969.497	-1593
969.583	-275
969.669	-117
969.755	-749
969.840	-1590
969.926	-643
970.012	-1376
970.097	-241
970.183	-2129
970.268	-1403
970.354	-1359
970.439	-1537
970.525	-306
970.610	-1375
970.696	-658
970.781	-995
970.866	-2001
970.952	-811
971.037	-1209
971.122	-875
971.208	-1229
971.293	-236
971.378	-2685
971.463	-477
971.549	-770
971.634	-783
971.719	-872
971.804	-1797
971.889	-418
971.974	-1212
972.059	-1351
972.144	-1838
972.229	-1345
972.314	-1533
972.399	-1706
972.484	-1561
972.569	-448
972.654	-1694
972.739	-1097
972.824	-1724
972.908	-2051
972.993	-1775
973.078	-1709
973.163	-1088
973.247	-1761
973.332	-2173
973.417	-993
973.501	-1555
973.586	-1604
973.671	-292
973.755	-1646
973.840	-1181
973.924	-1059
974.009	-1091
974.093	-1384
974.178	239
974.262	-1321
974.346	-1711
974.431	-1336
974.515	-677
974.600	-1567
974.684	-675
974.768	-1998
974.852	-1439
974.937	-2268
975.021	-546
975.105	-1947
975.189	-1391
975.273	-2240
975.358	-461
975.442	-2130
975.526	-468
975.610	-1906
975.694	-996
975.778	-1080
975.862	-594
975.946	-2496
976.030	-759
976.114	-1157
976.198	-1222
976.281	-2634
976.365	-481
976.449	-2099
976.533	-794
976.617	-1594
976.700	-1425
976.784	-1028
976.868	-1335
976.951	-1049
977.035	-972
977.119	-1313
977.202	-1463
977.286	-1362
977.369	-1019
977.453	-1546
977.536	-1231
977.620	-2265
977.703	-193
977.787	-2095
977.870	-564
977.953	-1250
978.037	-1633
978.120	-878
978.203	-1129
978.287	-1220
978.370	-1309
978.453	-1840
978.536	-1351
978.620	-905
978.703	-804
978.786	-2117
978.869	-1349
978.952	-2095
979.035	165
979.118	-1431
979.201	-1567
979.284	-1212
979.367	-1408
979.450	-735
979.533	-1856
979.616	-1987
979.699	-1696
979.782	-1346
979.865	-173
979.948	-1181
980.030	-630
980.113	-1694
980.196	-1578
980.279	-1192
980.361	-1634
980.444	-1603
980.526	-503
980.609	-1619
980.692	-1451
980.774	-1364
980.857	-2329
980.939	-677
981.022	-1443
981.104	-1696
981.187	-892
981.269	-1347
981.352	-769
981.434	-2194
981.516	-1560
981.599	-1209
981.681	-735
981.763	-734
981.846	-1261
981.928	-1310
982.010	-1404
982.092	-1989
982.174	-399
982.256	-1496
982.339	-850
982.421	-1014
982.503	-1095
982.585	-2820
982.667	-523
982.749	-1471
982.831	-940
982.913	-2280
982.995	-542
983.077	-2077
983.158	306
983.240	-1685
983.322	-1238
983.404	-795
983.486	-2020
983.568	-1051
983.649	-1411
983.731	-1586
983.813	-1315
983.894	-1625
983.976	-1852
984.058	-1661
984.139	-1490
984.221	-1854
984.302	-732
984.384	-1717
984.465	-1946
984.547	-753
984.628	-2599
984.710	-1376
984.791	-1818
984.872	-1848
984.954	-1537
985.035	-1726
985.116	-1462
985.198	-2572
985.279	-302
985.360	-1724
985.441	-1095
985.522	-943
985.604	-1471
985.685	-2735
985.766	-483
985.847	-233
985.928	-1762
986.009	-1145
986.090	-1104
986.171	-520
986.252	-1627
986.333	-1266
986.414	-309
986.495	-1233
986.576	-1476
986.656	-984
986.737	-1572
986.818	-1281
986.899	-1193
986.980	-2226
987.060	-1429
987.141	-2137
987.222	-1044
987.302	-1620
987.383	-652
987.464	-1901
987.544	-1427
987.625	-1789
987.705	-540
987.786	-1477
987.866	-1770
987.947	-1541
988.027	-1005
988.108	-2061
988.188	-496
988.268	-1331
988.349	-1047
988.429	-2058
988.509	-1654
988.589	-1296
988.670	-2568
988.750	-777
988.830	-1073
988.910	-1407
988.990	-725
989.070	-1496
989.151	-1120
989.231	-2400
989.311	-1004
989.391	-1694
989.471	-930
989.551	-1909
989.631	-1786
989.711	-880
989.791	-1507
989.870	-1970
989.950	-630
990.030	-1483
990.110	-313
990.190	-1427
990.269	-1464
990.349	-1426
990.429	-581
990.509	-1104
990.588	-1336
990.668	-1306
990.747	-1039
990.827	-2078
990.907	-860
990.986	-1818
991.066	-1135
991.145	-2395
991.225	-581
991.304	-1270
991.383	-529
991.463	-1865
991.542	-1389
991.622	-1751
991.701	-1099
991.780	-2293
991.859	-970
991.939	-1936
992.018	-1078
992.097	-1928
992.176	-641
992.256	-2125
992.335	-2503
992.414	-876
992.493	-1502
992.572	-1501
992.651	-211
992.730	-1676
992.809	-1608
992.888	-1960
992.967	-1618
993.046	-1524
993.125	-1477
993.203	-1821
993.282	-1038
993.361	-1851
993.440	-851
993.519	-2579
993.597	-1592
993.676	-2144
993.755	-936
993.834	-1489
993.912	-2004
993.991	-1074
994.069	-1856
994.148	-1966
994.226	-1654
994.305	-887
994.384	-1226
994.462	-855
994.540	-2382
994.619	-2010
994.697	-1279
994.776	-2239
994.854	-608
994.932	-2250
995.011	-1507
995.089	-1501
995.167	-1543
995.245	-2186
995.324	-1884
995.402	-1576
995.480	-1628
995.558	-666
995.636	-2559
995.714	-1731
995.792	-556
995.870	-2723
995.948	-1221
996.026	-1356
996.104	-1943
996.182	-1752
996.260	-1370
996.338	-1481
996.416	-1899
996.494	-2024
996.572	-523
996.649	-1554
996.727	-1741
996.805	-2378
996.883	-1728
996.960	-1966
997.038	-1070
997.116	-956
997.193	-1655
997.271	-1609
997.348	-1756
997.426	-1030
997.504	-2289
997.581	-813
997.658	-411
997.736	-2109
997.813	-2035
997.891	-1608
997.968	-2401
998.046	-1919
998.123	-1188
998.200	-1425
998.277	-2543
998.355	-998
998.432	-1470
998.509	-1396
998.586	-589
998.663	-2190
998.741	-1873
998.818	-2385
998.895	-1654
998.972	-1436
999.049	-1079
999.126	-2294
999.203	-679
999.280	-1708
999.357	-1596
999.434	-1869
999.511	-1289
999.587	-1418
999.664	-1237
999.741	-1653
999.818	-959
999.895	-1877
999.971	-1353
1000.048	-2159
1000.125	-122
1000.202	-1780
1000.278	-708
1000.355	-1943
1000.431	-1482
1000.508	-1957
1000.584	-1329
1000.661	-2094
1000.738	-1701
1000.814	-1709
1000.890	-494
1000.967	-1938
1001.043	-1001
1001.120	-2285
1001.196	-1356
1001.272	-2499
1001.349	-1011
1001.425	-1057
1001.501	-1660
1001.577	-2697
1001.654	-1349
1001.730	-1737
1001.806	-1074
1001.882	-2544
1001.958	-1768
1002.034	-1350
1002.110	-1595
1002.186	-2112
1002.262	-1137
1002.338	-2369
1002.414	-1685
1002.490	-1423
1002.566	-1539
1002.642	-2066
1002.718	-1285
1002.794	-1998
1002.870	-1467
1002.945	-2203
1003.021	-2255
1003.097	-2502
1003.173	-796
1003.248	-1597
1003.324	-1489
1003.400	-2300
1003.475	-1512
1003.551	-1876
1003.626	-1198
1003.702	-1799
1003.777	-1632
1003.853	-2075
1003.928	-2138
1004.004	-1383
1004.079	-1364
1004.155	-2531
1004.230	-2757
1004.305	-902
1004.381	-1917
1004.456	-1366
1004.531	-1924
1004.607	-1301
1004.682	-1502
1004.757	-2172
1004.832	-1476
1004.907	-1401
1004.982	-1536
1005.057	-2447
1005.133	-1770
1005.208	-2488
1005.283	-2003
1005.358	-1216
1005.433	-2029
1005.508	-1778
1005.583	-2060
1005.657	-2004
1005.732	-1880
1005.807	-2532
1005.882	-1557
1005.957	-1689
1006.032	-587
1006.106	-2190
1006.181	-1603
1006.256	-1685
1006.331	-1975
1006.405	-2717
1006.480	-1064
1006.554	-1648
1006.629	-1369
1006.704	-2394
1006.778	-1468
1006.853	-1299
1006.927	-1921
1007.002	-2391
1007.076	-2478
1007.150	-2332
1007.225	-1793
1007.299	-2058
1007.373	-2915
1007.448	-1633
1007.522	-1028
1007.596	-1428
1007.671	-1368
1007.745	-1810
1007.819	-1655
1007.893	-1925
1007.967	-1244
1008.041	-3209
1008.115	-764
1008.190	-2278
1008.264	-1269
1008.338	-2813
1008.412	-1169
1008.486	-2181
1008.560	-1400
1008.633	-2140
1008.707	-2362
1008.781	-1566
1008.855	-1929
1008.929	-2487
1009.003	-1918
1009.076	-1865
1009.150	-1805
1009.224	-2204
1009.298	-728
1009.371	-3087
1009.445	-1124
1009.519	-1976
1009.592	-2175
1009.666	-1745
1009.739	-2230
1009.813	-2625
1009.886	-371
1009.960	-3054
1010.033	-904
1010.107	-1885
1010.180	-1942
1010.253	-1424
1010.327	-1718
1010.400	-2291
1010.473	-1630
1010.547	-1372
1010.620	-1363
1010.693	-1817
1010.766	-1051
1010.840	-741
1010.913	-812
1010.986	-1823
1011.059	-1067
1011.132	-1161
1011.205	115
1011.278	-166
1011.351	-1389
1011.424	-1065
1011.497	-423
1011.570	-1695
1011.643	-1184
1011.716	-1499
1011.789	-1051
1011.862	-1139
1011.934	-514
1012.007	-3126
1012.080	-729
1012.153	-2183
1012.225	-1065
1012.298	-2948
1012.371	-2444
1012.443	-1439
1012.516	-2202
1012.588	-1271
1012.661	-1561
1012.733	-1936
1012.806	-1257
1012.879	-2380
1012.951	-1435
1013.023	-2773
1013.096	-1706
1013.168	-2441
1013.241	-150
1013.313	-1643
1013.385	-1623
1013.458	-2438
1013.530	-1394
1013.602	-2700
1013.674	-1347
1013.746	-2574
1013.819	-2704
1013.891	-1792
1013.963	-1822
1014.035	-2423
1014.107	-1041
1014.179	-2070
1014.251	-1989
1014.323	-1129
1014.395	-2285
1014.467	-2312
1014.539	-1696
1014.611	-2453
1014.683	-1315
1014.754	-1747
1014.826	-2582
1014.898	-1710
1014.970	-2383
1015.042	-1531
1015.113	-1238
1015.185	-1960
1015.257	-1844
1015.328	-1753
1015.400	-2395
1015.471	-2412
1015.543	-2441
1015.615	-2672
1015.686	-1406
1015.757	-1737
1015.829	-1311
1015.901	-2355
1015.972	-1240
1016.043	-1962
1016.115	-1200
1016.186	-2079
1016.257	-2652
1016.328	-2576
1016.400	-860
1016.471	-2378
1016.542	-1897
1016.613	-2586
1016.685	-1463
1016.756	-1568
1016.827	-2020
1016.898	-3156
1016.969	-530
1017.040	-1589
1017.111	-2503
1017.182	-2108
1017.253	-1597
1017.324	-2075
1017.395	-2088
1017.466	-1830
1017.537	-1696
1017.608	-2620
1017.678	-1296
1017.749	-2924
1017.820	-1657
1017.891	-3227
1017.961	-1662
1018.032	-2383
1018.103	-724
1018.173	-2685
1018.244	-1324
1018.315	-2138
1018.385	-1369
1018.456	-2110
1018.526	-1933
1018.597	-2336
1018.667	-1186
1018.738	-1215
1018.808	-1453
1018.878	-2773
1018.949	-1535
1019.019	-2220
1019.089	-2146
1019.160	-1951
1019.230	-2587
1019.300	-2015
1019.371	-2146
1019.441	-2236
1019.511	-1475
1019.581	-1567
1019.651	-1650
1019.721	-1838
1019.791	-2174
1019.861	-2061
1019.931	-2199
1020.001	-2955
1020.071	-2110
1020.141	-1906
1020.211	-1519
1020.281	-2899
1020.351	-2594
1020.421	-2398
1020.491	-1847
1020.560	-2996
1020.630	-1756
1020.700	-2311
1020.770	-1644
1020.839	-2614
1020.909	-1986
1020.979	-2146
1021.048	-1321
1021.118	-1962
1021.187	-1517
1021.257	-2362
1021.326	-1548
1021.396	-2658
1021.465	-1794
1021.535	-1448
1021.604	-2702
1021.674	-2452
1021.743	-1331
1021.812	-2212
1021.882	-2255
1021.951	-2152
1022.020	-2139
1022.089	-1829
1022.159	-1493
1022.228	-2321
1022.297	-1793
1022.366	-2233
1022.435	-1664
1022.504	-2401
1022.573	-2446
1022.642	-2897
1022.711	-1820
1022.781	-2598
1022.849	-985
1022.918	-2186
1022.987	-1147
1023.056	-2547
1023.125	-1813
1023.194	-2359
1023.263	-1906
1023.331	-1683
1023.400	-1790
1023.469	-2364
1023.538	-1236
1023.606	-2547
1023.675	-1916
1023.744	-2339
1023.812	-1847
1023.881	-2055
1023.949	-1754
1024.018	-2465
1024.086	-1702
1024.155	-2418
1024.223	-1526
1024.292	-2073
1024.360	-1319
1024.429	-2809
1024.497	-2558
1024.565	-2521
1024.634	-1126
1024.702	-1387
1024.770	-2572
1024.838	-2467
1024.907	-1938
1024.975	-2881
1025.043	-1332
1025.111	-2612
1025.179	-1637
1025.247	-2140
1025.315	-2251
1025.383	-2432
1025.451	-1592
1025.519	-2635
1025.587	-1586
1025.655	-1957
1025.723	-1288
1025.791	-3016
1025.859	-2226
1025.927	-2610
1025.995	-1892
1026.062	-1769
1026.130	-2036
1026.198	-3068
1026.266	-1964
1026.333	-1950
1026.401	-1904
1026.469	-2238
1026.536	-1572
1026.604	-2097
1026.671	-2797
1026.739	-3193
1026.806	-1996
1026.874	-2422
1026.941	-1611
1027.009	-2387
1027.076	-2729
1027.144	-2060
1027.211	-1918
1027.278	-1857
1027.345	-1614
1027.413	-2481
1027.480	-1897
1027.547	-2902
1027.614	-2521
1027.682	-1745
1027.749	-2054
1027.816	-3045
1027.883	-1593
1027.950	-2039
1028.017	-1933
1028.084	-2014
1028.151	-2030
1028.218	-2936
1028.285	-2120
1028.352	-3168
1028.419	-2777
1028.486	-2666
1028.553	-1742
1028.619	-2594
1028.686	-1764
1028.753	-3015
1028.820	-1617
1028.886	-3296
1028.953	-2417
1029.020	-2711
1029.086	-1895
1029.153	-2347
1029.220	-2657
1029.286	-2817
1029.353	-1713
1029.419	-2548
1029.486	-1679
1029.552	-2292
1029.619	-2010
1029.685	-2646
1029.751	-2709
1029.818	-1713
1029.884	-1736
1029.951	-1501
1030.017	-1537
1030.083	-2050
1030.149	-1641
1030.216	-2070
1030.282	-1790
1030.348	-2315
1030.414	-2527
1030.480	-2889
1030.546	-1386
1030.612	-2029
1030.678	-2475
1030.744	-2783
1030.810	-1741
1030.876	-2774
1030.942	-1567
1031.008	-2590
1031.074	-2461
1031.140	-2852
1031.206	-1410
1031.272	-3286
1031.337	-2061
1031.403	-2673
1031.469	-1625
1031.534	-2853
1031.600	-2689
1031.666	-2920
1031.731	-1791
1031.797	-2615
1031.863	-1758
1031.928	-2522
1031.994	-1870
1032.059	-2815
1032.125	-2121
1032.190	-2712
1032.256	-2391
1032.321	-3328
1032.386	-2137
1032.452	-2512
1032.517	-2568
1032.582	-2368
1032.647	-1719
1032.713	-3014
1032.778	-1758
1032.843	-1684
1032.908	-2784
1032.974	-3007
1033.039	-2793
1033.104	-2128
1033.169	-2789
1033.234	-2491
1033.299	-1327
1033.364	-2542
1033.429	-2556
1033.494	-2228
1033.559	-2600
1033.624	-2757
1033.688	-2397
1033.753	-2152
1033.818	-2100
1033.883	-2950
1033.948	-1953
1034.013	-2290
1034.077	-2420
1034.142	-2123
1034.207	-2057
1034.271	-1944
1034.336	-2179
1034.400	-2712
1034.465	-1786
1034.530	-2481
1034.594	-1701
1034.658	-2775
1034.723	-2856
1034.787	-1772
1034.852	-2130
1034.916	-2510
1034.981	-2489
1035.045	-2838
1035.109	-2848
1035.173	-2121
1035.238	-2156
1035.302	-2166
1035.366	-3090
1035.430	-2109
1035.495	-2159
1035.559	-2947
1035.623	-2314
1035.687	-2501
1035.751	-2261
1035.815	-2570
1035.879	-2337
1035.943	-2625
1036.007	-2218
1036.071	-2254
1036.135	-1338
1036.198	-2260
1036.262	-2364
1036.326	-2859
1036.390	-1828
1036.454	-3009
1036.517	-3213
1036.581	-3327
1036.645	-2397
1036.709	-2609
1036.772	-2266
1036.836	-2452
1036.900	-2080
1036.963	-1600
1037.026	-1134
1037.090	-2539
1037.154	-1995
1037.217	-3143
1037.280	-2537
1037.344	-2533
1037.407	-2549
1037.471	-2080
1037.534	-2388
1037.597	-2795
1037.661	-1911
1037.724	-2464
1037.787	-2059
1037.850	-2748
1037.913	-3019
1037.977	-1742
1038.040	-1667
1038.103	-3273
1038.166	-1826
1038.229	-2690
1038.292	-2802
1038.355	-2467
1038.418	-2629
1038.481	-1890
1038.544	-1900
1038.607	-2084
1038.670	-1647
1038.732	-3103
1038.795	-2793
1038.858	-3298
1038.921	-2114
1038.984	-2483
1039.046	-2968
1039.109	-2873
1039.172	-2069
1039.234	-2898
1039.297	-2530
1039.360	-1374
1039.422	-1876
1039.485	-2699
1039.547	-2827
1039.610	-3224
1039.672	-2356
1039.734	-3272
1039.797	-1672
1039.859	-2543
1039.922	-2144
1039.984	-2030
1040.046	-1700
1040.109	-2430
1040.171	-1964
1040.233	-2826
1040.295	-3292
1040.358	-2029
1040.420	-2255
1040.482	-2234
1040.544	-1971
1040.606	-1591
1040.668	-2598
1040.730	-2606
1040.792	-2047
1040.854	-2714
1040.916	-2310
1040.978	-2445
1041.040	-894
1041.102	-2416
1041.164	-1929
1041.225	-3206
1041.287	-2073
1041.349	-1961
1041.411	-1636
1041.472	-2507
1041.534	-1991
1041.596	-3147
1041.657	-2631
1041.719	-1710
1041.781	-1962
1041.842	-3239
1041.904	-2599
1041.965	-2281
1042.027	-1655
1042.088	-1878
1042.150	-1799
1042.211	-2435
1042.272	-2283
1042.334	-2435
1042.395	-1889
1042.456	-2651
1042.518	-2393
1042.579	-2179
1042.640	-2408
1042.701	-2677
1042.763	-2425
1042.824	-3493
1042.885	-2281
1042.946	-1832
1043.007	-1523
1043.068	-2588
1043.129	-1926
1043.190	-2913
1043.251	-2040
1043.312	-2468
1043.373	-2533
1043.434	-2956
1043.495	-1971
1043.556	-1937
1043.616	-1876
1043.677	-2231
1043.738	-1685
1043.799	-2685
1043.859	-1257
1043.920	-2435
1043.981	-1934
1044.041	-2503
1044.102	-1641
1044.162	-2380
1044.223	-2351
1044.284	-1876
1044.344	-2235
1044.405	-3248
1044.465	-1445
1044.525	-2649
1044.586	-2477
1044.646	-2003
1044.707	-1817
1044.767	-2651
1044.827	-2146
1044.887	-2493
1044.948	-1893
1045.008	-1855
1045.068	-1937
1045.128	-1986
1045.188	-1395
1045.249	-2149
1045.309	-1504
1045.369	-1763
1045.429	-1917
1045.489	-2581
1045.549	-2037
1045.609	-3004
1045.669	-1856
1045.729	-2560
1045.789	-2608
1045.848	-1757
1045.908	-1644
1045.968	-2009
1046.028	-1193
1046.088	-1705
1046.147	-1036
1046.207	-2171
1046.267	-1819
1046.326	-1606
1046.386	-1825
1046.446	-1228
1046.505	-1095
1046.565	-2019
1046.624	-567
1046.684	-1563
1046.743	-1415
1046.803	-636
1046.862	-271
1046.922	0
