'Start Wavelength	183.907
'End Wavelength	1046.922
'Gate Delay	5.000
'Gate Width (ms)	1.050
'Laser Output Level	0.000
'X Position	0.000
'Y Position	0.000
'Z Position	0.000
'Grid Point Number	1.000
'Shot Number	100.000
183.907	1165.000
183.977	499.000
184.047	570
184.116	-518
184.186	537
184.256	-92
184.325	616
184.395	-1300
184.465	626
184.534	-136
184.604	197
184.674	-233
184.743	508
184.813	379
184.883	215
184.952	215
185.022	1087
185.092	521
185.161	738
185.231	531
185.301	-23
185.370	770
185.440	-188
185.509	125
185.579	285
185.649	-73
185.718	917
185.788	84
185.857	487
185.927	-667
185.996	455
186.066	68
186.136	-216
186.205	-419
186.275	1015
186.344	-376
186.414	565
186.483	-27
186.553	1199
186.622	442
186.692	60
186.761	-272
186.831	-91
186.900	-120
186.970	894
187.039	466
187.109	790
187.178	525
187.248	739
187.317	65
187.387	319
187.456	96
187.526	610
187.595	149
187.664	238
187.734	448
187.803	446
187.873	784
187.942	867
188.012	482
188.081	26
188.150	91
188.220	126
188.289	-221
188.358	126
188.428	802
188.497	-829
188.567	969
188.636	-11
188.705	21
188.775	-300
188.844	-761
188.913	671
188.983	-689
189.052	202
189.121	16
189.191	789
189.260	322
189.329	130
189.399	342
189.468	142
189.537	522
189.606	705
189.676	194
189.745	507
189.814	889
189.883	138
189.953	76
190.022	217
190.091	95
190.161	1428
190.230	1080
190.299	740
190.368	-122
190.437	125
190.507	51
190.576	-90
190.645	443
190.714	589
190.783	402
190.853	1097
190.922	781
190.991	535
191.060	284
191.129	-22
191.198	542
191.268	366
191.337	-70
191.406	943
191.475	319
191.544	207
191.613	853
191.682	539
191.752	11
191.821	442
191.890	248
191.959	832
192.028	-217
192.097	921
192.166	198
192.235	-337
192.304	592
192.373	115
192.442	138
192.511	678
192.580	-119
192.650	1206
192.719	361
192.788	973
192.857	182
192.926	400
192.995	-129
193.064	98
193.133	1356
193.202	1493
193.271	1160
193.340	1238
193.409	771
193.478	1964
193.547	589
193.615	1778
193.684	1264
193.753	881
193.822	349
193.891	78
193.960	523
194.029	-75
194.098	984
194.167	377
194.236	613
194.305	-59
194.374	-490
194.443	592
194.512	716
194.580	123
194.649	962
194.718	1065
194.787	498
194.856	543
194.925	808
194.994	349
195.062	271
195.131	684
195.200	506
195.269	375
195.338	375
195.407	227
195.475	132
195.544	1039
195.613	166
195.682	535
195.751	768
195.819	932
195.888	635
195.957	1294
196.026	169
196.094	1648
196.163	572
196.232	1160
196.301	297
196.369	1184
196.438	847
196.507	900
196.576	452
196.644	251
196.713	1109
196.782	653
196.850	435
196.919	492
196.988	571
197.056	837
197.125	267
197.194	782
197.262	-139
197.331	427
197.400	-236
197.468	641
197.537	-125
197.606	488
197.674	590
197.743	1116
197.812	935
197.880	1339
197.949	1027
198.017	1368
198.086	254
198.155	443
198.223	609
198.292	1326
198.360	60
198.429	1058
198.497	246
198.566	423
198.635	913
198.703	1008
198.772	610
198.840	1047
198.909	1692
198.977	819
199.046	340
199.114	223
199.183	543
199.251	1194
199.320	1633
199.388	198
199.457	431
199.525	1012
199.594	585
199.662	457
199.731	639
199.799	937
199.867	1121
199.936	1066
200.004	678
200.073	532
200.141	-457
200.210	691
200.278	363
200.346	1129
200.415	1452
200.483	642
200.552	497
200.620	406
200.688	298
200.757	743
200.825	606
200.893	514
200.962	817
201.030	528
201.098	625
201.167	125
201.235	433
201.303	1097
201.372	574
201.440	1002
201.508	709
201.577	1040
201.645	1121
201.713	712
201.781	993
201.850	889
201.918	1059
201.986	484
202.055	1236
202.123	949
202.191	50
202.259	695
202.327	578
202.396	571
202.464	498
202.532	189
202.600	1815
202.669	727
202.737	899
202.805	657
202.873	207
202.941	1408
203.009	546
203.078	1101
203.146	681
203.214	628
203.282	579
203.350	709
203.418	847
203.487	958
203.555	299
203.623	1797
203.691	946
203.759	822
203.827	31
203.895	490
203.963	771
204.031	-580
204.099	606
204.168	476
204.236	1300
204.304	1347
204.372	80
204.440	562
204.508	961
204.576	589
204.644	1311
204.712	871
204.780	502
204.848	523
204.916	729
204.984	768
205.052	514
205.120	1029
205.188	882
205.256	468
205.324	500
205.392	519
205.460	1243
205.528	1168
205.596	830
205.664	144
205.732	590
205.799	1748
205.867	2234
205.935	787
206.003	996
206.071	976
206.139	239
206.207	815
206.275	1645
206.343	899
206.411	906
206.478	931
206.546	759
206.614	781
206.682	620
206.750	1449
206.818	333
206.885	916
206.953	-523
207.021	2331
207.089	1473
207.157	-68
207.225	1322
207.292	863
207.360	482
207.428	794
207.496	748
207.563	1647
207.631	326
207.699	1028
207.767	925
207.834	-211
207.902	707
207.970	513
208.038	1190
208.105	1104
208.173	1451
208.241	1845
208.309	1560
208.376	1963
208.444	1108
208.512	529
208.579	373
208.647	1626
208.715	1247
208.782	309
208.850	1144
208.918	615
208.985	1543
209.053	1554
209.120	1664
209.188	1395
209.256	1676
209.323	962
209.391	845
209.459	2017
209.526	1345
209.594	1080
209.661	550
209.729	1570
209.796	1388
209.864	1335
209.932	-31
209.999	2310
210.067	1580
210.134	2085
210.202	1154
210.269	2089
210.337	1658
210.404	1043
210.472	1876
210.539	1311
210.607	725
210.674	1381
210.742	998
210.809	1213
210.877	896
210.944	2434
211.012	1213
211.079	3398
211.146	1203
211.214	616
211.281	1526
211.349	1958
211.416	1391
211.484	1527
211.551	1131
211.618	2071
211.686	780
211.753	304
211.821	1651
211.888	414
211.955	793
212.023	1296
212.090	1066
212.157	802
212.225	1529
212.292	2631
212.359	2345
212.427	4871
212.494	3548
212.561	1961
212.629	1335
212.696	1804
212.763	2084
212.831	1364
212.898	2697
212.965	938
213.032	1669
213.100	2067
213.167	1729
213.234	1894
213.301	1448
213.369	2413
213.436	2265
213.503	1164
213.570	1434
213.638	1066
213.705	1019
213.772	1798
213.839	1605
213.906	1827
213.973	1151
214.041	1139
214.108	1114
214.175	1921
214.242	1033
214.309	1248
214.376	1559
214.444	1541
214.511	2121
214.578	1373
214.645	2255
214.712	2048
214.779	1635
214.846	1099
214.913	2343
214.980	2583
215.048	2441
215.115	3304
215.182	2381
215.249	1977
215.316	2531
215.383	1449
215.450	1453
215.517	1335
215.584	1485
215.651	1133
215.718	610
215.785	1905
215.852	1530
215.919	2217
215.986	1643
216.053	1145
216.120	1158
216.187	2158
216.254	2152
216.321	1085
216.388	2133
216.455	1623
216.522	1866
216.589	2228
216.656	2576
216.722	3163
216.789	2607
216.856	3305
216.923	2636
216.990	2889
217.057	2658
217.124	2445
217.191	1795
217.258	3121
217.324	3769
217.391	4804
217.458	3292
217.525	2930
217.592	2233
217.659	1570
217.725	3175
217.792	2108
217.859	3005
217.926	1258
217.993	1039
218.059	1888
218.126	1509
218.193	1750
218.260	1487
218.327	634
218.393	1069
218.460	1275
218.527	1359
218.594	1276
218.660	2330
218.727	2770
218.794	1350
218.860	2014
218.927	1179
218.994	620
219.061	859
219.127	789
219.194	1565
219.261	2172
219.327	1045
219.394	1538
219.461	667
219.527	1336
219.594	1847
219.661	894
219.727	303
219.794	2154
219.860	387
219.927	1829
219.994	2029
220.060	2270
220.127	1607
220.193	1820
220.260	1560
220.326	3299
220.393	4423
220.460	7119
220.526	4117
220.593	2235
220.659	3521
220.726	2438
220.792	4790
220.859	4790
220.925	6711
220.992	10456
221.058	8443
221.125	6470
221.191	4205
221.258	1884
221.324	3153
221.391	1691
221.457	917
221.524	1354
221.590	2928
221.657	4220
221.723	2298
221.789	2895
221.856	3129
221.922	2366
221.989	1178
222.055	1659
222.121	608
222.188	3586
222.254	2395
222.321	2056
222.387	495
222.453	199
222.520	1351
222.586	668
222.652	1449
222.719	846
222.785	1081
222.851	575
222.918	1787
222.984	1026
223.050	491
223.116	-114
223.183	1818
223.249	1090
223.315	247
223.382	1759
223.448	1435
223.514	1165
223.580	770
223.647	145
223.713	516
223.779	1549
223.845	397
223.911	1693
223.978	975
224.044	1528
224.110	784
224.176	1768
224.242	319
224.309	257
224.375	1405
224.441	1442
224.507	540
224.573	638
224.639	2014
224.705	746
224.772	879
224.838	1022
224.904	1683
224.970	-157
225.036	849
225.102	531
225.168	661
225.234	1074
225.300	668
225.366	790
225.432	830
225.499	1604
225.565	477
225.631	1314
225.697	1161
225.763	2238
225.829	2151
225.895	2190
225.961	2213
226.027	2834
226.093	1160
226.159	3407
226.225	3667
226.291	7809
226.357	12127
226.423	7891
226.489	3919
226.554	1967
226.620	2532
226.686	3146
226.752	4963
226.818	7212
226.884	13288
226.950	12887
227.016	6383
227.082	3479
227.148	3019
227.214	1988
227.279	2091
227.345	2218
227.411	2137
227.477	1800
227.543	2558
227.609	2587
227.674	2355
227.740	958
227.806	1644
227.872	1847
227.938	1920
228.003	2799
228.069	1219
228.135	1306
228.201	1162
228.267	1229
228.332	1758
228.398	1399
228.464	1969
228.530	430
228.595	1256
228.661	536
228.727	1624
228.792	3172
228.858	1009
228.924	370
228.990	2578
229.055	1163
229.121	2151
229.187	1403
229.252	891
229.318	821
229.384	1420
229.449	1598
229.515	-968
229.581	-91
229.646	2653
229.712	1677
229.777	2288
229.843	1504
229.909	2246
229.974	2805
230.040	2791
230.105	2480
230.171	1746
230.236	2225
230.302	3559
230.368	3535
230.433	1086
230.499	2607
230.564	3333
230.630	1816
230.695	1824
230.761	2087
230.826	45
230.892	3128
230.957	609
231.023	1078
231.088	1467
231.154	1608
231.219	1563
231.284	1760
231.350	3143
231.415	758
231.481	2065
231.546	1809
231.612	1181
231.677	1581
231.742	239
231.808	2100
231.873	811
231.939	3
232.004	1874
232.069	2307
232.135	1057
232.200	1635
232.265	1695
232.331	1483
232.396	990
232.461	724
232.527	777
232.592	430
232.657	1291
232.723	1658
232.788	977
232.853	1996
232.918	1055
232.984	653
233.049	475
233.114	999
233.179	1614
233.245	2486
233.310	2866
233.375	1123
233.440	1584
233.506	1401
233.571	1450
233.636	1128
233.701	924
233.766	1283
233.832	1367
233.897	1282
233.962	136
234.027	2237
234.092	1585
234.157	1758
234.222	897
234.288	2142
234.353	4695
234.418	3999
234.483	3755
234.548	2383
234.613	1815
234.678	2682
234.743	1721
234.808	6126
234.873	2960
234.938	3970
235.004	2207
235.069	2023
235.134	1293
235.199	2044
235.264	1285
235.329	641
235.394	2109
235.459	2881
235.524	685
235.589	1651
235.654	896
235.719	1230
235.784	2219
235.849	1687
235.913	2641
235.978	3315
236.043	2936
236.108	2004
236.173	1216
236.238	2134
236.303	896
236.368	1456
236.433	2605
236.498	3396
236.563	3815
236.627	5882
236.692	16690
236.757	14585
236.822	6713
236.887	3821
236.952	4296
237.017	2433
237.081	3541
237.146	4400
237.211	10184
237.276	17634
237.341	24065
237.405	13205
237.470	6237
237.535	4448
237.600	3541
237.664	3467
237.729	2558
237.794	2971
237.859	8029
237.923	4345
237.988	2143
238.053	4090
238.118	2772
238.182	5813
238.247	7253
238.312	3136
238.376	3265
238.441	1549
238.506	2276
238.570	503
238.635	2361
238.700	1488
238.764	1013
238.829	3128
238.893	3059
238.958	3232
239.023	2004
239.087	1121
239.152	2230
239.216	1553
239.281	1692
239.346	1500
239.410	994
239.475	1868
239.539	6351
239.604	3877
239.668	2797
239.733	1601
239.797	1128
239.862	3333
239.926	4746
239.991	2793
240.055	2106
240.120	1267
240.184	2030
240.249	1132
240.313	1159
240.378	1590
240.442	3802
240.507	6573
240.571	2118
240.635	3388
240.700	3527
240.764	2011
240.829	1055
240.893	471
240.957	1441
241.022	3824
241.086	5793
241.151	2575
241.215	589
241.279	2805
241.344	2397
241.408	2910
241.472	2397
241.537	3836
241.601	2989
241.665	1643
241.730	2016
241.794	3097
241.858	1174
241.922	2413
241.987	2204
242.051	1639
242.115	1040
242.179	2116
242.244	1427
242.308	2603
242.372	2380
242.436	2078
242.501	2134
242.565	973
242.629	1483
242.693	2469
242.757	992
242.822	2022
242.886	1998
242.950	2384
243.014	1057
243.078	2203
243.142	1700
243.206	1855
243.271	1991
243.335	1296
243.399	3693
243.463	8108
243.527	20079
243.591	6987
243.655	3196
243.719	2350
243.783	3320
243.847	4856
243.911	5115
243.975	5900
244.040	3149
244.104	3298
244.168	2231
244.232	2904
244.296	4409
244.360	4983
244.424	2333
244.488	2642
244.552	2682
244.615	1633
244.679	2446
244.743	1793
244.807	1932
244.871	1968
244.935	1601
244.999	245
245.063	1368
245.127	3078
245.191	3205
245.255	2849
245.319	2379
245.383	1107
245.446	2791
245.510	970
245.574	2259
245.638	2694
245.702	1005
245.766	4569
245.829	3165
245.893	1898
245.957	1189
246.021	3569
246.085	2330
246.149	2268
246.212	6303
246.276	8259
246.340	3594
246.404	3132
246.467	3888
246.531	3084
246.595	3908
246.659	2930
246.722	2215
246.786	4043
246.850	3260
246.913	3928
246.977	1226
247.041	2204
247.104	2633
247.168	2729
247.232	5703
247.295	10446
247.359	5864
247.423	2507
247.486	5384
247.550	3776
247.614	2652
247.677	3628
247.741	2542
247.804	2280
247.868	2773
247.932	4191
247.995	10486
248.059	4351
248.122	1547
248.186	4782
248.249	4994
248.313	15804
248.376	16743
248.440	10517
248.503	4243
248.567	6084
248.630	5815
248.694	8042
248.757	10353
248.821	18085
248.884	12398
248.948	10425
249.011	14173
249.075	19661
249.138	17052
249.202	8431
249.265	4461
249.328	6898
249.392	4084
249.455	4891
249.519	3526
249.582	4425
249.645	7279
249.709	5556
249.772	4227
249.835	4204
249.899	3473
249.962	3598
250.025	2686
250.089	6690
250.152	10147
250.215	5647
250.279	4204
250.342	4633
250.405	3332
250.468	2828
250.532	4157
250.595	7617
250.658	19384
250.721	33251
250.785	13023
250.848	8629
250.911	4108
250.974	5394
251.038	5662
251.101	10963
251.164	5456
251.227	8288
251.290	7023
251.354	8074
251.417	26808
251.480	29244
251.543	19647
251.606	48268
251.669	38500
251.732	16155
251.795	15409
251.859	16479
251.922	31826
251.985	20002
252.048	8712
252.111	7479
252.174	6136
252.237	10668
252.300	21073
252.363	22386
252.426	41021
252.489	18834
252.552	10410
252.615	7111
252.678	7178
252.741	15891
252.804	19572
252.867	41284
252.930	26105
252.993	15399
253.056	9868
253.119	6949
253.182	5311
253.245	9098
253.308	7091
253.371	7090
253.434	6919
253.497	6966
253.559	10882
253.622	7111
253.685	8520
253.748	10195
253.811	4317
253.874	6170
253.937	5040
254.000	4011
254.062	7526
254.125	10046
254.188	10895
254.251	8815
254.314	4104
254.376	7566
254.439	9310
254.502	8077
254.565	6654
254.628	13077
254.690	8010
254.753	4556
254.816	3193
254.878	4354
254.941	7532
255.004	7659
255.067	4114
255.129	4184
255.192	2614
255.255	1137
255.317	3015
255.380	2201
255.443	1354
255.505	1793
255.568	1254
255.631	1452
255.693	2840
255.756	798
255.819	3015
255.881	1494
255.944	870
256.006	2080
256.069	1945
256.132	1485
256.194	2072
256.257	4695
256.319	4666
256.382	3863
256.444	3690
256.507	2699
256.569	2221
256.632	2400
256.694	3481
256.757	11850
256.819	29431
256.882	12725
256.944	6113
257.007	5179
257.069	4495
257.132	3775
257.194	4693
257.257	4215
257.319	3586
257.381	3174
257.444	8959
257.506	32744
257.569	39540
257.631	23357
257.693	10771
257.756	5440
257.818	3569
257.880	3604
257.943	3396
258.005	3175
258.067	2660
258.130	2626
258.192	3307
258.254	6177
258.317	3331
258.379	3555
258.441	7036
258.503	7061
258.566	6800
258.628	9345
258.690	2159
258.753	4084
258.815	6446
258.877	3497
258.939	2620
259.001	3243
259.064	1655
259.126	2921
259.188	3404
259.250	3658
259.312	4128
259.375	12053
259.437	7366
259.499	3125
259.561	2314
259.623	3868
259.685	2263
259.747	2515
259.809	5911
259.872	11845
259.934	16505
259.996	18058
260.058	6034
260.120	2465
260.182	2373
260.244	1371
260.306	1646
260.368	2310
260.430	1576
260.492	5796
260.554	12571
260.616	8778
260.678	10569
260.740	12582
260.802	3950
260.864	3918
260.926	1449
260.988	4145
261.050	2180
261.112	6988
261.174	15659
261.236	10499
261.298	4284
261.359	5800
261.421	7899
261.483	3089
261.545	2689
261.607	1436
261.669	2191
261.731	4272
261.793	9689
261.854	4667
261.916	4003
261.978	2421
262.040	3101
262.102	2508
262.164	3070
262.225	2620
262.287	2399
262.349	4780
262.411	5144
262.472	2904
262.534	3558
262.596	7732
262.658	2738
262.719	1128
262.781	3128
262.843	7018
262.904	2885
262.966	2800
263.028	3340
263.090	12952
263.151	35175
263.213	12913
263.275	7395
263.336	4055
263.398	3070
263.459	1962
263.521	1887
263.583	5898
263.644	4183
263.706	1275
263.767	990
263.829	1576
263.891	1584
263.952	1383
264.014	1266
264.075	3065
264.137	7950
264.198	4781
264.260	1069
264.321	2043
264.383	4762
264.444	13290
264.506	3595
264.567	2640
264.629	4591
264.690	9707
264.752	4187
264.813	2658
264.875	852
264.936	2181
264.998	1603
265.059	1383
265.120	2026
265.182	3396
265.243	17821
265.305	17910
265.366	4032
265.427	2434
265.489	2207
265.550	1156
265.611	1986
265.673	1552
265.734	1755
265.795	2548
265.857	1024
265.918	1607
265.979	4791
266.040	26239
266.102	21799
266.163	6104
266.224	4567
266.286	3037
266.347	903
266.408	2384
266.469	2197
266.530	948
266.592	954
266.653	3981
266.714	6544
266.775	2084
266.836	1587
266.898	323
266.959	3064
267.020	2124
267.081	1823
267.142	849
267.203	288
267.264	799
267.326	1971
267.387	1188
267.448	1166
267.509	1820
267.570	1290
267.631	957
267.692	189
267.753	2242
267.814	850
267.875	4142
267.936	8328
267.997	4143
268.058	3142
268.119	1825
268.180	2232
268.241	1146
268.302	988
268.363	1488
268.424	914
268.485	1520
268.546	1046
268.607	861
268.668	1592
268.729	917
268.790	1245
268.851	1604
268.912	4302
268.972	6078
269.033	2765
269.094	1311
269.155	1307
269.216	1118
269.277	1166
269.338	1194
269.398	1386
269.459	1970
269.520	2489
269.581	3707
269.642	4791
269.702	2541
269.763	2344
269.824	1585
269.885	2610
269.945	3576
270.006	1784
270.067	1016
270.128	1114
270.188	1439
270.249	1139
270.310	1200
270.370	1743
270.431	628
270.492	867
270.553	2460
270.613	3391
270.674	9014
270.734	3086
270.795	2013
270.856	2637
270.916	2570
270.977	1563
271.038	2493
271.098	1415
271.159	4153
271.219	3883
271.280	1801
271.340	2077
271.401	1535
271.462	3936
271.522	2564
271.583	1959
271.643	1787
271.704	1918
271.764	2450
271.825	6051
271.885	17064
271.946	22729
272.006	7650
272.066	10354
272.127	16909
272.187	5943
272.248	3639
272.308	3678
272.369	12285
272.429	7079
272.489	6779
272.550	6236
272.610	6737
272.671	4884
272.731	4081
272.791	6199
272.852	3060
272.912	3868
272.972	1814
273.033	1330
273.093	2686
273.153	4134
273.214	2041
273.274	2583
273.334	9624
273.394	18126
273.455	7821
273.515	7509
273.575	17528
273.635	6429
273.696	8143
273.756	15624
273.816	7298
273.876	4107
273.936	6337
273.997	12885
274.057	4050
274.117	3472
274.177	4959
274.237	22275
274.297	18792
274.358	11674
274.418	13715
274.478	11134
274.538	4514
274.598	3249
274.658	9725
274.718	12403
274.778	6199
274.838	2591
274.898	5611
274.958	16320
275.018	16383
275.078	10002
275.138	4770
275.198	2826
275.258	2940
275.318	2971
275.378	6000
275.438	6365
275.498	3409
275.558	7827
275.618	16463
275.678	11421
275.738	8583
275.798	6138
275.858	3847
275.918	1910
275.978	2868
276.038	2209
276.098	2003
276.157	4236
276.217	14497
276.277	6679
276.337	4353
276.397	2931
276.457	3255
276.517	2329
276.576	1401
276.636	1119
276.696	2975
276.756	8589
276.815	6407
276.875	1907
276.935	2927
276.995	2662
277.055	1949
277.114	1935
277.174	2267
277.234	10857
277.293	5327
277.353	2488
277.413	2706
277.472	1956
277.532	2729
277.592	2434
277.651	7998
277.711	14458
277.771	4721
277.830	17974
277.890	15531
277.950	8770
278.009	27615
278.069	9660
278.128	10061
278.188	15086
278.248	6279
278.307	14915
278.367	9929
278.426	3666
278.486	1904
278.545	1642
278.605	1937
278.664	1079
278.724	2214
278.783	6349
278.843	17120
278.902	5002
278.962	3527
279.021	4367
279.081	3746
279.140	2532
279.199	3230
279.259	3669
279.318	4234
279.378	4021
279.437	9314
279.496	29135
279.556	63908
279.615	49852
279.675	14334
279.734	8361
279.793	13726
279.853	25645
279.912	10024
279.971	5625
280.031	5641
280.090	10524
280.149	19860
280.208	10572
280.268	43315
280.327	46569
280.386	10979
280.445	9605
280.505	9306
280.564	4369
280.623	3623
280.682	7147
280.742	9602
280.801	3599
280.860	3132
280.919	2350
280.978	1950
281.037	1909
281.097	1245
281.156	1527
281.215	1550
281.274	2081
281.333	11437
281.392	8100
281.451	2884
281.510	2819
281.569	2128
281.628	1245
281.688	1042
281.747	1438
281.806	2452
281.865	1028
281.924	2049
281.983	1299
282.042	786
282.101	480
282.160	1852
282.219	1316
282.278	1742
282.337	7205
282.396	5306
282.454	1579
282.513	3140
282.572	11436
282.631	7421
282.690	1424
282.749	1342
282.808	2466
282.867	2167
282.926	2765
282.985	2124
283.043	1764
283.102	1958
283.161	1320
283.220	4478
283.279	11927
283.338	4133
283.396	1537
283.455	2192
283.514	2054
283.573	4497
283.631	3363
283.690	2619
283.749	3011
283.808	5862
283.866	5668
283.925	1943
283.984	2454
284.043	3201
284.101	2951
284.160	1944
284.219	3153
284.277	2765
284.336	4227
284.395	15408
284.453	13426
284.512	5057
284.570	5359
284.629	4648
284.688	3991
284.746	4034
284.805	5525
284.863	8189
284.922	9611
284.981	9584
285.039	13008
285.098	22662
285.156	50717
285.215	84619
285.273	82472
285.332	56970
285.390	29304
285.449	18231
285.507	12298
285.566	8767
285.624	6649
285.683	5452
285.741	4419
285.799	4587
285.858	3849
285.916	3135
285.975	2114
286.033	2224
286.091	2083
286.150	1965
286.208	1667
286.267	3034
286.325	2031
286.383	4502
286.442	3793
286.500	1978
286.558	946
286.616	1524
286.675	2731
286.733	2870
286.791	1906
286.850	2146
286.908	3358
286.966	6859
287.024	2016
287.083	1561
287.141	1293
287.199	1433
287.257	3287
287.315	2362
287.374	2614
287.432	6378
287.490	4847
287.548	2496
287.606	3178
287.664	3340
287.723	3165
287.781	5294
287.839	2096
287.897	3768
287.955	3993
288.013	5723
288.071	10898
288.129	41650
288.187	113708
288.245	53940
288.303	16952
288.361	9058
288.419	6658
288.477	4770
288.535	3012
288.593	2770
288.651	1937
288.709	1654
288.767	1873
288.825	1463
288.883	1246
288.941	1514
288.999	1525
289.057	1413
289.115	800
289.173	1246
289.231	1475
289.289	2118
289.346	1090
289.404	1910
289.462	3957
289.520	4131
289.578	1156
289.636	723
289.694	536
289.751	1561
289.809	620
289.867	1835
289.925	2407
289.983	2945
290.040	669
290.098	1159
290.156	1606
290.214	2394
290.271	992
290.329	836
290.387	320
290.444	1760
290.502	372
290.560	1249
290.617	970
290.675	614
290.733	1131
290.790	2216
290.848	1284
290.906	1653
290.963	1467
291.021	1648
291.078	1495
291.136	1398
291.194	6824
291.251	15074
291.309	4268
291.366	1907
291.424	1763
291.481	1522
291.539	1251
291.596	1647
291.654	786
291.711	1387
291.769	1576
291.826	4214
291.884	3346
291.941	1787
291.999	988
292.056	1981
292.114	2236
292.171	869
292.228	1467
292.286	2483
292.343	3600
292.401	6078
292.458	2920
292.515	2506
292.573	4164
292.630	2504
292.687	2753
292.745	2105
292.802	2868
292.859	9159
292.917	14564
292.974	8491
293.031	2999
293.089	2591
293.146	1023
293.203	1806
293.260	1336
293.318	3746
293.375	5155
293.432	2492
293.489	1960
293.546	1288
293.604	1853
293.661	6818
293.718	19767
293.775	11789
293.832	5472
293.889	3903
293.947	5455
294.004	4348
294.061	4052
294.118	7455
294.175	15261
294.232	20526
294.289	7490
294.346	3670
294.403	3682
294.460	3252
294.517	1841
294.574	2176
294.631	2247
294.688	2669
294.745	5716
294.802	23680
294.859	29887
294.916	13587
294.973	8589
295.030	6159
295.087	5126
295.144	3161
295.201	2614
295.258	2545
295.315	3389
295.372	8517
295.429	16499
295.486	8905
295.542	5399
295.599	13046
295.656	22934
295.713	15263
295.770	17295
295.827	7605
295.883	4151
295.940	3653
295.997	5900
296.054	6042
296.111	3652
296.167	2722
296.224	1873
296.281	2387
296.338	2147
296.394	1741
296.451	2737
296.508	7672
296.564	15246
296.621	11534
296.678	17724
296.734	27251
296.791	12344
296.848	6230
296.904	6219
296.961	15053
297.018	20331
297.074	15672
297.131	7240
297.187	4565
297.244	5541
297.301	16950
297.357	29719
297.414	11123
297.470	5157
297.527	4288
297.583	2333
297.640	3865
297.696	2878
297.753	2370
297.809	1741
297.866	2846
297.922	1992
297.979	2018
298.035	2524
298.092	4341
298.148	11734
298.204	12086
298.261	5233
298.317	8618
298.374	22741
298.430	13921
298.486	6621
298.543	6797
298.599	5918
298.656	6069
298.712	7971
298.768	20598
298.824	14542
298.881	5241
298.937	3420
298.993	2850
299.050	3160
299.106	3617
299.162	3014
299.218	3510
299.275	3070
299.331	3260
299.387	4992
299.443	18735
299.500	18626
299.556	7103
299.612	3809
299.668	3755
299.724	3253
299.780	3301
299.837	2405
299.893	4771
299.949	15582
300.005	19119
300.061	15951
300.117	27963
300.173	13468
300.229	6373
300.285	7137
300.341	9950
300.397	4532
300.453	3379
300.510	2795
300.566	3687
300.622	3048
300.678	6778
300.734	14834
300.790	16066
300.845	19230
300.901	11710
300.957	15982
301.013	14707
301.069	6078
301.125	4371
301.181	7013
301.237	5001
301.293	3500
301.349	2036
301.405	2423
301.461	2427
301.516	3622
301.572	3497
301.628	6395
301.684	5303
301.740	8401
301.796	13858
301.851	8809
301.907	15386
301.963	14299
302.019	19475
302.074	50238
302.130	51267
302.186	23222
302.242	11248
302.297	6688
302.353	7170
302.409	12028
302.464	12438
302.520	8333
302.576	21050
302.631	24738
302.687	15054
302.743	7440
302.798	4685
302.854	4248
302.910	5230
302.965	9068
303.021	11582
303.076	9470
303.132	9990
303.187	12647
303.243	7467
303.299	4236
303.354	3381
303.410	2687
303.465	3313
303.521	3195
303.576	2715
303.632	3768
303.687	5977
303.743	16971
303.798	14809
303.853	6720
303.909	3966
303.964	2826
304.020	6084
304.075	9520
304.130	7859
304.186	14709
304.241	16421
304.297	12756
304.352	7081
304.358	6829
304.407	4795
304.449	5110
304.463	5219
304.518	5254
304.539	5130
304.573	4925
304.629	4374
304.630	4406
304.684	6008
304.720	10518
304.739	12782
304.794	18428
304.811	15972
304.850	10210
304.902	5460
304.905	5152
304.960	4076
304.992	4187
305.015	4247
305.071	4081
305.083	3904
305.126	3236
305.173	1537
305.181	1267
305.236	2524
305.264	2672
305.292	2796
305.347	3695
305.354	3614
305.402	3202
305.445	4901
305.457	5369
305.512	5724
305.535	5616
305.567	5454
305.622	4747
305.626	4906
305.678	8044
305.716	16001
305.733	19032
305.788	20976
305.807	17836
305.843	12386
305.897	15701
305.898	15732
305.953	16406
305.988	11376
306.008	8617
306.063	5684
306.078	5071
306.118	3632
306.168	2691
306.173	2585
306.228	2629
306.259	2336
306.283	2193
306.338	2295
306.349	2387
306.393	2585
306.440	3268
306.448	3424
306.503	3237
306.530	3747
306.558	4694
306.613	10151
306.620	10875
306.668	14925
306.711	17279
306.723	17595
306.778	13670
306.801	11018
306.833	7735
306.888	3717
306.892	3608
306.943	2804
306.982	2932
306.997	2981
307.052	2820
307.072	2980
307.107	3336
307.162	4064
307.163	4091
307.217	6542
307.253	7590
307.272	7828
307.327	9308
307.343	8357
307.381	6342
307.434	4954
307.436	4968
307.491	8883
307.524	14087
307.546	16277
307.600	15771
307.614	13815
307.655	8214
307.704	4665
307.710	4435
307.765	5279
307.795	6577
307.819	7421
307.874	12758
307.885	12584
307.929	10798
307.975	8185
307.984	8062
308.038	10289
308.065	12511
308.093	18775
308.148	38234
308.156	43525
308.202	65967
308.246	74533
308.257	74380
308.312	44319
308.336	34186
308.366	25873
308.421	16661
308.426	15906
308.475	9979
308.517	7171
308.530	6474
308.585	5121
308.607	5280
308.639	5650
308.694	5613
308.697	5711
308.748	8834
308.787	13792
308.803	14552
308.857	11662
308.877	9900
308.912	8083
308.967	7278
308.967	7307
309.021	9486
309.058	11849
309.076	14412
309.130	25630
309.148	30193
309.185	48455
309.238	84097
309.239	84172
309.293	88346
309.328	76425
309.348	67859
309.402	35950
309.418	28769
309.457	19589
309.508	12953
309.511	12626
309.566	10629
309.598	10492
309.620	10934
309.674	13793
309.688	14732
309.729	14571
309.778	10982
309.783	10685
309.837	7990
309.868	7136
309.892	8295
309.946	12664
309.959	14508
310.001	18399
310.049	20192
310.055	19711
310.109	12265
310.139	8108
310.163	6232
310.218	3853
310.229	3594
310.272	3246
310.319	3091
310.326	2952
310.381	1967
310.409	1720
310.435	1923
310.489	2089
310.499	2161
310.543	2412
310.589	2650
310.598	2588
310.652	2594
310.679	2382
310.706	2178
310.760	1625
310.769	1580
310.814	1553
310.859	1445
310.868	1476
310.923	1842
310.948	1974
310.977	1902
311.031	2097
311.038	2111
311.085	1723
311.128	1201
311.139	1272
311.193	1827
311.218	2006
311.247	2071
311.301	2312
311.308	2340
311.356	1833
311.398	1445
311.410	1435
311.464	1310
311.488	1297
311.518	1368
311.572	1496
311.578	1519
311.626	2322
311.668	3081
311.680	2998
311.734	2540
311.758	2390
311.788	2306
311.842	2109
311.847	2101
311.896	2321
311.937	2605
311.950	2594
312.004	2601
312.027	2611
312.058	2281
312.112	1738
312.117	1703
312.165	1860
312.207	2031
312.297	1954
312.386	1984
312.476	2306
312.566	4168
312.656	1463
312.745	2230
312.835	1723
312.925	2043
313.015	1935
313.104	2686
313.194	2291
313.284	1722
313.374	1465
313.463	2004
313.553	1844
313.643	1525
313.732	1424
313.822	1167
313.912	1632
314.001	2147
314.091	2291
314.180	2435
314.270	2603
314.360	2647
314.449	2207
314.539	1781
314.628	1277
314.718	1899
314.808	1363
314.897	1237
314.987	1967
315.076	1938
315.166	2624
315.255	1884
315.345	3009
315.434	1794
315.524	1900
315.613	1343
315.703	2916
315.792	2612
315.881	2159
315.971	1690
316.060	3596
316.150	5212
316.239	5708
316.328	1571
316.418	1290
316.507	1435
316.597	2280
316.686	1981
316.775	2486
316.865	4517
316.954	1136
317.043	1086
317.133	1031
317.222	822
317.311	1295
317.400	-181
317.490	1838
317.579	1563
317.668	1392
317.757	2185
317.847	2732
317.936	3485
318.025	3644
318.114	1790
318.203	1132
318.293	3276
318.382	5260
318.471	4668
318.560	8209
318.649	14616
318.738	2507
318.828	1926
318.917	2011
319.006	3447
319.095	8750
319.184	20467
319.273	8941
319.362	4281
319.451	1856
319.540	1533
319.629	3943
319.718	5056
319.807	1927
319.896	7816
319.985	22769
320.074	5597
320.163	1751
320.252	3075
320.341	3786
320.430	2815
320.519	3113
320.608	1181
320.697	1787
320.786	1196
320.875	2483
320.964	2757
321.053	3420
321.142	5669
321.230	5674
321.319	4726
321.408	9603
321.497	4199
321.586	4084
321.675	5525
321.764	4832
321.852	3164
321.941	6339
322.030	4001
322.119	5381
322.207	11437
322.296	7085
322.385	3275
322.474	5328
322.562	12436
322.651	5154
322.740	6036
322.829	7512
322.917	6857
323.006	3466
323.095	3621
323.183	2873
323.272	3987
323.361	9686
323.449	20390
323.538	6570
323.626	16361
323.715	7133
323.804	4591
323.892	13864
323.981	5732
324.069	2905
324.158	8667
324.246	5664
324.335	2709
324.424	3377
324.512	1598
324.601	2433
324.689	2451
324.778	3488
324.866	4746
324.954	1472
325.043	2246
325.131	2968
325.220	7420
325.308	6049
325.397	4898
325.485	2269
325.574	1832
325.662	523
325.750	1154
325.839	1915
325.927	1742
326.015	1798
326.104	2760
326.192	2054
326.280	1109
326.369	1572
326.457	1981
326.545	3146
326.634	1387
326.722	1414
326.810	1680
326.898	1837
326.987	1869
327.075	2096
327.163	3643
327.251	2007
327.340	1979
327.428	1295
327.516	1222
327.604	1349
327.692	1046
327.781	2167
327.869	3138
327.957	1298
328.045	1428
328.133	964
328.221	1238
328.309	1006
328.397	976
328.485	2033
328.574	2588
328.662	6599
328.750	2811
328.838	1264
328.926	1316
329.014	486
329.102	2501
329.190	4786
329.278	2782
329.366	60
329.454	750
329.542	878
329.630	380
329.718	711
329.806	1608
329.893	1678
329.981	-54
330.069	1424
330.157	5943
330.245	16214
330.333	6591
330.421	1081
330.509	2613
330.597	8855
330.684	3841
330.772	1494
330.860	3102
330.948	3861
331.036	1148
331.123	274
331.211	1263
331.299	1287
331.387	4889
331.475	5774
331.562	1543
331.650	1015
331.738	1635
331.825	1114
331.913	1518
332.001	702
332.089	1368
332.176	3092
332.264	7772
332.352	3206
332.439	1108
332.527	1176
332.614	639
332.702	1827
332.790	1774
332.877	3278
332.965	5221
333.052	1256
333.140	1711
333.228	3257
333.315	1172
333.403	1225
333.490	3903
333.578	2774
333.665	3268
333.753	1913
333.840	958
333.928	1543
334.015	5351
334.103	10218
334.190	22413
334.278	3988
334.365	2357
334.452	1436
334.540	1462
334.627	1353
334.715	2205
334.802	5533
334.889	27131
334.977	17644
335.064	2148
335.151	1370
335.239	2637
335.326	2420
335.413	15883
335.501	13624
335.588	2216
335.675	964
335.762	1825
335.850	3779
335.937	1907
336.024	8496
336.111	25203
336.199	7741
336.286	902
336.373	623
336.460	903
336.547	750
336.635	1548
336.722	513
336.809	429
336.896	1607
336.983	8888
337.070	19903
337.157	25502
337.245	17954
337.332	8232
337.419	1223
337.506	1711
337.593	1173
337.680	8310
337.767	17157
337.854	4298
337.941	5135
338.028	5135
338.115	958
338.202	3575
338.289	5910
338.376	15685
338.463	4166
338.550	12058
338.637	8620
338.724	3990
338.811	5835
338.898	1574
338.984	900
339.071	1728
339.158	3346
339.245	4398
339.332	2573
339.419	3988
339.506	2661
339.593	354
339.679	1278
339.766	1436
339.853	1135
339.940	3163
340.027	1112
340.113	1155
340.200	1687
340.287	1608
340.374	1509
340.460	2731
340.547	227
340.634	2173
340.720	8415
340.807	2411
340.894	330
340.980	908
341.067	396
341.154	1445
341.240	899
341.327	3513
341.414	1543
341.500	1552
341.587	1558
341.674	1592
341.760	2645
341.847	2878
341.933	1102
342.020	783
342.106	130
342.193	953
342.279	1484
342.366	1125
342.452	1679
342.539	1281
342.625	4134
342.712	6997
342.798	2409
342.885	1020
342.971	-199
343.058	586
343.144	-289
343.230	960
343.317	44
343.403	502
343.490	-241
343.576	756
343.662	167
343.749	2049
343.835	2176
343.921	3301
344.008	21504
344.094	33896
344.180	6807
344.267	3040
344.353	12434
344.439	9406
344.525	3073
344.612	3173
344.698	2604
344.784	817
344.870	856
344.957	784
345.043	1733
345.129	568
345.215	2400
345.301	1322
345.387	601
345.474	-385
345.560	639
345.646	533
345.732	772
345.818	787
345.904	839
345.990	705
346.076	802
346.162	2101
346.249	1090
346.335	1006
346.421	1189
346.507	5738
346.593	14660
346.679	1885
346.765	1349
346.851	-161
346.937	-216
347.023	755
347.108	1066
347.194	456
347.280	987
347.366	832
347.452	6557
347.538	17789
347.624	14487
347.710	10335
347.796	1096
347.882	1432
347.967	885
348.053	1265
348.139	83
348.225	243
348.311	470
348.397	405
348.482	1576
348.568	1131
348.654	-651
348.740	-1006
348.825	-1075
348.911	2751
348.997	11057
349.083	15193
349.168	1690
349.254	907
349.340	1341
349.425	903
349.511	867
349.597	1833
349.682	3657
349.768	11364
349.854	3114
349.939	1684
350.025	605
350.110	981
350.196	233
350.282	-547
350.367	1005
350.453	1764
350.538	1082
350.624	251
350.709	956
350.795	195
350.880	703
350.966	1919
351.051	1443
351.137	873
351.222	714
351.308	4426
351.393	9572
351.479	1301
351.564	386
351.649	952
351.735	-279
351.820	676
351.906	1283
351.991	1962
352.076	6143
352.162	8099
352.247	766
352.332	906
352.418	1519
352.503	3501
352.588	16556
352.673	7810
352.759	1906
352.844	750
352.929	1076
353.014	1409
353.100	2287
353.185	4404
353.270	3293
353.355	2672
353.441	764
353.526	889
353.611	2232
353.696	2219
353.781	1903
353.866	-326
353.952	1101
354.037	2659
354.122	5236
354.207	3992
354.292	1720
354.377	956
354.462	710
354.547	1080
354.632	1529
354.717	3995
354.802	5038
354.887	1332
354.972	637
355.057	1203
355.142	630
355.227	1722
355.312	1200
355.397	3849
355.482	8830
355.567	3486
355.652	4012
355.737	4081
355.822	12722
355.907	7725
355.991	2448
356.076	416
356.161	-99
356.246	1331
356.331	1436
356.416	2467
356.501	23611
356.585	17504
356.670	1314
356.755	3126
356.840	3266
356.924	20494
357.009	47290
357.094	13320
357.179	3493
357.263	2098
357.348	2810
357.433	1901
357.517	2251
357.602	1880
357.687	1806
357.771	4088
357.856	7617
357.941	5109
358.025	14858
358.110	44772
358.195	15730
358.279	1957
358.364	2278
358.448	9935
358.533	23355
358.617	15990
358.702	15884
358.787	4297
358.871	2604
358.956	2183
359.040	625
359.125	-59
359.209	1042
359.294	4161
359.378	4715
359.462	2487
359.547	1969
359.631	344
359.716	-483
359.800	1400
359.885	1728
359.969	-44
360.053	2513
360.138	2344
360.222	1080
360.306	2656
360.391	1680
360.475	4499
360.559	8189
360.644	8095
360.728	4610
360.812	15894
360.896	28648
360.981	10878
361.065	4819
361.149	2035
361.233	1780
361.318	738
361.402	444
361.486	1378
361.570	390
361.654	1386
361.739	4088
361.823	21578
361.907	26493
361.991	3565
362.075	2370
362.159	4144
362.243	3628
362.327	1760
362.411	4343
362.495	1474
362.580	811
362.664	1138
362.748	-107
362.832	131
362.916	-139
363.000	6064
363.084	23434
363.168	28768
363.252	5485
363.336	2825
363.420	5232
363.503	20273
363.587	18386
363.671	3323
363.755	743
363.839	3788
363.923	-22
364.007	2916
364.091	3291
364.175	7045
364.258	29657
364.342	11027
364.426	8343
364.510	3924
364.594	4499
364.677	7687
364.761	26483
364.845	15272
364.929	4317
365.013	3846
365.096	2975
365.180	3392
365.264	10568
365.347	29661
365.431	9319
365.515	1796
365.598	886
365.682	1847
365.766	1985
365.849	2462
365.933	359
366.017	2302
366.100	1441
366.184	-133
366.267	1580
366.351	1394
366.435	672
366.518	99
366.602	371
366.685	972
366.769	570
366.852	2010
366.936	3847
367.019	1434
367.103	1282
367.186	3965
367.270	463
367.353	-277
367.436	1039
367.520	-91
367.603	911
367.687	885
367.770	2290
367.853	2706
367.937	9965
368.020	11435
368.104	1266
368.187	3374
368.270	3837
368.353	2950
368.437	4631
368.520	11055
368.603	5953
368.687	9536
368.770	14945
368.853	2623
368.936	3692
369.020	4441
369.103	55
369.186	1008
369.269	586
369.352	2855
369.436	3002
369.519	1961
369.602	-891
369.685	1986
369.768	900
369.851	1174
369.934	156
370.018	-62
370.101	2164
370.184	3331
370.267	1631
370.350	3147
370.433	4879
370.516	15720
370.599	13926
370.682	3515
370.765	9346
370.848	13793
370.931	19618
371.014	7891
371.097	-527
371.180	1321
371.263	926
371.346	-490
371.429	864
371.511	733
371.594	1503
371.677	4164
371.760	4842
371.843	3481
371.926	20314
372.009	34778
372.091	12223
372.174	9742
372.257	20268
372.340	6132
372.423	5111
372.505	6673
372.588	2178
372.671	8868
372.754	20561
372.836	10084
372.919	10706
373.002	15960
373.085	2855
373.167	4164
373.250	9133
373.332	20792
373.415	31577
373.498	47647
373.580	15967
373.663	25377
373.746	26750
373.828	5637
373.911	2998
373.993	5301
374.076	17670
374.159	12520
374.241	7339
374.324	17358
374.406	11026
374.489	20426
374.571	42142
374.654	14493
374.736	10072
374.819	28966
374.901	40671
374.983	34057
375.066	5759
375.148	3312
375.231	17101
375.313	24767
375.395	6589
375.478	1501
375.560	1077
375.643	1629
375.725	11441
375.807	33446
375.890	24081
375.972	8275
376.054	6328
376.136	8225
376.219	4174
376.301	12914
376.383	26872
376.465	8588
376.548	4832
376.630	9735
376.712	24696
376.794	8490
376.877	1035
376.959	316
377.041	1022
377.123	3587
377.205	3597
377.287	-417
377.369	784
377.452	849
377.534	196
377.616	-558
377.698	-56
377.780	-423
377.862	1140
377.944	1865
378.026	-15
378.108	847
378.190	-293
378.272	515
378.354	-628
378.436	604
378.518	1028
378.600	5961
378.682	5592
378.764	12987
378.846	8416
378.928	2493
379.010	2231
379.091	2494
379.173	789
379.255	121
379.337	1075
379.419	6817
379.501	17971
379.583	5760
379.664	1114
379.746	3980
379.828	13626
379.910	16498
379.991	13104
380.073	1191
380.155	647
380.237	704
380.318	-145
380.400	210
380.482	2510
380.564	4128
380.645	3889
380.727	3700
380.809	1780
380.890	841
380.972	-404
381.053	1129
381.135	1471
381.217	3867
381.298	12788
381.380	5186
381.461	6617
381.543	26004
381.624	25172
381.706	4195
381.787	2042
381.869	3594
381.951	14175
382.032	39259
382.113	22584
382.195	2988
382.276	4504
382.358	11242
382.439	23445
382.521	27605
382.602	36182
382.684	16901
382.765	28604
382.846	25000
382.928	27450
383.009	12320
383.090	11849
383.172	43774
383.253	57926
383.334	25113
383.416	32180
383.497	14991
383.578	5378
383.659	11157
383.741	41388
383.822	90950
383.903	39722
383.984	21938
384.066	40055
384.147	20201
384.228	4179
384.309	1738
384.390	1348
384.471	815
384.553	1293
384.634	1943
384.715	2713
384.796	1369
384.877	2943
384.958	12165
385.039	12008
385.120	3567
385.201	2470
385.282	1902
385.363	2477
385.444	1294
385.525	5983
385.606	17837
385.687	13023
385.768	3329
385.849	3925
385.930	22628
386.011	30947
386.092	5988
386.173	405
386.254	1073
386.335	2125
386.416	3608
386.496	8436
386.577	11475
386.658	3410
386.739	1855
386.820	2553
386.901	697
386.981	1221
387.062	685
387.143	2892
387.224	11065
387.304	9581
387.385	2999
387.466	567
387.547	2755
387.627	642
387.708	6200
387.789	25224
387.869	25116
387.950	6687
388.031	-269
388.111	-427
388.192	4302
388.273	6661
388.353	2675
388.434	1524
388.514	6438
388.595	23454
388.676	24688
388.756	11178
388.837	10707
388.917	5099
388.998	353
389.078	2276
389.159	1118
389.239	-270
389.320	2851
389.400	-557
389.480	6642
389.561	13335
389.641	6407
389.722	2177
389.802	3450
389.883	7037
389.963	17682
390.043	9164
390.124	2577
390.204	4734
390.284	12686
390.365	7177
390.445	12757
390.525	23630
390.605	17240
390.686	4737
390.766	1532
390.846	1435
390.927	114
391.007	-257
391.087	1770
391.167	81
391.247	-149
391.328	2554
391.408	4061
391.488	1855
391.568	-1204
391.648	1422
391.728	1982
391.808	1938
391.888	2371
391.969	8144
392.049	10611
392.129	4374
392.209	6702
392.289	16424
392.369	8006
392.449	6896
392.529	3259
392.609	2601
392.689	5716
392.769	14913
392.849	11124
392.929	10001
393.009	20345
393.089	10464
393.169	4665
393.248	19054
393.328	86405
393.408	79277
393.488	13018
393.568	2944
393.648	1632
393.728	516
393.807	362
393.887	1513
393.967	1119
394.047	1715
394.127	2339
394.206	7402
394.286	36400
394.366	118151
394.446	103363
394.525	22192
394.605	6038
394.685	5489
394.764	12747
394.844	16620
394.924	10005
395.003	2409
395.083	2478
395.163	1844
395.242	795
395.322	1575
395.402	-148
395.481	3534
395.561	8117
395.640	19201
395.720	14694
395.799	23185
395.879	15961
395.958	11439
396.038	52594
396.117	153748
396.197	136936
396.276	40182
396.356	11490
396.435	8080
396.515	4562
396.594	3622
396.673	6329
396.753	27692
396.832	80211
396.912	55275
396.991	11427
397.070	2601
397.150	79
397.229	1603
397.308	1199
397.388	1731
397.467	1257
397.546	420
397.625	-701
397.705	2327
397.784	812
397.863	43
397.942	-396
398.022	986
398.101	7957
398.180	19310
398.259	8075
398.338	2396
398.417	532
398.497	-384
398.576	1470
398.655	-1116
398.734	1142
398.813	1134
398.892	8339
398.971	21630
399.050	7917
399.129	-536
399.208	879
399.287	615
399.366	-37
399.445	126
399.524	377
399.603	-1002
399.682	1538
399.761	7122
399.840	24701
399.919	15166
399.998	1048
400.077	-745
400.156	-1079
400.235	1761
400.313	57
400.392	330
400.471	7509
400.550	9560
400.629	1210
400.708	592
400.786	320
400.865	3569
400.944	4052
401.023	2740
401.102	-404
401.180	-265
401.259	-131
401.338	397
401.416	1185
401.495	-217
401.574	900
401.652	-518
401.731	2303
401.810	120
401.888	98
401.967	-1265
402.046	523
402.124	-71
402.203	-431
402.281	1085
402.360	2159
402.438	6491
402.517	2233
402.596	505
402.674	743
402.753	238
402.831	194
402.910	2187
402.988	10306
403.066	29521
403.145	15915
403.223	11704
403.302	25778
403.380	21417
403.459	20705
403.537	6362
403.615	2197
403.694	-1024
403.772	804
403.850	-569
403.929	-561
404.007	-6
404.085	4215
404.164	2354
404.242	483
404.320	5714
404.398	17143
404.477	18261
404.555	35674
404.633	26184
404.711	11585
404.789	6703
404.868	1563
404.946	-320
405.024	-420
405.102	-456
405.180	-670
405.258	-960
405.336	627
405.415	-227
405.493	2479
405.571	2688
405.649	-188
405.727	-1472
405.805	1711
405.883	489
405.961	338
406.039	187
406.117	-1258
406.195	1454
406.273	8009
406.351	27233
406.429	15045
406.507	2223
406.585	-448
406.663	299
406.740	152
406.818	45
406.896	-453
406.974	1432
407.052	2892
407.130	16349
407.208	20764
407.285	3609
407.363	-452
407.441	-353
407.519	-258
407.596	153
407.674	1475
407.752	4504
407.830	5312
407.907	3286
407.985	151
408.063	1107
408.141	868
408.218	1408
408.296	580
408.373	924
408.451	330
408.529	-727
408.606	-525
408.684	-952
408.762	-1518
408.839	-844
408.917	-749
408.994	-1185
409.072	-602
409.149	-359
409.227	444
409.304	-877
409.382	-589
409.459	-1542
409.537	68
409.614	-309
409.692	-1008
409.769	-931
409.846	-725
409.924	1093
410.001	-2150
410.079	-48
410.156	-21
410.233	-115
410.311	-568
410.388	-762
410.465	-300
410.543	-823
410.620	-226
410.697	-803
410.775	-647
410.852	-1550
410.929	-12
411.006	-71
411.083	-933
411.161	286
411.238	1088
411.315	86
411.392	-1093
411.469	527
411.547	-233
411.624	-2323
411.701	-730
411.778	-283
411.855	651
411.932	-503
412.009	-543
412.086	-333
412.163	154
412.240	-423
412.317	239
412.394	-525
412.471	41
412.548	-960
412.625	-266
412.702	-390
412.779	-32
412.856	152
412.933	-840
413.010	-275
413.087	1086
413.164	5593
413.241	7184
413.318	502
413.395	564
413.471	656
413.548	-825
413.625	-21
413.702	-511
413.779	-878
413.855	-432
413.932	-1558
414.009	-1477
414.086	-1045
414.162	-475
414.239	867
414.316	5708
414.393	12299
414.469	2079
414.546	-740
414.623	-233
414.699	-987
414.776	-457
414.853	-821
414.929	150
415.006	-510
415.082	-286
415.159	-342
415.236	-196
415.312	413
415.389	342
415.465	635
415.542	122
415.618	-1025
415.695	548
415.771	-1241
415.848	-584
415.924	-342
416.000	-1196
416.077	36
416.153	-1367
416.230	-1416
416.306	-1405
416.383	-1294
416.459	-70
416.535	-796
416.612	-390
416.688	-817
416.764	-564
416.841	-1402
416.917	-733
416.993	-649
417.069	-583
417.146	445
417.222	1276
417.298	-19
417.374	-774
417.451	-647
417.527	-526
417.603	-382
417.679	-688
417.755	-126
417.831	-1106
417.908	-1234
417.984	-808
418.060	-1935
418.136	591
418.212	-245
418.288	507
418.364	-347
418.440	-1353
418.516	696
418.592	673
418.668	1697
418.744	3046
418.820	1460
418.896	42
418.972	-1602
419.048	-630
419.124	2071
419.200	-578
419.276	-1206
419.352	-998
419.428	-414
419.504	-671
419.579	-652
419.655	-585
419.731	-251
419.807	2088
419.883	3531
419.959	2147
420.034	180
420.110	2447
420.186	7859
420.262	4995
420.337	-226
420.413	-1
420.489	-325
420.565	104
420.640	-736
420.716	-969
420.792	-2019
420.867	237
420.943	-1072
421.019	-532
421.094	-734
421.170	-444
421.245	-1848
421.321	-604
421.397	-1116
421.472	749
421.548	420
421.623	1287
421.699	48
421.774	151
421.850	-434
421.925	560
422.001	-255
422.076	35
422.152	-808
422.227	653
422.302	669
422.378	1275
422.453	2699
422.529	11736
422.604	52287
422.679	98774
422.755	47955
422.830	9733
422.905	2490
422.981	161
423.056	-250
423.131	-242
423.207	-856
423.282	12
423.357	1681
423.432	822
423.508	1567
423.583	3027
423.658	976
423.733	-156
423.808	52
423.883	1071
423.959	658
424.034	170
424.109	208
424.184	-642
424.259	-690
424.334	-296
424.409	-705
424.484	-697
424.559	-1238
424.634	-563
424.709	-511
424.784	277
424.859	-389
424.934	205
425.009	4907
425.084	8405
425.159	1967
425.234	-315
425.309	-1026
425.384	1620
425.459	1883
425.534	134
425.609	-150
425.683	-341
425.758	-673
425.833	13
425.908	274
425.983	2603
426.058	9075
426.132	3062
426.207	256
426.282	2189
426.357	-166
426.431	-394
426.506	-532
426.581	-1097
426.655	-16
426.730	-87
426.805	-1410
426.879	147
426.954	-747
427.029	1450
427.103	10822
427.178	23215
427.253	9270
427.327	721
427.402	509
427.476	3626
427.551	1093
427.625	85
427.700	-434
427.774	-431
427.849	-303
427.923	-1695
427.998	-960
428.072	-337
428.147	723
428.221	4128
428.296	9134
428.370	3956
428.444	429
428.519	1432
428.593	4200
428.667	3855
428.742	4265
428.816	3261
428.890	9394
428.965	11346
429.039	5318
429.113	5039
429.188	856
429.262	69
429.336	1300
429.410	4479
429.485	2400
429.559	3830
429.633	1655
429.707	129
429.781	1778
429.855	11581
429.930	14859
430.004	13956
430.078	21413
430.152	15637
430.226	14628
430.300	14141
430.374	965
430.448	1200
430.522	8313
430.596	20568
430.670	11809
430.744	19180
430.818	26348
430.892	4656
430.966	-521
431.040	-136
431.114	-1819
431.188	-1603
431.262	-692
431.336	-574
431.410	2272
431.484	4857
431.557	2582
431.631	-77
431.705	-1460
431.779	1069
431.853	6962
431.927	4487
432.000	142
432.074	-253
432.148	-596
432.222	-766
432.295	-331
432.369	-256
432.443	320
432.516	11476
432.590	24303
432.664	8523
432.737	-595
432.811	-1145
432.885	-1430
432.958	-428
433.032	-1067
433.106	-756
433.179	-420
433.253	-704
433.326	-861
433.400	-614
433.473	-1313
433.547	-988
433.620	-1145
433.694	-330
433.767	141
433.841	-943
433.914	-1088
433.988	-1385
434.061	-802
434.134	-28
434.208	-1113
434.281	-774
434.355	-2033
434.428	-487
434.501	-869
434.575	-408
434.648	-872
434.721	-613
434.795	-908
434.868	-512
434.941	-1331
435.014	-1061
435.088	-1331
435.161	-976
435.234	-99
435.307	0
435.381	-865
435.454	-217
435.527	-308
435.600	-873
435.673	-275
435.746	-935
435.819	-534
435.892	-1453
435.966	103
436.039	-89
436.112	-137
436.185	-1110
436.258	-1105
436.331	-1499
436.404	-754
436.477	-1931
436.550	-912
436.623	-10
436.696	-1067
436.769	-482
436.842	-1258
436.915	-684
436.987	-729
437.060	-817
437.133	-1318
437.206	-1421
437.279	-436
437.352	-868
437.425	-921
437.498	-757
437.570	652
437.643	590
437.716	-788
437.789	-654
437.861	-348
437.934	1397
438.007	144
438.080	-425
438.152	-973
438.225	1471
438.298	16130
438.370	37947
438.443	14396
438.516	2656
438.588	-635
438.661	-1060
438.734	-1148
438.806	77
438.879	-287
438.951	-547
439.024	774
439.096	-22
439.169	-1110
439.241	-774
439.314	-1815
439.386	-1
439.459	604
439.531	1474
439.604	-632
439.676	-1350
439.749	-1428
439.821	-1220
439.893	-845
439.966	-369
440.038	-587
440.110	309
440.183	-1820
440.255	-1357
440.327	320
440.400	7647
440.472	24973
440.544	15012
440.617	843
440.689	842
440.761	1799
440.833	955
440.905	899
440.978	-1276
441.050	-1256
441.122	-96
441.194	-539
441.266	-69
441.338	-1232
441.411	333
441.483	7855
441.555	10464
441.627	1417
441.699	651
441.771	-283
441.843	-709
441.915	-985
441.987	-224
442.059	-972
442.131	-157
442.203	-48
442.275	-8
442.347	373
442.419	63
442.491	2305
442.563	6890
442.635	4653
442.706	6114
442.778	6011
442.850	-166
442.922	-1066
442.994	11
443.066	244
443.137	81
443.209	-456
443.281	-337
443.353	1105
443.425	5065
443.496	14860
443.568	13928
443.640	3793
443.711	459
443.783	-90
443.855	-909
443.926	-542
443.998	-30
444.070	615
444.141	464
444.213	304
444.285	358
444.356	209
444.428	790
444.499	-314
444.571	-1087
444.642	-414
444.714	-876
444.785	93
444.857	1604
444.928	4978
445.000	3346
445.071	3041
445.143	4458
445.214	2206
445.285	2706
445.357	8348
445.428	16227
445.500	31215
445.571	21269
445.642	9426
445.714	6595
445.785	9444
445.856	2910
445.928	953
445.999	251
446.070	-212
446.141	863
446.213	1988
446.284	387
446.355	726
446.426	283
446.497	-394
446.569	884
446.640	1757
446.711	1543
446.782	-324
446.853	634
446.924	706
446.995	438
447.066	607
447.138	2658
447.209	771
447.280	-525
447.351	-527
447.422	-989
447.493	-474
447.564	658
447.635	0
447.706	-659
447.777	-123
447.847	-714
447.918	-1559
447.989	360
448.060	1905
448.131	3671
448.202	4284
448.273	2194
448.344	1070
448.414	-10
448.485	-109
448.556	-1123
448.627	-559
448.698	233
448.768	-889
448.839	133
448.910	729
448.981	2297
449.051	379
449.122	32
449.193	-753
449.263	310
449.334	-513
449.405	-3
449.475	1614
449.546	1164
449.616	2133
449.687	2741
449.758	1308
449.828	80
449.899	-861
449.969	-535
450.040	-537
450.110	124
450.181	319
450.251	529
450.322	-844
450.392	349
450.463	558
450.533	-237
450.604	-484
450.674	42
450.744	186
450.815	-312
450.885	127
450.955	173
451.026	-864
451.096	-548
451.166	-186
451.237	2428
451.307	7650
451.377	4704
451.447	-692
451.518	-386
451.588	-483
451.658	996
451.728	1702
451.799	9079
451.869	11354
451.939	2865
452.009	129
452.079	260
452.149	391
452.219	2575
452.289	10123
452.360	10425
452.430	1007
452.500	1030
452.570	146
452.640	1592
452.710	4551
452.780	9987
452.850	6122
452.920	3893
452.990	1400
453.060	1225
453.129	321
453.199	1753
453.269	11352
453.339	27823
453.409	44338
453.479	39346
453.549	60778
453.619	65199
453.688	32716
453.758	5477
453.828	1267
453.898	595
453.968	594
454.037	1654
454.087	570
454.107	94
454.168	204
454.177	177
454.247	467
454.249	504
454.316	607
454.330	743
454.386	831
454.411	2268
454.456	4169
454.492	6762
454.525	9121
454.574	5452
454.595	3923
454.655	1417
454.665	1038
454.734	2116
454.736	2286
454.804	4689
454.817	6254
454.873	10952
454.898	12088
454.943	13993
454.979	9251
455.013	5416
455.060	3754
455.082	3236
455.141	4997
455.152	5125
455.221	10928
455.222	11200
455.291	18096
455.303	18042
455.360	18228
455.384	21175
455.430	24770
455.465	21386
455.499	18222
455.546	15059
455.569	12923
455.627	9090
455.638	8718
455.707	1799
455.708	1825
455.777	1395
455.789	1449
455.846	1680
455.869	1507
455.916	1121
455.950	1187
455.985	1221
456.031	1256
456.054	1152
456.112	1061
456.124	1131
456.193	1677
456.193	1649
456.262	1854
456.274	2105
456.332	3149
456.355	3255
456.401	2645
456.436	1860
456.470	1461
456.516	1426
456.540	1331
456.597	847
456.609	738
456.678	1476
456.678	1462
456.747	1152
456.759	1056
456.817	782
456.840	841
456.886	774
456.920	962
456.955	1299
457.001	1751
457.024	2066
457.082	2607
457.093	2721
457.162	3782
457.163	3823
457.232	3338
457.243	3126
457.301	2560
457.324	2235
457.370	2446
457.405	3007
457.439	3896
457.485	4993
457.508	5024
457.566	5447
457.577	5063
457.646	3618
457.647	3610
457.715	2269
457.727	2258
457.784	2838
457.808	2850
457.853	2669
457.889	3067
457.922	3373
457.969	3386
457.991	3305
458.050	2706
458.060	2731
458.129	3874
458.130	3925
458.198	4186
458.211	3956
458.267	2678
458.292	2524
458.336	3017
458.372	2622
458.405	2263
458.453	2986
458.474	3275
458.533	4454
458.543	4586
458.611	5568
458.614	5616
458.680	4413
458.694	3748
458.749	2751
458.775	2661
458.818	2397
458.855	2701
458.887	3191
458.936	3049
458.955	2974
459.016	3485
459.024	3424
459.093	3840
459.097	3830
459.162	3117
459.177	2969
459.230	3444
459.257	3981
459.299	4254
459.338	3926
459.368	3751
459.418	4070
459.437	3926
459.499	3136
459.505	3166
459.574	3250
459.579	3278
459.643	2432
459.659	2248
459.711	2880
459.740	3329
459.780	3470
459.820	3696
459.849	4002
459.900	4600
459.917	4564
459.981	4304
459.986	4329
460.054	4286
460.061	4375
460.123	6238
460.141	6717
460.191	9142
460.222	10699
460.260	9454
460.302	8405
460.328	8197
460.382	6904
460.397	6637
460.462	5143
460.465	5138
460.534	6533
460.543	6627
460.602	9855
460.623	11389
460.671	17374
460.703	22679
460.739	19263
460.783	13161
460.808	12224
460.864	6432
460.876	5829
460.944	5073
460.945	5046
461.013	4222
461.024	4184
461.081	4452
461.104	4424
461.150	4262
461.184	4046
461.218	3940
461.264	3755
461.286	3844
461.345	4331
461.355	4340
461.423	4435
461.425	4439
461.491	5975
461.505	6304
461.559	12890
461.585	16125
461.628	24955
461.665	33208
461.696	32416
461.745	32769
461.764	28091
461.825	9013
461.832	8922
461.901	5571
461.905	5569
461.969	5225
461.985	5190
462.037	5600
462.065	5747
462.105	7658
462.145	9923
462.173	12840
462.225	18185
462.241	19682
462.305	26455
462.310	25516
462.378	10708
462.385	8783
462.446	6878
462.465	6307
462.514	6146
462.545	6900
462.582	8611
462.625	10265
462.650	8921
462.705	6197
462.718	6592
462.785	8077
462.786	8128
462.854	11315
462.865	11881
462.922	13513
462.945	14286
462.990	10123
463.025	6095
463.058	5798
463.104	5382
463.126	5404
463.184	6136
463.194	6886
463.262	12056
463.264	12237
463.330	19319
463.344	20811
463.398	18826
463.424	17911
463.466	12745
463.504	7736
463.533	7684
463.583	7554
463.601	7795
463.663	8651
463.669	9048
463.737	13670
463.743	14085
463.805	22305
463.823	24765
463.873	37482
463.903	45393
463.940	43082
463.982	40838
464.008	32487
464.062	13335
464.076	12612
464.142	7588
464.144	7562
464.211	7848
464.221	7929
464.279	8542
464.301	8748
464.347	10445
464.381	11868
464.414	13614
464.461	15858
464.482	14920
464.540	12585
464.550	12102
464.617	8240
464.620	8088
464.685	9637
464.699	10053
464.753	11260
464.779	11813
464.820	13325
464.859	14836
464.888	14520
464.938	13693
464.956	13806
465.018	14196
465.023	13987
465.091	10919
465.098	10577
465.158	11022
465.177	11225
465.226	10970
465.257	10698
465.293	11666
465.336	12764
465.361	13584
465.416	15565
465.428	17400
465.495	27011
465.496	27142
465.563	40799
465.575	43134
465.631	47044
465.654	48891
465.698	30323
465.734	14015
465.765	13247
465.813	11769
465.833	11299
465.893	10731
465.900	10735
465.968	10608
465.972	10583
466.035	9348
466.052	8992
466.102	9780
466.131	10206
466.170	10078
466.210	9920
466.237	10384
466.290	11245
466.304	11103
466.369	10340
466.372	10400
466.439	11686
466.449	11853
466.506	14045
466.528	14830
466.573	24306
466.607	31368
466.641	42592
466.687	58173
466.708	60150
466.766	65457
466.775	59929
466.842	17372
466.845	15317
466.909	12829
466.925	12302
466.977	11704
467.004	11441
467.044	12578
467.083	13679
467.111	14860
467.163	17011
467.178	17325
467.242	18485
467.245	18426
467.312	16552
467.321	16276
467.379	17786
467.400	18289
467.446	20044
467.480	21248
467.559	16275
467.638	14388
467.717	16306
467.796	16404
467.875	18304
467.955	18313
468.034	36320
468.113	68362
468.192	88673
468.271	24458
468.350	24600
468.429	16464
468.508	17785
468.588	26899
468.667	61297
468.746	115643
468.825	67684
468.904	17750
468.983	19265
469.062	27890
469.141	31206
469.220	12927
469.299	13388
469.378	14503
469.456	19344
469.535	15035
469.614	16094
469.693	17897
469.772	22980
469.851	31698
469.930	17730
470.009	14458
470.088	15024
470.166	15113
470.245	19837
470.324	19205
470.403	15029
470.482	13086
470.560	14171
470.639	15217
470.718	19258
470.797	21932
470.875	45898
470.954	85182
471.033	63036
471.111	15195
471.190	17643
471.269	11797
471.347	13807
471.426	12019
471.505	15439
471.583	14786
471.662	17121
471.740	17644
471.819	18094
471.898	20257
471.976	13103
472.055	12197
472.133	15592
472.212	19297
472.290	19868
472.369	11690
472.447	11392
472.526	9857
472.604	12263
472.683	12528
472.761	12210
472.839	11847
472.918	11853
472.996	12613
473.075	18706
473.153	22260
473.231	24474
473.310	16421
473.388	14018
473.466	13529
473.545	15518
473.623	18012
473.701	17583
473.780	24943
473.858	46707
473.936	72558
474.014	16721
474.093	14848
474.171	23079
474.249	32719
474.327	15453
474.405	9664
474.484	10401
474.562	9822
474.640	11423
474.718	11611
474.796	10857
474.874	10285
474.952	10219
475.030	10587
475.108	11026
475.187	11929
475.265	16211
475.343	19008
475.421	20246
475.499	11359
475.577	13297
475.655	20703
475.733	40948
475.811	63687
475.889	57199
475.966	24876
476.044	12825
476.122	18255
476.200	24740
476.278	20823
476.356	11771
476.434	12858
476.512	16455
476.590	19748
476.667	16064
476.745	10642
476.823	11923
476.901	13056
476.979	15078
477.056	18688
477.134	37695
477.212	59724
477.290	16733
477.367	10721
477.445	10447
477.523	9990
477.601	10588
477.678	10832
477.756	15632
477.834	14496
477.911	10492
477.989	11640
478.066	11146
478.144	13548
478.222	16742
478.299	24425
478.377	22700
478.454	21431
478.532	13167
478.609	10314
478.687	12374
478.764	13691
478.842	21759
478.919	13594
478.997	10017
479.074	10010
479.152	14145
479.229	17857
479.307	11279
479.384	8915
479.461	10722
479.539	11470
479.616	12850
479.694	9630
479.771	12844
479.848	13396
479.926	19422
480.003	16993
480.080	10368
480.157	9499
480.235	9352
480.312	10814
480.389	15985
480.467	28704
480.544	38915
480.621	18796
480.698	12916
480.775	14229
480.853	19391
480.930	20168
481.007	12533
481.084	13490
481.161	14607
481.238	13177
481.315	12729
481.392	22806
481.470	47976
481.547	59180
481.624	14708
481.701	9795
481.778	11090
481.855	13469
481.932	22713
482.009	35454
482.086	16696
482.163	11314
482.240	18985
482.317	34729
482.393	31158
482.470	14198
482.547	10835
482.624	10376
482.701	16346
482.778	21165
482.855	10553
482.932	8654
483.009	9499
483.085	9413
483.162	10701
483.239	10269
483.316	8970
483.393	8027
483.469	10096
483.546	11873
483.623	13298
483.699	10358
483.776	15633
483.853	23181
483.930	27749
484.006	58301
484.083	85240
484.160	34261
484.236	49248
484.313	33948
484.389	28504
484.466	25602
484.543	25039
484.619	25816
484.696	27130
484.772	28860
484.849	31033
484.925	24356
485.002	29009
485.078	36852
485.155	33547
485.231	22507
485.308	22915
485.384	24670
485.461	35554
485.537	56105
485.614	53963
485.690	22132
485.766	22173
485.843	23028
485.919	29369
485.995	25944
486.072	21567
486.148	20860
486.224	20799
486.301	22316
486.377	25994
486.453	23685
486.530	30627
486.606	38692
486.682	37043
486.758	46557
486.835	49543
486.911	42428
486.987	70497
487.063	50541
487.139	54889
487.215	36958
487.292	23711
487.368	21504
487.444	23716
487.520	25619
487.596	21209
487.672	25303
487.748	32477
487.824	33451
487.900	22173
487.976	23217
488.052	28944
488.128	30382
488.204	24965
488.280	27418
488.356	42216
488.432	68524
488.508	83929
488.584	22463
488.660	19584
488.736	19582
488.812	22143
488.888	25371
488.964	34740
489.039	61729
489.115	77572
489.191	36592
489.267	24943
489.343	20603
489.418	19208
489.494	17196
489.570	16560
489.646	18086
489.722	18121
489.797	20135
489.873	39494
489.949	77036
490.024	42226
490.100	16389
490.176	18837
490.251	20503
490.327	23646
490.403	15063
490.478	16744
490.554	14381
490.629	14792
490.705	13554
490.781	18005
490.856	17140
490.932	18098
491.007	17317
491.083	17526
491.158	17249
491.234	28713
491.309	58136
491.385	42153
491.460	15595
491.536	17440
491.611	13569
491.686	16993
491.762	21473
491.837	40319
491.913	62627
491.988	86735
492.063	79492
492.139	35773
492.214	20479
492.289	13511
492.365	12306
492.440	16452
492.515	16022
492.590	15862
492.666	12998
492.741	21804
492.816	30681
492.891	13662
492.967	13138
493.042	12346
493.117	12612
493.192	14748
493.267	28328
493.342	68772
493.418	64159
493.493	13676
493.568	10192
493.643	12136
493.718	18277
493.793	25070
493.868	20902
493.943	13667
494.018	11205
494.093	11327
494.168	11499
494.243	10210
494.318	9578
494.393	10186
494.468	9257
494.543	11884
494.618	11342
494.693	10757
494.768	11632
494.842	12158
494.917	10492
494.992	10818
495.067	8573
495.142	9986
495.217	10240
495.292	11325
495.366	11973
495.441	14630
495.516	18552
495.591	29410
495.665	85667
495.740	151729
495.815	37538
495.890	15567
495.964	11793
496.039	16165
496.114	12293
496.188	14198
496.263	13130
496.338	14322
496.412	15688
496.487	17958
496.561	17217
496.636	16342
496.710	13317
496.785	17226
496.860	17828
496.934	12198
497.009	12685
497.083	12290
497.158	13533
497.232	18555
497.307	18829
497.381	15123
497.455	21306
497.530	28362
497.604	15540
497.679	20293
497.753	32480
497.827	32293
497.902	23119
497.976	39411
498.050	135614
498.125	400232
498.199	231943
498.273	32332
498.348	23401
498.422	20575
498.496	21796
498.570	18837
498.645	16953
498.719	18410
498.793	24773
498.867	43866
498.941	63237
499.016	200414
499.090	383089
499.164	63121
499.238	15043
499.312	16343
499.386	21178
499.460	23037
499.534	18514
499.609	25893
499.683	33905
499.757	34321
499.831	104674
499.905	310988
499.979	164623
500.053	41912
500.127	33952
500.201	21128
500.275	16654
500.349	15870
500.422	18914
500.496	29229
500.570	69355
500.644	190539
500.718	255045
500.792	30956
500.866	19511
500.940	27132
501.013	18197
501.087	20624
501.161	31749
501.235	48015
501.309	135704
501.382	305949
501.456	149627
501.530	57757
501.603	89824
501.677	22458
501.751	14198
501.825	22335
501.898	53742
501.972	123400
502.046	41234
502.119	21991
502.193	62699
502.266	123635
502.340	40450
502.413	70441
502.487	103064
502.561	48761
502.634	14181
502.708	14273
502.781	10377
502.855	10406
502.928	9864
503.002	11474
503.075	9880
503.149	12261
503.222	12099
503.295	13827
503.369	17615
503.442	33645
503.516	117138
503.589	215900
503.662	94869
503.736	46035
503.809	107491
503.882	66449
503.956	124381
504.029	60962
504.102	22289
504.175	19181
504.249	10722
504.322	16401
504.395	12474
504.468	11517
504.542	13259
504.615	17175
504.688	12672
504.761	7575
504.834	10931
504.907	12977
504.980	15896
505.053	10958
505.127	11695
505.200	17989
505.273	17402
505.346	10299
505.419	7815
505.492	9428
505.565	6628
505.638	7421
505.711	6856
505.784	8488
505.857	7948
505.930	10630
506.003	10831
506.076	13149
506.149	14558
506.221	14795
506.294	19601
506.367	65144
506.440	168212
506.513	53339
506.586	17651
506.659	9051
506.731	9120
506.804	12425
506.877	12720
506.950	12272
507.022	12838
507.095	13606
507.168	12163
507.241	8932
507.313	7876
507.386	10842
507.459	11505
507.531	7270
507.604	5795
507.677	9591
507.749	13588
507.822	24060
507.894	19084
507.967	22046
508.040	12249
508.112	12470
508.185	10153
508.257	9953
508.330	14627
508.402	11086
508.475	13631
508.547	13762
508.620	13533
508.692	21630
508.765	9631
508.837	8874
508.909	10252
508.982	9627
509.054	9819
509.127	8494
509.199	8009
509.271	7490
509.344	6972
509.416	8003
509.488	8265
509.560	9798
509.633	8987
509.705	10198
509.777	10883
509.849	14270
509.922	8139
509.994	8567
510.066	8896
510.138	11773
510.210	21589
510.283	16485
510.355	13145
510.427	13767
510.499	12140
510.571	12880
510.643	10863
510.715	17706
510.787	11576
510.859	14201
510.931	14900
511.003	16708
511.076	14115
511.148	11920
511.219	13478
511.291	23421
511.363	20253
511.435	12663
511.507	13529
511.579	11056
511.651	9892
511.723	10018
511.795	9186
511.867	10841
511.939	17046
512.010	34368
512.082	16097
512.154	10419
512.226	11198
512.298	18120
512.369	18946
512.441	16544
512.513	16030
512.585	12804
512.656	13874
512.728	14342
512.800	11034
512.871	12882
512.943	11173
513.015	9559
513.086	10782
513.158	13173
513.230	13189
513.301	21683
513.373	17604
513.444	11233
513.516	10122
513.588	10952
513.659	11454
513.731	12819
513.802	11204
513.874	25897
513.945	27711
514.016	11342
514.088	10210
514.159	10912
514.231	15274
514.302	18398
514.374	14956
514.445	17086
514.516	35985
514.588	18067
514.659	17670
514.730	29890
514.802	15934
514.873	9895
514.944	12821
515.016	12894
515.087	14035
515.158	23774
515.229	22283
515.301	10171
515.372	12142
515.443	11931
515.514	18192
515.585	10710
515.656	11269
515.728	13861
515.799	15684
515.870	12776
515.941	10570
516.012	12168
516.083	16909
516.154	15849
516.225	18022
516.296	17391
516.367	13811
516.438	16743
516.509	18943
516.580	33556
516.651	100390
516.722	225295
516.793	54029
516.864	24988
516.935	23692
517.006	27596
517.077	39175
517.148	96718
517.219	307884
517.289	282445
517.360	144134
517.431	33381
517.502	15101
517.573	16474
517.643	16591
517.714	18213
517.785	17810
517.856	18002
517.926	20854
517.997	22227
518.068	23368
518.138	32303
518.209	56957
518.280	237100
518.350	518495
518.421	93876
518.492	22415
518.562	20671
518.633	18877
518.703	14190
518.774	18882
518.845	23546
518.915	19298
518.986	16753
519.056	21806
519.127	39860
519.197	70776
519.268	164314
519.338	54448
519.408	22053
519.479	22581
519.549	15623
519.620	14500
519.690	11949
519.760	11604
519.831	11944
519.901	10808
519.971	12185
520.042	14281
520.112	16774
520.182	14963
520.253	15537
520.323	12579
520.393	16321
520.463	19170
520.534	17349
520.604	26368
520.674	15926
520.744	17697
520.814	31062
520.885	29918
520.955	77065
521.025	175535
521.095	32551
521.165	13983
521.235	13228
521.305	9967
521.375	11204
521.445	12387
521.515	12941
521.585	15113
521.655	11580
521.725	13378
521.795	11996
521.865	9487
521.935	21936
522.005	11951
522.075	9688
522.145	12261
522.215	14914
522.285	20116
522.355	32602
522.424	56460
522.494	34246
522.564	17613
522.634	38443
522.704	67560
522.774	16639
522.843	10918
522.913	11093
522.983	11785
523.053	10374
523.122	10899
523.192	16207
523.262	46753
523.331	23961
523.401	9901
523.471	8614
523.540	8793
523.610	7305
523.680	8257
523.749	9331
523.819	12798
523.888	9883
523.958	7390
524.027	9744
524.097	10047
524.166	9069
524.236	9258
524.305	12122
524.375	7817
524.444	7491
524.514	10604
524.583	11736
524.653	13084
524.722	14492
524.791	8011
524.861	10048
524.930	6770
524.999	10125
525.069	12370
525.138	12030
525.207	13347
525.277	8820
525.346	8783
525.415	9270
525.484	8425
525.554	11970
525.623	8428
525.692	8833
525.761	6844
525.830	8523
525.900	8042
525.969	12801
526.038	10248
526.107	11907
526.176	21235
526.245	16004
526.314	19105
526.383	19208
526.452	16254
526.522	36108
526.591	41292
526.660	28032
526.729	12972
526.797	20752
526.867	57147
526.935	176903
527.004	100971
527.073	31001
527.142	9154
527.211	9124
527.280	9908
527.349	9343
527.418	6003
527.487	9153
527.555	6205
527.624	7707
527.693	8220
527.762	10780
527.831	5812
527.899	8105
527.968	8626
528.037	7673
528.106	10376
528.174	14690
528.243	13988
528.312	24336
528.380	16521
528.449	7229
528.518	7951
528.586	4256
528.655	6509
528.723	6511
528.792	6373
528.861	7111
528.929	4479
528.998	7705
529.066	5126
529.135	6816
529.203	5269
529.272	5545
529.340	6347
529.409	9051
529.477	6740
529.545	11109
529.614	12657
529.682	14890
529.751	11009
529.819	15382
529.887	7109
529.956	7195
530.024	6617
530.092	5753
530.161	9746
530.229	11664
530.297	5863
530.365	6672
530.434	5794
530.502	6138
530.570	6539
530.638	4321
530.707	7014
530.775	8039
530.843	5927
530.911	6658
530.979	5905
531.047	6788
531.115	9600
531.183	7048
531.252	6220
531.320	5771
531.388	5203
531.456	6132
531.524	4077
531.592	6538
531.660	7837
531.728	6213
531.796	4984
531.864	6778
531.932	5560
532.000	5677
532.067	6439
532.135	8353
532.203	7744
532.271	8166
532.339	17612
532.407	30264
532.475	11998
532.542	10069
532.610	9852
532.678	17695
532.746	77214
532.814	100975
532.881	18035
532.949	8568
533.017	8390
533.084	6551
533.152	6027
533.220	7336
533.287	5986
533.355	6365
533.423	6473
533.490	5601
533.558	6551
533.625	6851
533.693	7703
533.761	7451
533.828	9025
533.896	7782
533.963	15190
534.031	16379
534.098	19092
534.166	9001
534.233	5993
534.300	8551
534.368	7642
534.435	6436
534.503	6695
534.570	7270
534.637	4519
534.705	6358
534.772	6389
534.840	7010
534.907	14323
534.974	12815
535.041	8732
535.109	10466
535.176	6370
535.243	6864
535.310	6140
535.378	5941
535.445	5379
535.512	5746
535.579	6554
535.646	5139
535.714	6908
535.781	9623
535.848	8067
535.915	10441
535.982	8098
536.049	8552
536.116	9689
536.183	8769
536.250	10465
536.317	7883
536.384	8919
536.451	12060
536.518	10690
536.585	7959
536.652	12713
536.719	14910
536.786	8754
536.853	9593
536.920	16971
536.987	20788
537.053	21931
537.120	77736
537.187	32130
537.254	8049
537.321	7482
537.388	8119
537.454	6167
537.521	6311
537.588	6448
537.654	9413
537.721	8593
537.788	10474
537.855	6846
537.921	8223
537.988	8101
538.055	9428
538.121	7505
538.188	9506
538.254	12935
538.321	20564
538.388	11195
538.454	16336
538.521	17394
538.587	8429
538.654	8004
538.720	7268
538.787	7554
538.853	9155
538.920	10186
538.986	10529
539.053	8313
539.119	9994
539.185	7604
539.252	11354
539.318	11897
539.385	11004
539.451	9891
539.517	11006
539.583	14548
539.650	31561
539.716	41515
539.782	11255
539.849	7787
539.915	8263
539.981	8318
540.047	10034
540.114	8600
540.180	9554
540.246	7557
540.312	12457
540.378	22380
540.444	19927
540.510	32176
540.576	48244
540.643	11771
540.709	9093
540.775	9323
540.841	9268
540.907	14885
540.973	16767
541.039	13446
541.105	13464
541.171	8003
541.237	7955
541.303	8796
541.369	12458
541.435	12277
541.500	18439
541.566	9293
541.632	7714
541.698	7419
541.764	9357
541.830	7126
541.896	7086
541.961	8085
542.027	8860
542.093	7346
542.159	9421
542.224	9757
542.290	15051
542.356	19774
542.421	17924
542.487	10788
542.553	9025
542.618	10756
542.684	9349
542.750	8696
542.815	12383
542.881	20538
542.947	53073
543.012	20343
543.078	8519
543.143	6720
543.209	9890
543.274	8692
543.340	12247
543.405	24972
543.471	21590
543.536	8424
543.602	9834
543.667	7127
543.732	11361
543.798	8689
543.863	8333
543.928	7185
543.994	7991
544.059	8218
544.124	8221
544.190	7221
544.255	9111
544.320	8245
544.386	8933
544.451	11870
544.516	11725
544.581	14401
544.646	40763
544.712	33257
544.777	11603
544.842	13052
544.907	12858
544.972	9545
545.037	9948
545.102	11003
545.168	10597
545.233	11329
545.298	13106
545.363	12514
545.428	14176
545.493	28049
545.558	35152
545.623	12954
545.688	10739
545.753	10822
545.818	10304
545.883	11001
545.947	9980
546.012	12406
546.077	11303
546.142	11508
546.207	11108
546.272	13899
546.337	11991
546.401	11648
546.466	10956
546.531	9503
546.596	12238
546.661	10821
546.725	11513
546.790	9681
546.855	10577
546.919	9309
546.984	10828
547.049	11120
547.113	12620
547.178	10566
547.243	13928
547.307	13586
547.372	15732
547.436	14364
547.501	10996
547.565	12102
547.630	13910
547.695	14490
547.759	18415
547.823	12278
547.888	11915
547.952	9784
548.017	11890
548.081	16515
548.146	19900
548.210	13155
548.274	10542
548.339	9814
548.403	10681
548.468	9087
548.532	11469
548.596	10992
548.660	10726
548.725	13138
548.789	15486
548.853	13618
548.917	12988
548.982	20666
549.046	15824
549.110	9972
549.174	10697
549.238	10138
549.303	10067
549.367	10917
549.431	10254
549.495	10536
549.559	10646
549.623	11691
549.687	14035
549.751	15560
549.815	12368
549.879	12359
549.943	11033
550.007	12679
550.071	13743
550.135	16167
550.199	15532
550.263	12088
550.327	16224
550.391	17598
550.455	11586
550.519	11750
550.582	14453
550.646	17252
550.710	14789
550.774	11834
550.838	12534
550.901	12645
550.965	13433
551.029	13873
551.093	16863
551.156	23828
551.220	47555
551.284	30084
551.347	25833
551.411	63671
551.475	36554
551.538	13376
551.602	13205
551.666	12003
551.729	11237
551.793	12126
551.856	11418
551.920	12538
551.983	12223
552.047	11042
552.110	11783
552.174	10819
552.237	11512
552.301	10770
552.364	11085
552.428	10977
552.491	11142
552.554	11331
552.618	11356
552.681	13559
552.745	14527
552.808	22592
552.871	20962
552.934	11783
552.998	12170
553.061	12773
553.124	11465
553.187	11229
553.251	12521
553.314	13301
553.377	13453
553.440	20518
553.503	55845
553.567	49880
553.630	14828
553.693	11621
553.756	12186
553.819	10245
553.882	11054
553.945	10906
554.008	10449
554.071	10143
554.134	11564
554.197	9924
554.260	9933
554.323	11482
554.386	11202
554.449	9793
554.512	12782
554.575	10317
554.638	11578
554.701	9640
554.764	11282
554.827	9961
554.889	9114
554.952	9771
555.015	9418
555.078	8924
555.141	11722
555.203	9837
555.266	10637
555.329	10748
555.391	10928
555.454	11683
555.517	10888
555.580	11159
555.642	11662
555.705	10080
555.768	11404
555.830	9980
555.893	10000
555.955	10181
556.018	10443
556.080	8856
556.143	10059
556.206	9827
556.268	10862
556.330	11097
556.393	10645
556.455	11310
556.518	19101
556.580	13239
556.643	9223
556.705	9364
556.767	9691
556.830	10010
556.892	11872
556.955	14379
557.017	10747
557.079	9404
557.142	9855
557.204	11686
557.266	20072
557.328	12657
557.391	8835
557.453	7562
557.515	10004
557.577	11376
557.639	10832
557.701	8430
557.764	8088
557.826	8650
557.888	10712
557.950	8048
558.012	9191
558.074	9901
558.136	14252
558.198	17755
558.260	11346
558.322	9556
558.384	10205
558.446	9986
558.508	12518
558.570	14023
558.632	23402
558.694	22376
558.756	18309
558.818	41088
558.880	59669
558.942	18001
559.003	17506
559.065	10254
559.127	10666
559.189	10104
559.251	10118
559.312	11636
559.374	22459
559.436	41311
559.498	17944
559.559	10500
559.621	10219
559.683	12050
559.744	19742
559.806	30868
559.868	28204
559.929	11208
559.991	13466
560.052	13866
560.114	18946
560.176	14324
560.237	17825
560.299	16638
560.360	10626
560.422	9811
560.483	10975
560.545	10650
560.606	11070
560.667	9360
560.729	10785
560.790	10241
560.852	10656
560.913	9481
560.974	10668
561.036	10516
561.097	10472
561.158	10485
561.220	12082
561.281	10082
561.342	11498
561.403	12936
561.465	14816
561.526	30252
561.587	24615
561.648	11400
561.709	10350
561.771	10366
561.832	10619
561.893	10530
561.954	13187
562.015	12395
562.076	10175
562.137	10809
562.198	10620
562.259	10946
562.320	11645
562.381	11840
562.442	14079
562.503	10755
562.564	10616
562.625	9854
562.686	10397
562.747	10370
562.808	11070
562.869	12614
562.930	15121
562.991	12500
563.051	11394
563.112	11773
563.173	11365
563.234	9998
563.294	10411
563.355	11242
563.416	12597
563.477	10130
563.537	11733
563.598	11965
563.659	12888
563.720	11512
563.780	12855
563.841	11920
563.901	12362
563.962	11469
564.023	11892
564.083	11812
564.144	12468
564.204	11777
564.265	13711
564.325	16706
564.386	28234
564.446	16562
564.507	11149
564.567	10740
564.628	11512
564.688	11163
564.749	12027
564.809	14655
564.869	14709
564.930	10556
564.990	11706
565.050	9989
565.111	10926
565.171	10214
565.231	10722
565.292	11018
565.352	9272
565.412	11150
565.472	12125
565.532	11219
565.593	10329
565.653	8892
565.713	11595
565.773	11387
565.833	13437
565.893	13182
565.953	10344
566.013	10324
566.074	12961
566.134	17003
566.194	24872
566.254	18949
566.314	13941
566.374	12682
566.434	17014
566.494	11304
566.554	10375
566.614	11286
566.673	10838
566.733	11532
566.793	12305
566.853	10897
566.913	11657
566.973	11035
567.033	12682
567.092	11568
567.152	11765
567.212	11345
567.272	12875
567.331	12589
567.391	12537
567.451	13835
567.511	18922
567.570	13686
567.630	11428
567.690	10510
567.749	11391
567.809	10541
567.868	12309
567.928	11960
567.988	14148
568.047	14043
568.107	14035
568.166	14179
568.226	18067
568.285	20012
568.345	17425
568.404	14683
568.464	13684
568.523	12663
568.582	14623
568.642	14670
568.701	17250
568.761	22332
568.820	31221
568.879	28123
568.939	23629
568.998	16716
569.057	13509
569.116	11883
569.176	11525
569.235	10737
569.294	9699
569.353	9788
569.413	10893
569.472	9553
569.531	9458
569.590	9479
569.649	10438
569.708	8952
569.767	10400
569.827	10380
569.886	8478
569.945	8682
570.004	9175
570.063	8995
570.122	10233
570.181	10553
570.240	12205
570.299	10543
570.358	9844
570.417	8042
570.475	9189
570.534	9890
570.593	9284
570.652	9591
570.711	9864
570.770	8364
570.829	10976
570.887	9390
570.946	9635
571.005	8258
571.064	9453
571.122	9406
571.181	10576
571.240	8522
571.299	9341
571.357	11287
571.416	10549
571.475	12648
571.533	10406
571.592	9042
571.650	9665
571.709	8263
571.768	10358
571.826	10328
571.885	9468
571.943	9010
572.002	9846
572.060	9032
572.119	8185
572.177	8916
572.236	8539
572.294	7714
572.352	9571
572.411	9019
572.469	9168
572.528	8345
572.586	9533
572.644	10575
572.703	10195
572.761	9627
572.819	9295
572.877	8989
572.936	8473
572.994	7779
573.052	9214
573.110	8405
573.169	8655
573.227	8014
573.285	8094
573.343	7932
573.401	8555
573.459	8260
573.517	10659
573.576	9225
573.634	8765
573.692	8472
573.750	8386
573.808	8886
573.866	10206
573.924	12243
573.982	10314
574.040	7896
574.098	7662
574.155	7124
574.213	8542
574.271	7430
574.329	7675
574.387	6870
574.445	7406
574.503	7102
574.560	6915
574.618	6791
574.676	7599
574.734	7104
574.792	8767
574.849	7372
574.907	7297
574.965	7181
575.022	6657
575.080	5717
575.138	8284
575.195	7147
575.253	8086
575.311	7148
575.368	8331
575.426	7476
575.483	8494
575.541	7492
575.598	7617
575.656	8350
575.713	8442
575.771	7341
575.828	8463
575.886	8429
575.943	9095
576.001	7865
576.058	8142
576.115	8657
576.173	11449
576.230	10688
576.287	10281
576.345	8970
576.402	8925
576.459	8172
576.517	9271
576.574	9200
576.631	9976
576.688	7816
576.746	8706
576.803	7957
576.860	7489
576.917	7416
576.974	8074
577.031	7564
577.089	7157
577.146	8391
577.203	8484
577.260	8398
577.317	10303
577.374	10188
577.431	9188
577.488	7974
577.545	7452
577.602	7601
577.659	8139
577.716	8527
577.773	9425
577.830	7653
577.886	9078
577.943	7483
578.000	7884
578.057	7601
578.114	8591
578.171	9202
578.227	11203
578.284	9323
578.341	9697
578.398	8043
578.454	9552
578.511	10775
578.568	11084
578.625	8634
578.681	7262
578.738	7675
578.794	7990
578.851	8127
578.908	8279
578.964	7399
579.021	9296
579.077	7040
579.134	8055
579.190	6982
579.247	7015
579.303	7275
579.360	7088
579.416	7288
579.473	7096
579.529	6836
579.586	7747
579.642	7376
579.698	9313
579.755	10822
579.811	8123
579.867	7514
579.924	7245
579.980	6663
580.036	9630
580.093	9937
580.149	14576
580.205	12817
580.261	11001
580.317	9607
580.374	9790
580.430	10006
580.486	8745
580.542	7524
580.598	7222
580.619	7361
580.654	7611
580.692	7541
580.710	7517
580.765	7095
580.767	7089
580.823	8224
580.838	8079
580.879	7700
580.911	7648
580.935	7636
580.984	6521
580.991	6375
581.047	8307
581.057	8296
581.103	8306
581.130	9078
581.159	9886
581.203	9195
581.215	9017
581.270	8643
581.276	8573
581.326	7935
581.349	8112
581.382	8448
581.422	7732
581.438	7413
581.494	7753
581.494	7742
581.550	7147
581.567	7332
581.606	7705
581.640	7771
581.661	7839
581.713	9100
581.717	9202
581.773	7362
581.786	7503
581.829	7964
581.859	7515
581.885	7147
581.932	8087
581.940	8260
581.996	7587
582.004	7723
582.052	8426
582.077	7831
582.107	7186
582.150	7821
582.163	8022
582.219	8006
582.223	7999
582.274	7828
582.296	7739
582.330	7649
582.368	8028
582.386	8212
582.441	7662
582.441	7662
582.497	7716
582.514	7701
582.552	7823
582.587	8219
582.608	8336
582.659	7634
582.663	7593
582.719	7910
582.732	7810
582.774	7415
582.805	7678
582.830	8062
582.877	8181
582.885	8130
582.941	7371
582.950	7455
582.996	8157
583.023	8667
583.052	9363
583.095	9530
583.107	9546
583.162	11182
583.168	11149
583.218	10377
583.240	9870
583.273	9337
583.313	8876
583.328	8630
583.384	9295
583.385	9222
583.439	7231
583.458	7707
583.494	8552
583.531	8276
583.549	8261
583.603	7826
583.605	7798
583.660	8304
583.676	8292
583.715	8525
583.748	8368
583.770	8202
583.820	8527
583.825	8576
583.881	7371
583.893	7476
583.936	7625
583.965	7742
583.991	7993
584.038	8628
584.046	8676
584.101	7837
584.110	7884
584.156	8250
584.183	8115
584.211	8093
584.255	7883
584.266	7792
584.321	7409
584.328	7514
584.376	8332
584.400	8120
584.431	7959
584.472	7922
584.486	7806
584.541	7908
584.545	7929
584.596	8750
584.617	8814
584.651	8731
584.689	9024
584.706	9154
584.761	8508
584.762	8506
584.816	8705
584.834	8734
584.871	8568
584.906	9006
584.926	9411
584.978	8902
584.980	8871
585.035	9595
585.051	9671
585.090	9957
585.123	10462
585.145	10708
585.195	9809
585.200	9758
585.254	9953
585.267	10166
585.309	11064
585.340	11435
585.364	11446
585.412	10080
585.419	9895
585.473	11119
585.484	10993
585.528	11001
585.556	11828
585.583	12651
585.628	13795
585.637	14380
585.692	21463
585.700	22018
585.747	22947
585.772	20413
585.801	15609
585.845	11354
585.856	10996
585.910	10688
585.917	10668
585.965	10377
585.989	10454
586.019	10945
586.061	11240
586.074	11282
586.128	11483
586.133	11505
586.183	12017
586.205	12342
586.237	12534
586.277	12077
586.292	12018
586.346	12917
586.349	12928
586.401	13032
586.421	13150
586.455	13490
586.493	14789
586.509	15647
586.564	19220
586.565	19386
586.618	26947
586.637	25145
586.672	18895
586.709	14918
586.727	13742
586.781	13847
586.781	13857
586.835	13365
586.853	13469
586.889	13768
586.925	13067
586.944	12810
586.996	13800
586.998	13838
587.052	13953
587.068	13984
587.106	14019
587.140	14071
587.161	14137
587.212	14896
587.215	14976
587.269	15372
587.284	15680
587.323	15547
587.356	15037
587.377	15063
587.427	16010
587.431	16096
587.485	16231
587.499	16465
587.539	17029
587.571	16988
587.593	17123
587.643	18218
587.648	18310
587.702	18392
587.715	18565
587.755	19462
587.786	19803
587.810	19937
587.858	21242
587.864	21520
587.917	23552
587.930	24119
587.971	25660
588.001	25859
588.025	25890
588.073	27016
588.079	27330
588.133	29826
588.145	30474
588.187	32677
588.217	34283
588.241	36291
588.288	40468
588.295	41104
588.348	46448
588.360	47599
588.402	52531
588.431	56223
588.456	59992
588.503	68246
588.510	69670
588.564	81411
588.575	84213
588.617	99129
588.646	110705
588.671	124208
588.718	156368
588.725	165043
588.778	240636
588.789	259692
588.832	390269
588.861	490622
588.886	603249
588.932	805213
588.939	813559
588.993	803990
589.004	794684
589.047	630594
589.075	509034
589.100	403633
589.147	236896
589.154	227414
589.207	167940
589.218	156962
589.261	146442
589.290	141731
589.314	148439
589.361	167769
589.368	176246
589.421	256104
589.433	276114
589.475	429158
589.504	545871
589.528	631157
589.576	751723
589.582	735346
589.635	526561
589.647	480680
589.689	294468
589.718	178746
589.742	147325
589.790	92687
589.795	90422
589.849	70890
589.861	66881
589.902	61032
589.932	54929
589.955	49921
590.004	40847
590.009	40460
590.062	36261
590.075	35328
590.115	33259
590.146	31288
590.168	30603
590.218	29599
590.222	29530
590.275	27968
590.289	27494
590.328	26884
590.360	26189
590.381	25851
590.431	25273
590.435	25266
590.488	24303
590.503	24071
590.541	23589
590.574	22940
590.594	22872
590.645	22911
590.647	22910
590.700	21421
590.716	21092
590.753	21376
590.787	21488
590.806	21283
590.859	20807
590.859	20842
590.912	20894
590.930	20881
590.965	20250
591.001	19691
591.018	19899
591.071	20621
591.072	20596
591.124	20290
591.143	20220
591.177	20696
591.214	21036
591.230	21060
591.283	21249
591.285	21209
591.336	20704
591.356	20556
591.389	20268
591.427	19653
591.442	19497
591.495	19178
591.498	19091
591.547	19160
591.569	19319
591.600	19243
591.640	18894
591.653	18755
591.706	18167
591.711	18068
591.759	19217
591.782	19872
591.811	20330
591.853	20642
591.864	20568
591.917	20085
591.924	19990
591.969	19529
591.995	19213
592.022	19673
592.066	20320
592.075	20339
592.127	20360
592.137	20324
592.180	21552
592.208	22246
592.233	21565
592.279	20187
592.285	20126
592.338	19363
592.350	19160
592.390	19045
592.421	18910
592.443	19125
592.491	19505
592.495	19479
592.548	18709
592.562	18470
592.600	18838
592.633	19111
592.653	18790
592.704	17772
592.705	17894
592.775	18912
592.846	18751
592.916	18179
592.987	19023
593.058	18290
593.128	17414
593.199	17836
593.270	17746
593.341	17073
593.411	16867
593.482	16791
593.553	17955
593.623	18201
593.694	17383
593.764	17592
593.835	16925
593.906	17256
593.976	16721
594.047	17485
594.117	18641
594.188	18505
594.258	16400
594.329	16935
594.399	16985
594.470	17061
594.540	16961
594.611	16583
594.681	16775
594.751	17983
594.822	17944
594.892	17601
594.963	18245
595.033	18581
595.103	17784
595.174	19094
595.244	21162
595.314	23213
595.384	18082
595.455	18409
595.525	18331
595.595	19058
595.665	18193
595.736	18146
595.806	17793
595.876	17488
595.946	17444
596.016	17749
596.087	17328
596.157	18282
596.227	18032
596.297	18312
596.367	18141
596.437	19912
596.507	21314
596.577	23533
596.647	19343
596.717	18771
596.787	19327
596.857	18717
596.927	18582
596.997	19005
597.067	18678
597.137	20366
597.207	19758
597.277	20693
597.347	18299
597.417	19495
597.487	19912
597.557	19834
597.626	19686
597.696	21010
597.766	21549
597.836	23328
597.906	19019
597.975	18904
598.045	17706
598.115	18734
598.185	18573
598.254	19897
598.324	20034
598.394	19940
598.464	19107
598.533	20100
598.603	18827
598.672	19812
598.742	18501
598.812	18717
598.881	18247
598.951	19389
599.020	18217
599.090	18779
599.159	19461
599.229	18570
599.299	17803
599.368	18822
599.437	18819
599.507	17983
599.576	17810
599.646	19469
599.715	18511
599.785	17887
599.854	18136
599.924	18935
599.993	18092
600.062	18062
600.132	17487
600.201	18629
600.270	19323
600.340	20144
600.409	18823
600.478	19078
600.547	18946
600.617	20246
600.686	17932
600.755	17577
600.824	16734
600.894	17149
600.963	16815
601.032	16432
601.101	17930
601.170	16208
601.239	16256
601.308	17457
601.378	18199
601.447	17586
601.516	16285
601.585	18422
601.654	18446
601.723	17859
601.792	17251
601.861	17025
601.930	19090
601.999	18445
602.068	16870
602.137	20275
602.206	18890
602.275	17799
602.343	18182
602.412	18905
602.481	17282
602.550	17248
602.619	16005
602.688	17909
602.756	17656
602.825	18339
602.894	17405
602.963	17526
603.032	18020
603.100	18211
603.169	17626
603.238	19126
603.307	16849
603.375	18303
603.444	18315
603.513	18906
603.581	17361
603.650	18131
603.719	17721
603.787	17091
603.856	17081
603.924	18289
603.993	17339
604.061	17636
604.130	18046
604.198	18699
604.267	18118
604.335	17936
604.404	18812
604.472	18936
604.541	18195
604.609	19840
604.678	19070
604.746	19080
604.815	19318
604.883	19003
604.951	20441
605.020	19267
605.088	19676
605.156	19446
605.225	18559
605.293	19010
605.361	19358
605.429	19574
605.498	19314
605.566	19511
605.634	19857
605.702	20490
605.771	20150
605.839	21040
605.907	20953
605.975	19836
606.043	19603
606.111	19716
606.180	20180
606.248	20941
606.316	21288
606.384	19507
606.452	20901
606.520	20541
606.588	19009
606.656	18561
606.724	17686
606.792	18140
606.860	16244
606.928	15703
606.996	15884
607.064	14645
607.132	15639
607.200	16308
607.267	16357
607.335	16095
607.403	16493
607.471	15784
607.539	16061
607.607	16193
607.674	14316
607.742	16202
607.810	14886
607.878	16095
607.946	14816
608.013	16059
608.081	15786
608.149	15970
608.216	15205
608.284	17147
608.352	15499
608.419	14649
608.487	18384
608.555	16647
608.622	15934
608.690	16814
608.757	16334
608.825	17670
608.893	17189
608.960	17613
609.028	17314
609.095	20216
609.163	15954
609.230	16337
609.298	14857
609.365	15181
609.432	15376
609.500	17785
609.567	18187
609.635	20354
609.702	20388
609.769	20915
609.837	17527
609.904	15848
609.971	15335
610.039	18634
610.106	20521
610.173	29694
610.241	58379
610.308	74564
610.375	53905
610.442	20893
610.509	15836
610.577	17029
610.644	15899
610.711	16315
610.778	17459
610.845	17831
610.912	18153
610.980	18608
611.047	21430
611.114	18982
611.181	16157
611.248	16270
611.315	17861
611.382	18044
611.449	16730
611.516	19211
611.583	18011
611.650	17749
611.717	18063
611.784	18133
611.851	18581
611.918	18972
611.984	20384
612.051	27650
612.118	41294
612.185	81609
612.252	51742
612.319	21384
612.386	20550
612.452	20299
612.519	19669
612.586	21881
612.653	20599
612.719	21106
612.786	18915
612.853	18943
612.919	17922
612.986	18908
613.053	16497
613.120	16313
613.186	15364
613.253	19220
613.319	17082
613.386	17193
613.453	17071
613.519	18409
613.586	17740
613.652	21429
613.719	18698
613.785	18800
613.852	17087
613.918	16375
613.985	18409
614.051	20735
614.118	28874
614.184	26961
614.250	17860
614.317	18234
614.383	16906
614.449	17329
614.516	17200
614.582	17959
614.648	16206
614.715	17089
614.781	17465
614.847	17995
614.914	17203
614.980	17231
615.046	16407
615.112	17438
615.179	16101
615.245	18028
615.311	18034
615.377	19819
615.443	18951
615.509	17898
615.575	19025
615.642	18736
615.708	18627
615.774	19792
615.840	21065
615.906	22133
615.972	26048
616.038	36265
616.104	55717
616.170	108087
616.236	83962
616.302	29631
616.368	22696
616.434	20776
616.500	21682
616.565	22405
616.631	21546
616.697	20771
616.763	20732
616.829	24606
616.895	31279
616.961	30010
617.026	20772
617.092	19505
617.158	20305
617.224	19171
617.289	18213
617.355	18970
617.421	19060
617.487	19518
617.552	18250
617.618	17829
617.684	17295
617.749	20374
617.815	17769
617.880	17360
617.946	17209
618.012	18653
618.077	18114
618.143	18643
618.208	19023
618.274	19176
618.339	19710
618.405	17082
618.470	18326
618.536	18648
618.601	19897
618.667	19547
618.732	17758
618.798	18947
618.863	17331
618.928	18287
618.994	19118
619.059	19823
619.124	21097
619.190	19896
619.255	17344
619.320	18795
619.386	18483
619.451	17274
619.516	18168
619.581	18218
619.647	17554
619.712	18632
619.777	17929
619.842	17559
619.907	18424
619.972	18078
620.038	17863
620.103	18241
620.168	16824
620.233	17460
620.298	16326
620.363	18229
620.428	18135
620.493	18318
620.558	17838
620.623	17668
620.688	17629
620.753	17520
620.818	18249
620.883	18240
620.948	17781
621.013	18157
621.078	18114
621.143	17230
621.207	20207
621.272	18795
621.337	19224
621.402	20123
621.467	23248
621.532	23647
621.596	20708
621.661	20855
621.726	20083
621.791	20301
621.855	19779
621.920	19736
621.985	19859
622.049	22793
622.114	20433
622.179	20988
622.243	21571
622.308	21925
622.373	22951
622.437	23060
622.502	21672
622.566	22543
622.631	21182
622.695	22765
622.760	21250
622.824	22966
622.889	22037
622.953	22633
623.018	24965
623.082	23707
623.147	21746
623.211	21059
623.276	21128
623.340	20089
623.404	20920
623.469	20088
623.533	20297
623.597	20231
623.662	19974
623.726	20110
623.790	18793
623.854	19083
623.919	20639
623.983	19830
624.047	19440
624.111	20205
624.176	18789
624.240	20200
624.304	19860
624.368	19459
624.432	19905
624.496	19922
624.560	20155
624.625	19106
624.689	20079
624.753	19795
624.817	19335
624.881	18286
624.945	17888
625.009	18049
625.073	18964
625.137	18163
625.201	19632
625.265	20417
625.329	17945
625.393	18479
625.456	18491
625.520	19302
625.584	19663
625.648	21628
625.712	24815
625.776	40788
625.839	43371
625.903	23202
625.967	18404
626.031	24089
626.095	28263
626.158	19350
626.222	15565
626.286	17137
626.349	14691
626.413	14422
626.477	16232
626.540	14827
626.604	14643
626.668	15883
626.731	14948
626.795	16429
626.858	15030
626.922	14767
626.986	14616
627.049	12773
627.113	14843
627.176	14367
627.240	14333
627.303	14139
627.366	13938
627.430	13658
627.493	14371
627.557	15038
627.620	15616
627.684	14554
627.747	14507
627.810	13085
627.874	13337
627.937	12686
628.000	15113
628.064	14205
628.127	11513
628.190	13256
628.253	13477
628.317	12557
628.380	12839
628.443	12195
628.506	12120
628.569	12329
628.632	11274
628.696	12726
628.759	11541
628.822	11617
628.885	10942
628.948	10938
629.011	10570
629.074	11113
629.137	10007
629.200	11177
629.263	12163
629.326	10555
629.389	9850
629.452	11960
629.515	11061
629.578	11205
629.641	11764
629.704	11116
629.767	11339
629.830	11132
629.892	10525
629.955	11138
630.018	12597
630.081	10316
630.144	11638
630.207	9537
630.269	12258
630.332	10511
630.395	10565
630.458	10275
630.520	8991
630.583	10591
630.646	9528
630.708	9992
630.771	9125
630.834	10777
630.896	8740
630.959	9831
631.021	8504
631.084	9757
631.146	10216
631.209	11302
631.272	8673
631.334	9643
631.397	9387
631.459	8875
631.522	8848
631.584	8970
631.646	9290
631.709	9431
631.771	9368
631.834	9515
631.896	9276
631.958	8478
632.021	9657
632.083	8159
632.145	9520
632.208	8569
632.270	9592
632.332	9298
632.395	7641
632.457	9779
632.519	8401
632.581	8868
632.643	7124
632.706	9005
632.768	7143
632.830	8618
632.892	8557
632.954	8429
633.016	8631
633.078	8159
633.141	7312
633.203	8185
633.265	8683
633.327	8992
633.389	7372
633.451	8599
633.513	8370
633.575	8946
633.637	8059
633.698	8406
633.760	9234
633.822	8565
633.884	7177
633.946	8107
634.008	8097
634.070	9590
634.132	8631
634.193	8344
634.255	8242
634.317	7850
634.379	8373
634.441	8070
634.502	7479
634.564	8644
634.626	7914
634.687	8568
634.749	7323
634.811	8754
634.873	7638
634.934	7566
634.996	7804
635.057	6716
635.119	7500
635.181	7820
635.242	8385
635.304	6143
635.365	8798
635.427	7541
635.488	7670
635.550	6585
635.611	7656
635.673	5715
635.734	8591
635.796	7590
635.857	8531
635.918	6499
635.980	7872
636.041	6619
636.102	7293
636.164	7408
636.225	7828
636.286	6065
636.348	7376
636.409	7512
636.470	6196
636.531	7950
636.593	6857
636.654	8203
636.715	6608
636.776	7574
636.838	5879
636.899	8151
636.960	6125
637.021	7381
637.082	5708
637.143	7600
637.204	5052
637.265	6100
637.326	6918
637.387	7418
637.448	5156
637.509	7178
637.570	5931
637.631	7346
637.692	5186
637.753	5698
637.814	6267
637.875	6804
637.936	6765
637.997	5865
638.058	5620
638.119	6703
638.179	5848
638.240	6549
638.301	6753
638.362	5332
638.423	4941
638.483	7799
638.544	4801
638.605	6802
638.666	4768
638.726	6438
638.787	6482
638.848	6310
638.908	6275
638.969	6038
639.030	5556
639.090	4745
639.151	5135
639.211	6428
639.272	6695
639.332	8278
639.393	5976
639.453	5302
639.514	5105
639.574	5721
639.635	4974
639.695	6506
639.756	4254
639.816	5026
639.877	5673
639.937	7637
639.997	8235
640.058	5103
640.118	4674
640.178	6494
640.239	5147
640.299	5676
640.359	5126
640.420	5740
640.480	5021
640.540	4950
640.600	3908
640.661	5579
640.721	3926
640.781	6439
640.841	4241
640.901	6805
640.961	5380
641.021	5717
641.082	4399
641.142	5458
641.202	5689
641.262	3283
641.322	5971
641.382	4562
641.442	5571
641.502	4735
641.562	5752
641.622	4626
641.682	4910
641.742	5243
641.802	5181
641.861	5742
641.921	4990
641.981	6004
642.041	6178
642.101	6507
642.161	3788
642.221	4511
642.280	4339
642.340	4524
642.400	4004
642.460	6020
642.519	3900
642.579	4842
642.639	4933
642.698	2593
642.758	6660
642.818	5244
642.877	4558
642.937	5103
642.997	4963
643.056	5977
643.116	3381
643.175	6688
643.235	4801
643.294	4363
643.354	4600
643.414	5161
643.473	5220
643.532	4999
643.592	4312
643.651	7612
643.711	9973
643.770	14791
643.830	29094
643.889	59202
643.948	15163
644.008	6151
644.067	4314
644.126	3907
644.186	4715
644.245	4885
644.304	2729
644.363	6237
644.423	3124
644.482	4555
644.541	4970
644.600	2092
644.659	4898
644.719	3400
644.778	4743
644.837	5763
644.896	7833
644.955	12444
645.014	6260
645.073	4187
645.132	3860
645.191	5371
645.250	3632
645.309	5525
645.368	4056
645.427	5446
645.486	3364
645.545	5933
645.604	3120
645.663	4370
645.722	3509
645.781	4744
645.840	3905
645.898	3594
645.957	5519
646.016	4632
646.075	8121
646.134	12261
646.192	27637
646.251	38685
646.310	7119
646.369	4262
646.427	3674
646.486	2859
646.545	4237
646.603	4147
646.662	3663
646.721	4224
646.779	3449
646.838	2155
646.896	3794
646.955	3816
647.014	4630
647.072	4918
647.131	8367
647.189	5841
647.248	3411
647.306	4285
647.365	3639
647.423	3222
647.481	5197
647.540	2430
647.598	2528
647.657	3259
647.715	3905
647.773	3376
647.832	3965
647.890	2609
647.948	2746
648.007	4323
648.065	2926
648.123	2972
648.181	4468
648.240	4775
648.298	2567
648.356	3450
648.414	4325
648.472	3777
648.531	4375
648.589	3802
648.647	2902
648.705	3481
648.763	3862
648.821	2699
648.879	3434
648.937	3964
648.995	3725
649.053	3218
649.111	4068
649.169	5148
649.227	6318
649.285	8648
649.343	20813
649.401	12452
649.459	7157
649.516	6965
649.574	4179
649.632	9214
649.690	10248
649.748	5896
649.806	4621
649.863	8017
649.921	7489
649.979	4638
650.037	3314
650.094	2135
650.152	2801
650.210	3078
650.268	3910
650.325	3316
650.383	2316
650.440	1827
650.498	3042
650.556	3674
650.613	1503
650.671	3070
650.728	2547
650.786	3710
650.843	3183
650.901	1679
650.958	2339
651.016	2593
651.073	2449
651.131	2019
651.188	2185
651.246	3001
651.303	2411
651.360	2960
651.418	2503
651.475	2740
651.532	1601
651.590	3533
651.647	2156
651.704	3367
651.762	2036
651.819	3030
651.876	2432
651.933	3054
651.990	3041
652.048	1171
652.105	1351
652.162	2916
652.219	2951
652.276	3026
652.333	3376
652.390	1982
652.448	2980
652.505	2906
652.562	1780
652.619	2375
652.676	3328
652.733	4457
652.790	2365
652.847	1248
652.904	2626
652.961	1100
653.017	1151
653.074	3188
653.131	1853
653.188	2112
653.245	1497
653.302	2977
653.359	2469
653.415	2419
653.472	2606
653.529	2589
653.586	1884
653.642	1883
653.699	2160
653.756	1646
653.813	2100
653.869	2377
653.926	1486
653.983	1821
654.039	1784
654.096	1688
654.152	2675
654.209	1185
654.266	2701
654.322	1754
654.379	1993
654.435	3245
654.492	2161
654.548	2610
654.605	3429
654.661	4050
654.717	1917
654.774	2882
654.830	2474
654.887	2089
654.943	2301
655.000	3612
655.056	2863
655.112	2915
655.168	1102
655.225	2099
655.281	2235
655.337	3132
655.394	3716
655.450	3381
655.506	2983
655.562	3765
655.618	3962
655.675	1352
655.731	1815
655.787	2439
655.843	2692
655.899	1153
655.955	2243
656.011	2597
656.067	1375
656.123	2256
656.179	2067
656.235	3585
656.291	478
656.347	3078
656.403	1806
656.459	1938
656.515	1684
656.571	2362
656.627	1911
656.683	2598
656.739	2875
656.795	2787
656.850	2385
656.906	2757
656.962	2168
657.018	1651
657.074	2452
657.129	2834
657.185	1330
657.241	2703
657.297	2222
657.352	3067
657.408	1566
657.464	3298
657.519	2778
657.575	1783
657.630	2561
657.686	2464
657.742	1100
657.797	2408
657.853	1635
657.908	2038
657.964	807
658.019	2374
658.075	1081
658.130	2534
658.186	989
658.241	2710
658.297	1409
658.352	2068
658.407	2449
658.463	2045
658.518	1592
658.573	2335
658.629	1319
658.684	1726
658.739	1955
658.795	1893
658.850	1903
658.905	1884
658.960	1169
659.016	1511
659.071	2429
659.126	2676
659.181	1595
659.236	3677
659.291	2863
659.346	2097
659.401	2461
659.457	3317
659.512	2261
659.567	3021
659.622	2081
659.677	2274
659.732	1148
659.787	1824
659.842	1770
659.897	2460
659.952	2486
660.007	2204
660.061	2185
660.116	1905
660.171	1142
660.226	1888
660.281	2111
660.336	1647
660.391	1778
660.445	1614
660.500	2631
660.555	2228
660.610	1648
660.664	1730
660.719	1028
660.774	1962
660.828	1568
660.883	1851
660.938	2433
660.992	1087
661.047	2088
661.101	2004
661.156	1918
661.211	1484
661.265	1389
661.320	2043
661.374	2012
661.429	1433
661.483	2510
661.538	1679
661.592	998
661.647	1733
661.701	1804
661.755	1760
661.810	1938
661.864	1565
661.919	1330
661.973	1808
662.027	1364
662.081	1587
662.136	1059
662.190	2861
662.244	1909
662.299	1737
662.353	1601
662.407	1990
662.461	949
662.515	2917
662.569	1440
662.624	2668
662.678	1441
662.732	1715
662.786	1529
662.840	2337
662.894	1917
662.948	1996
663.002	1683
663.056	1853
663.110	1074
663.164	1164
663.218	1453
663.272	2429
663.326	2197
663.380	1581
663.434	1904
663.488	1596
663.542	1852
663.595	1987
663.649	2254
663.703	2856
663.757	1644
663.811	1533
663.864	1118
663.918	2049
663.972	1099
664.026	2138
664.079	1466
664.133	2547
664.187	1166
664.240	2536
664.294	1342
664.348	2447
664.401	1658
664.455	2015
664.508	1291
664.562	1918
664.615	1833
664.669	2019
664.722	2511
664.776	2139
664.829	1182
664.883	1902
664.936	1191
664.990	2157
665.043	1980
665.097	2295
665.150	2608
665.203	1984
665.257	2163
665.310	2824
665.363	1696
665.417	1898
665.470	2177
665.523	2625
665.576	1864
665.630	2549
665.683	1252
665.736	1660
665.789	2756
665.842	1234
665.895	2161
665.949	2342
666.002	2113
666.055	1823
666.108	2236
666.161	1859
666.214	2430
666.267	2346
666.320	2185
666.373	2184
666.426	1944
666.479	2090
666.532	1244
666.585	2201
666.638	2269
666.691	2589
666.744	2614
666.796	1746
666.849	1717
666.902	2742
666.955	1355
667.008	2096
667.060	1829
667.113	2324
667.166	1651
667.219	1714
667.271	1480
667.324	1472
667.377	1937
667.430	2418
667.482	2826
667.535	2008
667.587	2042
667.640	2165
667.693	2430
667.745	3005
667.798	1933
667.850	2045
667.903	2217
667.955	1351
668.008	2426
668.060	3270
668.113	2101
668.165	2465
668.218	2627
668.270	3401
668.322	1867
668.375	2703
668.427	2584
668.479	2179
668.532	2743
668.584	1994
668.636	1526
668.689	2565
668.741	2212
668.793	2273
668.845	1560
668.898	2895
668.950	2442
669.002	2967
669.054	1484
669.106	1518
669.158	2471
669.211	1437
669.263	1960
669.315	2931
669.367	2581
669.419	2258
669.471	3566
669.523	2058
669.575	2959
669.627	2568
669.679	2188
669.731	2536
669.783	2041
669.835	2170
669.886	2816
669.938	3015
669.990	2677
670.042	2541
670.094	3061
670.146	2873
670.197	3351
670.249	4356
670.301	4666
670.353	6997
670.404	9332
670.456	14422
670.508	22020
670.560	37824
670.611	63995
670.663	113943
670.715	257539
670.766	387898
670.818	135608
670.869	27693
670.921	14011
670.972	9738
671.024	5966
671.075	6194
671.127	3689
671.178	3723
671.230	2940
671.281	3670
671.333	3306
671.384	3433
671.436	3871
671.487	3492
671.538	2336
671.590	2766
671.641	3341
671.692	4056
671.744	4785
671.795	5275
671.846	1913
671.897	3633
671.949	2487
672.000	2534
672.051	2489
672.102	3088
672.153	2541
672.204	1703
672.256	2535
672.307	3069
672.358	1684
672.409	3077
672.460	2251
672.511	2039
672.562	1691
672.613	2476
672.664	1421
672.715	2541
672.766	2059
672.817	2676
672.868	2039
672.919	2094
672.970	2683
673.021	1820
673.071	1798
673.122	2133
673.173	2002
673.224	1811
673.275	1923
673.326	2234
673.376	1329
673.427	1536
673.478	1075
673.528	2614
673.579	1864
673.630	2705
673.680	2562
673.731	1671
673.782	736
673.832	2090
673.883	2445
673.934	1805
673.984	1614
674.035	2267
674.085	1487
674.136	1847
674.186	2300
674.237	2106
674.287	2648
674.338	2381
674.388	2350
674.438	1672
674.489	486
674.539	2029
674.589	1415
674.640	2193
674.690	1056
674.740	2506
674.791	1982
674.841	2855
674.891	2205
674.942	1528
674.992	1558
675.042	1139
675.092	1132
675.142	822
675.193	292
675.243	1431
675.293	1997
675.343	1813
675.393	2085
675.443	2781
675.493	1476
675.543	1694
675.593	1815
675.643	1985
675.693	1801
675.743	1409
675.793	2187
675.843	1311
675.893	1953
675.943	1531
675.993	663
676.043	2258
676.093	1491
676.142	1240
676.192	2306
676.242	2008
676.292	1143
676.341	1769
676.391	1969
676.441	1485
676.491	1120
676.540	1410
676.590	1269
676.640	2203
676.689	882
676.739	1207
676.789	915
676.838	1084
676.888	1692
676.937	1044
676.987	678
677.037	1500
677.086	348
677.136	1407
677.185	1122
677.235	1083
677.284	826
677.333	1591
677.383	971
677.432	1265
677.482	1115
677.531	1496
677.580	497
677.630	1573
677.679	784
677.728	1377
677.778	1330
677.827	1188
677.876	476
677.925	1026
677.975	785
678.024	1137
678.073	978
678.122	2008
678.171	862
678.220	2165
678.269	1492
678.319	1381
678.368	1103
678.417	1989
678.466	2194
678.515	2151
678.564	1580
678.613	1403
678.662	970
678.711	1538
678.760	702
678.809	1390
678.857	1199
678.906	1206
678.955	1131
679.004	2132
679.053	761
679.102	1497
679.151	1422
679.199	1001
679.248	1103
679.297	1535
679.346	848
679.394	1711
679.443	1612
679.492	755
679.540	1317
679.589	1504
679.638	1067
679.686	1239
679.735	1295
679.784	1768
679.832	1393
679.881	1224
679.929	603
679.978	928
680.026	495
680.075	1217
680.123	923
680.172	1404
680.220	1068
680.268	1022
680.317	596
680.365	1389
680.414	-393
680.462	1400
680.510	1839
680.559	1307
680.607	670
680.655	784
680.703	1066
680.752	906
680.800	1041
680.848	1589
680.896	282
680.945	1371
680.993	613
681.041	959
681.089	591
681.137	1018
681.185	507
681.233	2233
681.258	1673
681.281	1102
681.329	1595
681.377	641
681.380	715
681.425	1210
681.473	1461
681.502	2218
681.521	2664
681.569	1543
681.617	1290
681.624	1364
681.665	1519
681.713	2727
681.745	2126
681.761	1776
681.809	1963
681.857	2068
681.867	2022
681.904	1677
681.952	1870
681.989	2520
682.000	2671
682.048	2753
682.096	2147
682.111	2191
682.143	2130
682.191	2407
682.233	2827
682.239	2850
682.286	3242
682.334	2162
682.354	2609
682.382	3134
682.430	3039
682.476	3933
682.477	3913
682.525	2432
682.572	3072
682.598	2962
682.620	2831
682.667	2745
682.715	3408
682.720	3441
682.763	3336
682.810	2715
682.841	3364
682.857	3664
682.905	3392
682.952	3994
682.963	3961
683.000	3678
683.047	4257
683.085	3974
683.095	3855
683.142	4199
683.190	4529
683.206	4555
683.237	4490
683.284	4376
683.328	4173
683.332	4125
683.379	5179
683.426	4875
683.449	4502
683.473	4078
683.521	4489
683.568	4428
683.571	4496
683.615	4986
683.662	4974
683.693	5341
683.709	5484
683.757	4419
683.804	5590
683.814	5490
683.851	5059
683.898	5619
683.936	4928
683.945	4736
683.992	5285
684.039	5279
684.057	5443
684.086	5630
684.133	5899
684.179	6082
684.180	6061
684.227	5534
684.274	6163
684.300	6104
684.321	6040
684.368	6161
684.415	6634
684.422	6605
684.462	6190
684.509	5503
684.543	5988
684.556	6182
684.603	6244
684.649	6890
684.665	6777
684.696	6465
684.743	6904
684.786	6518
684.790	6475
684.837	6914
684.883	7750
684.908	8165
684.930	8488
684.977	7819
685.023	8565
685.029	8555
685.070	8016
685.117	8091
685.150	8105
685.164	8189
685.210	9549
685.257	9143
685.272	9190
685.303	8996
685.350	8700
685.393	7997
685.396	7938
685.443	8828
685.490	8961
685.514	9008
685.536	9038
685.583	9447
685.629	9094
685.636	9091
685.675	8929
685.722	8890
685.757	9146
685.768	9261
685.815	9332
685.861	9963
685.878	9826
685.908	9405
685.954	9960
686.000	9874
686.000	9870
686.047	10408
686.093	10378
686.121	11190
686.139	11449
686.185	10074
686.232	10782
686.242	10529
686.278	9800
686.324	10364
686.363	9807
686.370	9687
686.416	10205
686.463	10149
686.484	10234
686.509	10408
686.555	9706
686.601	10483
686.606	10419
686.647	9749
686.693	10191
686.727	10106
686.739	10121
686.785	10498
686.831	10685
686.848	10826
686.877	10812
686.923	10130
686.969	10347
686.969	10349
687.015	10401
687.061	11263
687.090	11011
687.107	10696
687.153	11092
687.199	10554
687.211	10432
687.245	10511
687.291	10646
687.332	11172
687.336	11208
687.382	11449
687.428	11613
687.453	11412
687.474	11083
687.520	10974
687.565	10758
687.574	10759
687.611	11194
687.657	11136
687.695	11480
687.702	11536
687.748	11479
687.794	12305
687.816	12116
687.839	11614
687.885	11343
687.931	10391
687.937	10432
687.976	11273
688.022	10941
688.058	11962
688.067	12198
688.113	11218
688.158	11611
688.179	11877
688.204	12212
688.249	12177
688.295	12043
688.300	12152
688.340	12946
688.386	12689
688.421	12790
688.431	12810
688.477	12428
688.522	12875
688.542	12831
688.567	12671
688.613	12716
688.658	12221
688.663	12171
688.703	12258
688.749	12590
688.784	12999
688.794	13087
688.839	12734
688.884	13248
688.905	12903
688.930	12480
688.975	13279
689.020	12760
689.026	12823
689.065	13418
689.110	12980
689.146	12821
689.155	12757
689.201	12940
689.246	12647
689.267	12695
689.291	13021
689.336	13805
689.381	13445
689.388	13494
689.426	13535
689.471	13494
689.509	13413
689.516	13413
689.561	13207
689.606	13462
689.630	13325
689.651	13290
689.696	13078
689.741	13306
689.750	13388
689.785	13776
689.830	13214
689.871	13147
689.875	13142
689.920	13594
689.965	13622
689.992	13137
690.010	12892
690.054	13742
690.099	13245
690.112	13312
690.144	13543
690.189	13084
690.233	13624
690.233	13645
690.278	13410
690.323	13455
690.354	13343
690.367	13425
690.412	14337
690.457	14394
690.474	14725
690.501	14955
690.546	14183
690.590	14178
690.595	14143
690.635	14902
690.680	15835
690.716	16332
690.724	16643
690.769	18978
690.813	20768
690.836	21530
690.857	23367
690.902	27256
690.946	31691
690.957	32730
690.991	43894
691.035	59156
691.077	73126
691.080	73064
691.124	67428
691.168	62389
691.198	59367
691.213	55123
691.257	42310
691.301	29150
691.318	24098
691.346	22801
691.390	20231
691.434	18112
691.439	17843
691.478	17487
691.522	16844
691.559	16401
691.567	16427
691.611	16851
691.655	16232
691.680	16154
691.699	16139
691.743	16071
691.787	16032
691.800	15920
691.831	16039
691.875	16646
691.919	16762
691.921	16738
691.964	16815
692.008	17317
692.041	16899
692.052	16787
692.096	17279
692.139	17339
692.162	17151
692.183	17075
692.227	17146
692.271	17498
692.282	17407
692.315	17079
692.359	17286
692.402	17005
692.403	17035
692.447	16741
692.490	16569
692.523	16323
692.534	16504
692.578	17316
692.622	17760
692.643	17892
692.666	17655
692.709	17624
692.753	17177
692.763	17105
692.797	17268
692.840	17303
692.884	17523
692.884	17563
692.928	17792
692.971	18263
693.004	18453
693.015	18389
693.059	18268
693.102	17787
693.124	17585
693.146	17899
693.189	18377
693.233	19025
693.245	19105
693.276	19581
693.320	20366
693.363	21032
693.365	21009
693.407	22440
693.450	24162
693.485	25544
693.493	26286
693.537	29415
693.580	33083
693.605	34894
693.624	39389
693.667	50130
693.710	61086
693.725	64864
693.753	87351
693.797	122469
693.840	157958
693.845	161683
693.883	149345
693.926	135757
693.966	123557
693.970	120833
694.013	90449
694.056	59308
694.086	38035
694.099	36714
694.142	31727
694.185	27153
694.206	24794
694.229	24068
694.272	23000
694.315	21588
694.326	21162
694.358	20631
694.401	20076
694.444	19608
694.446	19525
694.487	19486
694.530	19688
694.566	19510
694.573	19457
694.616	19162
694.659	18385
694.686	18229
694.702	18260
694.745	18001
694.787	17695
694.806	17417
694.830	17451
694.873	17902
694.916	18194
694.926	18240
694.959	17937
695.002	17165
695.044	16502
695.046	16433
695.087	16977
695.130	17700
695.166	18135
695.172	18167
695.215	18412
695.258	18206
695.286	18206
695.301	18265
695.343	18062
695.386	18011
695.406	17945
695.428	17831
695.471	17467
695.514	17198
695.526	17105
695.556	17438
695.599	17621
695.641	17968
695.646	17948
695.684	17959
695.726	18057
695.766	17961
695.769	17996
695.811	17840
695.854	17824
695.886	17728
695.896	17710
695.938	17235
695.981	17069
696.005	16893
696.023	17100
696.065	17380
696.108	17749
696.125	17869
696.150	18068
696.192	18227
696.235	18536
696.245	18522
696.277	18440
696.319	18286
696.361	18190
696.365	18145
696.404	18639
696.446	18902
696.485	19216
696.488	19275
696.530	19327
696.572	19402
696.604	19397
696.614	19332
696.656	18881
696.698	18322
696.724	18056
696.740	18114
696.783	17899
696.825	17894
696.844	17780
696.867	17854
696.909	18069
696.951	17941
696.964	17977
696.992	17917
697.034	17479
697.076	17220
697.083	17115
697.118	17469
697.160	17827
697.202	18236
697.203	18198
697.244	17763
697.286	17305
697.323	16803
697.327	16869
697.369	16978
697.411	17241
697.442	17328
697.453	17466
697.494	17900
697.536	18243
697.562	18470
697.578	18418
697.620	18074
697.661	17790
697.682	17560
697.703	17489
697.744	17350
697.786	17140
697.801	17037
697.828	17386
697.869	17820
697.911	18240
697.921	18287
697.952	18025
697.994	17685
698.035	17341
698.040	17248
698.077	17124
698.118	16932
698.160	16694
698.160	16645
698.201	16765
698.243	16868
698.279	16899
698.284	17014
698.325	17679
698.367	18273
698.399	18724
698.408	18651
698.449	18043
698.491	17485
698.518	17049
698.532	17205
698.573	17528
698.614	17857
698.638	18012
698.656	18228
698.697	18567
698.738	18939
698.757	19068
698.779	19158
698.820	19208
698.862	19262
698.877	19229
698.903	19511
698.944	19880
698.985	20251
698.996	20300
699.026	20185
699.067	19951
699.116	19620
699.235	18048
699.354	18283
699.474	18061
699.593	18936
699.713	18947
699.832	17850
699.951	18185
700.070	17857
700.190	17228
700.309	17267
700.428	17224
700.547	17377
700.667	16687
700.786	17817
700.905	16418
701.024	18049
701.143	17205
701.262	16162
701.381	16023
701.500	16310
701.619	17174
701.738	16319
701.857	15928
701.976	15027
702.095	15496
702.214	15803
702.333	16377
702.452	16040
702.571	16694
702.690	15833
702.809	15395
702.928	14895
703.047	14810
703.165	16052
703.284	15029
703.403	14810
703.522	15630
703.640	16049
703.759	16987
703.878	18651
703.997	14817
704.115	13974
704.234	15253
704.353	14667
704.471	14577
704.590	14376
704.708	14178
704.827	14386
704.946	14009
705.064	15073
705.183	15340
705.301	18801
705.420	28294
705.538	24234
705.656	20862
705.775	21204
705.893	32963
706.012	40795
706.130	21679
706.249	21601
706.367	20538
706.485	20800
706.604	20311
706.722	20292
706.840	21659
706.958	21659
707.077	19838
707.195	19426
707.313	19200
707.431	18464
707.549	17750
707.668	18542
707.786	19313
707.904	18869
708.022	18504
708.140	17925
708.258	17756
708.376	18817
708.494	18610
708.612	19618
708.730	28986
708.848	28903
708.966	24408
709.084	22214
709.202	22059
709.320	24187
709.438	23438
709.556	23037
709.674	24507
709.791	25074
709.909	22456
710.027	22885
710.145	22423
710.263	23289
710.380	23032
710.498	22114
710.616	20695
710.733	22261
710.851	21310
710.969	22570
711.086	21166
711.204	21373
711.322	19744
711.439	20738
711.557	22417
711.674	20729
711.792	19295
711.909	21612
712.027	23525
712.144	19023
712.262	20283
712.379	22193
712.497	30834
712.614	33409
712.732	27088
712.849	25326
712.966	25172
713.084	27214
713.201	26055
713.318	27296
713.436	25879
713.553	26870
713.670	26246
713.787	27004
713.905	26755
714.022	25955
714.139	23645
714.256	25358
714.373	25184
714.490	25890
714.608	29371
714.725	58909
714.842	61318
714.959	25055
715.076	22496
715.193	21829
715.310	22106
715.427	22205
715.544	21162
715.661	22191
715.778	21968
715.895	24569
716.011	22542
716.128	22438
716.245	22343
716.362	23246
716.479	21504
716.596	21088
716.713	20992
716.829	21778
716.946	22270
717.063	19072
717.180	20330
717.296	19476
717.413	19577
717.530	18615
717.646	18382
717.763	19394
717.880	18188
717.996	18418
718.113	18794
718.229	19110
718.346	16758
718.462	18354
718.579	18602
718.695	20071
718.812	20679
718.928	20329
719.045	17759
719.161	16714
719.277	16897
719.394	17203
719.510	18097
719.626	16695
719.743	20255
719.859	18529
719.975	19382
720.092	24732
720.208	38315
720.324	20160
720.440	17726
720.557	17609
720.673	19691
720.789	24815
720.905	42035
721.021	21959
721.137	17255
721.253	16586
721.369	16394
721.486	17158
721.602	20445
721.718	16732
721.834	15111
721.950	15255
722.066	14964
722.181	14679
722.297	14861
722.413	15191
722.529	15170
722.645	15026
722.761	14635
722.877	14583
722.993	14113
723.108	15083
723.224	13394
723.340	14844
723.456	13705
723.571	13833
723.687	13349
723.803	13900
723.918	13212
724.034	13152
724.150	13448
724.265	14403
724.381	20516
724.497	23777
724.612	12709
724.728	12911
724.843	12007
724.959	13810
725.074	18490
725.190	20920
725.305	13613
725.421	12184
725.536	11220
725.651	11687
725.767	11536
725.882	11744
725.997	11941
726.113	11362
726.228	11126
726.343	12428
726.459	10760
726.574	11650
726.689	10873
726.804	10676
726.920	11665
727.035	11444
727.150	11569
727.265	10890
727.380	10781
727.495	11126
727.610	10568
727.725	11638
727.841	12392
727.956	19121
728.071	16269
728.186	11143
728.301	10425
728.416	11149
728.531	10161
728.645	9443
728.760	10141
728.875	10748
728.990	10121
729.105	11015
729.220	9978
729.335	10179
729.449	9566
729.564	9234
729.679	8312
729.794	9980
729.908	9750
730.023	10174
730.138	7859
730.253	9422
730.367	9921
730.482	8264
730.596	8714
730.711	10244
730.826	9699
730.940	9049
731.055	8777
731.169	8849
731.284	8961
731.398	8236
731.513	9623
731.627	9829
731.742	10079
731.856	10185
731.970	8084
732.085	8651
732.199	8992
732.313	8571
732.428	10641
732.542	17905
732.656	13446
732.771	8749
732.885	9238
732.999	8740
733.113	9119
733.227	8944
733.342	7832
733.456	7596
733.570	8336
733.684	8573
733.798	8287
733.912	7658
734.026	7517
734.140	7331
734.254	8980
734.368	11233
734.482	12554
734.596	7451
734.710	8352
734.824	8016
734.938	7165
735.052	7548
735.166	8276
735.280	8243
735.393	6938
735.507	6791
735.621	9199
735.735	13011
735.849	8683
735.962	7918
736.076	7763
736.190	8730
736.303	8740
736.417	10819
736.531	7033
736.644	7425
736.758	7203
736.872	7565
736.985	7022
737.099	7088
737.212	6126
737.326	7295
737.439	7635
737.553	6765
737.666	6657
737.780	6907
737.893	6587
738.007	6248
738.120	6875
738.233	6394
738.347	7035
738.460	6098
738.573	7215
738.687	6480
738.800	7443
738.913	6653
739.026	7002
739.140	7534
739.253	7681
739.366	6793
739.479	6272
739.592	6158
739.705	6596
739.818	7104
739.932	6602
740.045	6100
740.158	6611
740.271	7295
740.384	6221
740.497	6332
740.610	6569
740.723	6720
740.836	6576
740.949	6944
741.062	5970
741.174	6882
741.287	6146
741.400	5485
741.513	6243
741.626	7440
741.739	6197
741.851	6574
741.964	5877
742.077	6282
742.189	6242
742.302	6835
742.415	6093
742.527	5859
742.640	5706
742.753	6292
742.865	5798
742.978	5870
743.090	6255
743.203	6200
743.316	5851
743.428	6112
743.541	6437
743.653	5759
743.766	5829
743.878	5930
743.990	5800
744.103	7049
744.215	5743
744.327	5734
744.440	6612
744.552	7478
744.664	6027
744.777	5899
744.889	5138
745.001	6462
745.113	5710
745.226	6046
745.338	6554
745.450	5557
745.562	5620
745.674	5403
745.786	5776
745.898	5476
746.010	5436
746.122	5255
746.234	5988
746.347	5452
746.459	5868
746.570	5545
746.682	4722
746.794	6413
746.906	5604
747.018	4826
747.130	5786
747.242	4988
747.354	6415
747.466	6178
747.577	5284
747.689	5005
747.801	5701
747.913	5550
748.024	4989
748.136	5382
748.248	5438
748.359	5507
748.471	5164
748.583	6052
748.694	6169
748.806	7457
748.918	5598
749.029	6108
749.141	5925
749.252	5988
749.364	5234
749.475	7447
749.587	6902
749.698	5909
749.809	5860
749.921	6455
750.032	5865
750.144	4939
750.255	5224
750.366	4983
750.478	5901
750.589	5046
750.700	4817
750.811	5501
750.923	6141
751.034	7039
751.145	7103
751.256	5058
751.367	5627
751.479	5272
751.590	4385
751.701	5363
751.812	5041
751.923	5715
752.034	5457
752.145	5548
752.256	4958
752.367	4950
752.478	5335
752.589	5808
752.700	6040
752.811	5319
752.922	4723
753.032	5195
753.143	5425
753.254	5737
753.365	6128
753.476	5861
753.586	5937
753.697	5508
753.808	5875
753.919	4998
754.029	5276
754.140	5303
754.251	5584
754.361	5783
754.472	5555
754.582	5420
754.693	6200
754.804	6202
754.914	6034
755.025	5927
755.135	5795
755.246	5349
755.356	6094
755.466	5892
755.577	5767
755.687	5847
755.798	5656
755.908	5561
756.018	6441
756.129	6433
756.239	5353
756.349	6500
756.460	5351
756.570	6349
756.680	6217
756.790	5696
756.900	6905
757.011	6361
757.121	6244
757.231	6188
757.341	6593
757.451	5724
757.561	6192
757.671	6980
757.781	5942
757.891	7354
758.001	6577
758.111	7090
758.221	6889
758.331	7211
758.441	6851
758.551	7346
758.661	6451
758.771	7704
758.880	8333
758.990	8155
759.100	7568
759.210	8262
759.320	7919
759.429	8153
759.539	8545
759.649	7716
759.758	8393
759.868	8535
759.978	7663
760.087	8178
760.197	9039
760.307	8545
760.416	8192
760.526	8563
760.635	10012
760.745	8819
760.854	9326
760.964	10328
761.073	10357
761.182	9478
761.292	10152
761.401	11095
761.511	10511
761.620	11006
761.729	10641
761.839	10690
761.948	10956
762.057	11194
762.166	11655
762.276	11931
762.385	13726
762.494	12870
762.603	13441
762.712	13631
762.822	13807
762.931	14241
763.040	14450
763.149	15978
763.258	15412
763.367	17527
763.476	17897
763.585	18747
763.694	19305
763.803	20199
763.912	21582
764.021	22633
764.130	23797
764.238	26610
764.347	27647
764.456	29244
764.565	30836
764.674	33980
764.783	37035
764.891	40040
765.000	45567
765.109	52260
765.217	58628
765.326	68417
765.435	81120
765.543	98026
765.652	120842
765.761	154020
765.869	205036
765.978	283338
766.086	408869
766.195	593875
766.303	792344
766.412	682271
766.520	615413
766.629	751781
766.737	565631
766.846	388720
766.954	271969
767.062	199992
767.171	154116
767.279	119891
767.387	96504
767.496	80186
767.604	69959
767.712	62863
767.820	54363
767.928	50421
768.037	45468
768.145	43815
768.253	42671
768.361	40283
768.469	41566
768.577	42062
768.685	43907
768.793	47909
768.901	50761
769.009	59148
769.117	71127
769.225	89758
769.333	120853
769.441	178358
769.549	281041
769.657	474559
769.765	706291
769.873	597577
769.981	645245
770.088	462864
770.196	278556
770.304	183493
770.412	131010
770.519	99783
770.627	79581
770.735	63566
770.842	54042
770.950	46706
771.058	41413
771.165	36626
771.273	33162
771.380	29654
771.488	27333
771.595	25188
771.703	23498
771.810	22480
771.918	20264
772.025	20083
772.133	18326
772.240	18077
772.348	17643
772.455	15902
772.562	15306
772.670	15173
772.777	14509
772.884	14158
772.991	12753
773.099	12661
773.206	11894
773.313	12654
773.420	11548
773.528	11285
773.635	10729
773.742	11182
773.849	10956
773.956	10063
774.063	10057
774.170	8794
774.277	10311
774.384	10088
774.491	9133
774.598	9228
774.705	9007
774.812	9855
774.919	9592
775.026	9249
775.133	8018
775.239	8533
775.346	8351
775.453	8457
775.560	8635
775.667	8988
775.773	7702
775.880	8756
775.987	8294
776.093	8079
776.200	7454
776.307	6347
776.413	7606
776.520	6705
776.627	7275
776.733	6562
776.840	6152
776.946	7186
777.053	6074
777.159	6885
777.266	4523
777.372	7475
777.478	6224
777.585	7072
777.691	5713
777.798	6558
777.904	6413
778.010	7480
778.117	6706
778.223	5680
778.329	6281
778.435	5544
778.542	6003
778.648	5424
778.754	5676
778.860	5306
778.966	5143
779.072	5597
779.178	6020
779.284	5966
779.391	5655
779.497	5998
779.603	8866
779.708	11086
779.815	22946
779.920	76458
780.026	163911
780.132	28435
780.238	8004
780.344	7396
780.450	6469
780.556	6194
780.661	5070
780.767	6019
780.873	5220
780.979	4974
781.085	4167
781.190	5412
781.296	4490
781.402	4308
781.507	4255
781.613	4434
781.719	4361
781.824	5399
781.930	5585
782.035	5098
782.141	4245
782.246	4199
782.352	4060
782.457	4234
782.563	3791
782.668	4428
782.773	3707
782.879	3813
782.984	4213
783.090	5331
783.195	4985
783.300	5187
783.405	3977
783.511	3881
783.616	4693
783.721	4646
783.826	4236
783.932	4285
784.037	3884
784.142	4173
784.247	3236
784.352	4280
784.457	4143
784.562	3797
784.667	4087
784.772	3900
784.877	3721
784.982	4365
785.087	3892
785.192	4421
785.297	3860
785.402	3969
785.507	4171
785.611	4607
785.716	3491
785.821	3701
785.926	2791
786.031	3210
786.135	3306
786.240	3767
786.345	2811
786.450	4944
786.554	2936
786.659	3987
786.763	2099
786.868	3118
786.973	4710
787.077	3346
787.182	3793
787.286	3977
787.391	3073
787.495	2587
787.600	2314
787.704	3498
787.809	3249
787.913	3264
788.017	3503
788.122	2885
788.226	3523
788.330	2380
788.435	3590
788.539	3125
788.643	3278
788.747	3445
788.852	2920
788.956	3627
789.060	2954
789.164	2909
789.268	2202
789.372	2554
789.476	2938
789.580	2606
789.684	3150
789.788	2915
789.892	2112
789.996	3934
790.100	2675
790.204	2753
790.308	2856
790.412	2501
790.516	3164
790.620	3014
790.724	3240
790.828	2935
790.931	2671
791.035	4470
791.139	4330
791.242	2078
791.346	3956
791.450	2074
791.554	3494
791.657	2493
791.761	4062
791.864	3249
791.968	2369
792.072	3188
792.175	2909
792.279	2181
792.382	3051
792.486	2864
792.589	2481
792.693	3283
792.796	2018
792.899	3727
793.003	2770
793.106	1132
793.209	1924
793.313	3823
793.416	750
793.519	3550
793.623	2841
793.726	3205
793.829	2301
793.932	3324
794.035	2605
794.138	3772
794.242	3165
794.345	3681
794.448	6761
794.551	11859
794.654	42848
794.757	96608
794.860	19087
794.963	4477
795.066	1981
795.169	3647
795.272	2096
795.375	3079
795.477	2354
795.580	2562
795.683	1367
795.786	3169
795.889	779
795.991	3156
796.094	2642
796.197	1228
796.300	2959
796.402	2202
796.505	1708
796.608	2577
796.710	2816
796.813	2519
796.915	2486
797.018	3030
797.120	2015
797.223	1310
797.326	3208
797.428	1623
797.530	1720
797.633	1813
797.735	2634
797.838	3145
797.940	3965
798.042	2122
798.145	1776
798.247	3236
798.349	614
798.452	1820
798.554	2126
798.656	1581
798.758	1737
798.860	2445
798.962	1187
799.065	2034
799.167	1264
799.269	2773
799.371	2715
799.473	2785
799.575	1653
799.677	2307
799.779	3613
799.881	1316
799.983	2364
800.085	1928
800.187	1895
800.289	709
800.390	2330
800.492	1842
800.594	2511
800.696	1695
800.798	2391
800.899	1816
801.001	1376
801.103	1118
801.205	1095
801.306	2112
801.408	1094
801.509	1759
801.611	2026
801.713	2364
801.814	911
801.916	2119
802.017	1743
802.119	832
802.220	1950
802.322	170
802.423	4394
802.525	1070
802.626	2603
802.727	1982
802.829	1705
802.930	-488
803.031	2076
803.133	1504
803.234	1410
803.335	1982
803.436	782
803.538	1295
803.639	551
803.740	2375
803.841	723
803.942	2021
804.043	1515
804.144	930
804.245	788
804.346	356
804.447	1352
804.548	1702
804.649	2809
804.750	1503
804.851	944
804.952	525
805.053	1050
805.154	308
805.255	1895
805.355	1452
805.456	831
805.557	671
805.658	361
805.758	2630
805.859	1674
805.960	1444
806.061	975
806.161	1549
806.262	871
806.362	982
806.463	1236
806.564	1636
806.664	631
806.765	1395
806.865	1346
806.966	2400
807.066	1075
807.166	2177
807.267	1660
807.367	513
807.468	1321
807.568	177
807.668	1744
807.769	1923
807.869	718
807.969	1414
808.069	1178
808.170	1194
808.270	544
808.370	1934
808.470	1156
808.570	684
808.670	38
808.770	1112
808.870	114
808.970	2124
809.070	635
809.170	462
809.271	2127
809.370	1446
809.470	1575
809.570	1071
809.670	485
809.770	1390
809.870	1520
809.970	1459
810.070	1594
810.169	1483
810.269	4
810.369	1829
810.469	483
810.568	1201
810.668	275
810.768	1405
810.867	1649
810.967	731
811.066	947
811.166	1033
811.265	552
811.365	975
811.464	-226
811.564	2024
811.663	1076
811.763	217
811.862	1438
811.962	1640
812.061	1198
812.160	607
812.260	1091
812.359	888
812.458	1924
812.557	5692
812.657	8597
812.756	3100
812.855	931
812.954	1083
813.053	1607
813.153	1275
813.252	301
813.351	1291
813.450	188
813.549	469
813.648	1100
813.747	1503
813.846	1068
813.945	1124
814.044	925
814.143	933
814.242	1552
814.341	208
814.439	1236
814.538	1861
814.637	344
814.736	350
814.835	684
814.933	691
815.032	1186
815.131	649
815.229	1294
815.328	1385
815.427	1097
815.525	1527
815.624	1442
815.722	1303
815.821	974
815.919	1144
816.018	284
816.116	1515
816.215	1747
816.313	846
816.412	1355
816.510	508
816.609	2724
816.707	1250
816.805	785
816.904	-71
817.002	954
817.100	2130
817.198	1443
817.296	1542
817.395	1196
817.493	2338
817.591	1493
817.689	2586
817.787	2330
817.885	5411
817.983	9018
818.081	18231
818.179	44390
818.277	123250
818.375	109650
818.473	23257
818.571	8511
818.669	4954
818.767	4913
818.865	5564
818.963	6806
819.061	9278
819.158	16543
819.256	37168
819.354	90905
819.452	217307
819.549	138713
819.647	31742
819.745	12304
819.842	7209
819.940	4667
820.038	3663
820.135	3693
820.233	2870
820.330	1638
820.428	1207
820.525	2586
820.623	2136
820.720	722
820.818	2565
820.915	1243
821.012	1712
821.110	219
821.207	1770
821.304	314
821.402	1571
821.499	1976
821.596	2011
821.693	138
821.791	1588
821.888	1884
821.985	2275
822.082	1816
822.179	1960
822.276	243
822.373	1086
822.470	436
822.567	1801
822.664	457
822.761	1371
822.858	-26
822.955	920
823.052	978
823.149	921
823.246	259
823.343	-248
823.440	1113
823.536	589
823.633	961
823.730	704
823.827	356
823.923	253
824.020	1128
824.117	546
824.213	245
824.310	995
824.407	-115
824.503	623
824.600	1163
824.696	465
824.793	1474
824.889	730
824.986	974
825.082	1120
825.179	594
825.275	424
825.371	-228
825.468	1207
825.564	231
825.660	463
825.757	612
825.853	782
825.949	-470
826.045	1127
826.142	249
826.238	787
826.334	-375
826.430	-610
826.526	1494
826.622	457
826.718	71
826.814	-493
826.910	1444
827.006	646
827.102	-154
827.198	1231
827.294	365
827.390	885
827.486	705
827.582	-262
827.678	140
827.774	692
827.869	-56
827.965	1728
828.061	-146
828.157	1408
828.252	870
828.348	-56
828.444	1309
828.539	-134
828.635	428
828.731	1251
828.826	-454
828.922	826
829.017	-670
829.113	1386
829.208	240
829.304	310
829.399	1716
829.495	-54
829.590	665
829.685	260
829.781	88
829.876	176
829.971	951
830.066	553
830.162	289
830.257	-79
830.352	189
830.447	1093
830.543	334
830.638	-489
830.733	1511
830.828	-471
830.923	1163
831.018	601
831.113	330
831.208	-25
831.303	21
831.398	709
831.493	-305
831.588	519
831.683	-116
831.778	1301
831.873	315
831.967	1236
832.062	52
832.157	-318
832.252	964
832.346	9
832.441	783
832.536	473
832.631	2136
832.725	2415
832.820	501
832.914	-208
833.009	-389
833.104	477
833.198	1272
833.293	105
833.387	213
833.482	54
833.576	23
833.670	1227
833.765	348
833.859	141
833.954	845
834.048	405
834.142	-168
834.237	124
834.331	405
834.425	722
834.519	326
834.613	1738
834.708	-364
834.802	1305
834.896	-437
834.990	553
835.084	379
835.178	-221
835.272	-423
835.366	85
835.460	611
835.554	403
835.648	-163
835.742	-455
835.836	-317
835.930	-921
836.024	431
836.117	776
836.211	356
836.305	760
836.399	1475
836.493	-441
836.586	275
836.680	-28
836.774	-299
836.867	984
836.961	-630
837.055	92
837.148	535
837.242	13
837.335	57
837.429	287
837.522	-77
837.616	1215
837.709	1911
837.803	1017
837.896	1331
837.989	399
838.083	1287
838.176	2606
838.269	1728
838.363	1426
838.456	-132
838.549	1546
838.642	-42
838.735	2438
838.829	1885
838.922	194
839.015	507
839.108	16
839.201	18
839.294	360
839.387	-294
839.480	-295
839.573	909
839.666	1391
839.759	-139
839.852	71
839.945	743
840.038	465
840.131	-431
840.223	-308
840.316	684
840.409	616
840.502	-305
840.594	983
840.687	-139
840.780	503
840.873	-62
840.965	329
841.058	696
841.150	2108
841.243	727
841.336	1250
841.428	145
841.521	-120
841.613	-224
841.706	698
841.798	269
841.890	473
841.983	-291
842.075	619
842.167	65
842.260	94
842.352	1164
842.444	652
842.537	2994
842.629	4106
842.721	746
842.813	937
842.905	-570
842.997	381
843.090	426
843.182	1131
843.274	2053
843.366	5255
843.458	11678
843.550	8500
843.642	983
843.734	578
843.826	638
843.918	1498
844.009	1048
844.101	673
844.193	647
844.285	232
844.377	448
844.469	788
844.560	439
844.652	1033
844.744	629
844.835	-234
844.927	907
845.019	450
845.110	516
845.202	774
845.293	-65
845.385	-276
845.476	-62
845.568	426
845.659	-53
845.751	613
845.842	131
845.934	-380
846.025	-701
846.116	210
846.208	308
846.299	-381
846.390	-258
846.482	460
846.573	614
846.664	770
846.755	500
846.846	1410
846.937	-827
847.029	-214
847.120	253
847.211	-152
847.302	1010
847.393	-731
847.484	745
847.575	210
847.666	420
847.757	120
847.847	92
847.938	1030
848.029	669
848.120	-10
848.211	355
848.302	-243
848.392	411
848.483	847
848.574	-188
848.664	-19
848.755	-599
848.846	1327
848.936	-240
849.027	-427
849.118	604
849.208	-8
849.299	67
849.389	-187
849.480	716
849.570	-141
849.661	760
849.751	1200
849.841	1127
849.932	-195
850.022	-372
850.112	381
850.203	-632
850.293	517
850.383	-52
850.474	-921
850.564	-376
850.654	-271
850.744	-367
850.834	444
850.924	14
851.014	-365
851.104	-252
851.194	147
851.284	743
851.374	440
851.464	189
851.554	283
851.644	320
851.734	1753
851.824	1035
851.914	938
852.004	1933
852.094	1413
852.183	624
852.273	758
852.363	-472
852.452	410
852.542	-76
852.632	-32
852.721	-141
852.811	387
852.901	-404
852.990	125
853.080	239
853.169	-480
853.259	-417
853.348	-269
853.438	125
853.527	197
853.617	-207
853.706	527
853.795	369
853.885	1925
853.974	2725
854.063	6067
854.152	9001
854.242	2720
854.331	868
854.420	141
854.509	-205
854.598	-293
854.687	416
854.777	512
854.866	-623
854.955	-51
855.044	-795
855.133	627
855.222	665
855.311	-173
855.400	-78
855.488	-311
855.577	49
855.666	-243
855.755	335
855.844	1501
855.933	845
856.021	831
856.110	295
856.199	-646
856.288	-600
856.376	-43
856.465	-512
856.554	-4
856.642	-298
856.731	526
856.819	805
856.908	8
856.996	-294
857.085	-321
857.173	119
857.262	-437
857.350	96
857.438	121
857.527	607
857.615	618
857.703	457
857.792	347
857.880	107
857.968	-343
858.056	369
858.145	38
858.233	-370
858.321	-501
858.409	-115
858.497	-509
858.585	-258
858.673	471
858.761	-708
858.849	133
858.937	-357
859.025	271
859.113	488
859.201	-882
859.289	724
859.377	-141
859.465	-219
859.552	-607
859.640	-287
859.728	491
859.816	-66
859.903	13
859.991	-723
860.079	-400
860.166	-564
860.254	-385
860.342	564
860.429	-770
860.517	-248
860.604	323
860.692	280
860.779	-1138
860.867	65
860.954	-342
861.042	-500
861.129	188
861.216	-126
861.304	-342
861.391	-216
861.478	220
861.565	-151
861.653	-13
861.740	10
861.827	289
861.914	-123
862.001	-367
862.089	-50
862.176	341
862.263	-481
862.350	237
862.437	-354
862.524	-246
862.611	-481
862.698	-15
862.785	-329
862.871	-809
862.958	-1119
863.045	-338
863.132	161
863.219	125
863.306	-1039
863.392	687
863.479	-218
863.566	-306
863.652	557
863.739	-451
863.826	449
863.912	254
863.999	-776
864.086	151
864.172	-327
864.259	-278
864.345	-572
864.432	-272
864.518	-657
864.604	-220
864.691	-204
864.777	693
864.863	-27
864.950	-632
865.036	-1113
865.122	-93
865.209	-220
865.295	-877
865.381	-134
865.467	-720
865.553	49
865.639	-722
865.726	-868
865.812	334
865.898	1656
865.984	1675
866.070	4092
866.156	5185
866.242	480
866.328	300
866.414	-1072
866.499	-307
866.585	-457
866.671	-493
866.757	-820
866.843	-127
866.928	-269
867.014	31
867.100	-627
867.186	-567
867.271	22
867.357	-79
867.442	1129
867.528	341
867.614	-1041
867.699	-36
867.785	257
867.870	-142
867.956	-535
868.041	-658
868.127	-364
868.212	-51
868.297	408
868.383	-634
868.468	194
868.553	96
868.639	1452
868.724	2461
868.809	2373
868.894	78
868.979	-27
869.065	163
869.150	-186
869.235	-681
869.320	-521
869.405	-424
869.490	-655
869.575	22
869.660	-99
869.745	-320
869.830	-1080
869.915	-496
870.000	-305
870.085	-171
870.169	-975
870.254	61
870.339	-892
870.424	-839
870.509	-53
870.593	-1350
870.678	-264
870.763	-1185
870.847	-81
870.932	-385
871.016	-351
871.101	-367
871.186	-955
871.270	-29
871.355	-1263
871.439	-804
871.523	-340
871.608	-210
871.692	-419
871.777	-678
871.861	-686
871.945	-354
872.030	-638
872.114	-487
872.198	-558
872.282	-545
872.367	-281
872.451	-401
872.535	-250
872.619	-79
872.703	-558
872.787	-982
872.871	-357
872.955	-693
873.039	-717
873.123	-521
873.207	-485
873.291	-114
873.375	-946
873.459	-400
873.543	-438
873.627	-787
873.711	-645
873.794	-656
873.878	-947
873.962	-956
874.045	-475
874.129	-1032
874.137	-1010
874.213	-791
874.245	-697
874.296	-550
874.352	-648
874.380	-699
874.460	-129
874.464	-107
874.547	-1251
874.568	-1154
874.631	-839
874.676	-626
874.714	-462
874.784	-643
874.798	-679
874.881	39
874.892	-34
874.965	-535
874.999	-671
875.048	-865
875.107	-935
875.131	-953
875.215	-54
875.215	-54
875.298	-263
875.323	-426
875.381	-785
875.430	-563
875.465	-392
875.538	-423
875.548	-435
875.631	-426
875.646	-515
875.714	-937
875.753	-715
875.798	-437
875.861	-422
875.881	-432
875.964	-404
875.968	-436
876.047	-836
876.076	-445
876.130	189
876.183	-647
876.213	-1113
876.291	115
876.296	202
876.379	-508
876.398	-523
876.462	-672
876.506	-497
876.545	-258
876.613	190
876.628	275
876.711	-554
876.721	-510
876.794	-102
876.828	-21
876.877	10
876.935	18
876.960	38
877.043	-169
877.043	-170
877.125	-241
877.150	-68
877.208	367
877.258	-137
877.291	-444
877.365	-112
877.374	-92
877.456	-484
877.472	-399
877.539	-31
877.579	-276
877.622	-473
877.687	-219
877.704	-147
877.787	-278
877.794	-259
877.869	-57
877.901	-214
877.952	-580
878.008	-614
878.034	-540
878.115	-721
878.117	-729
878.199	-548
878.222	-459
878.282	-93
878.329	-298
878.364	-470
878.437	136
878.447	203
878.529	-375
878.544	-374
878.611	-285
878.651	-286
878.694	-224
878.758	-262
878.776	-310
878.858	-528
878.865	-500
878.941	-128
878.972	-106
879.023	-5
879.078	-486
879.105	-686
879.185	-122
879.187	-115
879.269	-360
879.292	-383
879.351	-275
879.399	-291
879.433	-269
879.506	74
879.516	82
879.598	-159
879.613	-103
879.680	375
879.720	96
879.762	-238
879.827	-638
879.844	-746
879.926	-35
879.933	11
880.007	404
880.040	73
880.089	-305
880.147	-266
880.171	-282
880.253	113
880.254	113
880.335	227
880.360	188
880.417	495
880.467	1604
880.499	2448
880.574	3542
880.580	3484
880.662	908
880.680	595
880.744	5
880.787	-293
880.825	-460
880.893	-613
880.907	-582
880.989	-123
881.000	-110
881.070	-269
881.106	-317
881.152	-230
881.213	-115
881.233	-130
881.315	-303
881.319	-307
881.396	-330
881.426	-383
881.478	-482
881.532	-458
881.559	-371
881.639	-364
881.641	-364
881.722	157
881.745	85
881.803	16
881.852	30
881.885	-224
881.958	-609
881.966	-590
882.047	-52
882.064	-73
882.129	-241
882.171	-71
882.210	93
882.277	303
882.291	335
882.372	-50
882.383	-70
882.454	-200
882.489	-197
882.535	-259
882.596	-356
882.616	-358
882.697	-506
882.702	-482
882.778	211
882.808	164
882.859	-116
882.914	-62
882.940	1
883.020	-207
883.021	-207
883.102	-414
883.127	-279
883.183	-84
883.233	-403
883.264	-510
883.339	-19
883.345	12
883.426	-327
883.445	-361
883.507	-185
883.551	-61
883.587	-106
883.657	46
883.668	40
883.749	-174
883.763	-226
883.830	234
883.869	505
883.910	266
883.975	-121
883.991	-69
884.072	146
884.081	156
884.152	-406
884.187	-660
884.233	-513
884.292	72
884.314	178
884.394	-142
884.398	-147
884.475	-99
884.504	-27
884.555	126
884.610	25
884.636	-62
884.716	142
884.716	145
884.797	-25
884.821	-166
884.877	67
884.927	405
884.958	386
885.033	78
885.038	50
885.118	-167
885.139	-280
885.199	89
885.244	427
885.279	223
885.350	-85
885.359	-48
885.439	-62
885.456	-63
885.520	-308
885.561	-91
885.600	209
885.667	-89
885.680	-114
885.760	342
885.773	331
885.840	99
885.878	137
885.920	2
885.984	-223
886.000	-111
886.080	411
886.089	444
886.160	80
886.195	26
886.240	296
886.300	537
886.320	467
886.400	184
886.406	154
886.480	-159
886.511	-242
886.560	183
886.616	636
886.640	416
886.720	-168
886.722	-189
886.800	163
886.827	365
886.879	237
886.932	-73
886.959	29
887.038	564
887.039	570
887.119	614
887.143	649
887.198	526
887.248	326
887.278	311
887.354	186
887.358	168
887.437	-81
887.459	-185
887.517	-57
887.564	105
887.596	131
887.669	172
887.676	167
887.755	17
887.774	-18
887.835	-104
887.880	-119
887.914	30
887.985	200
887.994	171
888.073	-62
888.090	-101
888.153	-127
888.195	-171
888.232	66
888.300	625
888.311	580
888.391	94
888.405	-3
888.470	-21
888.510	-1
888.549	309
888.615	907
888.628	861
888.708	513
888.720	444
888.787	-91
888.825	-402
888.866	-145
888.930	307
888.945	293
889.024	218
889.035	202
889.103	363
889.140	440
889.182	191
889.245	-157
889.261	-68
889.340	374
889.349	421
889.419	339
889.454	309
889.498	376
889.559	478
889.577	382
889.656	-44
889.664	-81
889.735	449
889.768	701
889.814	385
889.873	-34
889.978	141
890.083	-41
890.187	561
890.292	-232
890.397	819
890.501	253
890.606	-142
890.710	58
890.815	-61
890.919	405
891.024	349
891.128	439
891.233	259
891.337	-581
891.442	-155
891.546	-126
891.650	-180
891.755	-68
891.859	1124
891.963	149
892.068	569
892.172	-554
892.276	345
892.380	252
892.484	1308
892.589	-383
892.693	25
892.797	-264
892.901	-155
893.005	-495
893.109	-149
893.213	403
893.317	322
893.421	-188
893.525	529
893.629	-568
893.733	425
893.837	-307
893.941	-468
894.045	101
894.148	-57
894.252	255
894.356	264
894.460	96
894.564	-165
894.667	443
894.771	-805
894.875	-318
894.978	462
895.082	252
895.186	-71
895.289	-100
895.393	1298
895.496	10
895.600	-318
895.703	729
895.807	-15
895.910	12
896.014	622
896.117	-262
896.221	103
896.324	148
896.427	-35
896.531	-45
896.634	158
896.737	319
896.840	-401
896.944	-1277
897.047	580
897.150	-1433
897.253	-128
897.356	-693
897.460	-506
897.563	-20
897.666	-627
897.769	319
897.872	81
897.975	-199
898.078	272
898.181	220
898.284	72
898.387	-629
898.490	146
898.593	560
898.695	-24
898.798	86
898.901	1381
899.004	460
899.107	563
899.209	301
899.312	-76
899.415	-208
899.518	344
899.620	-71
899.723	280
899.826	360
899.928	857
900.031	259
900.133	224
900.236	-206
900.338	34
900.441	-197
900.543	170
900.646	545
900.748	593
900.851	726
900.953	412
901.055	-460
901.158	684
901.260	-114
901.362	670
901.465	612
901.567	717
901.669	-733
901.771	-176
901.873	-759
901.976	-455
902.078	-262
902.180	-111
902.282	-83
902.384	-413
902.486	427
902.588	568
902.690	425
902.792	-21
902.894	273
902.996	-431
903.098	36
903.200	638
903.302	87
903.404	167
903.505	-104
903.607	563
903.709	232
903.811	402
903.913	-483
904.014	7
904.116	-212
904.218	701
904.319	-484
904.421	1031
904.523	-354
904.624	-32
904.726	-340
904.827	12
904.929	-174
905.030	-207
905.132	-149
905.233	271
905.335	-1069
905.436	-152
905.537	-598
905.639	262
905.740	-682
905.841	343
905.943	535
906.044	-867
906.145	-674
906.247	38
906.348	-422
906.449	205
906.550	31
906.651	510
906.752	-307
906.854	-599
906.955	-705
907.056	-473
907.157	420
907.258	-174
907.359	-347
907.460	710
907.561	292
907.662	154
907.762	597
907.863	-354
907.964	0
908.065	954
908.166	133
908.267	564
908.367	-237
908.468	-118
908.569	-917
908.670	600
908.770	557
908.871	69
908.971	-312
909.072	595
909.173	-187
909.273	399
909.374	-49
909.474	-46
909.575	124
909.675	1101
909.776	132
909.876	700
909.977	-453
910.077	-153
910.177	-44
910.278	38
910.378	77
910.478	-83
910.579	-677
910.679	-380
910.779	-195
910.879	824
910.980	-285
911.080	-289
911.180	76
911.280	453
911.380	-446
911.480	-36
911.580	-518
911.680	78
911.780	175
911.880	17
911.980	-436
912.080	-253
912.180	-696
912.280	-464
912.380	440
912.480	-88
912.580	-106
912.679	-580
912.779	-191
912.879	-202
912.979	460
913.078	-514
913.178	-33
913.278	-163
913.377	-286
913.477	317
913.577	-169
913.676	409
913.776	-597
913.875	257
913.975	93
914.074	-32
914.174	-294
914.273	-985
914.373	183
914.472	177
914.572	-257
914.671	311
914.770	-8
914.870	-17
914.969	-769
915.068	-609
915.167	-468
915.267	-232
915.366	-1155
915.465	-184
915.564	-1014
915.663	153
915.763	-702
915.862	482
915.961	-18
916.060	-603
916.159	-512
916.258	-888
916.357	187
916.456	-575
916.555	-533
916.654	-364
916.752	792
916.851	-501
916.950	-611
917.049	-193
917.148	-602
917.247	-368
917.345	-135
917.444	-526
917.543	-200
917.642	121
917.740	-562
917.839	113
917.937	132
918.036	21
918.135	77
918.233	44
918.332	-484
918.430	655
918.529	-430
918.627	-620
918.726	101
918.824	4
918.923	-757
919.021	-507
919.119	-591
919.218	462
919.316	-145
919.414	116
919.512	22
919.611	-211
919.709	-262
919.807	-681
919.905	-422
920.003	-2
920.102	293
920.200	174
920.298	454
920.396	219
920.494	-667
920.592	-17
920.690	-124
920.788	247
920.886	-804
920.984	-151
921.082	-427
921.180	651
921.277	-337
921.375	-376
921.473	-178
921.571	-488
921.669	-382
921.766	-19
921.864	80
921.962	-126
922.060	-649
922.157	711
922.255	-132
922.352	91
922.450	1032
922.548	-233
922.645	-115
922.743	70
922.840	449
922.938	289
923.035	647
923.133	-36
923.230	-354
923.327	52
923.425	184
923.522	226
923.619	-483
923.717	-404
923.814	566
923.911	-554
924.008	748
924.106	-453
924.203	-226
924.300	-364
924.397	-120
924.494	461
924.591	511
924.688	-200
924.786	54
924.883	553
924.979	-430
925.077	-291
925.173	887
925.270	-622
925.367	-139
925.464	530
925.561	430
925.658	353
925.755	-181
925.852	-317
925.948	-164
926.045	106
926.142	268
926.239	-730
926.335	-60
926.432	173
926.529	-525
926.625	196
926.722	-87
926.818	217
926.915	517
927.011	105
927.108	-168
927.204	-460
927.301	184
927.397	-369
927.494	-552
927.590	264
927.687	-344
927.783	237
927.879	421
927.976	-16
928.072	-219
928.168	226
928.264	-583
928.361	-565
928.457	-250
928.553	-388
928.649	-103
928.745	-37
928.841	-300
928.937	-177
929.033	309
929.129	-347
929.225	-285
929.321	190
929.417	49
929.513	474
929.609	-238
929.705	-459
929.801	381
929.897	104
929.993	443
930.089	-439
930.184	-1060
930.280	214
930.376	-185
930.471	-63
930.567	34
930.663	62
930.758	-198
930.854	-508
930.950	-78
931.045	365
931.141	-542
931.236	104
931.332	-428
931.427	-136
931.523	-638
931.618	394
931.714	-586
931.809	883
931.905	271
932.000	-481
932.095	-660
932.191	-549
932.286	684
932.381	-222
932.476	480
932.572	-188
932.667	80
932.762	408
932.857	245
932.952	843
933.047	-120
933.142	-766
933.237	-314
933.332	-833
933.427	67
933.522	279
933.617	14
933.712	-23
933.807	-216
933.902	440
933.997	-127
934.092	302
934.187	-275
934.282	-237
934.376	469
934.471	-151
934.566	93
934.661	-321
934.755	-2
934.850	-443
934.945	-133
935.039	-52
935.134	460
935.228	-282
935.323	-511
935.417	482
935.512	-527
935.606	-264
935.701	55
935.795	-265
935.890	-251
935.984	341
936.079	-316
936.173	201
936.267	103
936.362	-783
936.456	-379
936.550	329
936.644	350
936.738	-17
936.833	199
936.927	103
937.021	-520
937.115	-73
937.209	-93
937.303	616
937.397	-431
937.491	29
937.585	497
937.679	-350
937.773	-567
937.867	-375
937.961	-105
938.055	41
938.149	-475
938.243	465
938.337	-920
938.430	244
938.524	-792
938.618	-657
938.712	643
938.805	-31
938.899	-390
938.993	-768
939.086	-493
939.180	-141
939.274	-470
939.367	153
939.461	596
939.554	-505
939.648	-157
939.741	-98
939.835	-318
939.928	35
940.022	-59
940.115	495
940.208	-66
940.302	-453
940.395	-527
940.488	-1510
940.582	23
940.675	116
940.768	-881
940.861	-242
940.954	943
941.048	-156
941.141	-408
941.234	-208
941.327	-910
941.420	985
941.513	-649
941.606	-332
941.699	-248
941.792	-75
941.885	-65
941.978	-13
942.071	-903
942.164	-1084
942.257	-601
942.349	-157
942.442	-154
942.535	-217
942.628	78
942.721	978
942.813	-389
942.906	-434
942.999	119
943.091	-840
943.184	-448
943.277	-766
943.369	316
943.462	-260
943.554	-211
943.647	-941
943.739	-371
943.832	173
943.924	-1427
944.017	-222
944.109	-1444
944.201	-184
944.294	-164
944.386	-1021
944.478	-340
944.571	-715
944.663	-81
944.755	115
944.847	50
944.940	-621
945.032	-625
945.124	-934
945.216	88
945.308	-882
945.400	-318
945.492	365
945.584	-161
945.676	-162
945.768	-501
945.860	-603
945.952	-490
946.044	68
946.136	-485
946.228	-296
946.320	-984
946.412	-826
946.503	-274
946.595	236
946.687	-708
946.779	-686
946.870	-309
946.962	-397
947.054	-238
947.145	241
947.237	-569
947.329	406
947.420	-602
947.512	-394
947.603	-479
947.695	-517
947.786	-1034
947.878	-431
947.969	-290
948.061	-444
948.152	-904
948.243	209
948.335	-428
948.426	-1280
948.517	-38
948.609	147
948.700	-1276
948.791	-541
948.882	-609
948.973	506
949.065	-600
949.156	-319
949.247	-1352
949.338	-341
949.429	-771
949.520	-338
949.611	-1435
949.702	180
949.793	-1264
949.884	29
949.975	-441
950.066	-1103
950.157	-91
950.247	-282
950.338	-890
950.429	-1059
950.520	-21
950.611	-1108
950.701	-522
950.792	190
950.883	-168
950.973	-957
951.064	-289
951.155	-569
951.245	-510
951.336	-92
951.427	-972
951.517	255
951.608	-710
951.698	-1282
951.788	-1312
951.879	-569
951.969	-1747
952.060	-1090
952.150	-816
952.240	344
952.331	-1515
952.421	47
952.511	-1099
952.602	-1233
952.692	-497
952.782	-966
952.872	-876
952.962	-228
953.052	-745
953.143	-856
953.233	-777
953.323	-878
953.413	-1531
953.503	-954
953.593	-214
953.683	-913
953.773	-1951
953.863	-884
953.953	-1361
954.042	-667
954.132	-1091
954.222	12
954.312	-1797
954.402	-826
954.492	-991
954.581	-629
954.671	-266
954.761	-742
954.850	275
954.940	-1016
955.030	-517
955.119	-475
955.209	-983
955.298	-902
955.388	-935
955.477	-478
955.567	-1282
955.656	-383
955.746	-389
955.835	-703
955.925	-674
956.014	-463
956.103	-1549
956.193	-952
956.282	-1222
956.371	-868
956.461	-741
956.550	-1161
956.639	-140
956.728	-926
956.817	-970
956.906	-1079
956.995	-163
957.085	-1067
957.174	-981
957.263	-396
957.352	-618
957.441	-428
957.530	-1486
957.619	-249
957.708	-1281
957.796	446
957.885	-275
957.974	-1043
958.063	-804
958.152	-1173
958.241	-797
958.329	-608
958.418	-369
958.507	-1476
958.596	-468
958.684	-1624
958.773	-679
958.861	-892
958.950	73
959.039	-278
959.127	-1354
959.216	-622
959.304	-447
959.393	-426
959.481	-560
959.570	-22
959.658	-1023
959.746	-435
959.835	-254
959.923	1175
960.011	-1084
960.100	-545
960.188	-818
960.276	-315
960.365	-402
960.453	-306
960.541	-1088
960.629	-666
960.717	-1601
960.805	-515
960.893	-1151
960.981	-1342
961.069	-50
961.158	-1408
961.245	-475
961.333	-395
961.421	-1372
961.509	-1388
961.597	-369
961.685	-874
961.773	-574
961.861	-1621
961.949	-437
962.036	-1578
962.124	101
962.212	-1542
962.299	-1729
962.387	-1249
962.475	-1489
962.562	-1093
962.650	-447
962.738	-1070
962.825	-1195
962.913	-934
963.000	-793
963.088	-1134
963.175	-727
963.263	-1060
963.350	-1554
963.438	-1058
963.525	-996
963.612	1201
963.700	1402
963.787	8859
963.874	3969
963.962	-807
964.049	-896
964.136	-746
964.223	-1781
964.310	-739
964.398	-1081
964.485	-743
964.572	-788
964.659	402
964.746	1244
964.833	-1592
964.920	-1201
965.007	-630
965.094	-1405
965.181	-1520
965.268	-1294
965.355	-852
965.441	-416
965.528	-2002
965.615	222
965.702	-1288
965.789	-1394
965.875	-1494
965.962	-1197
966.049	-1018
966.136	-1236
966.222	-1148
966.309	-497
966.395	-607
966.482	-1339
966.569	-1118
966.655	-277
966.742	-455
966.828	-469
966.915	-647
967.001	-711
967.087	-1138
967.174	-970
967.260	-502
967.347	-718
967.433	1083
967.519	5114
967.605	1457
967.692	-1038
967.778	-1033
967.864	-1049
967.950	-729
968.036	-1490
968.123	-1156
968.209	-657
968.295	-1172
968.381	-329
968.467	-324
968.553	-1918
968.639	-625
968.725	-1789
968.811	293
968.897	-732
968.983	-952
969.069	-1037
969.154	-864
969.240	-758
969.326	-1632
969.412	-1862
969.497	-1084
969.583	-1745
969.669	-612
969.755	-1072
969.840	-1418
969.926	-499
970.012	-1228
970.097	20
970.183	-1289
970.268	-929
970.354	34
970.439	-1324
970.525	3747
970.610	-49
970.696	94
970.781	-841
970.866	-1006
970.952	-512
971.037	-2187
971.122	-810
971.208	-1364
971.293	-1394
971.378	-1715
971.463	-1353
971.549	-1205
971.634	-1578
971.719	-566
971.804	-609
971.889	201
971.974	-720
972.059	-431
972.144	-1171
972.229	-737
972.314	-1289
972.399	-971
972.484	-563
972.569	-1275
972.654	-508
972.739	1576
972.824	1288
972.908	87
972.993	-1012
973.078	265
973.163	-2265
973.247	-656
973.332	-2729
973.417	-976
973.501	-2061
973.586	-1230
973.671	-324
973.755	-1060
973.840	-1018
973.924	-1205
974.009	-852
974.093	-904
974.178	-182
974.262	-177
974.346	218
974.431	-425
974.515	-1177
974.600	-700
974.684	-689
974.768	-1540
974.852	-376
974.937	-1094
975.021	-858
975.105	-1515
975.189	-1520
975.273	-980
975.358	-1721
975.442	-1114
975.526	-1432
975.610	-1446
975.694	-2234
975.778	122
975.862	-1264
975.946	-2621
976.030	-205
976.114	-1526
976.198	-608
976.281	-934
976.365	-1174
976.449	-1293
976.533	-1008
976.617	-936
976.700	-1426
976.784	142
976.868	-1254
976.951	-372
977.035	-1164
977.119	-835
977.202	-1418
977.286	-1621
977.369	-1106
977.453	-716
977.536	-1394
977.620	-2319
977.703	-1438
977.787	-1132
977.870	-415
977.953	-231
978.037	-1497
978.120	688
978.203	-888
978.287	1332
978.370	-460
978.453	-1321
978.536	-1175
978.620	457
978.703	116
978.786	-415
978.869	-2224
978.952	-1860
979.035	-286
979.118	-1234
979.201	-1875
979.284	-941
979.367	-1375
979.450	-620
979.533	-1704
979.616	-887
979.699	-1576
979.782	-1286
979.865	-693
979.948	-972
980.030	-1539
980.113	-1708
980.196	-1836
980.279	-378
980.361	-1817
980.444	-968
980.526	-753
980.609	-1097
980.692	-1603
980.774	-1765
980.857	-1665
980.939	-33
981.022	-1279
981.104	-984
981.187	-1739
981.269	-1086
981.352	-937
981.434	-1561
981.516	-2068
981.599	-691
981.681	-960
981.763	-1123
981.846	-1311
981.928	-1062
982.010	-1722
982.092	-1496
982.174	-1129
982.256	-1693
982.339	-1885
982.421	-1865
982.503	-1545
982.585	-1715
982.667	-1058
982.749	-1357
982.831	-1216
982.913	-3048
982.995	-1046
983.077	-822
983.158	-241
983.240	-1421
983.322	-900
983.404	-865
983.486	-1911
983.568	-218
983.649	-1372
983.731	-1309
983.813	-1695
983.894	-762
983.976	-1755
984.058	-1790
984.139	-1011
984.221	-2157
984.302	-966
984.384	-1441
984.465	-1663
984.547	-1247
984.628	-2465
984.710	-793
984.791	-1423
984.872	-1303
984.954	-1259
985.035	-658
985.116	-2214
985.198	-1835
985.279	-548
985.360	-2081
985.441	-1033
985.522	-703
985.604	-1729
985.685	-2979
985.766	-546
985.847	-424
985.928	-2469
986.009	-771
986.090	-1794
986.171	-331
986.252	-1440
986.333	-1370
986.414	-1826
986.495	-2147
986.576	-1410
986.656	-1129
986.737	-1348
986.818	-1374
986.899	-2215
986.980	-1031
987.060	-538
987.141	-2170
987.222	-1714
987.302	-1300
987.383	-956
987.464	-2111
987.544	-547
987.625	-1484
987.705	-1306
987.786	-1914
987.866	-1116
987.947	-1419
988.027	-1209
988.108	-1791
988.188	-1063
988.268	-1808
988.349	-1894
988.429	-1922
988.509	-495
988.589	-1099
988.670	-2716
988.750	-78
988.830	-1820
988.910	-1314
988.990	-1677
989.070	-2089
989.151	-950
989.231	-1332
989.311	-985
989.391	-1595
989.471	-1529
989.551	-1432
989.631	-1510
989.711	-294
989.791	-2869
989.870	-1484
989.950	-512
990.030	-1710
990.110	-2601
990.190	-1774
990.269	-1833
990.349	-1622
990.429	-1562
990.509	-1254
990.588	-1687
990.668	-939
990.747	-1251
990.827	-1006
990.907	-1240
990.986	-882
991.066	-1642
991.145	-1900
991.225	-707
991.304	-1680
991.383	-1503
991.463	-1166
991.542	-1741
991.622	-1681
991.701	-1476
991.780	-1942
991.859	-1029
991.939	-1713
992.018	-1779
992.097	-1128
992.176	-1480
992.256	-1596
992.335	-1937
992.414	-976
992.493	-1623
992.572	-1598
992.651	-417
992.730	-1644
992.809	-1356
992.888	-2047
992.967	-2395
993.046	-617
993.125	-2333
993.203	-1630
993.282	-1711
993.361	-2047
993.440	-1838
993.519	-2076
993.597	-1344
993.676	-2432
993.755	-673
993.834	-876
993.912	-1875
993.991	-826
994.069	-2279
994.148	-1531
994.226	-2183
994.305	-1078
994.384	-2467
994.462	-996
994.540	-2106
994.619	-2275
994.697	-551
994.776	-2012
994.854	-338
994.932	-1914
995.011	-1156
995.089	-1679
995.167	-1206
995.245	-636
995.324	-2793
995.402	-1489
995.480	-1833
995.558	-1723
995.636	-2507
995.714	-2580
995.792	-1343
995.870	-1917
995.948	-1993
996.026	-1116
996.104	-2070
996.182	-784
996.260	-1818
996.338	-493
996.416	-2577
996.494	-1713
996.572	-1563
996.649	-1996
996.727	-2098
996.805	-1224
996.883	-1764
996.960	-2003
997.038	-1044
997.116	-1962
997.193	-2401
997.271	-977
997.348	-996
997.426	-1870
997.504	-1846
997.581	-563
997.658	-1557
997.736	-1424
997.813	-2543
997.891	-1132
997.968	-1562
998.046	-1936
998.123	-1705
998.200	-1154
998.277	-2794
998.355	-920
998.432	-3467
998.509	-1518
998.586	-1364
998.663	-1944
998.741	-1200
998.818	-1629
998.895	-2772
998.972	-1484
999.049	-1302
999.126	-1822
999.203	-1345
999.280	-1238
999.357	-2493
999.434	-779
999.511	-1290
999.587	-694
999.664	-3066
999.741	-1230
999.818	-993
999.895	-1635
999.971	-2214
1000.048	-1340
1000.125	-1343
1000.202	-2263
1000.278	-1100
1000.355	-1952
1000.431	-2078
1000.508	-1988
1000.584	-1464
1000.661	-459
1000.738	-1943
1000.814	-2499
1000.890	-1781
1000.967	-2489
1001.043	-2171
1001.120	-2203
1001.196	-1986
1001.272	-2308
1001.349	-1437
1001.425	-1311
1001.501	-1789
1001.577	-1868
1001.654	-2292
1001.730	-1572
1001.806	-1382
1001.882	-2960
1001.958	-1776
1002.034	-2276
1002.110	-1615
1002.186	-2349
1002.262	-2508
1002.338	-2028
1002.414	-1611
1002.490	-2022
1002.566	-2406
1002.642	-2491
1002.718	-1124
1002.794	-1845
1002.870	-2503
1002.945	-2014
1003.021	-2822
1003.097	-1700
1003.173	-1653
1003.248	-2516
1003.324	-1541
1003.400	-1330
1003.475	-2586
1003.551	-1717
1003.626	-1972
1003.702	-1653
1003.777	-1987
1003.853	-1726
1003.928	-2220
1004.004	-1802
1004.079	-2136
1004.155	-1877
1004.230	-2726
1004.305	-1107
1004.381	-1984
1004.456	-1930
1004.531	-1874
1004.607	-1619
1004.682	-2259
1004.757	-1810
1004.832	-2823
1004.907	-2663
1004.982	-2043
1005.057	-1776
1005.133	-1328
1005.208	-2105
1005.283	-2424
1005.358	-1586
1005.433	-2134
1005.508	-1835
1005.583	-2901
1005.657	-2864
1005.732	-2148
1005.807	-2254
1005.882	-1836
1005.957	-2388
1006.032	-1955
1006.106	-2217
1006.181	-2181
1006.256	-1086
1006.331	-2407
1006.405	-3133
1006.480	-2002
1006.554	-2309
1006.629	-2121
1006.704	-1914
1006.778	-2023
1006.853	-1343
1006.927	-3270
1007.002	-1253
1007.076	-2111
1007.150	-2842
1007.225	-1731
1007.299	-1125
1007.373	-2363
1007.448	-1868
1007.522	-1678
1007.596	-1839
1007.671	-2789
1007.745	-1428
1007.819	-3445
1007.893	-1664
1007.967	-2274
1008.041	-2677
1008.115	-824
1008.190	-2979
1008.264	-1828
1008.338	-3107
1008.412	-1946
1008.486	-2167
1008.560	-2326
1008.633	-1481
1008.707	-2010
1008.781	-1505
1008.855	-2294
1008.929	-2473
1009.003	-2197
1009.076	-3134
1009.150	-2143
1009.224	-1901
1009.298	-1415
1009.371	-2613
1009.445	-1610
1009.519	-2128
1009.592	-2554
1009.666	-2951
1009.739	-2350
1009.813	-3376
1009.886	-1363
1009.960	-3158
1010.033	-1491
1010.107	-2156
1010.180	-2599
1010.253	-1994
1010.327	-3041
1010.400	-2284
1010.473	-2389
1010.547	-1058
1010.620	-2286
1010.693	-2235
1010.766	-2460
1010.840	-2387
1010.913	-2279
1010.986	-2603
1011.059	-2105
1011.132	-1738
1011.205	-1273
1011.278	-1782
1011.351	-1966
1011.424	-2197
1011.497	-2698
1011.570	-1595
1011.643	-2369
1011.716	-2768
1011.789	-2633
1011.862	-2180
1011.934	-1837
1012.007	-2632
1012.080	-2585
1012.153	-1916
1012.225	-1864
1012.298	-2911
1012.371	-1906
1012.443	-1796
1012.516	-2858
1012.588	-2672
1012.661	-2342
1012.733	-2884
1012.806	-2194
1012.879	-2378
1012.951	-2516
1013.023	-2715
1013.096	-1980
1013.168	-2534
1013.241	-1606
1013.313	-2209
1013.385	-2178
1013.458	-2476
1013.530	-1579
1013.602	-3056
1013.674	-2691
1013.746	-2616
1013.819	-2928
1013.891	-1425
1013.963	-3696
1014.035	-2097
1014.107	-3081
1014.179	-1767
1014.251	-2612
1014.323	-1805
1014.395	-1964
1014.467	-3001
1014.539	-2186
1014.611	-1884
1014.683	-1770
1014.754	-1485
1014.826	-2615
1014.898	-2634
1014.970	-3386
1015.042	-1507
1015.113	-2476
1015.185	-1717
1015.257	-2165
1015.328	-1660
1015.400	-2658
1015.471	-2723
1015.543	-3460
1015.615	-2574
1015.686	-2924
1015.757	-2088
1015.829	-2351
1015.901	-2373
1015.972	-3237
1016.043	-2764
1016.115	-2421
1016.186	-2803
1016.257	-3367
1016.328	-2488
1016.400	-2277
1016.471	-3133
1016.542	-3407
1016.613	-2675
1016.685	-2688
1016.756	-1876
1016.827	-2432
1016.898	-3439
1016.969	-2051
1017.040	-2891
1017.111	-2194
1017.182	-2715
1017.253	-2049
1017.324	-2527
1017.395	-3289
1017.466	-1458
1017.537	-2289
1017.608	-2826
1017.678	-2648
1017.749	-2411
1017.820	-2761
1017.891	-2826
1017.961	-2926
1018.032	-2925
1018.103	-1503
1018.173	-2345
1018.244	-2899
1018.315	-2816
1018.385	-2087
1018.456	-2362
1018.526	-2949
1018.597	-2312
1018.667	-2613
1018.738	-2711
1018.808	-2100
1018.878	-2510
1018.949	-2642
1019.019	-2434
1019.089	-2552
1019.160	-2152
1019.230	-3454
1019.300	-2357
1019.371	-3351
1019.441	-1699
1019.511	-1677
1019.581	-2243
1019.651	-2911
1019.721	-2512
1019.791	-2028
1019.861	-2794
1019.931	-2696
1020.001	-2462
1020.071	-3123
1020.141	-2968
1020.211	-1877
1020.281	-2843
1020.351	-2998
1020.421	-2172
1020.491	-2591
1020.560	-2497
1020.630	-2942
1020.700	-2321
1020.770	-2558
1020.839	-2586
1020.909	-2717
1020.979	-2386
1021.048	-2456
1021.118	-2709
1021.187	-2636
1021.257	-3100
1021.326	-2087
1021.396	-2302
1021.465	-2684
1021.535	-2389
1021.604	-3425
1021.674	-1781
1021.743	-2137
1021.812	-2483
1021.882	-2510
1021.951	-2878
1022.020	-1938
1022.089	-2064
1022.159	-2286
1022.228	-1613
1022.297	-1897
1022.366	-2385
1022.435	-2904
1022.504	-1991
1022.573	-2156
1022.642	-2759
1022.711	-2572
1022.781	-1995
1022.849	-2574
1022.918	-2323
1022.987	-2630
1023.056	-3187
1023.125	-2109
1023.194	-2930
1023.263	-2038
1023.331	-3193
1023.400	-2605
1023.469	-2318
1023.538	-1979
1023.606	-2359
1023.675	-2288
1023.744	-2344
1023.812	-2721
1023.881	-2414
1023.949	-2339
1024.018	-2735
1024.086	-2905
1024.155	-2648
1024.223	-2825
1024.292	-2922
1024.360	-2891
1024.429	-1942
1024.497	-2371
1024.565	-2046
1024.634	-2128
1024.702	-1747
1024.770	-2289
1024.838	-2433
1024.907	-2437
1024.975	-2471
1025.043	-3158
1025.111	-2909
1025.179	-3004
1025.247	-2000
1025.315	-2536
1025.383	-2105
1025.451	-2389
1025.519	-2071
1025.587	-3243
1025.655	-2386
1025.723	-2766
1025.791	-2186
1025.859	-2553
1025.927	-2024
1025.995	-2961
1026.062	-2770
1026.130	-2396
1026.198	-1541
1026.266	-2745
1026.333	-2462
1026.401	-2066
1026.469	-2333
1026.536	-2001
1026.604	-2499
1026.671	-2357
1026.739	-2393
1026.806	-2889
1026.874	-2222
1026.941	-2049
1027.009	-2414
1027.076	-2796
1027.144	-2762
1027.211	-2577
1027.278	-2946
1027.345	-2683
1027.413	-2771
1027.480	-2881
1027.547	-1946
1027.614	-3118
1027.682	-2015
1027.749	-3053
1027.816	-2393
1027.883	-2265
1027.950	-2239
1028.017	-3655
1028.084	-1874
1028.151	-2840
1028.218	-2369
1028.285	-2686
1028.352	-2564
1028.419	-3006
1028.486	-2756
1028.553	-2756
1028.619	-2858
1028.686	-1903
1028.753	-3193
1028.820	-2905
1028.886	-2007
1028.953	-2575
1029.020	-1876
1029.086	-1747
1029.153	-2447
1029.220	-2961
1029.286	-2350
1029.353	-1148
1029.419	-3147
1029.486	-2174
1029.552	-2430
1029.619	-2705
1029.685	-2501
1029.751	-2586
1029.818	-1597
1029.884	-2823
1029.951	-1153
1030.017	-2528
1030.083	-2341
1030.149	-2229
1030.216	-2702
1030.282	-2645
1030.348	-2285
1030.414	-2970
1030.480	-1600
1030.546	-2384
1030.612	-1395
1030.678	-2985
1030.744	-2084
1030.810	-2599
1030.876	-2267
1030.942	-2326
1031.008	-1709
1031.074	-2384
1031.140	-2738
1031.206	-2534
1031.272	-2961
1031.337	-1880
1031.403	-980
1031.469	-2725
1031.534	-2331
1031.600	-1704
1031.666	-2661
1031.731	-2290
1031.797	-2081
1031.863	-2586
1031.928	-2794
1031.994	-3059
1032.059	-1402
1032.125	-3359
1032.190	-2477
1032.256	-2662
1032.321	-2731
1032.386	-2316
1032.452	-1413
1032.517	-2807
1032.582	-2769
1032.647	-1765
1032.713	-2668
1032.778	-2852
1032.843	-2175
1032.908	-2504
1032.974	-1744
1033.039	-3064
1033.104	-1825
1033.169	-2305
1033.234	-1488
1033.299	-2473
1033.364	-2361
1033.429	-2720
1033.494	-2305
1033.559	-2559
1033.624	-1697
1033.688	-2380
1033.753	-2841
1033.818	-2873
1033.883	-1752
1033.948	-2056
1034.013	-2044
1034.077	-2480
1034.142	-2094
1034.207	-2393
1034.271	-1941
1034.336	-1458
1034.400	-1817
1034.465	-2287
1034.530	-1740
1034.594	-2397
1034.658	-1503
1034.723	-1862
1034.787	-1961
1034.852	-2662
1034.916	-2277
1034.981	-2302
1035.045	-2254
1035.109	-2309
1035.173	-2157
1035.238	-2432
1035.302	-3071
1035.366	-2871
1035.430	-2072
1035.495	-2302
1035.559	-1537
1035.623	-2335
1035.687	-2446
1035.751	-2866
1035.815	-2847
1035.879	-2062
1035.943	-1885
1036.007	-2340
1036.071	-2353
1036.135	-2072
1036.198	-1579
1036.262	-3063
1036.326	-2042
1036.390	-2919
1036.454	-1921
1036.517	-1904
1036.581	-2024
1036.645	-2346
1036.709	-2031
1036.772	-2420
1036.836	-2341
1036.900	-2903
1036.963	-1597
1037.026	-1899
1037.090	-1901
1037.154	-2421
1037.217	-2575
1037.280	-2662
1037.344	-2104
1037.407	-2977
1037.471	-1852
1037.534	-2829
1037.597	-1878
1037.661	-3178
1037.724	-2445
1037.787	-2948
1037.850	-2987
1037.913	-2658
1037.977	-2288
1038.040	-2553
1038.103	-2260
1038.166	-3056
1038.229	-1922
1038.292	-3244
1038.355	-1844
1038.418	-2396
1038.481	-1945
1038.544	-2924
1038.607	-2391
1038.670	-2169
1038.732	-2668
1038.795	-2484
1038.858	-2233
1038.921	-2011
1038.984	-1986
1039.046	-1798
1039.109	-2005
1039.172	-3094
1039.234	-3116
1039.297	-2619
1039.360	-2065
1039.422	-2440
1039.485	-2219
1039.547	-2568
1039.610	-2116
1039.672	-2684
1039.734	-3449
1039.797	-2686
1039.859	-2034
1039.922	-2792
1039.984	-2494
1040.046	-2742
1040.109	-2049
1040.171	-2453
1040.233	-2575
1040.295	-2635
1040.358	-2161
1040.420	-2561
1040.482	-2879
1040.544	-2944
1040.606	-2881
1040.668	-1534
1040.730	-2500
1040.792	-2628
1040.854	-2065
1040.916	-2387
1040.978	-2129
1041.040	-1943
1041.102	-2250
1041.164	-3238
1041.225	-2461
1041.287	-2685
1041.349	-2409
1041.411	-3238
1041.472	-2770
1041.534	-2641
1041.596	-2750
1041.657	-2492
1041.719	-2383
1041.781	-2926
1041.842	-3129
1041.904	-2225
1041.965	-1845
1042.027	-1725
1042.088	-2365
1042.150	-2777
1042.211	-2706
1042.272	-1659
1042.334	-3014
1042.395	-2680
1042.456	-2018
1042.518	-2283
1042.579	-2313
1042.640	-2401
1042.701	-1818
1042.763	-2875
1042.824	-3044
1042.885	-2924
1042.946	-2817
1043.007	-2800
1043.068	-2603
1043.129	-1444
1043.190	-2686
1043.251	-2326
1043.312	-2128
1043.373	-2384
1043.434	-1957
1043.495	-3158
1043.556	-2094
1043.616	-1800
1043.677	-3296
1043.738	-2184
1043.799	-2154
1043.859	-2041
1043.920	-2188
1043.981	-3433
1044.041	-2076
1044.102	-2838
1044.162	-2832
1044.223	-2698
1044.284	-2689
1044.344	-2496
1044.405	-2348
1044.465	-2411
1044.525	-1853
1044.586	-2477
1044.646	-2349
1044.707	-2164
1044.767	-2272
1044.827	-2636
1044.887	-2169
1044.948	-2181
1045.008	-2191
1045.068	-2720
1045.128	-2191
1045.188	-2059
1045.249	-1721
1045.309	-2435
1045.369	-2844
1045.429	-3024
1045.489	-2024
1045.549	-3358
1045.609	-3080
1045.669	-2228
1045.729	-2067
1045.789	-2472
1045.848	-2220
1045.908	-3213
1045.968	-2301
1046.028	-2437
1046.088	-2306
1046.147	-1705
1046.207	-1920
1046.267	-2031
1046.326	-2602
1046.386	-1969
1046.446	-1637
1046.505	-2014
1046.565	-1430
1046.624	-2058
1046.684	-760
1046.743	-1325
1046.803	-1588
1046.862	-900
1046.922	0
