'Start Wavelength	183.907
'End Wavelength	1046.922
'Gate Delay	5.000
'Gate Width (ms)	1.050
'Laser Output Level	0.000
'X Position	0.000
'Y Position	0.000
'Z Position	0.000
'Grid Point Number	1.000
'Shot Number	100.000
183.907	2.000
183.977	-390.000
184.047	127
184.116	696
184.186	-840
184.256	236
184.325	-345
184.395	-117
184.465	529
184.534	111
184.604	-252
184.674	738
184.743	-264
184.813	874
184.883	-42
184.952	-69
185.022	86
185.092	310
185.161	-38
185.231	-274
185.301	123
185.370	737
185.440	-298
185.509	434
185.579	-752
185.649	269
185.718	365
185.788	510
185.857	224
185.927	246
185.996	284
186.066	-27
186.136	-798
186.205	96
186.275	212
186.344	155
186.414	-193
186.483	-194
186.553	209
186.622	697
186.692	-50
186.761	913
186.831	824
186.900	-618
186.970	-597
187.039	900
187.109	70
187.178	266
187.248	-20
187.317	29
187.387	-342
187.456	598
187.526	-339
187.595	-384
187.664	-779
187.734	-11
187.803	462
187.873	-22
187.942	22
188.012	1099
188.081	-367
188.150	-231
188.220	177
188.289	-195
188.358	140
188.428	-229
188.497	-313
188.567	809
188.636	-373
188.705	88
188.775	-201
188.844	90
188.913	569
188.983	441
189.052	-19
189.121	-61
189.191	-202
189.260	-135
189.329	373
189.399	-468
189.468	388
189.537	-8
189.606	338
189.676	958
189.745	69
189.814	399
189.883	-876
189.953	467
190.022	1095
190.091	650
190.161	-31
190.230	464
190.299	171
190.368	-70
190.437	-856
190.507	775
190.576	-358
190.645	367
190.714	-272
190.783	-41
190.853	1065
190.922	473
190.991	142
191.060	228
191.129	-317
191.198	969
191.268	-550
191.337	604
191.406	553
191.475	241
191.544	-185
191.613	-149
191.682	-1129
191.752	-12
191.821	-280
191.890	438
191.959	771
192.028	579
192.097	257
192.166	330
192.235	-862
192.304	796
192.373	27
192.442	226
192.511	-818
192.580	-224
192.650	-719
192.719	-540
192.788	333
192.857	354
192.926	511
192.995	410
193.064	-890
193.133	151
193.202	461
193.271	340
193.340	-192
193.409	776
193.478	648
193.547	850
193.615	194
193.684	936
193.753	-822
193.822	536
193.891	-496
193.960	97
194.029	201
194.098	36
194.167	-330
194.236	337
194.305	-6
194.374	-96
194.443	172
194.512	648
194.580	-333
194.649	441
194.718	192
194.787	345
194.856	-542
194.925	622
194.994	-499
195.062	455
195.131	163
195.200	-109
195.269	-99
195.338	-211
195.407	493
195.475	-444
195.544	-528
195.613	291
195.682	-314
195.751	575
195.819	-863
195.888	225
195.957	802
196.026	315
196.094	318
196.163	430
196.232	359
196.301	519
196.369	612
196.438	-685
196.507	-83
196.576	376
196.644	14
196.713	385
196.782	3
196.850	39
196.919	107
196.988	242
197.056	-922
197.125	-209
197.194	43
197.262	1160
197.331	43
197.400	480
197.468	128
197.537	105
197.606	752
197.674	-203
197.743	989
197.812	168
197.880	-105
197.949	329
198.017	935
198.086	401
198.155	-132
198.223	733
198.292	1190
198.360	-96
198.429	-851
198.497	806
198.566	30
198.635	1137
198.703	800
198.772	-133
198.840	41
198.909	926
198.977	-283
199.046	97
199.114	427
199.183	750
199.251	-295
199.320	533
199.388	-455
199.457	-41
199.525	540
199.594	9
199.662	2
199.731	375
199.799	36
199.867	755
199.936	-899
200.004	637
200.073	283
200.141	-21
200.210	-879
200.278	132
200.346	-87
200.415	571
200.483	-59
200.552	457
200.620	-266
200.688	-278
200.757	-201
200.825	-97
200.893	-608
200.962	-297
201.030	154
201.098	33
201.167	-22
201.235	-480
201.303	30
201.372	364
201.440	291
201.508	456
201.577	207
201.645	155
201.713	-301
201.781	-250
201.850	-401
201.918	-115
201.986	-720
202.055	783
202.123	-260
202.191	162
202.259	-371
202.327	-352
202.396	-871
202.464	61
202.532	452
202.600	1438
202.669	58
202.737	189
202.805	-358
202.873	531
202.941	-292
203.009	-249
203.078	-320
203.146	409
203.214	-526
203.282	-658
203.350	71
203.418	-513
203.487	-111
203.555	-93
203.623	-332
203.691	157
203.759	-433
203.827	-225
203.895	-362
203.963	-363
204.031	-187
204.099	-738
204.168	56
204.236	372
204.304	-253
204.372	244
204.440	62
204.508	-346
204.576	-910
204.644	-186
204.712	-704
204.780	43
204.848	279
204.916	54
204.984	342
205.052	189
205.120	-330
205.188	859
205.256	-859
205.324	-254
205.392	-56
205.460	287
205.528	-775
205.596	-137
205.664	50
205.732	-198
205.799	268
205.867	1359
205.935	-533
206.003	406
206.071	-131
206.139	221
206.207	-167
206.275	292
206.343	-50
206.411	-215
206.478	298
206.546	417
206.614	41
206.682	-232
206.750	-997
206.818	149
206.885	112
206.953	-847
207.021	590
207.089	374
207.157	-1368
207.225	84
207.292	-246
207.360	-418
207.428	-830
207.496	625
207.563	677
207.631	-175
207.699	-1284
207.767	-40
207.834	114
207.902	-1
207.970	-93
208.038	-134
208.105	-195
208.173	-27
208.241	-347
208.309	11
208.376	535
208.444	689
208.512	-152
208.579	-751
208.647	294
208.715	453
208.782	141
208.850	-29
208.918	-215
208.985	328
209.053	668
209.120	92
209.188	-884
209.256	410
209.323	-980
209.391	834
209.459	1132
209.526	859
209.594	-345
209.661	-955
209.729	314
209.796	-123
209.864	171
209.932	-1105
209.999	756
210.067	405
210.134	8
210.202	286
210.269	863
210.337	1044
210.404	-953
210.472	-290
210.539	370
210.607	-258
210.674	333
210.742	-691
210.809	-61
210.877	-235
210.944	193
211.012	-826
211.079	1392
211.146	-812
211.214	172
211.281	-381
211.349	367
211.416	358
211.484	-260
211.551	-231
211.618	588
211.686	-125
211.753	-163
211.821	359
211.888	-240
211.955	-114
212.023	77
212.090	174
212.157	-192
212.225	-34
212.292	424
212.359	1015
212.427	4681
212.494	1426
212.561	-372
212.629	300
212.696	-373
212.763	134
212.831	-218
212.898	-1
212.965	340
213.032	1125
213.100	545
213.167	-174
213.234	581
213.301	574
213.369	-294
213.436	234
213.503	-1155
213.570	295
213.638	111
213.705	-560
213.772	-779
213.839	232
213.906	1148
213.973	1023
214.041	160
214.108	348
214.175	670
214.242	555
214.309	439
214.376	75
214.444	-139
214.511	308
214.578	-545
214.645	341
214.712	343
214.779	1052
214.846	-395
214.913	994
214.980	1424
215.048	574
215.115	154
215.182	406
215.249	-219
215.316	450
215.383	283
215.450	273
215.517	-473
215.584	197
215.651	-52
215.718	314
215.785	242
215.852	-24
215.919	455
215.986	726
216.053	-329
216.120	-609
216.187	630
216.254	408
216.321	-3
216.388	948
216.455	-373
216.522	516
216.589	313
216.656	1195
216.722	120
216.789	645
216.856	310
216.923	551
216.990	890
217.057	-131
217.124	750
217.191	232
217.258	184
217.324	493
217.391	1046
217.458	869
217.525	0
217.592	175
217.659	-491
217.725	676
217.792	1277
217.859	1237
217.926	170
217.993	172
218.059	442
218.126	617
218.193	-415
218.260	553
218.327	456
218.393	116
218.460	-230
218.527	-376
218.594	-662
218.660	719
218.727	1374
218.794	52
218.860	405
218.927	188
218.994	-282
219.061	-246
219.127	305
219.194	1559
219.261	551
219.327	-217
219.394	35
219.461	-916
219.527	-476
219.594	916
219.661	522
219.727	-866
219.794	504
219.860	-642
219.927	184
219.994	1035
220.060	1605
220.127	1010
220.193	1039
220.260	-221
220.326	-239
220.393	885
220.460	1309
220.526	1030
220.593	-170
220.659	1594
220.726	208
220.792	2259
220.859	1619
220.925	2010
220.992	3210
221.058	3440
221.125	3733
221.191	3465
221.258	157
221.324	703
221.391	431
221.457	-204
221.524	400
221.590	433
221.657	2603
221.723	1895
221.789	1534
221.856	2209
221.922	-387
221.989	226
222.055	-292
222.121	-336
222.188	1539
222.254	274
222.321	-450
222.387	-773
222.453	312
222.520	154
222.586	-440
222.652	-160
222.719	-1112
222.785	-65
222.851	39
222.918	-1120
222.984	470
223.050	-449
223.116	-1412
223.183	1076
223.249	-972
223.315	-747
223.382	-217
223.448	-775
223.514	-392
223.580	-40
223.647	-1144
223.713	-1009
223.779	-659
223.845	-363
223.911	129
223.978	-1091
224.044	-224
224.110	-1307
224.176	185
224.242	476
224.309	-1216
224.375	205
224.441	4
224.507	-467
224.573	-1263
224.639	-111
224.705	-918
224.772	142
224.838	-336
224.904	46
224.970	166
225.036	104
225.102	96
225.168	626
225.234	838
225.300	-492
225.366	-513
225.432	393
225.499	-140
225.565	-161
225.631	-395
225.697	-263
225.763	802
225.829	219
225.895	-871
225.961	1058
226.027	401
226.093	-264
226.159	676
226.225	820
226.291	1984
226.357	5849
226.423	2201
226.489	831
226.554	491
226.620	619
226.686	-229
226.752	1575
226.818	1688
226.884	6778
226.950	6515
227.016	1387
227.082	1527
227.148	482
227.214	1142
227.279	193
227.345	-119
227.411	13
227.477	-77
227.543	1416
227.609	1527
227.674	1060
227.740	-501
227.806	34
227.872	-692
227.938	302
228.003	1173
228.069	207
228.135	-247
228.201	-185
228.267	-98
228.332	-568
228.398	-39
228.464	1656
228.530	-808
228.595	586
228.661	-780
228.727	969
228.792	958
228.858	626
228.924	-1625
228.990	1836
229.055	-1261
229.121	848
229.187	200
229.252	-574
229.318	-367
229.384	832
229.449	-386
229.515	-1238
229.581	-1254
229.646	1807
229.712	-734
229.777	1298
229.843	1455
229.909	1191
229.974	1097
230.040	462
230.105	687
230.171	132
230.236	569
230.302	985
230.368	455
230.433	-375
230.499	488
230.564	1424
230.630	205
230.695	344
230.761	320
230.826	-1187
230.892	1179
230.957	-226
231.023	-91
231.088	236
231.154	-7
231.219	515
231.284	97
231.350	1230
231.415	-678
231.481	638
231.546	-591
231.612	-8
231.677	-786
231.742	-769
231.808	666
231.873	-181
231.939	-1930
232.004	1208
232.069	1635
232.135	-989
232.200	87
232.265	451
232.331	-538
232.396	-409
232.461	-581
232.527	-582
232.592	-1024
232.657	45
232.723	816
232.788	1220
232.853	-160
232.918	-524
232.984	-806
233.049	-279
233.114	367
233.179	325
233.245	1001
233.310	1182
233.375	-978
233.440	373
233.506	-563
233.571	-202
233.636	-376
233.701	-283
233.766	146
233.832	2029
233.897	-971
233.962	-839
234.027	1130
234.092	1145
234.157	175
234.222	55
234.288	466
234.353	4339
234.418	3471
234.483	1936
234.548	798
234.613	628
234.678	45
234.743	-88
234.808	4706
234.873	1689
234.938	784
235.004	203
235.069	-428
235.134	111
235.199	263
235.264	98
235.329	-1393
235.394	410
235.459	980
235.524	725
235.589	453
235.654	-250
235.719	-1552
235.784	1331
235.849	205
235.913	1579
235.978	1498
236.043	2728
236.108	574
236.173	-153
236.238	679
236.303	-3
236.368	-59
236.433	2180
236.498	1560
236.563	564
236.627	1903
236.692	9803
236.757	6395
236.822	1926
236.887	1469
236.952	1929
237.017	-1016
237.081	1995
237.146	122
237.211	3423
237.276	7046
237.341	17800
237.405	7194
237.470	2286
237.535	2044
237.600	1052
237.664	620
237.729	-458
237.794	-127
237.859	2466
237.923	1300
237.988	1032
238.053	2128
238.118	1604
238.182	4948
238.247	6932
238.312	791
238.376	1721
238.441	-95
238.506	1129
238.570	-348
238.635	1420
238.700	156
238.764	-289
238.829	1692
238.893	3363
238.958	1003
239.023	721
239.087	-101
239.152	729
239.216	-920
239.281	103
239.346	535
239.410	-148
239.475	157
239.539	5309
239.604	3623
239.668	1731
239.733	2
239.797	258
239.862	2006
239.926	4351
239.991	2174
240.055	626
240.120	354
240.184	514
240.249	-533
240.313	372
240.378	233
240.442	3282
240.507	6113
240.571	1581
240.635	2000
240.700	3399
240.764	721
240.829	825
240.893	-1425
240.957	851
241.022	2996
241.086	6449
241.151	1600
241.215	-992
241.279	1128
241.344	2644
241.408	987
241.472	-63
241.537	992
241.601	-25
241.665	-572
241.730	-3
241.794	558
241.858	34
241.922	-274
241.987	247
242.051	-295
242.115	-773
242.179	287
242.244	-408
242.308	187
242.372	-271
242.436	616
242.501	617
242.565	-330
242.629	-657
242.693	678
242.757	-1051
242.822	268
242.886	1318
242.950	591
243.014	-1095
243.078	468
243.142	88
243.206	-314
243.271	-301
243.335	-666
243.399	928
243.463	2884
243.527	16342
243.591	3517
243.655	2200
243.719	119
243.783	1517
243.847	1475
243.911	1685
243.975	1606
244.040	1444
244.104	1522
244.168	352
244.232	82
244.296	1477
244.360	1727
244.424	140
244.488	629
244.552	928
244.615	-1332
244.679	280
244.743	67
244.807	-365
244.871	624
244.935	705
244.999	-1246
245.063	235
245.127	852
245.191	797
245.255	780
245.319	307
245.383	-354
245.446	1486
245.510	-434
245.574	-19
245.638	443
245.702	-662
245.766	2700
245.829	2485
245.893	185
245.957	-360
246.021	873
246.085	692
246.149	528
246.212	5308
246.276	7481
246.340	2713
246.404	764
246.467	1570
246.531	714
246.595	2088
246.659	2076
246.722	262
246.786	1500
246.850	1917
246.913	1960
246.977	388
247.041	326
247.104	479
247.168	886
247.232	3883
247.295	11112
247.359	4637
247.423	971
247.486	2926
247.550	1911
247.614	1148
247.677	1752
247.741	1176
247.804	685
247.868	1180
247.932	2272
247.995	9793
248.059	3101
248.122	-9
248.186	2305
248.249	2408
248.313	13179
248.376	16541
248.440	9832
248.503	2684
248.567	3661
248.630	2228
248.694	4714
248.757	5718
248.821	16289
248.884	9071
248.948	6513
249.011	13130
249.075	17893
249.138	16244
249.202	4646
249.265	2859
249.328	4067
249.392	2293
249.455	2286
249.519	892
249.582	1139
249.645	4140
249.709	1645
249.772	1009
249.835	1027
249.899	1972
249.962	1255
250.025	825
250.089	5665
250.152	9400
250.215	2924
250.279	1554
250.342	2478
250.405	2542
250.468	1479
250.532	2320
250.595	2767
250.658	11683
250.721	26186
250.785	8268
250.848	5938
250.911	2850
250.974	2541
251.038	3335
251.101	10614
251.164	4537
251.227	3906
251.290	2900
251.354	4475
251.417	19095
251.480	21752
251.543	10256
251.606	37706
251.669	28562
251.732	8997
251.795	11809
251.859	11802
251.922	25533
251.985	15686
252.048	6673
252.111	4253
252.174	3344
252.237	6452
252.300	19555
252.363	15052
252.426	37234
252.489	14583
252.552	7261
252.615	3738
252.678	4827
252.741	12177
252.804	13944
252.867	33595
252.930	21930
252.993	12216
253.056	7377
253.119	4104
253.182	3340
253.245	4249
253.308	3527
253.371	2782
253.434	3856
253.497	3819
253.559	9741
253.622	6392
253.685	5347
253.748	5861
253.811	2171
253.874	3237
253.937	3810
254.000	2039
254.062	5177
254.125	9857
254.188	7883
254.251	5447
254.314	2502
254.376	4939
254.439	5463
254.502	4891
254.565	5279
254.628	11577
254.690	5054
254.753	2291
254.816	1706
254.878	2301
254.941	6368
255.004	6959
255.067	2063
255.129	1949
255.192	1310
255.255	175
255.317	1788
255.380	1297
255.443	-53
255.505	554
255.568	161
255.631	-71
255.693	1496
255.756	-501
255.819	1285
255.881	-488
255.944	567
256.006	203
256.069	506
256.132	333
256.194	1328
256.257	4318
256.319	2918
256.382	1362
256.444	895
256.507	268
256.569	-54
256.632	231
256.694	1334
256.757	3820
256.819	14041
256.882	3665
256.944	893
257.007	2637
257.069	1777
257.132	1109
257.194	1287
257.257	587
257.319	-409
257.381	237
257.444	2919
257.506	15585
257.569	18878
257.631	12271
257.693	6624
257.756	2431
257.818	1512
257.880	897
257.943	1215
258.005	189
258.067	-71
258.130	587
258.192	617
258.254	3002
258.317	1704
258.379	1239
258.441	4275
258.503	5301
258.566	5595
258.628	10767
258.690	1795
258.753	1815
258.815	2673
258.877	231
258.939	742
259.001	671
259.064	22
259.126	94
259.188	1352
259.250	872
259.312	2301
259.375	7110
259.437	3583
259.499	775
259.561	81
259.623	2084
259.685	804
259.747	579
259.809	4850
259.872	13402
259.934	18437
259.996	17903
260.058	4441
260.120	559
260.182	1545
260.244	-57
260.306	186
260.368	657
260.430	-446
260.492	1919
260.554	6972
260.616	4855
260.678	8000
260.740	14473
260.802	2148
260.864	1781
260.926	628
260.988	804
261.050	874
261.112	2589
261.174	13507
261.236	12243
261.298	2383
261.359	5014
261.421	9340
261.483	2259
261.545	1631
261.607	-203
261.669	836
261.731	2629
261.793	8780
261.854	2172
261.916	1806
261.978	542
262.040	804
262.102	352
262.164	1526
262.225	2300
262.287	702
262.349	3451
262.411	3098
262.472	1152
262.534	1414
262.596	8326
262.658	2623
262.719	-710
262.781	1692
262.843	6829
262.904	3294
262.966	588
263.028	2162
263.090	10335
263.151	30610
263.213	10169
263.275	3878
263.336	2277
263.398	1427
263.459	573
263.521	839
263.583	2871
263.644	2901
263.706	282
263.767	-311
263.829	385
263.891	-394
263.952	-343
264.014	-1026
264.075	-379
264.137	4459
264.198	1739
264.260	279
264.321	-7
264.383	2502
264.444	7186
264.506	1589
264.567	682
264.629	2028
264.690	4568
264.752	1377
264.813	196
264.875	-671
264.936	135
264.998	265
265.059	-554
265.120	355
265.182	689
265.243	5371
265.305	5197
265.366	1440
265.427	460
265.489	1379
265.550	-1158
265.611	541
265.673	-225
265.734	-808
265.795	252
265.857	-1129
265.918	-615
265.979	1425
266.040	9550
266.102	8756
266.163	1615
266.224	2504
266.286	1321
266.347	-524
266.408	-58
266.469	689
266.530	-145
266.592	-860
266.653	1693
266.714	2992
266.775	812
266.836	-3
266.898	-1319
266.959	-50
267.020	-307
267.081	221
267.142	-198
267.203	-87
267.264	-730
267.326	918
267.387	-924
267.448	-758
267.509	-1007
267.570	-799
267.631	-70
267.692	-1080
267.753	-903
267.814	-1083
267.875	1198
267.936	4449
267.997	1937
268.058	702
268.119	-551
268.180	107
268.241	-766
268.302	-181
268.363	-245
268.424	89
268.485	657
268.546	-595
268.607	-874
268.668	-411
268.729	-312
268.790	-123
268.851	310
268.912	2056
268.972	3507
269.033	738
269.094	119
269.155	-204
269.216	-595
269.277	51
269.338	-485
269.398	-1055
269.459	-1119
269.520	805
269.581	867
269.642	2155
269.702	671
269.763	456
269.824	-295
269.885	1033
269.945	1550
270.006	127
270.067	-1032
270.128	-254
270.188	-1162
270.249	-649
270.310	-935
270.370	439
270.431	-824
270.492	-896
270.553	-70
270.613	989
270.674	4112
270.734	1095
270.795	-89
270.856	541
270.916	175
270.977	453
271.038	95
271.098	650
271.159	1475
271.219	1687
271.280	81
271.340	-525
271.401	-450
271.462	3231
271.522	1412
271.583	130
271.643	28
271.704	-280
271.764	368
271.825	2946
271.885	11846
271.946	20886
272.006	5265
272.066	7322
272.127	17153
272.187	4000
272.248	1775
272.308	1535
272.369	11619
272.429	6916
272.489	2989
272.550	3235
272.610	2906
272.671	1757
272.731	1830
272.791	3829
272.852	1224
272.912	1299
272.972	552
273.033	1503
273.093	1353
273.153	2747
273.214	721
273.274	1363
273.334	5912
273.394	16909
273.455	4664
273.515	4740
273.575	12756
273.635	6199
273.696	6352
273.756	17940
273.816	6383
273.876	2597
273.936	5915
273.997	14361
274.057	2564
274.117	1704
274.177	3402
274.237	17610
274.297	19114
274.358	10258
274.418	12435
274.478	9318
274.538	3145
274.598	1761
274.658	9022
274.718	14723
274.778	4820
274.838	2009
274.898	4482
274.958	19786
275.018	17933
275.078	11573
275.138	3705
275.198	1546
275.258	1270
275.318	1577
275.378	2466
275.438	4102
275.498	2484
275.558	6845
275.618	19277
275.678	12455
275.738	5558
275.798	4431
275.858	2026
275.918	113
275.978	1175
276.038	1369
276.098	752
276.157	1548
276.217	8144
276.277	3815
276.337	1817
276.397	1204
276.457	762
276.517	612
276.576	1048
276.636	-257
276.696	577
276.756	4171
276.815	2964
276.875	648
276.935	810
276.995	404
277.055	-82
277.114	141
277.174	1208
277.234	6898
277.293	3335
277.353	1268
277.413	242
277.472	1094
277.532	498
277.592	1076
277.651	3282
277.711	8821
277.771	2394
277.830	10876
277.890	10531
277.950	5166
278.009	22656
278.069	9352
278.128	5940
278.188	9936
278.248	3554
278.307	9001
278.367	6679
278.426	1678
278.486	273
278.545	635
278.605	359
278.664	-117
278.724	545
278.783	4704
278.843	18117
278.902	4595
278.962	1673
279.021	1510
279.081	1305
279.140	1551
279.199	269
279.259	1525
279.318	1251
279.378	2728
279.437	4529
279.496	24973
279.556	63755
279.615	56834
279.675	12054
279.734	6993
279.793	9767
279.853	22805
279.912	8634
279.971	3961
280.031	3181
280.090	7380
280.149	17289
280.208	9819
280.268	40300
280.327	52130
280.386	9903
280.445	6649
280.505	7420
280.564	3139
280.623	1915
280.682	3300
280.742	6391
280.801	1813
280.860	978
280.919	914
280.978	600
281.037	-29
281.097	-138
281.156	620
281.215	220
281.274	1575
281.333	9503
281.392	8453
281.451	879
281.510	881
281.569	-83
281.628	412
281.688	265
281.747	414
281.806	363
281.865	-57
281.924	-59
281.983	-179
282.042	41
282.101	-395
282.160	937
282.219	-832
282.278	-4
282.337	3942
282.396	1965
282.454	699
282.513	718
282.572	6434
282.631	3834
282.690	990
282.749	-429
282.808	433
282.867	19
282.926	758
282.985	123
283.043	22
283.102	-520
283.161	319
283.220	2290
283.279	8959
283.338	2137
283.396	-209
283.455	329
283.514	-38
283.573	1638
283.631	1256
283.690	-48
283.749	50
283.808	1571
283.866	3534
283.925	-392
283.984	1353
284.043	1208
284.101	486
284.160	-242
284.219	1646
284.277	1491
284.336	1528
284.395	9411
284.453	9553
284.512	2829
284.570	2482
284.629	2067
284.688	1494
284.746	1129
284.805	1306
284.863	2580
284.922	3354
284.981	3293
285.039	5093
285.098	9342
285.156	28155
285.215	93303
285.273	97029
285.332	35155
285.390	16871
285.449	9872
285.507	7427
285.566	4264
285.624	3685
285.683	2182
285.741	1851
285.799	778
285.858	1202
285.916	579
285.975	994
286.033	-18
286.091	-230
286.150	311
286.208	582
286.267	848
286.325	364
286.383	1183
286.442	1533
286.500	-787
286.558	190
286.616	-41
286.675	819
286.733	178
286.791	-181
286.850	734
286.908	1930
286.966	3160
287.024	1148
287.083	-556
287.141	-397
287.199	361
287.257	1273
287.315	253
287.374	248
287.432	3018
287.490	2161
287.548	97
287.606	218
287.664	-290
287.723	728
287.781	1656
287.839	168
287.897	595
287.955	783
288.013	1907
288.071	5609
288.129	23572
288.187	94135
288.245	40952
288.303	10359
288.361	5449
288.419	4232
288.477	2396
288.535	1322
288.593	933
288.651	468
288.709	-184
288.767	261
288.825	694
288.883	487
288.941	-226
288.999	-392
289.057	-571
289.115	-489
289.173	372
289.231	288
289.289	-22
289.346	541
289.404	126
289.462	727
289.520	1026
289.578	312
289.636	-815
289.694	-743
289.751	-342
289.809	76
289.867	-404
289.925	491
289.983	-101
290.040	-961
290.098	-485
290.156	-270
290.214	-106
290.271	-487
290.329	-615
290.387	-1160
290.444	-841
290.502	-92
290.560	-600
290.617	-316
290.675	-713
290.733	-1120
290.790	1466
290.848	215
290.906	-1021
290.963	-138
291.021	-183
291.078	-774
291.136	-24
291.194	2934
291.251	9342
291.309	2458
291.366	-591
291.424	-760
291.481	-280
291.539	-181
291.596	102
291.654	-653
291.711	-597
291.769	72
291.826	953
291.884	352
291.941	-464
291.999	-277
292.056	-465
292.114	-151
292.171	-962
292.228	-243
292.286	127
292.343	1128
292.401	1285
292.458	618
292.515	-15
292.573	829
292.630	108
292.687	947
292.745	45
292.802	873
292.859	4231
292.917	9022
292.974	6137
293.031	889
293.089	-593
293.146	-274
293.203	-387
293.260	23
293.318	610
293.375	1690
293.432	144
293.489	-153
293.546	177
293.604	569
293.661	5317
293.718	20682
293.775	10138
293.832	3263
293.889	1741
293.947	2777
294.004	1273
294.061	1888
294.118	2967
294.175	9082
294.232	12011
294.289	4825
294.346	938
294.403	918
294.460	1419
294.517	1071
294.574	-173
294.631	50
294.688	1382
294.745	4192
294.802	21250
294.859	23792
294.916	9237
294.973	5028
295.030	2620
295.087	1869
295.144	840
295.201	1040
295.258	1035
295.315	1494
295.372	6733
295.429	18602
295.486	6306
295.542	3077
295.599	7173
295.656	15732
295.713	10051
295.770	15314
295.827	5774
295.883	2620
295.940	1368
295.997	2728
296.054	2367
296.111	1849
296.167	530
296.224	587
296.281	361
296.338	173
296.394	523
296.451	735
296.508	4443
296.564	13029
296.621	8412
296.678	14846
296.734	26663
296.791	9683
296.848	3372
296.904	4221
296.961	8455
297.018	16570
297.074	15007
297.131	4756
297.187	2729
297.244	5775
297.301	15740
297.357	38510
297.414	13973
297.470	3959
297.527	2363
297.583	1718
297.640	1613
297.696	1059
297.753	431
297.809	825
297.866	-176
297.922	258
297.979	-181
298.035	872
298.092	1929
298.148	8783
298.204	10337
298.261	3671
298.317	6337
298.374	22526
298.430	14808
298.486	5261
298.543	2563
298.599	1836
298.656	1775
298.712	3552
298.768	9720
298.824	7566
298.881	3049
298.937	1313
298.993	924
299.050	677
299.106	486
299.162	394
299.218	1255
299.275	1319
299.331	1584
299.387	4475
299.443	17654
299.500	22731
299.556	7701
299.612	3094
299.668	2372
299.724	2067
299.780	2682
299.837	1647
299.893	3587
299.949	12250
300.005	18225
300.061	14224
300.117	28048
300.173	15248
300.229	5165
300.285	5021
300.341	7524
300.397	2959
300.453	1905
300.510	1002
300.566	897
300.622	1609
300.678	4832
300.734	12562
300.790	14235
300.845	21791
300.901	12938
300.957	12885
301.013	12709
301.069	4854
301.125	2087
301.181	2669
301.237	1807
301.293	800
301.349	445
301.405	632
301.461	538
301.516	1100
301.572	259
301.628	2925
301.684	3523
301.740	4117
301.796	9813
301.851	6311
301.907	9289
301.963	12546
302.019	16611
302.074	54326
302.130	61233
302.186	27325
302.242	9773
302.297	6363
302.353	5227
302.409	9799
302.464	9966
302.520	7450
302.576	17729
302.631	24818
302.687	12855
302.743	4836
302.798	2116
302.854	1774
302.910	1848
302.965	1709
303.021	3851
303.076	4709
303.132	4429
303.187	6886
303.243	3815
303.299	1426
303.354	1332
303.410	959
303.465	556
303.521	783
303.576	1275
303.632	2663
303.687	4178
303.743	17514
303.798	18471
303.853	6569
303.909	2784
303.964	1988
304.020	3157
304.075	5648
304.130	4253
304.186	8430
304.241	10300
304.297	6966
304.352	3463
304.358	3259
304.407	1604
304.449	2333
304.463	2579
304.518	1973
304.539	2032
304.573	2118
304.629	2498
304.630	2545
304.684	4891
304.720	9804
304.739	12222
304.794	23647
304.811	20561
304.850	12947
304.902	5409
304.905	4939
304.960	2575
304.992	2146
305.015	1832
305.071	2076
305.083	1858
305.126	1091
305.173	1199
305.181	1218
305.236	493
305.264	1147
305.292	1832
305.347	992
305.354	1117
305.402	1868
305.445	1271
305.457	1124
305.512	2748
305.535	2878
305.567	2981
305.622	2677
305.626	2843
305.678	7630
305.716	15240
305.733	17544
305.788	24956
305.807	21717
305.843	16817
305.897	19762
305.898	19763
305.953	23079
305.988	15551
306.008	11646
306.063	5339
306.078	4781
306.118	3696
306.168	2244
306.173	2138
306.228	2333
306.259	1776
306.283	1347
306.338	1922
306.349	1922
306.393	1970
306.440	2322
306.448	2421
306.503	3173
306.530	3562
306.558	5195
306.613	11526
306.620	12640
306.668	18863
306.711	22123
306.723	21825
306.778	17926
306.801	13576
306.833	9169
306.888	4407
306.892	4176
306.943	2587
306.982	2167
306.997	2039
307.052	2674
307.072	2550
307.107	3019
307.162	4916
307.163	4946
307.217	9074
307.253	11493
307.272	11755
307.327	12102
307.343	11035
307.381	8788
307.434	7124
307.436	7396
307.491	15289
307.524	22886
307.546	23526
307.600	21391
307.614	18848
307.655	12220
307.704	6529
307.710	6446
307.765	7378
307.795	9410
307.819	11658
307.874	20526
307.885	21127
307.929	16586
307.975	8778
307.984	8365
308.038	9017
308.065	10544
308.093	19458
308.148	39746
308.156	44433
308.202	67497
308.246	89995
308.257	88821
308.312	49133
308.336	33515
308.366	25240
308.421	17614
308.426	16821
308.475	10557
308.517	6379
308.530	5701
308.585	5115
308.607	4871
308.639	5476
308.694	6993
308.697	7140
308.748	17472
308.787	27844
308.803	26999
308.857	19736
308.877	15239
308.912	11345
308.967	7770
308.967	7734
309.021	9954
309.058	12098
309.076	15433
309.130	27563
309.148	32349
309.185	65123
309.238	117953
309.239	118234
309.293	130767
309.328	119139
309.348	102383
309.402	44781
309.418	30670
309.457	20549
309.508	12249
309.511	12040
309.566	11466
309.598	11592
309.620	13991
309.674	21556
309.688	23589
309.729	21437
309.778	16353
309.783	16026
309.837	11771
309.868	9886
309.892	13555
309.946	23075
309.959	25794
310.001	33397
310.049	41762
310.055	40389
310.109	24258
310.139	14010
310.163	10741
310.218	6169
310.229	5388
310.272	5074
310.319	5022
310.326	4883
310.381	4001
310.409	3499
310.435	3541
310.489	3504
310.499	3574
310.543	4107
310.589	4437
310.598	4455
310.652	4654
310.679	4775
310.706	4286
310.760	2814
310.769	2623
310.814	2407
310.859	2267
310.868	2339
310.923	2581
310.948	2789
310.977	3361
311.031	4410
311.038	4562
311.085	4215
311.128	3529
311.139	3471
311.193	3450
311.218	3353
311.247	3187
311.301	2936
311.308	2887
311.356	2788
311.398	2812
311.410	2884
311.464	3080
311.488	3206
311.518	2976
311.572	2436
311.578	2380
311.626	4011
311.668	5444
311.680	5556
311.734	5926
311.758	6108
311.788	6037
311.842	5843
311.847	5809
311.896	7801
311.937	9536
311.950	9240
312.004	7861
312.027	7208
312.058	5897
312.112	3562
312.117	3327
312.165	3687
312.207	3993
312.297	5975
312.386	4513
312.476	4507
312.566	9384
312.656	4471
312.745	2850
312.835	4291
312.925	4852
313.015	4243
313.104	5108
313.194	2815
313.284	3620
313.374	4840
313.463	3727
313.553	2496
313.643	2943
313.732	2763
313.822	2995
313.912	3494
314.001	4184
314.091	5052
314.180	7234
314.270	5324
314.360	7196
314.449	4361
314.539	3394
314.628	3601
314.718	4418
314.808	6756
314.897	3200
314.987	3638
315.076	4964
315.166	6522
315.255	6496
315.345	5405
315.434	5561
315.524	4949
315.613	5804
315.703	6415
315.792	8420
315.881	20824
315.971	7872
316.060	12302
316.150	20677
316.239	22517
316.328	7425
316.418	3640
316.507	3453
316.597	5648
316.686	4718
316.775	9143
316.865	23452
316.954	5073
317.043	3601
317.133	3919
317.222	2477
317.311	2546
317.400	2478
317.490	5646
317.579	5288
317.668	3667
317.757	6144
317.847	12199
317.936	37154
318.025	15459
318.114	9740
318.203	6958
318.293	9442
318.382	17356
318.471	14093
318.560	21150
318.649	46253
318.738	9763
318.828	7397
318.917	7430
319.006	9659
319.095	23936
319.184	58421
319.273	28636
319.362	12796
319.451	6072
319.540	5649
319.629	10336
319.718	18049
319.807	8946
319.896	18260
319.985	68746
320.074	22046
320.163	7241
320.252	13250
320.341	10383
320.430	8100
320.519	9827
320.608	5574
320.697	5861
320.786	4834
320.875	6140
320.964	7899
321.053	12162
321.142	16164
321.230	16812
321.319	13495
321.408	33166
321.497	13966
321.586	14121
321.675	20388
321.764	18502
321.852	11009
321.941	18162
322.030	11817
322.119	13154
322.207	34129
322.296	31004
322.385	14260
322.474	13192
322.562	38082
322.651	20296
322.740	14884
322.829	23389
322.917	30211
323.006	13193
323.095	11927
323.183	10070
323.272	14268
323.361	25369
323.449	85367
323.538	26915
323.626	61439
323.715	35645
323.804	14091
323.892	57835
323.981	26976
324.069	9780
324.158	32254
324.246	28842
324.335	8857
324.424	12244
324.512	6165
324.601	8573
324.689	23853
324.778	47216
324.866	22520
324.954	5580
325.043	6077
325.131	13242
325.220	26604
325.308	28641
325.397	19208
325.485	11322
325.574	3603
325.662	2783
325.750	3265
325.839	3911
325.927	3068
326.015	5430
326.104	9818
326.192	12637
326.280	3694
326.369	3451
326.457	5236
326.545	8943
326.634	3870
326.722	2576
326.810	2972
326.898	3210
326.987	3490
327.075	8871
327.163	10853
327.251	7929
327.340	17037
327.428	23625
327.516	3697
327.604	3474
327.692	4350
327.781	5095
327.869	10400
327.957	5656
328.045	4418
328.133	3092
328.221	4603
328.309	3814
328.397	2920
328.485	3438
328.574	6790
328.662	19695
328.750	11938
328.838	5265
328.926	2425
329.014	3050
329.102	4626
329.190	14078
329.278	8217
329.366	1727
329.454	2005
329.542	2064
329.630	2374
329.718	2389
329.806	3283
329.893	4323
329.981	2692
330.069	3251
330.157	9640
330.245	26979
330.333	13059
330.421	3972
330.509	6309
330.597	22404
330.684	14681
330.772	6976
330.860	10793
330.948	12933
331.036	4560
331.123	2284
331.211	3300
331.299	4652
331.387	10308
331.475	17642
331.562	5546
331.650	2551
331.738	3846
331.825	7130
331.913	2346
332.001	2651
332.089	4636
332.176	11864
332.264	31907
332.352	21791
332.439	6415
332.527	4424
332.614	4660
332.702	6446
332.790	3760
332.877	13019
332.965	27169
333.052	5116
333.140	5984
333.228	12031
333.315	3233
333.403	4643
333.490	18535
333.578	12268
333.665	10473
333.753	5449
333.840	3198
333.928	5666
334.015	19375
334.103	26115
334.190	75709
334.278	16492
334.365	8710
334.452	5656
334.540	3970
334.627	5998
334.715	9833
334.802	18026
334.889	104208
334.977	91947
335.064	12728
335.151	4527
335.239	5404
335.326	8138
335.413	36719
335.501	46970
335.588	6719
335.675	3861
335.762	6471
335.850	10232
335.937	7629
336.024	22908
336.111	103724
336.199	39902
336.286	7376
336.373	3666
336.460	2789
336.547	2619
336.635	4612
336.722	3897
336.809	3381
336.896	7143
336.983	22193
337.070	54340
337.157	77794
337.245	68281
337.332	44367
337.419	5485
337.506	4262
337.593	5549
337.680	19290
337.767	54404
337.854	14341
337.941	16702
338.028	24031
338.115	6800
338.202	9063
338.289	18631
338.376	69272
338.463	19390
338.550	32771
338.637	31683
338.724	15035
338.811	23122
338.898	4331
338.984	3610
339.071	4308
339.158	5477
339.245	12146
339.332	8500
339.419	14962
339.506	13957
339.593	1996
339.679	2741
339.766	2517
339.853	4113
339.940	8412
340.027	2722
340.113	3038
340.200	4043
340.287	3019
340.374	3872
340.460	7073
340.547	2708
340.634	6332
340.720	23748
340.807	11899
340.894	1980
340.980	3191
341.067	1959
341.154	3197
341.240	4205
341.327	10426
341.414	3898
341.500	2753
341.587	3680
341.674	2789
341.760	6604
341.847	8224
341.933	2982
342.020	814
342.106	1152
342.193	3038
342.279	5137
342.366	4205
342.452	7074
342.539	3895
342.625	9158
342.712	22766
342.798	8557
342.885	4122
342.971	1167
343.058	1896
343.144	1455
343.230	2610
343.317	2392
343.403	1217
343.490	1379
343.576	1206
343.662	1796
343.749	2921
343.835	5216
343.921	8893
344.008	50721
344.094	114493
344.180	22778
344.267	9370
344.353	33511
344.439	35687
344.525	12514
344.612	4211
344.698	4023
344.784	2003
344.870	2416
344.957	2370
345.043	4242
345.129	2862
345.215	6527
345.301	3095
345.387	2264
345.474	1587
345.560	1860
345.646	2877
345.732	3609
345.818	2750
345.904	1875
345.990	3252
346.076	4316
346.162	10112
346.249	3345
346.335	2452
346.421	3429
346.507	13281
346.593	47823
346.679	8966
346.765	3628
346.851	2636
346.937	1848
347.023	2567
347.108	3324
347.194	1568
347.280	2045
347.366	3825
347.452	13172
347.538	56340
347.624	39957
347.710	32603
347.796	5691
347.882	2720
347.967	2541
348.053	5298
348.139	2898
348.225	2479
348.311	2020
348.397	1119
348.482	3068
348.568	3380
348.654	1224
348.740	2922
348.825	1893
348.911	6868
348.997	27433
349.083	52357
349.168	7777
349.254	2470
349.340	2671
349.425	1454
349.511	3729
349.597	4192
349.682	8566
349.768	30720
349.854	12907
349.939	3934
350.025	2227
350.110	1655
350.196	1515
350.282	1104
350.367	2402
350.453	5947
350.538	5552
350.624	2685
350.709	2640
350.795	2207
350.880	1808
350.966	2923
351.051	4968
351.137	3814
351.222	2739
351.308	9068
351.393	24360
351.479	5938
351.564	1795
351.649	2336
351.735	1438
351.820	1215
351.906	2200
351.991	3869
352.076	17168
352.162	23282
352.247	4504
352.332	3439
352.418	4653
352.503	7784
352.588	36908
352.673	26450
352.759	5698
352.844	2272
352.929	3372
353.014	3261
353.100	3947
353.185	7317
353.270	8147
353.355	7960
353.441	2904
353.526	3065
353.611	8037
353.696	8499
353.781	5493
353.866	1456
353.952	2792
354.037	7587
354.122	17126
354.207	14982
354.292	5230
354.377	2151
354.462	2664
354.547	3204
354.632	3883
354.717	5649
354.802	7973
354.887	2906
354.972	2192
355.057	2116
355.142	1927
355.227	2868
355.312	4164
355.397	10277
355.482	26588
355.567	12342
355.652	10633
355.737	10902
355.822	35738
355.907	25349
355.991	5527
356.076	2059
356.161	2048
356.246	2094
356.331	3369
356.416	8343
356.501	61275
356.585	57576
356.670	7268
356.755	5954
356.840	7724
356.924	40568
357.009	138654
357.094	46047
357.179	9697
357.263	6597
357.348	6957
357.433	6359
357.517	5469
357.602	4455
357.687	3639
357.771	4621
357.856	5668
357.941	6398
358.025	28830
358.110	126236
358.195	52367
358.279	7394
358.364	5938
358.448	22988
358.533	63696
358.617	43260
358.702	46127
358.787	14939
358.871	8113
358.956	5412
359.040	2110
359.125	1782
359.209	1827
359.294	2827
359.378	2871
359.462	5585
359.547	3879
359.631	4715
359.716	814
359.800	1988
359.885	5432
359.969	2737
360.053	2792
360.138	3123
360.222	3863
360.306	7592
360.391	6115
360.475	7349
360.559	15656
360.644	21882
360.728	15438
360.812	32652
360.896	88334
360.981	34416
361.065	16274
361.149	5674
361.233	3956
361.318	2615
361.402	3459
361.486	4301
361.570	1936
361.654	4792
361.739	11212
361.823	56498
361.907	86091
361.991	13166
362.075	6793
362.159	15059
362.243	10939
362.327	9277
362.411	14081
362.495	7588
362.580	3604
362.664	2673
362.748	1617
362.832	2939
362.916	4379
363.000	19979
363.084	70499
363.168	101202
363.252	20306
363.336	7834
363.420	11754
363.503	52586
363.587	57416
363.671	8959
363.755	5708
363.839	8731
363.923	3196
364.007	8413
364.091	10152
364.175	17945
364.258	81041
364.342	43426
364.426	44582
364.510	23551
364.594	12088
364.677	17116
364.761	78029
364.845	50335
364.929	14959
365.013	10742
365.096	10436
365.180	11606
365.264	20735
365.347	82465
365.431	32971
365.515	7846
365.598	3645
365.682	3314
365.766	7662
365.849	10120
365.933	4210
366.017	7506
366.100	4829
366.184	1833
366.267	3202
366.351	2055
366.435	1525
366.518	1071
366.602	1063
366.685	1974
366.769	2642
366.852	7048
366.936	10590
367.019	5164
367.103	5630
367.186	12332
367.270	3036
367.353	1160
367.436	1991
367.520	1194
367.603	3071
367.687	4126
367.770	8951
367.853	6615
367.937	23400
368.020	37052
368.104	7669
368.187	7805
368.270	10251
368.353	9070
368.437	17947
368.520	49958
368.603	23328
368.687	25928
368.770	47283
368.853	10759
368.936	12013
369.020	11065
369.103	3315
369.186	1273
369.269	2398
369.352	6435
369.436	9738
369.519	5904
369.602	1284
369.685	3719
369.768	2959
369.851	3942
369.934	1887
370.018	2532
370.101	7964
370.184	7928
370.267	4649
370.350	8232
370.433	12723
370.516	40992
370.599	48680
370.682	11766
370.765	24542
370.848	32533
370.931	58499
371.014	22893
371.097	2928
371.180	3335
371.263	1652
371.346	679
371.429	2436
371.511	2248
371.594	4918
371.677	10007
371.760	12263
371.843	8444
371.926	43019
372.009	100012
372.091	30772
372.174	23209
372.257	59622
372.340	20688
372.423	16431
372.505	20784
372.588	7589
372.671	19178
372.754	58916
372.836	26944
372.919	25182
373.002	47267
373.085	11922
373.167	8954
373.250	24138
373.332	56781
373.415	70176
373.498	140346
373.580	46782
373.663	69097
373.746	88427
373.828	18632
373.911	9227
373.993	10949
374.076	48681
374.159	42417
374.241	17083
374.324	48839
374.406	30382
374.489	43154
374.571	126407
374.654	46138
374.736	24027
374.819	78588
374.901	106863
374.983	104169
375.066	16986
375.148	8210
375.231	38919
375.313	71633
375.395	23618
375.478	4972
375.560	3268
375.643	5611
375.725	22503
375.807	100073
375.890	84544
375.972	40051
376.054	21017
376.136	39451
376.219	13892
376.301	29940
376.383	84535
376.465	29329
376.548	16514
376.630	21994
376.712	71650
376.794	29183
376.877	3845
376.959	2212
377.041	3017
377.123	10980
377.205	10949
377.287	1970
377.369	2646
377.452	2360
377.534	2276
377.616	2492
377.698	2654
377.780	897
377.862	2707
377.944	3356
378.026	526
378.108	2590
378.190	1563
378.272	1736
378.354	1125
378.436	276
378.518	5300
378.600	19218
378.682	15734
378.764	34883
378.846	25139
378.928	7602
379.010	9354
379.091	4800
379.173	2823
379.255	2160
379.337	4093
379.419	15233
379.501	48417
379.583	17456
379.664	4812
379.746	10667
379.828	32342
379.910	43634
379.991	36620
380.073	5949
380.155	4210
380.237	3002
380.318	1865
380.400	2600
380.482	6887
380.564	10440
380.645	10512
380.727	9571
380.809	5316
380.890	3710
380.972	3412
381.053	2819
381.135	3690
381.217	11111
381.298	35032
381.380	15690
381.461	13186
381.543	70399
381.624	79185
381.706	13593
381.787	7204
381.869	8124
381.951	29295
382.032	113769
382.113	66019
382.195	12225
382.276	9820
382.358	21624
382.439	62949
382.521	69651
382.602	107419
382.684	43201
382.765	81642
382.846	69802
382.928	78377
383.009	37694
383.090	24938
383.172	108421
383.253	168590
383.334	62748
383.416	92592
383.497	42078
383.578	12958
383.659	22940
383.741	87613
383.822	252534
383.903	120374
383.984	55007
384.066	111280
384.147	62802
384.228	11245
384.309	8462
384.390	6150
384.471	4809
384.553	5310
384.634	8198
384.715	8321
384.796	4149
384.877	5547
384.958	30399
385.039	33701
385.120	11243
385.201	5452
385.282	7261
385.363	7753
385.444	5271
385.525	11996
385.606	49719
385.687	41313
385.768	8945
385.849	11323
385.930	50165
386.011	86855
386.092	21023
386.173	4913
386.254	5247
386.335	5951
386.416	5247
386.496	20181
386.577	32308
386.658	12274
386.739	6829
386.820	7941
386.901	5341
386.981	4708
387.062	3401
387.143	6965
387.224	33168
387.304	29600
387.385	10865
387.466	6413
387.547	9768
387.627	5261
387.708	13627
387.789	60201
387.869	71807
387.950	17399
388.031	3147
388.111	2057
388.192	13053
388.273	20457
388.353	10274
388.434	5234
388.514	11551
388.595	59092
388.676	73074
388.756	31270
388.837	30365
388.917	16889
388.998	2987
389.078	4060
389.159	3677
389.239	1812
389.320	6841
389.400	3621
389.480	13991
389.561	36556
389.641	17517
389.722	6055
389.802	8351
389.883	14625
389.963	45585
390.043	29235
390.124	9242
390.204	11718
390.284	36203
390.365	22161
390.445	30583
390.525	55406
390.605	39248
390.686	14496
390.766	4872
390.846	4268
390.927	2257
391.007	2356
391.087	4936
391.167	3887
391.247	2442
391.328	8568
391.408	11577
391.488	7733
391.568	1590
391.648	3451
391.728	6057
391.808	6165
391.888	6262
391.969	19122
392.049	30945
392.129	14764
392.209	16858
392.289	41456
392.369	21412
392.449	20876
392.529	11735
392.609	8995
392.689	11934
392.769	40045
392.849	33399
392.929	24439
393.009	60569
393.089	41149
393.169	30289
393.248	97318
393.328	385769
393.408	397487
393.488	98643
393.568	27248
393.648	13354
393.728	8356
393.807	6675
393.887	6065
393.967	5351
394.047	5528
394.127	6521
394.206	10941
394.286	37092
394.366	182110
394.446	181381
394.525	34405
394.605	8291
394.685	11430
394.764	29745
394.844	50681
394.924	32195
395.003	8192
395.083	5059
395.163	4783
395.242	3952
395.322	5018
395.402	2500
395.481	6804
395.561	19362
395.640	55228
395.720	37658
395.799	60098
395.879	42545
395.958	14961
396.038	52161
396.117	234152
396.197	241719
396.276	62616
396.356	23438
396.435	19888
396.515	12879
396.594	14013
396.673	28008
396.753	107656
396.832	352917
396.912	253613
396.991	56157
397.070	15684
397.150	6790
397.229	7259
397.308	8101
397.388	13191
397.467	6661
397.546	3119
397.625	1816
397.705	5558
397.784	4990
397.863	2516
397.942	2169
398.022	3106
398.101	18145
398.180	54754
398.259	25832
398.338	7398
398.417	3607
398.497	2254
398.576	3463
398.655	1206
398.734	2368
398.813	3142
398.892	17576
398.971	59821
399.050	26524
399.129	2322
399.208	1591
399.287	1929
399.366	1094
399.445	1734
399.524	2408
399.603	375
399.682	5380
399.761	15767
399.840	63408
399.919	45106
399.998	5183
400.077	1090
400.156	312
400.235	3689
400.313	1816
400.392	3050
400.471	17197
400.550	26852
400.629	5771
400.708	3948
400.786	3075
400.865	12451
400.944	12963
401.023	6770
401.102	657
401.180	356
401.259	1604
401.338	2970
401.416	3739
401.495	2440
401.574	2600
401.652	997
401.731	3767
401.810	2725
401.888	1195
401.967	543
402.046	609
402.124	2317
402.203	3755
402.281	2897
402.360	3374
402.438	16456
402.517	10518
402.596	3877
402.674	2650
402.753	2076
402.831	1379
402.910	2950
402.988	14313
403.066	51940
403.145	26818
403.223	14949
403.302	38413
403.380	28985
403.459	28666
403.537	10058
403.615	3273
403.694	-373
403.772	1291
403.850	425
403.929	1049
404.007	1185
404.085	5084
404.164	5574
404.242	2140
404.320	2298
404.398	5055
404.477	16753
404.555	88685
404.633	69959
404.711	9170
404.789	1904
404.868	2997
404.946	931
405.024	574
405.102	502
405.180	-128
405.258	154
405.336	2203
405.415	404
405.493	5200
405.571	4693
405.649	999
405.727	1309
405.805	3570
405.883	2498
405.961	3598
406.039	3817
406.117	178
406.195	3104
406.273	19308
406.351	75595
406.429	41994
406.507	7598
406.585	1635
406.663	2144
406.740	3583
406.818	2552
406.896	500
406.974	2785
407.052	4998
407.130	43553
407.208	57085
407.285	10619
407.363	1738
407.441	1724
407.519	1458
407.596	2384
407.674	6492
407.752	26308
407.830	25993
407.907	10069
407.985	1704
408.063	1294
408.141	1339
408.218	4189
408.296	2949
408.373	2221
408.451	2232
408.529	1774
408.606	379
408.684	393
408.762	227
408.839	450
408.917	565
408.994	-200
409.072	556
409.149	106
409.227	2612
409.304	2911
409.382	1935
409.459	1583
409.537	4006
409.614	3300
409.692	1941
409.769	1844
409.846	3541
409.924	5800
410.001	1992
410.079	1807
410.156	1962
410.233	1104
410.311	759
410.388	828
410.465	1412
410.543	578
410.620	671
410.697	1408
410.775	1701
410.852	-460
410.929	2201
411.006	3380
411.083	1280
411.161	4500
411.238	5512
411.315	2998
411.392	737
411.469	2063
411.547	2298
411.624	-8
411.701	653
411.778	1821
411.855	4505
411.932	1655
412.009	573
412.086	1505
412.163	2127
412.240	1998
412.317	3230
412.394	2373
412.471	1036
412.548	-528
412.625	904
412.702	2684
412.779	4483
412.856	2534
412.933	-143
413.010	861
413.087	2408
413.164	15118
413.241	22377
413.318	4002
413.395	3471
413.471	4258
413.548	2178
413.625	1321
413.702	1519
413.779	1995
413.855	-283
413.932	26
414.009	-546
414.086	89
414.162	515
414.239	2293
414.316	15682
414.393	35313
414.469	10176
414.546	933
414.623	1154
414.699	317
414.776	1497
414.853	970
414.929	1063
415.006	1071
415.082	1762
415.159	1138
415.236	1363
415.312	715
415.389	3610
415.465	3914
415.542	1525
415.618	1056
415.695	3026
415.771	1433
415.848	1566
415.924	1688
416.000	974
416.077	1535
416.153	-678
416.230	-1132
416.306	180
416.383	-262
416.459	1107
416.535	19
416.612	267
416.688	-81
416.764	405
416.841	-52
416.917	143
416.993	374
417.069	1405
417.146	2366
417.222	2097
417.298	593
417.374	29
417.451	1841
417.527	1257
417.603	1579
417.679	1150
417.755	1758
417.831	157
417.908	209
417.984	168
418.060	431
418.136	3460
418.212	4960
418.288	1256
418.364	1233
418.440	363
418.516	2604
418.592	3701
418.668	7394
418.744	9736
418.820	6550
418.896	778
418.972	-465
419.048	650
419.124	4617
419.200	2251
419.276	1121
419.352	172
419.428	834
419.504	931
419.579	942
419.655	1059
419.731	1087
419.807	6432
419.883	11165
419.959	7304
420.034	2296
420.110	4980
420.186	22011
420.262	16149
420.337	2590
420.413	1819
420.489	174
420.565	1409
420.640	654
420.716	987
420.792	-98
420.867	923
420.943	972
421.019	3092
421.094	888
421.170	1655
421.245	-749
421.321	978
421.397	1459
421.472	4969
421.548	13553
421.623	8176
421.699	2263
421.774	2912
421.850	1934
421.925	4634
422.001	2475
422.076	2429
422.152	2782
422.227	5222
422.302	6680
422.378	9558
422.453	16084
422.529	41748
422.604	134240
422.679	224069
422.755	138450
422.830	44546
422.905	17132
422.981	8539
423.056	5763
423.131	4591
423.207	2838
423.282	3030
423.357	7323
423.432	4288
423.508	4983
423.583	11364
423.658	6644
423.733	2098
423.808	3579
423.883	3880
423.959	3394
424.034	1557
424.109	1771
424.184	641
424.259	403
424.334	872
424.409	-279
424.484	605
424.559	710
424.634	394
424.709	1724
424.784	2782
424.859	1518
424.934	3186
425.009	16117
425.084	25261
425.159	8750
425.234	2100
425.309	199
425.384	646
425.459	-164
425.534	969
425.609	1009
425.683	1011
425.758	870
425.833	878
425.908	2065
425.983	9774
426.058	26389
426.132	10685
426.207	1877
426.282	5130
426.357	3074
426.431	999
426.506	785
426.581	2101
426.655	722
426.730	302
426.805	909
426.879	1400
426.954	1915
427.029	4745
427.103	27717
427.178	65615
427.253	25694
427.327	3730
427.402	3142
427.476	6274
427.551	1777
427.625	2593
427.700	2518
427.774	917
427.849	2526
427.923	240
427.998	970
428.072	1093
428.147	5540
428.221	19224
428.296	52152
428.370	25284
428.444	4183
428.519	5981
428.593	12400
428.667	11197
428.742	13232
428.816	12099
428.890	36990
428.965	48690
429.039	17674
429.113	14697
429.188	4762
429.262	1242
429.336	3959
429.410	13859
429.485	8536
429.559	10999
429.633	9194
429.707	1982
429.781	8343
429.855	45101
429.930	60990
430.004	39275
430.078	62388
430.152	48890
430.226	69321
430.300	63823
430.374	9614
430.448	4906
430.522	18628
430.596	58001
430.670	32164
430.744	66116
430.818	91473
430.892	18837
430.966	3225
431.040	1872
431.114	283
431.188	-113
431.262	510
431.336	1379
431.410	5707
431.484	16592
431.557	9573
431.631	1105
431.705	2062
431.779	9401
431.853	45421
431.927	29192
432.000	3751
432.074	1398
432.148	1998
432.222	1284
432.295	423
432.369	387
432.443	3579
432.516	27396
432.590	68446
432.664	23702
432.737	2217
432.811	303
432.885	181
432.958	-363
433.032	-183
433.106	-249
433.179	209
433.253	-91
433.326	-733
433.400	-457
433.473	27
433.547	-335
433.620	5
433.694	2692
433.767	2397
433.841	1276
433.914	-516
433.988	-90
434.061	768
434.134	150
434.208	-994
434.281	-392
434.355	-950
434.428	-178
434.501	-262
434.575	71
434.648	683
434.721	-89
434.795	-67
434.868	-635
434.941	-221
435.014	-397
435.088	-709
435.161	441
435.234	2525
435.307	2648
435.381	695
435.454	676
435.527	1821
435.600	1650
435.673	1017
435.746	599
435.819	-253
435.892	-433
435.966	-85
436.039	289
436.112	5
436.185	-480
436.258	-336
436.331	-1600
436.404	-297
436.477	-79
436.550	-1433
436.623	-1
436.696	-617
436.769	333
436.842	769
436.915	444
436.987	567
437.060	528
437.133	-836
437.206	-634
437.279	264
437.352	-825
437.425	16
437.498	37
437.570	3025
437.643	2393
437.716	223
437.789	-422
437.861	1718
437.934	7272
438.007	2908
438.080	6
438.152	1088
438.225	4571
438.298	37251
438.370	101391
438.443	39451
438.516	9624
438.588	1447
438.661	232
438.734	-93
438.806	1082
438.879	937
438.951	1982
439.024	3513
439.096	788
439.169	-385
439.241	312
439.314	-183
439.386	1670
439.459	4178
439.531	6466
439.604	1573
439.676	-185
439.749	-983
439.821	178
439.893	524
439.966	352
440.038	991
440.110	550
440.183	223
440.255	572
440.327	2486
440.400	15778
440.472	65378
440.544	42352
440.617	5336
440.689	3796
440.761	4172
440.833	7404
440.905	3882
440.978	410
441.050	-491
441.122	1126
441.194	-1386
441.266	-204
441.338	448
441.411	2354
441.483	19998
441.555	29868
441.627	7086
441.699	4417
441.771	4022
441.843	964
441.915	653
441.987	-296
442.059	279
442.131	769
442.203	2653
442.275	3551
442.347	3621
442.419	4645
442.491	22863
442.563	58615
442.635	28288
442.706	19203
442.778	15229
442.850	2408
442.922	55
442.994	1649
443.066	3615
443.137	2425
443.209	1045
443.281	3004
443.353	7473
443.425	31741
443.496	107017
443.568	104601
443.640	38090
443.711	7679
443.783	2232
443.855	1681
443.926	1099
443.998	1001
444.070	3083
444.141	2813
444.213	3334
444.285	5307
444.356	4309
444.428	4335
444.499	1493
444.571	145
444.642	426
444.714	1409
444.785	3121
444.857	5784
444.928	14911
445.000	9053
445.071	9870
445.143	11629
445.214	6172
445.285	10953
445.357	31062
445.428	79998
445.500	175387
445.571	114378
445.642	56031
445.714	26851
445.785	26606
445.856	8429
445.928	5699
445.999	4314
446.070	2537
446.141	3409
446.213	4720
446.284	2931
446.355	3109
446.426	2299
446.497	1793
446.569	5075
446.640	6989
446.711	5551
446.782	1760
446.853	4232
446.924	3714
446.995	1877
447.066	2261
447.138	4991
447.209	2864
447.280	-177
447.351	-47
447.422	179
447.493	1947
447.564	3277
447.635	3375
447.706	1411
447.777	-193
447.847	-251
447.918	71
447.989	3000
448.060	3841
448.131	10763
448.202	9575
448.273	4843
448.344	2672
448.414	1060
448.485	90
448.556	1848
448.627	-668
448.698	588
448.768	-198
448.839	617
448.910	5133
448.981	4332
449.051	1243
449.122	803
449.193	-115
449.263	-13
449.334	559
449.405	975
449.475	5283
449.546	4454
449.616	6093
449.687	4955
449.758	760
449.828	81
449.899	-430
449.969	-562
450.040	-132
450.110	2507
450.181	3003
450.251	387
450.322	995
450.392	94
450.463	870
450.533	159
450.604	151
450.674	-139
450.744	556
450.815	85
450.885	1101
450.955	391
451.026	-397
451.096	272
451.166	2453
451.237	7977
451.307	18411
451.377	7853
451.447	310
451.518	579
451.588	268
451.658	778
451.728	3510
451.799	19608
451.869	22783
451.939	5060
452.009	270
452.079	207
452.149	996
452.219	5086
452.289	23276
452.360	18201
452.430	2973
452.500	1664
452.570	2923
452.640	5568
452.710	16887
452.780	25579
452.850	15648
452.920	13259
452.990	4578
453.060	2557
453.129	3444
453.199	6741
453.269	26792
453.339	54796
453.409	82850
453.479	84191
453.549	124193
453.619	130531
453.688	54891
453.758	7349
453.828	2792
453.898	2000
453.968	1538
454.037	853
454.087	748
454.107	701
454.168	-35
454.177	-149
454.247	329
454.249	353
454.316	845
454.330	1065
454.386	1867
454.411	5468
454.456	11594
454.492	14520
454.525	17197
454.574	8654
454.595	4950
454.655	1439
454.665	863
454.734	1896
454.736	1984
454.804	5586
454.817	8614
454.873	21342
454.898	22608
454.943	24981
454.979	16899
455.013	9535
455.060	5160
455.082	3245
455.141	2807
455.152	2683
455.221	14648
455.222	14769
455.291	26258
455.303	24182
455.360	14851
455.384	15607
455.430	17144
455.465	14919
455.499	12704
455.546	17675
455.569	20034
455.627	13876
455.638	12767
455.707	2112
455.708	2107
455.777	863
455.789	936
455.846	1242
455.869	895
455.916	97
455.950	638
455.985	1229
456.031	905
456.054	781
456.112	1078
456.124	1097
456.193	-16
456.193	-24
456.262	1081
456.274	1339
456.332	2463
456.355	2744
456.401	3275
456.436	2825
456.470	2261
456.516	993
456.540	487
456.597	-162
456.609	-360
456.678	285
456.678	284
456.747	-464
456.759	-450
456.817	-126
456.840	31
456.886	122
456.920	136
456.955	277
457.001	483
457.024	605
457.082	1355
457.093	1507
457.162	2705
457.163	2715
457.232	4156
457.243	3873
457.301	2582
457.324	1617
457.370	-136
457.405	59
457.439	349
457.485	533
457.508	584
457.566	815
457.577	876
457.646	691
457.647	700
457.715	1625
457.727	1875
457.784	3275
457.808	4865
457.853	7390
457.889	9123
457.922	10355
457.969	6713
457.991	5624
458.050	5866
458.060	5871
458.129	12109
458.130	12238
458.198	16825
458.211	15168
458.267	8187
458.292	5783
458.336	2490
458.372	2031
458.405	2115
458.453	3607
458.474	4413
458.533	8669
458.543	9240
458.611	22788
458.614	22795
458.680	18749
458.694	15717
458.749	6195
458.775	4395
458.818	1974
458.855	1710
458.887	1289
458.936	928
458.955	845
459.016	939
459.024	985
459.093	1163
459.097	1167
459.162	1064
459.177	1086
459.230	1285
459.257	1767
459.299	2375
459.338	2223
459.368	2007
459.418	1828
459.437	1791
459.499	1617
459.505	1602
459.574	1023
459.579	1048
459.643	1134
459.659	1016
459.711	835
459.740	561
459.780	218
459.820	678
459.849	1017
459.900	1465
459.917	1598
459.981	1438
459.986	1381
460.054	983
460.061	890
460.123	735
460.141	738
460.191	643
460.222	1173
460.260	1858
460.302	2258
460.328	2441
460.382	2031
460.397	1888
460.462	1108
460.465	1091
460.534	1643
460.543	1703
460.602	4345
460.623	5902
460.671	9859
460.703	15783
460.739	19012
460.783	17359
460.808	16041
460.864	4813
460.876	3099
460.944	1508
460.945	1486
461.013	1361
461.024	1360
461.081	1502
461.104	1656
461.150	1548
461.184	1392
461.218	1293
461.264	536
461.286	403
461.345	1058
461.355	1132
461.423	1206
461.425	1207
461.491	1055
461.505	1080
461.559	2741
461.585	3493
461.628	5456
461.665	9037
461.696	11044
461.745	17240
461.764	17865
461.825	8587
461.832	8034
461.901	2049
461.905	2023
461.969	1180
461.985	917
462.037	1951
462.065	2569
462.105	2050
462.145	1765
462.173	2663
462.225	4697
462.241	5061
462.305	8936
462.310	8959
462.378	7760
462.385	6999
462.446	2812
462.465	2278
462.514	1740
462.545	1805
462.582	1651
462.625	1723
462.650	1617
462.705	970
462.718	861
462.785	968
462.786	990
462.854	1933
462.865	2275
462.922	3895
462.945	4521
462.990	4553
463.025	3368
463.058	2597
463.104	1790
463.126	1440
463.184	1151
463.194	1164
463.262	1269
463.264	1275
463.330	1533
463.344	1596
463.398	2169
463.424	2346
463.466	1629
463.504	1338
463.533	1821
463.583	2183
463.601	2283
463.663	2527
463.669	2495
463.737	2537
463.743	2575
463.805	5120
463.823	5803
463.873	8470
463.903	10781
463.940	12023
463.982	14377
464.008	13485
464.062	6926
464.076	6264
464.142	2476
464.144	2377
464.211	1316
464.221	1219
464.279	1021
464.301	1070
464.347	1965
464.381	2540
464.414	2548
464.461	2789
464.482	2900
464.540	3153
464.550	3050
464.617	1968
464.620	1922
464.685	2013
464.699	2076
464.753	2338
464.779	2626
464.820	2568
464.859	2437
464.888	2381
464.938	2211
464.956	2447
465.018	3588
465.023	3554
465.091	2655
465.098	2549
465.158	1954
465.177	1836
465.226	1996
465.257	2162
465.293	2220
465.336	2231
465.361	2584
465.416	3359
465.428	3601
465.495	5066
465.496	5094
465.563	8769
465.575	9576
465.631	11893
465.654	13054
465.698	9742
465.734	5332
465.765	3815
465.813	1815
465.833	1689
465.893	2306
465.900	2209
465.968	1556
465.972	1501
466.035	1481
466.052	1481
466.102	1493
466.131	1485
466.170	1874
466.210	2265
466.237	2218
466.290	2178
466.304	2140
466.369	1989
466.372	1997
466.439	2084
466.449	2117
466.506	2827
466.528	3081
466.573	4394
466.607	5372
466.641	8043
466.687	11857
466.708	13322
466.766	18061
466.775	16815
466.842	6820
466.845	6344
466.909	3069
466.925	2449
466.977	2801
467.004	3117
467.044	2941
467.083	2771
467.111	2634
467.163	2382
467.178	2535
467.242	3197
467.245	3195
467.312	3199
467.321	3204
467.379	2668
467.400	2469
467.446	3367
467.480	4019
467.559	3522
467.638	2000
467.717	2834
467.796	3440
467.875	3313
467.955	2950
468.034	6177
468.113	14924
468.192	21338
468.271	5764
468.350	2633
468.429	4145
468.508	4597
468.588	2873
468.667	2301
468.746	3798
468.825	2891
468.904	3071
468.983	3378
469.062	5237
469.141	6842
469.220	3150
469.299	2149
469.378	1085
469.456	2954
469.535	3038
469.614	1542
469.693	2716
469.772	4320
469.851	6373
469.930	4389
470.009	2349
470.088	1918
470.166	2495
470.245	4622
470.324	4974
470.403	3527
470.482	2509
470.560	2121
470.639	2252
470.718	3263
470.797	3022
470.875	3582
470.954	4556
471.033	5749
471.111	1897
471.190	2297
471.269	1681
471.347	2018
471.426	1598
471.505	2325
471.583	2843
471.662	2452
471.740	1485
471.819	2150
471.898	1258
471.976	2108
472.055	1968
472.133	3113
472.212	4141
472.290	4314
472.369	2351
472.447	1217
472.526	1023
472.604	2641
472.683	2551
472.761	2346
472.839	1407
472.918	1524
472.996	1600
473.075	3070
473.153	3967
473.231	1823
473.310	2771
473.388	3039
473.466	2672
473.545	2466
473.623	3250
473.701	3680
473.780	2254
473.858	844
473.936	3247
474.014	1995
474.093	2572
474.171	4869
474.249	6219
474.327	3801
474.405	1096
474.484	1538
474.562	1782
474.640	2038
474.718	2276
474.796	2160
474.874	2831
474.952	1236
475.030	1965
475.108	2051
475.187	1705
475.265	2188
475.343	4879
475.421	4823
475.499	1600
475.577	1715
475.655	3861
475.733	8148
475.811	14246
475.889	12701
475.966	8356
476.044	2898
476.122	3493
476.200	4666
476.278	2947
476.356	2523
476.434	2150
476.512	3527
476.590	4577
476.667	4697
476.745	2513
476.823	2547
476.901	1661
476.979	1902
477.056	2692
477.134	2115
477.212	2954
477.290	1793
477.367	2348
477.445	2437
477.523	1331
477.601	1917
477.678	1384
477.756	3921
477.834	3178
477.911	2277
477.989	2037
478.066	1711
478.144	2434
478.222	3061
478.299	5572
478.377	5480
478.454	1966
478.532	1713
478.609	2164
478.687	2430
478.764	1845
478.842	1755
478.919	2164
478.997	2710
479.074	1841
479.152	2724
479.229	3056
479.307	1952
479.384	1435
479.461	1225
479.539	2349
479.616	2788
479.694	1784
479.771	2648
479.848	2407
479.926	2631
480.003	4743
480.080	2505
480.157	2189
480.235	1534
480.312	2104
480.389	2201
480.467	4782
480.544	5378
480.621	3150
480.698	1634
480.775	3214
480.853	2157
480.930	2250
481.007	2490
481.084	2881
481.161	2438
481.238	3331
481.315	1276
481.392	1901
481.470	1944
481.547	1837
481.624	1446
481.701	2005
481.778	2369
481.855	2166
481.932	3890
482.009	7117
482.086	5473
482.163	2746
482.240	4089
482.317	8007
482.393	5781
482.470	1668
482.547	3132
482.624	1788
482.701	2837
482.778	2188
482.855	1803
482.932	1451
483.009	1746
483.085	2117
483.162	1682
483.239	3311
483.316	1650
483.393	2259
483.469	2737
483.546	2716
483.623	3008
483.699	1742
483.776	2532
483.853	2264
483.930	3739
484.006	12370
484.083	20390
484.160	7647
484.236	7418
484.313	5921
484.389	4142
484.466	4502
484.543	3100
484.619	4240
484.696	4851
484.772	5778
484.849	5228
484.925	4717
485.002	3988
485.078	4877
485.155	3961
485.231	3856
485.308	3240
485.384	3539
485.461	5567
485.537	10322
485.614	14220
485.690	3742
485.766	3679
485.843	4402
485.919	7001
485.995	6623
486.072	3648
486.148	3192
486.224	3344
486.301	4438
486.377	4544
486.453	3780
486.530	4265
486.606	5222
486.682	4995
486.758	8737
486.835	10721
486.911	7504
486.987	14510
487.063	14784
487.139	17092
487.215	12290
487.292	6146
487.368	3977
487.444	4536
487.520	6134
487.596	4106
487.672	8940
487.748	22413
487.824	32319
487.900	10586
487.976	5110
488.052	4573
488.128	6494
488.204	4220
488.280	5246
488.356	5420
488.432	13658
488.508	21446
488.584	6689
488.660	3346
488.736	4105
488.812	4217
488.888	5310
488.964	7201
489.039	16551
489.115	26027
489.191	15400
489.267	4330
489.343	4272
489.418	3166
489.494	2891
489.570	943
489.646	4393
489.722	2555
489.797	3044
489.873	6919
489.949	16131
490.024	14029
490.100	3534
490.176	3367
490.251	4139
490.327	6249
490.403	3293
490.478	2815
490.554	2918
490.629	2481
490.705	2018
490.781	3678
490.856	2595
490.932	3014
491.007	3041
491.083	3215
491.158	2365
491.234	4652
491.309	12629
491.385	12827
491.460	2891
491.536	4449
491.611	2582
491.686	3682
491.762	4715
491.837	10653
491.913	18700
491.988	27198
492.063	32238
492.139	10059
492.214	5407
492.289	2839
492.365	2821
492.440	3137
492.515	3052
492.590	3007
492.666	3087
492.741	3971
492.816	6839
492.891	3072
492.967	2450
493.042	1777
493.117	1175
493.192	2057
493.267	3739
493.342	8390
493.418	12468
493.493	3240
493.568	2820
493.643	1344
493.718	3919
493.793	5690
493.868	5743
493.943	3798
494.018	2380
494.093	1645
494.168	2619
494.243	1883
494.318	2200
494.393	2128
494.468	1508
494.543	1214
494.618	2595
494.693	1085
494.768	1989
494.842	1882
494.917	1764
494.992	1622
495.067	1317
495.142	1410
495.217	2404
495.292	2453
495.366	2939
495.441	2987
495.516	6091
495.591	6214
495.665	24122
495.740	58663
495.815	23959
495.890	3962
495.964	1197
496.039	5224
496.114	3031
496.188	2409
496.263	2309
496.338	3292
496.412	3653
496.487	4296
496.561	3993
496.636	4620
496.710	3909
496.785	4501
496.860	4792
496.934	1803
497.009	3571
497.083	2960
497.158	2744
497.232	4624
497.307	5569
497.381	3615
497.455	3857
497.530	6893
497.604	4698
497.679	4980
497.753	9285
497.827	9813
497.902	8729
497.976	10922
498.050	27446
498.125	114624
498.199	119439
498.273	16584
498.348	9375
498.422	6447
498.496	6192
498.570	6047
498.645	4562
498.719	3817
498.793	6681
498.867	10980
498.941	14357
499.016	45616
499.090	123567
499.164	46449
499.238	6501
499.312	4162
499.386	4380
499.460	4816
499.534	4949
499.609	6090
499.683	8803
499.757	9214
499.831	20139
499.905	81469
499.979	78215
500.053	12447
500.127	11606
500.201	6393
500.275	4855
500.349	5266
500.422	5156
500.496	8145
500.570	15290
500.644	44334
500.718	84397
500.792	21607
500.866	6157
500.940	5908
501.013	6273
501.087	5728
501.161	8393
501.235	10855
501.309	27449
501.382	75318
501.456	67235
501.530	15209
501.603	24025
501.677	9919
501.751	2991
501.825	5795
501.898	10168
501.972	29151
502.046	20179
502.119	4725
502.193	12940
502.266	31771
502.340	16472
502.413	13230
502.487	28123
502.561	15546
502.634	5370
502.708	3774
502.781	2023
502.855	2691
502.928	1839
503.002	3516
503.075	2080
503.149	2947
503.222	2363
503.295	2577
503.369	4472
503.442	5753
503.516	22371
503.589	57687
503.662	37622
503.736	10980
503.809	26669
503.882	20767
503.956	29513
504.029	27445
504.102	16124
504.175	19515
504.249	5744
504.322	4690
504.395	3693
504.468	2938
504.542	2645
504.615	1286
504.688	2519
504.761	299
504.834	3415
504.907	3196
504.980	5083
505.053	2591
505.127	2048
505.200	6054
505.273	4643
505.346	1824
505.419	1044
505.492	2236
505.565	1415
505.638	1397
505.711	1159
505.784	295
505.857	1397
505.930	2713
506.003	1932
506.076	3409
506.149	2031
506.221	3006
506.294	4937
506.367	9371
506.440	39529
506.513	22662
506.586	4822
506.659	1819
506.731	1668
506.804	1706
506.877	3352
506.950	2907
507.022	2490
507.095	1002
507.168	3711
507.241	2928
507.313	897
507.386	283
507.459	4234
507.531	1651
507.604	1059
507.677	1799
507.749	-434
507.822	2217
507.894	2914
507.967	4427
508.040	647
508.112	2208
508.185	2359
508.257	-207
508.330	4444
508.402	677
508.475	1511
508.547	2230
508.620	1690
508.692	4387
508.765	2830
508.837	961
508.909	1615
508.982	-39
509.054	1826
509.127	1161
509.199	1372
509.271	374
509.344	971
509.416	961
509.488	1015
509.560	1050
509.633	984
509.705	2041
509.777	1182
509.849	2873
509.922	598
509.994	1203
510.066	1962
510.138	-79
510.210	3367
510.283	1975
510.355	2566
510.427	2054
510.499	1642
510.571	1212
510.643	1199
510.715	4111
510.787	1673
510.859	2611
510.931	2432
511.003	2294
511.076	3759
511.148	910
511.219	477
511.291	4457
511.363	5700
511.435	746
511.507	701
511.579	1322
511.651	2007
511.723	1056
511.795	1828
511.867	806
511.939	1743
512.010	6128
512.082	5215
512.154	151
512.226	1381
512.298	3024
512.369	3261
512.441	2613
512.513	3645
512.585	284
512.656	2982
512.728	2855
512.800	1275
512.871	1815
512.943	2062
513.015	-180
513.086	1194
513.158	3051
513.230	1621
513.301	3164
513.373	5150
513.444	1704
513.516	1239
513.588	1535
513.659	2041
513.731	1653
513.802	1353
513.874	6274
513.945	10490
514.016	2461
514.088	1545
514.159	1176
514.231	2767
514.302	2541
514.374	2215
514.445	1044
514.516	9045
514.588	4936
514.659	2535
514.730	5328
514.802	5379
514.873	171
514.944	3943
515.016	2188
515.087	2385
515.158	3388
515.229	6623
515.301	2453
515.372	2820
515.443	786
515.514	811
515.585	519
515.656	1675
515.728	685
515.799	76
515.870	2025
515.941	1693
516.012	430
516.083	2340
516.154	2110
516.225	5453
516.296	5230
516.367	3473
516.438	2917
516.509	4849
516.580	7124
516.651	24436
516.722	79708
516.793	38435
516.864	7551
516.935	8116
517.006	8350
517.077	11286
517.148	25636
517.219	84001
517.289	128549
517.360	51389
517.431	19467
517.502	3650
517.573	4149
517.643	3143
517.714	2902
517.785	4521
517.856	3641
517.926	5955
517.997	6769
518.068	7081
518.138	12000
518.209	13181
518.280	53656
518.350	201233
518.421	76170
518.492	10792
518.562	6078
518.633	6177
518.703	3359
518.774	10679
518.845	21756
518.915	21237
518.986	6865
519.056	6705
519.127	10143
519.197	17070
519.268	43381
519.338	30036
519.408	6223
519.479	7197
519.549	4609
519.620	4958
519.690	1856
519.760	2184
519.831	1994
519.901	1419
519.971	1696
520.042	2206
520.112	2922
520.182	4409
520.253	3300
520.323	2629
520.393	940
520.463	4814
520.534	-903
520.604	5913
520.674	4081
520.744	3531
520.814	4471
520.885	6525
520.955	12184
521.025	50860
521.095	21316
521.165	3949
521.235	2102
521.305	1653
521.375	1811
521.445	2283
521.515	1917
521.585	3992
521.655	2360
521.725	3221
521.795	3203
521.865	-165
521.935	5132
522.005	2772
522.075	1661
522.145	2513
522.215	940
522.285	4358
522.355	5589
522.424	14254
522.494	10990
522.564	5369
522.634	8338
522.704	29267
522.774	8883
522.843	3345
522.913	2245
522.983	1901
523.053	1393
523.122	3141
523.192	2838
523.262	14238
523.331	13628
523.401	4125
523.471	1652
523.540	2365
523.610	1
523.680	1331
523.749	1047
523.819	2669
523.888	1515
523.958	1056
524.027	1401
524.097	2446
524.166	1315
524.236	997
524.305	2879
524.375	1137
524.444	-49
524.514	4002
524.583	317
524.653	1514
524.722	2138
524.791	393
524.861	3576
524.930	67
524.999	1539
525.069	2961
525.138	1543
525.207	2987
525.277	2119
525.346	722
525.415	2117
525.484	1741
525.554	1375
525.623	2949
525.692	1242
525.761	1668
525.830	3170
525.900	3028
525.969	5591
526.038	7929
526.107	11953
526.176	43079
526.245	33135
526.314	12710
526.383	24031
526.452	27265
526.522	51751
526.591	52597
526.660	17891
526.729	8264
526.797	9685
526.867	17149
526.935	83895
527.004	129540
527.073	65900
527.142	7530
527.211	3228
527.280	3907
527.349	2742
527.418	308
527.487	1858
527.555	-325
527.624	1060
527.693	64
527.762	1759
527.831	-221
527.899	1511
527.968	1014
528.037	-120
528.106	2254
528.174	4065
528.243	4291
528.312	6029
528.380	7598
528.449	1368
528.518	1591
528.586	-918
528.655	1819
528.723	859
528.792	729
528.861	-53
528.929	-338
528.998	928
529.066	481
529.135	537
529.203	50
529.272	-1005
529.340	1255
529.409	2848
529.477	-279
529.545	224
529.614	3731
529.682	948
529.751	2749
529.819	4972
529.887	1057
529.956	178
530.024	2352
530.092	-17
530.161	1483
530.229	1991
530.297	119
530.365	1327
530.434	-169
530.502	-1260
530.570	1612
530.638	-1198
530.707	876
530.775	2093
530.843	276
530.911	217
530.979	512
531.047	320
531.115	971
531.183	744
531.252	2003
531.320	384
531.388	685
531.456	1186
531.524	-508
531.592	1219
531.660	2665
531.728	-298
531.796	340
531.864	1039
531.932	1184
532.000	20
532.067	401
532.135	992
532.203	1890
532.271	340
532.339	3524
532.407	12746
532.475	6953
532.542	2773
532.610	2866
532.678	3341
532.746	20325
532.814	54538
532.881	13899
532.949	2162
533.017	1730
533.084	1361
533.152	917
533.220	1399
533.287	1049
533.355	1221
533.423	1426
533.490	-17
533.558	882
533.625	239
533.693	578
533.761	1022
533.828	2098
533.896	857
533.963	3805
534.031	4600
534.098	6616
534.166	2015
534.233	718
534.300	2005
534.368	1692
534.435	750
534.503	1358
534.570	1561
534.637	1125
534.705	1466
534.772	1592
534.840	2763
534.907	20217
534.974	24179
535.041	3255
535.109	1712
535.176	1109
535.243	1611
535.310	1173
535.378	-136
535.445	1755
535.512	805
535.579	933
535.646	449
535.714	1110
535.781	1644
535.848	2387
535.915	1711
535.982	-183
536.049	1024
536.116	1493
536.183	1157
536.250	923
536.317	527
536.384	1651
536.451	2960
536.518	4170
536.585	528
536.652	3352
536.719	5243
536.786	2319
536.853	1844
536.920	5172
536.987	7493
537.053	5647
537.120	28273
537.187	25127
537.254	2240
537.321	1910
537.388	2228
537.454	603
537.521	688
537.588	948
537.654	1193
537.721	1463
537.788	2353
537.855	1214
537.921	734
537.988	1351
538.055	2730
538.121	166
538.188	1528
538.254	3083
538.321	8291
538.388	4307
538.454	2019
538.521	1341
538.587	1402
538.654	1066
538.720	1612
538.787	1475
538.853	1438
538.920	2307
538.986	2157
539.053	2074
539.119	1141
539.185	1685
539.252	2600
539.318	3369
539.385	3722
539.451	806
539.517	1733
539.583	3112
539.650	6764
539.716	21207
539.782	5462
539.849	891
539.915	2995
539.981	1836
540.047	2606
540.114	2203
540.180	2874
540.246	1071
540.312	3263
540.378	7557
540.444	9027
540.510	7362
540.576	23601
540.643	7436
540.709	339
540.775	1488
540.841	1292
540.907	3292
540.973	5085
541.039	3296
541.105	4413
541.171	2472
541.237	1227
541.303	2401
541.369	3625
541.435	3524
541.500	5868
541.566	3604
541.632	1503
541.698	1199
541.764	1901
541.830	737
541.896	223
541.961	1887
542.027	639
542.093	2407
542.159	2084
542.224	1191
542.290	4011
542.356	5981
542.421	8796
542.487	4162
542.553	1268
542.618	2457
542.684	1956
542.750	2350
542.815	3112
542.881	5663
542.947	20758
543.012	15597
543.078	1382
543.143	1979
543.209	2462
543.274	1320
543.340	2435
543.405	7130
543.471	11535
543.536	2826
543.602	2128
543.667	782
543.732	1809
543.798	911
543.863	1746
543.928	1161
543.994	1290
544.059	2359
544.124	1811
544.190	1622
544.255	1452
544.320	1883
544.386	1101
544.451	3751
544.516	4650
544.581	3733
544.646	13006
544.712	21228
544.777	3903
544.842	2746
544.907	2498
544.972	2665
545.037	3065
545.102	2733
545.168	2324
545.233	4367
545.298	3557
545.363	3256
545.428	4038
545.493	8347
545.558	17475
545.623	7116
545.688	2390
545.753	2532
545.818	2302
545.883	4273
545.947	2448
546.012	2776
546.077	2798
546.142	3294
546.207	3009
546.272	5420
546.337	4051
546.401	2840
546.466	3324
546.531	2487
546.596	4196
546.661	3306
546.725	4195
546.790	2578
546.855	3636
546.919	2704
546.984	4784
547.049	5028
547.113	6260
547.178	4289
547.243	6449
547.307	7391
547.372	8133
547.436	7962
547.501	5928
547.565	7258
547.630	7390
547.695	8158
547.759	9200
547.823	7269
547.888	7099
547.952	6774
548.017	7593
548.081	7900
548.146	11131
548.210	9858
548.274	7741
548.339	7979
548.403	6741
548.468	6868
548.532	7131
548.596	5959
548.660	6564
548.725	7435
548.789	9101
548.853	10457
548.917	7654
548.982	9499
549.046	9999
549.110	5900
549.174	6371
549.238	6911
549.303	7450
549.367	8092
549.431	7231
549.495	7067
549.559	6622
549.623	7711
549.687	10734
549.751	11370
549.815	10378
549.879	10679
549.943	8189
550.007	11240
550.071	10359
550.135	10394
550.199	10079
550.263	9337
550.327	9784
550.391	11990
550.455	10053
550.519	10000
550.582	11709
550.646	13720
550.710	13849
550.774	12173
550.838	12631
550.901	11581
550.965	14049
551.029	13770
551.093	17072
551.156	20726
551.220	31410
551.284	35935
551.347	20624
551.411	31324
551.475	32111
551.538	13867
551.602	12534
551.666	10896
551.729	9359
551.793	11113
551.856	10293
551.920	10238
551.983	9328
552.047	9613
552.110	10790
552.174	9438
552.237	10422
552.301	10194
552.364	9455
552.428	9987
552.491	9676
552.554	10007
552.618	10035
552.681	10169
552.745	10093
552.808	14354
552.871	15909
552.934	12049
552.998	9805
553.061	10773
553.124	9207
553.187	9683
553.251	9678
553.314	9559
553.377	10056
553.440	12722
553.503	16417
553.567	19174
553.630	11242
553.693	10028
553.756	10240
553.819	9901
553.882	9151
553.945	9908
554.008	9651
554.071	10121
554.134	10073
554.197	8431
554.260	9347
554.323	11736
554.386	9818
554.449	9572
554.512	10835
554.575	9182
554.638	10230
554.701	8610
554.764	8692
554.827	10324
554.889	9319
554.952	7978
555.015	7787
555.078	7907
555.141	9193
555.203	8351
555.266	8604
555.329	8600
555.391	7663
555.454	8542
555.517	9102
555.580	7818
555.642	7339
555.705	6467
555.768	7862
555.830	7475
555.893	7124
555.955	6960
556.018	7319
556.080	7139
556.143	8273
556.206	8112
556.268	7892
556.330	8436
556.393	8420
556.455	7858
556.518	10852
556.580	11578
556.643	7316
556.705	6701
556.767	6857
556.830	8104
556.892	8687
556.955	10985
557.017	9056
557.079	7731
557.142	7493
557.204	8560
557.266	14364
557.328	12412
557.391	6769
557.453	6207
557.515	7670
557.577	8885
557.639	8518
557.701	7273
557.764	6659
557.826	7894
557.888	7923
557.950	8752
558.012	9761
558.074	13477
558.136	27424
558.198	60206
558.260	22767
558.322	10646
558.384	12241
558.446	14520
558.508	16691
558.570	21670
558.632	29416
558.694	41281
558.756	46372
558.818	118949
558.880	265341
558.942	87716
559.003	70820
559.065	36259
559.127	17321
559.189	18140
559.251	20341
559.312	27991
559.374	60454
559.436	179878
559.498	87697
559.559	20045
559.621	18121
559.683	22548
559.744	34566
559.806	94557
559.868	130520
559.929	29239
559.991	20477
560.052	27752
560.114	68289
560.176	43051
560.237	40747
560.299	62714
560.360	14574
560.422	8638
560.483	8134
560.545	8010
560.606	7261
560.667	7202
560.729	6485
560.790	6643
560.852	7241
560.913	6349
560.974	7240
561.036	6489
561.097	6572
561.158	8192
561.220	7217
561.281	7335
561.342	7823
561.403	8534
561.465	10237
561.526	23950
561.587	28870
561.648	8383
561.709	6762
561.771	7319
561.832	6541
561.893	6620
561.954	6532
562.015	6462
562.076	6756
562.137	6594
562.198	6178
562.259	7764
562.320	6462
562.381	7416
562.442	11064
562.503	8730
562.564	6831
562.625	6837
562.686	7524
562.747	7239
562.808	7333
562.869	7953
562.930	9425
562.991	9204
563.051	7213
563.112	7671
563.173	6723
563.234	7130
563.294	6184
563.355	7101
563.416	7267
563.477	7070
563.537	7009
563.598	8788
563.659	7911
563.720	7558
563.780	8299
563.841	8426
563.901	8052
563.962	7889
564.023	7781
564.083	8830
564.144	8503
564.204	8001
564.265	8727
564.325	10993
564.386	22207
564.446	18688
564.507	8206
564.567	7787
564.628	8128
564.688	7148
564.749	7186
564.809	9704
564.869	11657
564.930	8429
564.990	7806
565.050	7271
565.111	6594
565.171	6619
565.231	7315
565.292	7338
565.352	6878
565.412	7968
565.472	7921
565.532	8574
565.593	7268
565.653	7262
565.713	7777
565.773	8893
565.833	10192
565.893	13226
565.953	9505
566.013	7990
566.074	9508
566.134	13810
566.194	21174
566.254	21589
566.314	12607
566.374	9144
566.434	8608
566.494	9179
566.554	8367
566.614	7944
566.673	9310
566.733	10979
566.793	10390
566.853	10116
566.913	9777
566.973	10985
567.033	10932
567.092	11383
567.152	10783
567.212	11643
567.272	11403
567.331	12126
567.391	12609
567.451	13039
567.511	17389
567.570	18171
567.630	10870
567.690	11474
567.749	11092
567.809	11164
567.868	12204
567.928	13584
567.988	15742
568.047	16326
568.107	17103
568.166	21460
568.226	29287
568.285	38083
568.345	32803
568.404	27622
568.464	25207
568.523	23901
568.582	25929
568.642	27271
568.701	32759
568.761	42204
568.820	60420
568.879	59668
568.939	48700
568.998	37685
569.057	29012
569.116	24426
569.176	20939
569.235	18258
569.294	16403
569.353	15404
569.413	14940
569.472	15108
569.531	13260
569.590	12704
569.649	11450
569.708	11389
569.767	12481
569.827	14838
569.886	12330
569.945	10506
570.004	11175
570.063	11167
570.122	12322
570.181	12015
570.240	13823
570.299	14105
570.358	13293
570.417	10668
570.475	8787
570.534	10140
570.593	10780
570.652	11185
570.711	12189
570.770	11217
570.829	13191
570.887	11170
570.946	12793
571.005	10179
571.064	10332
571.122	11866
571.181	12452
571.240	10713
571.299	10364
571.357	11793
571.416	12475
571.475	14272
571.533	14631
571.592	11793
571.650	12317
571.709	10517
571.768	11051
571.826	10855
571.885	9599
571.943	9022
572.002	10130
572.060	10625
572.119	9217
572.177	9257
572.236	8413
572.294	8020
572.352	9263
572.411	9499
572.469	7890
572.528	8817
572.586	9905
572.644	11105
572.703	14385
572.761	10808
572.819	10199
572.877	8688
572.936	8274
572.994	9352
573.052	8885
573.110	10266
573.169	9433
573.227	8095
573.285	9604
573.343	9454
573.401	9280
573.459	9875
573.517	8769
573.576	9575
573.634	10005
573.692	10750
573.750	9717
573.808	9058
573.866	11181
573.924	15677
573.982	14187
574.040	10487
574.098	10067
574.155	8609
574.213	8993
574.271	9293
574.329	10048
574.387	8152
574.445	8196
574.503	9376
574.560	7355
574.618	8199
574.676	8482
574.734	8957
574.792	8134
574.849	8177
574.907	7841
574.965	7937
575.022	7753
575.080	8025
575.138	8332
575.195	7890
575.253	9126
575.311	9906
575.368	8859
575.426	8120
575.483	8955
575.541	8806
575.598	8926
575.656	9929
575.713	8648
575.771	9008
575.828	9078
575.886	9399
575.943	10811
576.001	10922
576.058	9542
576.115	11251
576.173	13063
576.230	14947
576.287	16413
576.345	12578
576.402	10348
576.459	11783
576.517	11450
576.574	12828
576.631	13344
576.688	10924
576.746	9784
576.803	10553
576.860	9771
576.917	10420
576.974	10259
577.031	10608
577.089	11604
577.146	10865
577.203	10732
577.260	11560
577.317	12304
577.374	14444
577.431	12624
577.488	11627
577.545	9417
577.602	10561
577.659	9824
577.716	10124
577.773	10329
577.830	9312
577.886	9460
577.943	10704
578.000	10667
578.057	11727
578.114	11044
578.171	10594
578.227	10353
578.284	11063
578.341	11461
578.398	11622
578.454	11903
578.511	14234
578.568	14844
578.625	12724
578.681	10405
578.738	10529
578.794	11060
578.851	10089
578.908	10208
578.964	10945
579.021	11097
579.077	10124
579.134	10511
579.190	10315
579.247	10352
579.303	9931
579.360	9247
579.416	9475
579.473	8843
579.529	9337
579.586	9710
579.642	10155
579.698	10015
579.755	11411
579.811	11053
579.867	10625
579.924	10048
579.980	10471
580.036	10929
580.093	10264
580.149	11424
580.205	11233
580.261	11957
580.317	11956
580.374	13301
580.430	15192
580.486	14547
580.542	12858
580.598	11993
580.619	12108
580.654	12318
580.692	11612
580.710	11272
580.765	11510
580.767	11523
580.823	10869
580.838	11362
580.879	12693
580.911	11760
580.935	11091
580.984	11312
580.991	11344
581.047	11028
581.057	11120
581.103	11579
581.130	11732
581.159	11870
581.203	11800
581.215	11799
581.270	11950
581.276	12007
581.326	12554
581.349	12635
581.382	12738
581.422	12469
581.438	12363
581.494	13161
581.494	13154
581.550	12773
581.567	12918
581.606	13139
581.640	13176
581.661	13199
581.713	13090
581.717	13091
581.773	11790
581.786	12135
581.829	13221
581.859	13242
581.885	13278
581.932	12177
581.940	11980
581.996	12609
582.004	12665
582.052	12928
582.077	12939
582.107	12963
582.150	13149
582.163	13179
582.219	12795
582.223	12858
582.274	13963
582.296	14308
582.330	14598
582.368	14497
582.386	14514
582.441	13403
582.441	13400
582.497	13691
582.514	13488
582.552	13383
582.587	13797
582.608	13903
582.659	13713
582.663	13702
582.719	14309
582.732	14182
582.774	13776
582.805	14045
582.830	14324
582.877	14257
582.885	14222
582.941	13769
582.950	13852
582.996	14329
583.023	14611
583.052	15038
583.095	14707
583.107	14581
583.162	15377
583.168	15441
583.218	15905
583.240	15555
583.273	14914
583.313	14578
583.328	14593
583.384	15054
583.385	15049
583.439	14692
583.458	14829
583.494	14933
583.531	14587
583.549	14563
583.603	14953
583.605	14959
583.660	15212
583.676	15271
583.715	15591
583.748	15910
583.770	16054
583.820	17080
583.825	17159
583.881	16777
583.893	16607
583.936	16239
583.965	16194
583.991	16156
584.038	16510
584.046	16588
584.101	16433
584.110	16564
584.156	16969
584.183	16681
584.211	16475
584.255	16109
584.266	16004
584.321	16133
584.328	16146
584.376	16434
584.400	16481
584.431	16634
584.472	17054
584.486	17119
584.541	17078
584.545	17088
584.596	17459
584.617	17467
584.651	17970
584.689	18705
584.706	18799
584.761	19166
584.762	19164
584.816	19895
584.834	19898
584.871	20057
584.906	19870
584.926	19752
584.978	21097
584.980	21175
585.035	21924
585.051	22505
585.090	24059
585.123	24601
585.145	24889
585.195	26578
585.200	26790
585.254	29280
585.267	29987
585.309	32576
585.340	34529
585.364	35759
585.412	38720
585.419	39256
585.473	43149
585.484	44374
585.528	52033
585.556	60329
585.583	77847
585.628	119626
585.637	134788
585.692	257818
585.700	280072
585.747	347629
585.772	299741
585.801	196481
585.845	72466
585.856	58035
585.910	38446
585.917	36833
585.965	32959
585.989	31499
586.019	30068
586.061	29888
586.074	29936
586.128	29183
586.133	29218
586.183	30675
586.205	31287
586.237	31945
586.277	31676
586.292	31499
586.346	31268
586.349	31282
586.401	32221
586.421	32519
586.455	34453
586.493	37540
586.509	41398
586.564	56595
586.565	57101
586.618	87823
586.637	90953
586.672	71649
586.709	48284
586.727	42572
586.781	36703
586.781	36728
586.835	33971
586.853	33168
586.889	32665
586.925	32117
586.944	32113
586.996	33298
586.998	33369
587.052	34502
587.068	34464
587.106	34349
587.140	34696
587.161	35216
587.212	36319
587.215	36426
587.269	38103
587.284	38546
587.323	38920
587.356	38435
587.377	38360
587.427	39380
587.431	39558
587.485	40767
587.499	41174
587.539	42391
587.571	43243
587.593	44267
587.643	46165
587.648	46376
587.702	48909
587.715	49486
587.755	51256
587.786	52351
587.810	53174
587.858	54774
587.864	55161
587.917	58732
587.930	59622
587.971	64570
588.001	68701
588.025	70711
588.073	73369
588.079	73991
588.133	79798
588.145	81291
588.187	88407
588.217	93659
588.241	99110
588.288	111022
588.295	112894
588.348	129132
588.360	132684
588.402	148418
588.431	160408
588.456	172037
588.503	197335
588.510	201738
588.564	238495
588.575	246945
588.617	290370
588.646	323443
588.671	366694
588.718	457488
588.725	482878
588.778	696879
588.789	745282
588.832	1082480
588.861	1320537
588.886	1530027
588.932	1895287
588.939	1896609
588.993	1769947
589.004	1753389
589.047	1585838
589.075	1411141
589.100	1172475
589.147	725878
589.154	697322
589.207	511826
589.218	477749
589.261	439172
589.290	420510
589.314	439342
589.361	488402
589.368	512575
589.421	730633
589.433	780857
589.475	1153742
589.504	1425129
589.528	1557596
589.576	1733697
589.582	1702592
589.635	1372324
589.647	1283395
589.689	842488
589.718	542554
589.742	448077
589.790	286472
589.795	279337
589.849	223075
589.861	211620
589.902	194302
589.932	180000
589.955	161157
590.004	120934
590.009	119339
590.062	104764
590.075	101179
590.115	94574
590.146	89717
590.168	87233
590.218	81335
590.222	81191
590.275	78551
590.289	77721
590.328	75972
590.360	74284
590.381	72321
590.431	67412
590.435	67442
590.488	66456
590.503	66004
590.541	64637
590.574	63501
590.594	62721
590.645	59788
590.647	59851
590.700	59064
590.716	58666
590.753	58203
590.787	57564
590.806	57193
590.859	55775
590.859	55878
590.912	55159
590.930	54771
590.965	54640
591.001	54493
591.018	54580
591.071	54227
591.072	54106
591.124	53772
591.143	53516
591.177	53993
591.214	54218
591.230	54762
591.283	56379
591.285	56303
591.336	56589
591.356	56542
591.389	56327
591.427	55631
591.442	54933
591.495	51865
591.498	51521
591.547	52158
591.569	52300
591.600	52125
591.640	51492
591.653	51766
591.706	52489
591.711	52450
591.759	56212
591.782	57945
591.811	60018
591.853	62670
591.864	61427
591.917	53918
591.924	52724
591.969	52903
591.995	52901
592.022	54114
592.066	55700
592.075	57043
592.127	64482
592.137	65724
592.180	71650
592.208	75011
592.233	69306
592.279	57738
592.285	57600
592.338	55377
592.350	54727
592.390	53755
592.421	52754
592.443	53140
592.491	53569
592.495	53767
592.548	54501
592.562	54565
592.600	54446
592.633	54059
592.653	53774
592.704	52366
592.705	52696
592.775	54158
592.846	53624
592.916	55336
592.987	58240
593.058	57300
593.128	53227
593.199	53234
593.270	51584
593.341	52862
593.411	53384
593.482	55200
593.553	54499
593.623	52614
593.694	55953
593.764	60339
593.835	55730
593.906	53749
593.976	54844
594.047	58788
594.117	69124
594.188	69761
594.258	55801
594.329	54553
594.399	56411
594.470	55982
594.540	56802
594.611	56832
594.681	57735
594.751	58342
594.822	59320
594.892	61991
594.963	64220
595.033	64394
595.103	66005
595.174	71786
595.244	98601
595.314	115730
595.384	69832
595.455	68144
595.525	68823
595.595	71128
595.665	71035
595.736	69855
595.806	69423
595.876	69053
595.946	68046
596.016	68905
596.087	71859
596.157	72403
596.227	72525
596.297	75148
596.367	80648
596.437	87108
596.507	108296
596.577	123648
596.647	85676
596.717	83282
596.787	83759
596.857	83303
596.927	84374
596.997	84325
597.067	83467
597.137	86828
597.207	88353
597.277	88302
597.347	86979
597.417	82690
597.487	83659
597.557	87744
597.626	87984
597.696	92705
597.766	106252
597.836	124431
597.906	86987
597.975	80199
598.045	79288
598.115	81264
598.185	84936
598.254	93792
598.324	96941
598.394	99665
598.464	98120
598.533	95606
598.603	89570
598.672	90546
598.742	92262
598.812	89799
598.881	92185
598.951	89447
599.020	90209
599.090	93093
599.159	94654
599.229	89346
599.299	87702
599.368	91091
599.437	88750
599.507	86363
599.576	86293
599.646	83937
599.715	84703
599.785	84040
599.854	86075
599.924	91615
599.993	85900
600.062	82839
600.132	82209
600.201	87678
600.270	99724
600.340	101113
600.409	97151
600.478	96401
600.547	97808
600.617	93722
600.686	81649
600.755	76897
600.824	75903
600.894	72837
600.963	72012
601.032	70291
601.101	68946
601.170	67433
601.239	68884
601.308	71495
601.378	70556
601.447	66662
601.516	66684
601.585	69606
601.654	76330
601.723	69662
601.792	69693
601.861	70958
601.930	76469
601.999	78081
602.068	72725
602.137	82619
602.206	79100
602.275	75121
602.343	82927
602.412	81424
602.481	74989
602.550	75778
602.619	76469
602.688	77641
602.756	78369
602.825	76955
602.894	78863
602.963	80436
603.032	80913
603.100	78744
603.169	79910
603.238	81736
603.307	80261
603.375	79980
603.444	83255
603.513	82908
603.581	83081
603.650	86584
603.719	81505
603.787	83410
603.856	86238
603.924	88708
603.993	88710
604.061	90967
604.130	95215
604.198	95480
604.267	96557
604.335	97336
604.404	99928
604.472	98961
604.541	100624
604.609	102059
604.678	101460
604.746	102329
604.815	104749
604.883	105016
604.951	105155
605.020	104759
605.088	108583
605.156	110207
605.225	111387
605.293	109713
605.361	112646
605.429	111459
605.498	114002
605.566	117199
605.634	122077
605.702	125124
605.771	127104
605.839	127489
605.907	125322
605.975	118314
606.043	118634
606.111	118029
606.180	117687
606.248	119671
606.316	119338
606.384	121850
606.452	129794
606.520	131766
606.588	123291
606.656	120544
606.724	118326
606.792	111976
606.860	101185
606.928	93460
606.996	90043
607.064	88665
607.132	91492
607.200	97498
607.267	100205
607.335	100646
607.403	102738
607.471	100804
607.539	98341
607.607	97973
607.674	88567
607.742	90655
607.810	89823
607.878	88679
607.946	90059
608.013	94486
608.081	96521
608.149	96106
608.216	97540
608.284	100861
608.352	101545
608.419	104578
608.487	121699
608.555	102362
608.622	98726
608.690	103159
608.757	112076
608.825	115480
608.893	115600
608.960	115113
609.028	120323
609.095	128835
609.163	106685
609.230	96326
609.298	88360
609.365	89736
609.432	97070
609.500	105241
609.567	116954
609.635	133667
609.702	139104
609.769	135808
609.837	113389
609.904	95402
609.971	96918
610.039	108053
610.106	147606
610.173	293856
610.241	668924
610.308	326624
610.375	131339
610.442	104125
610.509	94909
610.577	95767
610.644	97722
610.711	99803
610.778	103057
610.845	106805
610.912	111822
610.980	117661
611.047	119430
611.114	115609
611.181	110073
611.248	108062
611.315	115316
611.382	115856
611.449	120078
611.516	124380
611.583	121492
611.650	122548
611.717	123447
611.784	127770
611.851	133013
611.918	148019
611.984	172341
612.051	262014
612.118	562465
612.185	1400418
612.252	720692
612.319	187243
612.386	158557
612.452	146728
612.519	147179
612.586	164871
612.653	146194
612.719	145014
612.786	137445
612.853	127135
612.919	123826
612.986	126458
613.053	117654
613.120	112334
613.186	108329
613.253	111392
613.319	109333
613.386	111938
613.453	113761
613.519	118797
613.586	125634
613.652	142823
613.719	129416
613.785	125180
613.852	115119
613.918	112510
613.985	115354
614.051	124620
614.118	141164
614.184	130837
614.250	114098
614.317	115169
614.383	112670
614.449	113611
614.516	114689
614.582	117364
614.648	113999
614.715	111678
614.781	110339
614.847	113771
614.914	113821
614.980	109586
615.046	107564
615.112	111622
615.179	111633
615.245	113218
615.311	116272
615.377	129774
615.443	131082
615.509	119511
615.575	119768
615.642	120287
615.708	124248
615.774	131613
615.840	142041
615.906	157997
615.972	202414
616.038	338838
616.104	712424
616.170	1687577
616.236	1206925
616.302	274210
616.368	210079
616.434	155225
616.500	147733
616.565	166161
616.631	202111
616.697	159480
616.763	169464
616.829	263965
616.895	462278
616.961	397763
617.026	167260
617.092	126885
617.158	122713
617.224	119147
617.289	113308
617.355	109363
617.421	111211
617.487	111011
617.552	104139
617.618	103403
617.684	102225
617.749	103622
617.815	99534
617.880	96086
617.946	98157
618.012	100384
618.077	99706
618.143	96667
618.208	99651
618.274	105598
618.339	107754
618.405	91917
618.470	93283
618.536	95679
618.601	101142
618.667	92059
618.732	85345
618.798	85560
618.863	84754
618.928	83971
618.994	87326
619.059	92302
619.124	105892
619.190	90387
619.255	83981
619.320	84729
619.386	85567
619.451	81778
619.516	81310
619.581	81876
619.647	84101
619.712	83386
619.777	80707
619.842	83554
619.907	84537
619.972	85751
620.038	85069
620.103	81834
620.168	79730
620.233	82628
620.298	81515
620.363	82280
620.428	85178
620.493	84930
620.558	85219
620.623	86871
620.688	85777
620.753	84685
620.818	87066
620.883	87825
620.948	87683
621.013	85475
621.078	87805
621.143	88374
621.207	91489
621.272	92045
621.337	91667
621.402	95500
621.467	112383
621.532	112109
621.596	98591
621.661	89625
621.726	88617
621.791	89198
621.855	90690
621.920	93837
621.985	99775
622.049	106781
622.114	101983
622.179	94438
622.243	100905
622.308	99654
622.373	102230
622.437	100873
622.502	94350
622.566	94903
622.631	95038
622.695	96612
622.760	96149
622.824	94163
622.889	96076
622.953	100164
623.018	125775
623.082	117220
623.147	99708
623.211	96703
623.276	97339
623.340	91356
623.404	89189
623.469	89509
623.533	91130
623.597	89389
623.662	88768
623.726	84781
623.790	81932
623.854	80116
623.919	81504
623.983	82121
624.047	83559
624.111	82222
624.176	83144
624.240	89021
624.304	92392
624.368	84233
624.432	83684
624.496	88056
624.560	92494
624.625	94268
624.689	87391
624.753	89902
624.817	86656
624.881	83556
624.945	78072
625.009	77158
625.073	78917
625.137	85733
625.201	95435
625.265	91320
625.329	80739
625.393	84751
625.456	83163
625.520	87454
625.584	93075
625.648	107564
625.712	148810
625.776	292059
625.839	303247
625.903	122738
625.967	87799
626.031	133406
626.095	188347
626.158	88758
626.222	66378
626.286	63223
626.349	60848
626.413	57964
626.477	63529
626.540	59049
626.604	59369
626.668	59071
626.731	59118
626.795	62408
626.858	62639
626.922	58555
626.986	57168
627.049	55941
627.113	58636
627.176	56092
627.240	55207
627.303	55942
627.366	56204
627.430	55267
627.493	56097
627.557	58267
627.620	58042
627.684	58628
627.747	59412
627.810	54608
627.874	51194
627.937	50343
628.000	54513
628.064	52236
628.127	46639
628.190	49025
628.253	47708
628.317	46237
628.380	45896
628.443	44376
628.506	45815
628.569	42520
628.632	41458
628.696	42448
628.759	41472
628.822	40578
628.885	39309
628.948	39955
629.011	40047
629.074	41191
629.137	38297
629.200	39062
629.263	41588
629.326	36651
629.389	37727
629.452	38744
629.515	39160
629.578	38276
629.641	41414
629.704	39298
629.767	38475
629.830	35946
629.892	35292
629.955	35888
630.018	40162
630.081	40345
630.144	45340
630.207	38466
630.269	41603
630.332	43401
630.395	38567
630.458	33544
630.520	33560
630.583	34459
630.646	33269
630.708	33130
630.771	32691
630.834	34690
630.896	32743
630.959	32785
631.021	33150
631.084	34736
631.146	38581
631.209	41842
631.272	32648
631.334	32713
631.397	32666
631.459	32309
631.522	33892
631.584	34544
631.646	36474
631.709	38499
631.771	45431
631.834	38727
631.896	34855
631.958	30118
632.021	32719
632.083	31138
632.145	33220
632.208	31691
632.270	32185
632.332	31028
632.395	29984
632.457	33007
632.519	30590
632.581	30626
632.643	28640
632.706	30178
632.768	28898
632.830	30271
632.892	29475
632.954	29584
633.016	31313
633.078	30501
633.141	29571
633.203	29551
633.265	30086
633.327	28565
633.389	30076
633.451	33453
633.513	36994
633.575	38552
633.637	34961
633.698	31680
633.760	31895
633.822	30830
633.884	31422
633.946	30164
634.008	31947
634.070	31068
634.132	33898
634.193	34947
634.255	36845
634.317	35530
634.379	36930
634.441	34262
634.502	32249
634.564	30022
634.626	27889
634.687	27740
634.749	28605
634.811	27919
634.873	26177
634.934	26698
634.996	28078
635.057	26402
635.119	26295
635.181	27625
635.242	28638
635.304	25987
635.365	28637
635.427	28056
635.488	28622
635.550	27360
635.611	27657
635.673	26832
635.734	30673
635.796	30909
635.857	32707
635.918	31872
635.980	36281
636.041	35791
636.102	38261
636.164	37194
636.225	36617
636.286	31561
636.348	30727
636.409	27965
636.470	26651
636.531	28533
636.593	31926
636.654	29066
636.715	24956
636.776	24354
636.838	22935
636.899	25835
636.960	24623
637.021	22548
637.082	24125
637.143	24188
637.204	22303
637.265	22365
637.326	22180
637.387	23522
637.448	22033
637.509	23355
637.570	23166
637.631	23456
637.692	20475
637.753	19922
637.814	22394
637.875	22208
637.936	22023
637.997	21923
638.058	22909
638.119	23884
638.179	21153
638.240	20731
638.301	21013
638.362	20149
638.423	21976
638.483	22309
638.544	19995
638.605	21952
638.666	19948
638.726	21089
638.787	21726
638.848	20903
638.908	19942
638.969	20665
639.030	20566
639.090	19192
639.151	19296
639.211	22097
639.272	27891
639.332	39111
639.393	24325
639.453	20655
639.514	21506
639.574	19672
639.635	18335
639.695	20078
639.756	18427
639.816	20386
639.877	22872
639.937	35086
639.997	40245
640.058	20222
640.118	18332
640.178	19185
640.239	17309
640.299	17027
640.359	18285
640.420	19560
640.480	21033
640.540	22051
640.600	21617
640.661	21167
640.721	20818
640.781	25162
640.841	20629
640.901	19245
640.961	19236
641.021	20368
641.082	22395
641.142	28245
641.202	21318
641.262	16015
641.322	18165
641.382	17228
641.442	18876
641.502	18762
641.562	18805
641.622	17803
641.682	18498
641.742	19745
641.802	19678
641.861	19974
641.921	20161
641.981	21760
642.041	21053
642.101	24871
642.161	17076
642.221	16639
642.280	16656
642.340	16251
642.400	15404
642.460	18069
642.519	16744
642.579	17828
642.639	18168
642.698	14978
642.758	19555
642.818	17651
642.877	16777
642.937	19093
642.997	21274
643.056	28186
643.116	17405
643.175	18810
643.235	17624
643.294	18228
643.354	19063
643.414	21274
643.473	23094
643.532	26590
643.592	35663
643.651	54265
643.711	96917
643.770	199695
643.830	510931
643.889	981748
643.948	177803
644.008	39556
644.067	27843
644.126	22393
644.186	20821
644.245	17708
644.304	15849
644.363	19037
644.423	15304
644.482	17338
644.541	17498
644.600	16099
644.659	20579
644.719	23732
644.778	36130
644.837	58079
644.896	120563
644.955	259765
645.014	70037
645.073	23562
645.132	19450
645.191	18687
645.250	17768
645.309	19231
645.368	19107
645.427	22782
645.486	35387
645.545	53283
645.604	19836
645.663	16330
645.722	16962
645.781	18293
645.840	19955
645.898	23211
645.957	33515
646.016	49644
646.075	92249
646.134	184740
646.192	535131
646.251	665487
646.310	78854
646.369	28899
646.427	25591
646.486	18588
646.545	16752
646.603	16675
646.662	15992
646.721	15920
646.779	13964
646.838	15680
646.896	19292
646.955	23519
647.014	36393
647.072	65821
647.131	169971
647.189	65369
647.248	16730
647.306	14787
647.365	14718
647.423	11921
647.481	14533
647.540	12032
647.598	12674
647.657	12458
647.715	13728
647.773	12488
647.832	13057
647.890	12046
647.948	12892
648.007	13052
648.065	11909
648.123	12162
648.181	14274
648.240	14075
648.298	11213
648.356	12495
648.414	12976
648.472	12316
648.531	13081
648.589	11942
648.647	11599
648.705	12103
648.763	12702
648.821	12820
648.879	12435
648.937	14197
648.995	15092
649.053	19108
649.111	26613
649.169	42664
649.227	76520
649.285	163923
649.343	457075
649.401	171406
649.459	54772
649.516	31448
649.574	19807
649.632	28241
649.690	28179
649.748	23643
649.806	28540
649.863	48622
649.921	121023
649.979	65218
650.037	14946
650.094	11851
650.152	11774
650.210	11203
650.268	11986
650.325	12663
650.383	11710
650.440	10328
650.498	11168
650.556	11082
650.613	9401
650.671	10456
650.728	11207
650.786	12383
650.843	12353
650.901	9593
650.958	10219
651.016	9266
651.073	9943
651.131	9653
651.188	9130
651.246	10700
651.303	8858
651.360	8948
651.418	9308
651.475	9823
651.532	7631
651.590	8251
651.647	9073
651.704	9794
651.762	10079
651.819	10342
651.876	8625
651.933	8498
651.990	9525
652.048	7894
652.105	8819
652.162	9834
652.219	7576
652.276	8941
652.333	8562
652.390	7658
652.448	8332
652.505	9519
652.562	8327
652.619	8596
652.676	10012
652.733	9995
652.790	7431
652.847	6911
652.904	8100
652.961	7359
653.017	6948
653.074	9519
653.131	8447
653.188	7661
653.245	8387
653.302	7519
653.359	7627
653.415	9225
653.472	7308
653.529	8196
653.586	7294
653.642	7646
653.699	7075
653.756	7141
653.813	7149
653.869	7970
653.926	6727
653.983	7170
654.039	7151
654.096	7835
654.152	8905
654.209	6680
654.266	8253
654.322	8549
654.379	10596
654.435	10741
654.492	10848
654.548	16002
654.605	23840
654.661	12466
654.717	8099
654.774	10111
654.830	9359
654.887	8646
654.943	9135
655.000	10633
655.056	9271
655.112	8739
655.168	7938
655.225	9243
655.281	11299
655.337	15482
655.394	26535
655.450	17235
655.506	16268
655.562	26218
655.618	17718
655.675	8482
655.731	8621
655.787	7878
655.843	8833
655.899	7522
655.955	8777
656.011	8703
656.067	6691
656.123	8581
656.179	7938
656.235	9088
656.291	6601
656.347	9832
656.403	8045
656.459	9252
656.515	10948
656.571	10834
656.627	8804
656.683	8230
656.739	8952
656.795	8475
656.850	8885
656.906	10070
656.962	8817
657.018	7522
657.074	8919
657.129	10225
657.185	12755
657.241	20078
657.297	11975
657.352	8502
657.408	7487
657.464	9979
657.519	8768
657.575	6830
657.630	8625
657.686	7189
657.742	7918
657.797	7761
657.853	7984
657.908	9500
657.964	7486
658.019	7815
658.075	7723
658.130	8484
658.186	6202
658.241	7543
658.297	6527
658.352	7642
658.407	8333
658.463	7191
658.518	7020
658.573	7421
658.629	7269
658.684	6918
658.739	7902
658.795	6477
658.850	7550
658.905	6891
658.960	7344
659.016	7600
659.071	7309
659.126	8506
659.181	8629
659.236	14695
659.291	13493
659.346	9774
659.401	9445
659.457	8780
659.512	8139
659.567	8536
659.622	8108
659.677	6938
659.732	7036
659.787	8114
659.842	9952
659.897	12232
659.952	7661
660.007	6998
660.061	7656
660.116	7415
660.171	6223
660.226	7032
660.281	7594
660.336	7070
660.391	7353
660.445	6442
660.500	7147
660.555	7821
660.610	7964
660.664	7235
660.719	7535
660.774	8379
660.828	7794
660.883	7215
660.938	8036
660.992	6536
661.047	7444
661.101	6714
661.156	7297
661.211	5686
661.265	7276
661.320	6780
661.374	7069
661.429	7314
661.483	8297
661.538	7507
661.592	7039
661.647	7786
661.701	8113
661.755	7066
661.810	7880
661.864	7504
661.919	6452
661.973	8617
662.027	7093
662.081	7228
662.136	7781
662.190	8200
662.244	8067
662.299	7502
662.353	7089
662.407	6826
662.461	7746
662.515	7995
662.569	7559
662.624	8816
662.678	8205
662.732	8186
662.786	7843
662.840	8005
662.894	7520
662.948	6759
663.002	6938
663.056	6699
663.110	7674
663.164	7045
663.218	6941
663.272	7944
663.326	7322
663.380	8427
663.434	7349
663.488	7441
663.542	7933
663.595	8729
663.649	7278
663.703	7626
663.757	8009
663.811	6386
663.864	6748
663.918	8187
663.972	6983
664.026	7058
664.079	7230
664.133	8230
664.187	7029
664.240	7417
664.294	7297
664.348	8273
664.401	6962
664.455	6768
664.508	6907
664.562	6606
664.615	6573
664.669	6435
664.722	7830
664.776	6886
664.829	7071
664.883	7449
664.936	7100
664.990	8278
665.043	8526
665.097	9982
665.150	10057
665.203	8752
665.257	8115
665.310	8493
665.363	8717
665.417	8083
665.470	8047
665.523	8802
665.576	8479
665.630	7571
665.683	8346
665.736	8858
665.789	8291
665.842	7588
665.895	8600
665.949	7181
666.002	7638
666.055	7579
666.108	8906
666.161	8655
666.214	8883
666.267	8944
666.320	10079
666.373	8116
666.426	9461
666.479	8348
666.532	9685
666.585	11646
666.638	12318
666.691	10213
666.744	11644
666.796	11486
666.849	10276
666.902	8431
666.955	8266
667.008	7228
667.060	6608
667.113	6238
667.166	7766
667.219	8107
667.271	7959
667.324	7649
667.377	8848
667.430	7508
667.482	8732
667.535	8199
667.587	8839
667.640	8645
667.693	11097
667.745	16031
667.798	15134
667.850	8738
667.903	8262
667.955	8262
668.008	8133
668.060	11127
668.113	10216
668.165	9566
668.218	9943
668.270	9772
668.322	9358
668.375	8869
668.427	9489
668.479	8451
668.532	9799
668.584	9839
668.636	7897
668.689	8553
668.741	8399
668.793	8253
668.845	8434
668.898	9348
668.950	8965
669.002	8459
669.054	8617
669.106	7768
669.158	9717
669.211	8713
669.263	8896
669.315	9925
669.367	9974
669.419	8844
669.471	10068
669.523	9680
669.575	12181
669.627	9661
669.679	8768
669.731	8622
669.783	8958
669.835	9290
669.886	8078
669.938	8676
669.990	9353
670.042	7051
670.094	8444
670.146	8093
670.197	8733
670.249	8793
670.301	9194
670.353	11078
670.404	13928
670.456	16286
670.508	23345
670.560	38798
670.611	65013
670.663	114318
670.715	299117
670.766	394367
670.818	73424
670.869	18941
670.921	12927
670.972	12548
671.024	10578
671.075	9794
671.127	9855
671.178	8149
671.230	9756
671.281	8514
671.333	9354
671.384	9857
671.436	11447
671.487	12173
671.538	14335
671.590	20044
671.641	28255
671.692	46038
671.744	78863
671.795	41539
671.846	16969
671.897	12478
671.949	11540
672.000	9792
672.051	9838
672.102	9464
672.153	9029
672.204	8697
672.256	8945
672.307	9243
672.358	9376
672.409	9181
672.460	8459
672.511	8091
672.562	9099
672.613	7879
672.664	8418
672.715	8867
672.766	7724
672.817	8587
672.868	7753
672.919	7560
672.970	7297
673.021	7863
673.071	7799
673.122	8339
673.173	7490
673.224	8536
673.275	7679
673.326	7041
673.376	8155
673.427	7280
673.478	7427
673.528	7858
673.579	7504
673.630	7437
673.680	8182
673.731	6742
673.782	6469
673.832	7274
673.883	7437
673.934	7507
673.984	7250
674.035	6848
674.085	8338
674.136	9054
674.186	9275
674.237	11644
674.287	16109
674.338	8543
674.388	7934
674.438	7543
674.489	8213
674.539	8555
674.589	8830
674.640	8193
674.690	7490
674.740	8630
674.791	10486
674.841	8812
674.891	8108
674.942	7930
674.992	7173
675.042	6872
675.092	7210
675.142	7267
675.193	7827
675.243	6428
675.293	8125
675.343	6680
675.393	8199
675.443	8164
675.493	6444
675.543	6698
675.593	7726
675.643	7713
675.693	7125
675.743	7448
675.793	7153
675.843	6930
675.893	7805
675.943	6388
675.993	7484
676.043	6812
676.093	7481
676.142	7214
676.192	7896
676.242	6488
676.292	6015
676.341	7116
676.391	7766
676.441	5933
676.491	6565
676.540	5679
676.590	6596
676.640	6641
676.689	5656
676.739	5691
676.789	6299
676.838	5986
676.888	6610
676.937	5939
676.987	5413
677.037	4987
677.086	5786
677.136	5967
677.185	6313
677.235	5526
677.284	5008
677.333	5733
677.383	5381
677.432	4954
677.482	5712
677.531	5876
677.580	5445
677.630	4749
677.679	5291
677.728	5948
677.778	6369
677.827	5105
677.876	5860
677.925	5466
677.975	6063
678.024	5592
678.073	6669
678.122	7315
678.171	6359
678.220	6020
678.269	7992
678.319	7084
678.368	6599
678.417	6958
678.466	6897
678.515	7100
678.564	6857
678.613	6671
678.662	5965
678.711	6381
678.760	6077
678.809	5879
678.857	6396
678.906	6140
678.955	5674
679.004	6173
679.053	6714
679.102	6268
679.151	5981
679.199	5510
679.248	5355
679.297	6667
679.346	6991
679.394	5947
679.443	6073
679.492	6518
679.540	6361
679.589	5983
679.638	5677
679.686	5726
679.735	5839
679.784	6214
679.832	6526
679.881	5300
679.929	5263
679.978	4799
680.026	4683
680.075	5325
680.123	5216
680.172	4708
680.220	5088
680.268	5140
680.317	4513
680.365	5168
680.414	5317
680.462	4820
680.510	5988
680.559	4979
680.607	4946
680.655	4676
680.703	5439
680.752	5027
680.800	3850
680.848	4631
680.896	3924
680.945	4279
680.993	5765
681.041	4737
681.089	4119
681.137	4046
681.185	3747
681.233	4995
681.258	4617
681.281	4187
681.329	5017
681.377	4573
681.380	4670
681.425	5045
681.473	5807
681.502	5936
681.521	5885
681.569	6108
681.617	6023
681.624	6186
681.665	6708
681.713	6406
681.745	6828
681.761	6918
681.809	5964
681.857	6869
681.867	6950
681.904	6934
681.952	7689
681.989	7184
682.000	6938
682.048	7342
682.096	6962
682.111	7048
682.143	6992
682.191	7575
682.233	7745
682.239	7696
682.286	7732
682.334	6987
682.354	7365
682.382	7730
682.430	8989
682.476	8055
682.477	7971
682.525	8114
682.572	8098
682.598	8065
682.620	7943
682.667	8848
682.715	9044
682.720	9100
682.763	9031
682.810	9401
682.841	9664
682.857	9682
682.905	8733
682.952	10404
682.963	10310
683.000	9701
683.047	10442
683.085	10836
683.095	10873
683.142	9836
683.190	10524
683.206	10426
683.237	10144
683.284	10703
683.328	10913
683.332	10867
683.379	10475
683.426	10738
683.449	10954
683.473	11100
683.521	10637
683.568	11127
683.571	11181
683.615	11116
683.662	11959
683.693	12049
683.709	12047
683.757	10942
683.804	11962
683.814	12056
683.851	12207
683.898	12105
683.936	12226
683.945	12215
683.992	12953
684.039	14199
684.057	14004
684.086	13545
684.133	13611
684.179	13148
684.180	13076
684.227	14292
684.274	13837
684.300	13569
684.321	13423
684.368	12598
684.415	14459
684.422	14424
684.462	13624
684.509	12801
684.543	13085
684.556	13233
684.603	13405
684.649	13982
684.665	14148
684.696	14484
684.743	14115
684.786	15248
684.790	15323
684.837	15540
684.883	17308
684.908	17572
684.930	17471
684.977	18491
685.023	16733
685.029	16776
685.070	16606
685.117	16534
685.150	16534
685.164	16708
685.210	18518
685.257	18844
685.272	18741
685.303	18039
685.350	18076
685.393	18203
685.396	18223
685.443	18971
685.490	20452
685.514	20242
685.536	19622
685.583	19044
685.629	19191
685.636	19041
685.675	18304
685.722	18710
685.757	18947
685.768	19028
685.815	19504
685.861	19996
685.878	19849
685.908	19822
685.954	20850
686.000	21499
686.000	21510
686.047	23979
686.093	27761
686.121	28337
686.139	27070
686.185	24469
686.232	21641
686.242	21252
686.278	20922
686.324	20246
686.363	19333
686.370	19278
686.416	19364
686.463	19675
686.484	19678
686.509	19647
686.555	19490
686.601	19326
686.606	19451
686.647	20397
686.693	20357
686.727	19982
686.739	19887
686.785	20404
686.831	20038
686.848	20110
686.877	20053
686.923	20007
686.969	19410
686.969	19407
687.015	20382
687.061	20748
687.090	21381
687.107	21469
687.153	21422
687.199	20653
687.211	20430
687.245	20607
687.291	21928
687.332	23069
687.336	23122
687.382	23936
687.428	22982
687.453	23034
687.474	22665
687.520	21682
687.565	21152
687.574	20891
687.611	20905
687.657	21403
687.695	22023
687.702	22227
687.748	23803
687.794	24932
687.816	25024
687.839	24017
687.885	22377
687.931	21869
687.937	21692
687.976	22032
688.022	22310
688.058	22645
688.067	22695
688.113	22837
688.158	22617
688.179	22747
688.204	22875
688.249	22723
688.295	23117
688.300	23109
688.340	23680
688.386	24366
688.421	24784
688.431	24716
688.477	24380
688.522	24224
688.542	24027
688.567	23994
688.613	23876
688.658	23799
688.663	23803
688.703	24281
688.749	24565
688.784	24522
688.794	24408
688.839	24494
688.884	24307
688.905	24103
688.930	24074
688.975	24084
689.020	24006
689.026	24021
689.065	24418
689.110	24232
689.146	24875
689.155	24952
689.201	23753
689.246	23547
689.267	23521
689.291	23998
689.336	24648
689.381	25214
689.388	25245
689.426	24873
689.471	24903
689.509	23829
689.516	23686
689.561	23811
689.606	23662
689.630	23504
689.651	23607
689.696	24060
689.741	24926
689.750	24970
689.785	25015
689.830	24615
689.871	24316
689.875	24299
689.920	24107
689.965	23741
689.992	23460
690.010	23505
690.054	24391
690.099	24074
690.112	24083
690.144	24139
690.189	24210
690.233	24266
690.233	24296
690.278	24095
690.323	23551
690.354	23440
690.367	23639
690.412	24083
690.457	24528
690.474	24703
690.501	24700
690.546	24687
690.590	24175
690.595	24113
690.635	24266
690.680	24313
690.716	24503
690.724	24610
690.769	24927
690.813	25328
690.836	25319
690.857	25517
690.902	26176
690.946	26771
690.957	26875
690.991	28159
691.035	30055
691.077	31589
691.080	31673
691.124	32243
691.168	33101
691.198	33206
691.213	32893
691.257	32557
691.301	31514
691.318	31039
691.346	29947
691.390	28469
691.434	27067
691.439	26870
691.478	27488
691.522	27710
691.559	28235
691.567	28363
691.611	28725
691.655	29035
691.680	28930
691.699	28787
691.743	29283
691.787	29127
691.800	29024
691.831	29049
691.875	29388
691.919	29585
691.921	29532
691.964	30012
692.008	30789
692.041	31151
692.052	31175
692.096	30806
692.139	30982
692.162	30963
692.183	30922
692.227	30434
692.271	30340
692.282	30193
692.315	30185
692.359	30616
692.402	30062
692.403	30115
692.447	29808
692.490	30479
692.523	30371
692.534	30444
692.578	31171
692.622	31288
692.643	31376
692.666	31092
692.709	30428
692.753	29746
692.763	29525
692.797	29492
692.840	29501
692.884	29291
692.884	29351
692.928	29767
692.971	30249
693.004	30496
693.015	30588
693.059	30786
693.102	30744
693.124	30844
693.146	31230
693.189	31436
693.233	32190
693.245	32317
693.276	32704
693.320	33005
693.363	32800
693.365	32751
693.407	33216
693.450	33263
693.485	33330
693.493	33454
693.537	33725
693.580	33882
693.605	33968
693.624	34188
693.667	34437
693.710	34705
693.725	34777
693.753	37241
693.797	41015
693.840	44967
693.845	45284
693.883	43792
693.926	42257
693.966	40873
693.970	40677
694.013	37381
694.056	34464
694.086	32327
694.099	32487
694.142	32988
694.185	33214
694.206	33078
694.229	33408
694.272	34755
694.315	35556
694.326	35679
694.358	35835
694.401	35891
694.444	36271
694.446	36204
694.487	35649
694.530	34725
694.566	34043
694.573	33870
694.616	32144
694.659	30396
694.686	29354
694.702	29417
694.745	29407
694.787	29524
694.806	29305
694.830	29422
694.873	29792
694.916	30082
694.926	30084
694.959	30242
695.002	30404
695.044	30450
695.046	30397
695.087	31447
695.130	32131
695.166	32544
695.172	32532
695.215	31968
695.258	31658
695.286	31187
695.301	31287
695.343	31649
695.386	31827
695.406	31842
695.428	31858
695.471	31651
695.514	31678
695.526	31567
695.556	31638
695.599	31774
695.641	31853
695.646	31766
695.684	31482
695.726	31096
695.766	30855
695.769	30964
695.811	31398
695.854	31711
695.886	32095
695.896	32113
695.938	31535
695.981	30952
696.005	30674
696.023	30995
696.065	31351
696.108	31940
696.125	32115
696.150	32425
696.192	32638
696.235	32904
696.245	32849
696.277	32177
696.319	31448
696.361	30531
696.365	30388
696.404	30664
696.446	30845
696.485	30899
696.488	31038
696.530	31813
696.572	32809
696.604	33351
696.614	33189
696.656	32019
696.698	31017
696.724	30346
696.740	30468
696.783	30474
696.825	30588
696.844	30500
696.867	30915
696.909	31635
696.951	32396
696.964	32508
696.992	32082
697.034	31380
697.076	30721
697.083	30548
697.118	31393
697.160	32197
697.202	32964
697.203	32901
697.244	32472
697.286	32065
697.323	31454
697.327	31524
697.369	31488
697.411	31481
697.442	31421
697.453	31697
697.494	32446
697.536	33214
697.562	33577
697.578	33648
697.620	33566
697.661	33572
697.682	33502
697.703	34104
697.744	35035
697.786	36071
697.801	36315
697.828	36259
697.869	36036
697.911	35857
697.921	35702
697.952	34997
697.994	34003
698.035	32998
698.040	32783
698.077	32686
698.118	32538
698.160	32405
698.160	32320
698.201	32347
698.243	32288
698.279	32196
698.284	32339
698.325	32872
698.367	33349
698.399	33669
698.408	33629
698.449	32996
698.491	32401
698.518	31901
698.532	32107
698.573	32485
698.614	32829
698.638	32956
698.656	33086
698.697	33185
698.738	33273
698.757	33229
698.779	33708
698.820	34439
698.862	35169
698.877	35350
698.903	36004
698.944	36895
698.985	37777
698.996	37923
699.026	37281
699.067	36249
699.116	34924
699.235	34035
699.354	33457
699.474	35648
699.593	40610
699.713	36704
699.832	33368
699.951	35243
700.070	33316
700.190	32342
700.309	34134
700.428	38145
700.547	33219
700.667	33591
700.786	39142
700.905	31877
701.024	37089
701.143	32792
701.262	28675
701.381	29332
701.500	32930
701.619	34386
701.738	29741
701.857	28626
701.976	28049
702.095	28826
702.214	31956
702.333	31429
702.452	30655
702.571	28447
702.690	29071
702.809	28112
702.928	26580
703.047	29019
703.165	27504
703.284	27451
703.403	28116
703.522	33572
703.640	31959
703.759	40956
703.878	54515
703.997	29783
704.115	27937
704.234	28153
704.353	26534
704.471	26194
704.590	25532
704.708	25031
704.827	26135
704.946	28092
705.064	30298
705.183	26809
705.301	33535
705.420	46879
705.538	39894
705.656	33916
705.775	33399
705.893	41921
706.012	44816
706.130	36672
706.249	36117
706.367	38020
706.485	41680
706.604	37494
706.722	38968
706.840	47706
706.958	46974
707.077	36063
707.195	32290
707.313	32405
707.431	32324
707.549	31842
707.668	32440
707.786	33094
707.904	32156
708.022	30921
708.140	31108
708.258	30249
708.376	31745
708.494	31393
708.612	36297
708.730	51097
708.848	46649
708.966	42950
709.084	38621
709.202	38845
709.320	39947
709.438	40152
709.556	41269
709.674	40243
709.791	39605
709.909	38431
710.027	38332
710.145	37704
710.263	41254
710.380	39110
710.498	37553
710.616	37739
710.733	37245
710.851	40509
710.969	40881
711.086	37841
711.204	37035
711.322	38482
711.439	39225
711.557	39425
711.674	36683
711.792	36914
711.909	36000
712.027	34575
712.144	34553
712.262	35840
712.379	40890
712.497	57496
712.614	54856
712.732	44889
712.849	43056
712.966	49792
713.084	56108
713.201	46949
713.318	46388
713.436	42980
713.553	45613
713.670	46446
713.787	53225
713.905	52407
714.022	43967
714.139	43726
714.256	49316
714.373	59421
714.490	86166
714.608	197112
714.725	770454
714.842	633542
714.959	69414
715.076	47817
715.193	42665
715.310	41795
715.427	37555
715.544	36996
715.661	38048
715.778	39251
715.895	43321
716.011	42656
716.128	37939
716.245	37906
716.362	43028
716.479	42544
716.596	35488
716.713	36119
716.829	37116
716.946	35674
717.063	34345
717.180	32922
717.296	31710
717.413	33452
717.530	33695
717.646	32619
717.763	32138
717.880	30825
717.996	31795
718.113	32101
718.229	31694
718.346	29112
718.462	32100
718.579	39638
718.695	61381
718.812	50879
718.928	51509
719.045	33681
719.161	29507
719.277	29239
719.394	28249
719.510	31570
719.626	32169
719.743	39832
719.859	44453
719.975	67753
720.092	237844
720.208	458153
720.324	61697
720.440	34784
720.557	39397
720.673	53703
720.789	82460
720.905	182337
721.021	50268
721.137	30152
721.253	31088
721.369	32033
721.486	38796
721.602	54602
721.718	28343
721.834	26028
721.950	26979
722.066	25919
722.181	25205
722.297	26617
722.413	24586
722.529	24650
722.645	24065
722.761	24062
722.877	24197
722.993	24028
723.108	27909
723.224	24788
723.340	24911
723.456	22550
723.571	24268
723.687	22812
723.803	22844
723.918	22863
724.034	23455
724.150	22448
724.265	31379
724.381	68802
724.497	76780
724.612	23034
724.728	22062
724.843	21758
724.959	29246
725.074	66957
725.190	65791
725.305	26060
725.421	23040
725.536	18999
725.651	19100
725.767	18907
725.882	19308
725.997	19299
726.113	19999
726.228	19223
726.343	18091
726.459	17751
726.574	22050
726.689	19172
726.804	19587
726.920	20143
727.035	20083
727.150	20687
727.265	19437
727.380	20702
727.495	17581
727.610	16409
727.725	18246
727.841	18276
727.956	22586
728.071	24756
728.186	18251
728.301	16195
728.416	19088
728.531	17327
728.645	15115
728.760	18349
728.875	19019
728.990	17132
729.105	16926
729.220	18359
729.335	17879
729.449	15359
729.564	14730
729.679	15140
729.794	16107
729.908	19439
730.023	17725
730.138	13704
730.253	14795
730.367	14411
730.482	14568
730.596	15426
730.711	15894
730.826	16239
730.940	16619
731.055	16174
731.169	14309
731.284	14553
731.398	15395
731.513	20483
731.627	18916
731.742	22792
731.856	24090
731.970	17487
732.085	20478
732.199	24977
732.313	40919
732.428	96065
732.542	267618
732.656	131243
732.771	29073
732.885	20084
732.999	19223
733.113	19759
733.227	17280
733.342	14435
733.456	15854
733.570	14498
733.684	15607
733.798	14194
733.912	13952
734.026	13404
734.140	14392
734.254	18605
734.368	38326
734.482	40565
734.596	14775
734.710	12999
734.824	13677
734.938	13193
735.052	14404
735.166	17232
735.280	15319
735.393	13960
735.507	13853
735.621	22710
735.735	45803
735.849	16194
735.962	13554
736.076	14956
736.190	15433
736.303	25100
736.417	30443
736.531	12987
736.644	14681
736.758	11631
736.872	11011
736.985	11469
737.099	11311
737.212	11039
737.326	11495
737.439	11726
737.553	11308
737.666	10667
737.780	10811
737.893	11142
738.007	11054
738.120	11537
738.233	11252
738.347	10445
738.460	11207
738.573	11881
738.687	11834
738.800	12224
738.913	16206
739.026	12140
739.140	10612
739.253	10120
739.366	10787
739.479	9150
739.592	9739
739.705	10476
739.818	10399
739.932	9247
740.045	9886
740.158	10680
740.271	11264
740.384	9938
740.497	9168
740.610	10686
740.723	10019
740.836	10367
740.949	11811
741.062	16385
741.174	13640
741.287	10875
741.400	10412
741.513	10614
741.626	11219
741.739	10174
741.851	9890
741.964	9904
742.077	9636
742.189	10155
742.302	10872
742.415	10256
742.527	9175
742.640	9839
742.753	8858
742.865	8660
742.978	9703
743.090	10190
743.203	9598
743.316	9119
743.428	8488
743.541	8940
743.653	9098
743.766	8964
743.878	9206
743.990	16358
744.103	13465
744.215	9160
744.327	8949
744.440	12527
744.552	19533
744.664	10491
744.777	8263
744.889	7634
745.001	9263
745.113	8135
745.226	7731
745.338	8747
745.450	8873
745.562	8566
745.674	7745
745.786	7616
745.898	8015
746.010	7528
746.122	6808
746.234	7766
746.347	7597
746.459	8474
746.570	7712
746.682	8400
746.794	7452
746.906	8358
747.018	7848
747.130	8320
747.242	7911
747.354	7953
747.466	9765
747.577	6964
747.689	7600
747.801	7630
747.913	7287
748.024	6853
748.136	6867
748.248	7777
748.359	7052
748.471	7737
748.583	8057
748.694	8289
748.806	9596
748.918	13736
749.029	9171
749.141	9237
749.252	9075
749.364	11458
749.475	22901
749.587	15722
749.698	7376
749.809	7179
749.921	7464
750.032	6649
750.144	6142
750.255	7163
750.366	6324
750.478	6457
750.589	7650
750.700	8564
750.811	9130
750.923	10714
751.034	24459
751.145	20815
751.256	7806
751.367	7175
751.479	6299
751.590	6645
751.701	6422
751.812	6361
751.923	5837
752.034	6787
752.145	6233
752.256	6364
752.367	6389
752.478	5489
752.589	6794
752.700	7069
752.811	6408
752.922	6581
753.032	8572
753.143	9262
753.254	5778
753.365	7118
753.476	7064
753.586	5649
753.697	5867
753.808	6070
753.919	5891
754.029	7361
754.140	6142
754.251	6312
754.361	6235
754.472	5855
754.582	6447
754.693	6385
754.804	6419
754.914	5754
755.025	5823
755.135	5464
755.246	6542
755.356	5027
755.466	6370
755.577	6070
755.687	6838
755.798	5864
755.908	7377
756.018	5695
756.129	5898
756.239	5914
756.349	6197
756.460	5800
756.570	6691
756.680	6053
756.790	6951
756.900	7783
757.011	5098
757.121	5704
757.231	5357
757.341	5777
757.451	5355
757.561	5447
757.671	6633
757.781	4992
757.891	6723
758.001	7236
758.111	6066
758.221	6574
758.331	8386
758.441	8657
758.551	11903
758.661	9469
758.771	7489
758.880	7238
758.990	6958
759.100	7470
759.210	6336
759.320	6780
759.429	7020
759.539	7493
759.649	7769
759.758	7493
759.868	8820
759.978	7054
760.087	9075
760.197	9063
760.307	8399
760.416	8049
760.526	7403
760.635	8465
760.745	8169
760.854	8561
760.964	9320
761.073	8835
761.182	8933
761.292	9247
761.401	9910
761.511	7691
761.620	6731
761.729	7174
761.839	8029
761.948	6935
762.057	8250
762.166	7119
762.276	6170
762.385	7115
762.494	6097
762.603	6683
762.712	7806
762.822	7578
762.931	7333
763.040	6222
763.149	6427
763.258	7052
763.367	6882
763.476	7604
763.585	7023
763.694	7179
763.803	7700
763.912	8586
764.021	7883
764.130	6818
764.238	7469
764.347	7058
764.456	7543
764.565	8240
764.674	8176
764.783	7245
764.891	7469
765.000	8911
765.109	9066
765.217	8663
765.326	12215
765.435	13704
765.543	12096
765.652	12481
765.761	16207
765.869	20889
765.978	31254
766.086	53127
766.195	102955
766.303	262369
766.412	672957
766.520	550966
766.629	152090
766.737	60481
766.846	35590
766.954	24411
767.062	20893
767.171	18256
767.279	15656
767.387	12109
767.496	11204
767.604	11820
767.712	10463
767.820	9230
767.928	10298
768.037	9232
768.145	9696
768.253	8351
768.361	8934
768.469	9210
768.577	9133
768.685	10317
768.793	9691
768.901	9439
769.009	10182
769.117	10752
769.225	12789
769.333	16965
769.441	23915
769.549	39746
769.657	92370
769.765	297620
769.873	569433
769.981	190856
770.088	47345
770.196	25104
770.304	18351
770.412	15307
770.519	13325
770.627	10667
770.735	9295
770.842	9842
770.950	9847
771.058	8789
771.165	9184
771.273	8296
771.380	9114
771.488	9083
771.595	8837
771.703	7499
771.810	9230
771.918	7909
772.025	8308
772.133	8895
772.240	8244
772.348	8804
772.455	8088
772.562	7487
772.670	7754
772.777	8190
772.884	7442
772.991	7336
773.099	7739
773.206	6593
773.313	8175
773.420	7096
773.528	6817
773.635	7187
773.742	7172
773.849	7463
773.956	7234
774.063	6737
774.170	7290
774.277	8178
774.384	7616
774.491	7345
774.598	7716
774.705	7800
774.812	10290
774.919	8979
775.026	8185
775.133	7812
775.239	7374
775.346	7660
775.453	6598
775.560	6733
775.667	7166
775.773	7503
775.880	7981
775.987	7070
776.093	7173
776.200	7444
776.307	6508
776.413	6877
776.520	6938
776.627	7494
776.733	7014
776.840	5577
776.946	8559
777.053	6542
777.159	6578
777.266	3681
777.372	8196
777.478	7056
777.585	7344
777.691	6255
777.798	6701
777.904	8185
778.010	11495
778.117	9659
778.223	6309
778.329	6504
778.435	6309
778.542	6647
778.648	6753
778.754	6016
778.860	6301
778.966	7114
779.072	6700
779.178	6113
779.284	6750
779.391	5144
779.497	5766
779.603	7308
779.708	4869
779.815	6840
779.920	12232
780.026	17487
780.132	7494
780.238	5925
780.344	6099
780.450	6480
780.556	5163
780.661	5145
780.767	6507
780.873	5744
780.979	6232
781.085	6265
781.190	4959
781.296	5493
781.402	6133
781.507	5320
781.613	5631
781.719	4814
781.824	5366
781.930	5976
782.035	5820
782.141	5448
782.246	5487
782.352	5316
782.457	5421
782.563	5903
782.668	4837
782.773	5256
782.879	6021
782.984	7500
783.090	7430
783.195	11237
783.300	7766
783.405	6812
783.511	5752
783.616	5831
783.721	6281
783.826	5273
783.932	6237
784.037	5545
784.142	6755
784.247	5747
784.352	4881
784.457	5192
784.562	5158
784.667	5288
784.772	5040
784.877	5632
784.982	5032
785.087	5821
785.192	7119
785.297	5451
785.402	5695
785.507	4774
785.611	5685
785.716	5958
785.821	5264
785.926	3827
786.031	4962
786.135	4523
786.240	4713
786.345	4370
786.450	5549
786.554	5166
786.659	4445
786.763	3597
786.868	4520
786.973	4865
787.077	4605
787.182	5100
787.286	5265
787.391	4159
787.495	4080
787.600	5021
787.704	3951
787.809	4759
787.913	4315
788.017	4331
788.122	5541
788.226	4246
788.330	4343
788.435	4479
788.539	4617
788.643	3706
788.747	4579
788.852	4123
788.956	4176
789.060	4814
789.164	5669
789.268	3508
789.372	4387
789.476	4236
789.580	3863
789.684	4178
789.788	5217
789.892	4232
789.996	5121
790.100	3857
790.204	4877
790.308	4964
790.412	4755
790.516	5105
790.620	4223
790.724	4632
790.828	5192
790.931	4059
791.035	5873
791.139	4692
791.242	4173
791.346	5053
791.450	3353
791.554	4360
791.657	2352
791.761	4631
791.864	4546
791.968	3831
792.072	4458
792.175	4837
792.279	3946
792.382	4040
792.486	4540
792.589	4191
792.693	4827
792.796	3126
792.899	4608
793.003	5027
793.106	1730
793.209	3964
793.313	5172
793.416	3742
793.519	5841
793.623	7892
793.726	10266
793.829	5451
793.932	4962
794.035	4106
794.138	5079
794.242	4297
794.345	6746
794.448	6677
794.551	9898
794.654	10232
794.757	11000
794.860	8679
794.963	5616
795.066	3870
795.169	4812
795.272	2358
795.375	4501
795.477	3082
795.580	4560
795.683	3154
795.786	3408
795.889	2592
795.991	5337
796.094	6526
796.197	4643
796.300	4610
796.402	2955
796.505	2469
796.608	2871
796.710	3766
796.813	3464
796.915	3260
797.018	4274
797.120	2601
797.223	2137
797.326	4342
797.428	2838
797.530	3644
797.633	4006
797.735	6562
797.838	13033
797.940	9861
798.042	2475
798.145	3332
798.247	3812
798.349	1982
798.452	3884
798.554	3285
798.656	2922
798.758	5288
798.860	3100
798.962	2767
799.065	3254
799.167	2551
799.269	4893
799.371	4495
799.473	4824
799.575	6192
799.677	7176
799.779	6663
799.881	8755
799.983	5110
800.085	3668
800.187	3301
800.289	3570
800.390	2841
800.492	3554
800.594	4303
800.696	2169
800.798	3547
800.899	3063
801.001	2790
801.103	3264
801.205	2583
801.306	3283
801.408	1827
801.509	3087
801.611	3281
801.713	2642
801.814	2203
801.916	2342
802.017	2335
802.119	2572
802.220	2750
802.322	2614
802.423	8114
802.525	4345
802.626	3815
802.727	3114
802.829	4187
802.930	1261
803.031	4181
803.133	2957
803.234	1887
803.335	2198
803.436	1660
803.538	2836
803.639	1507
803.740	3435
803.841	1770
803.942	3200
804.043	2422
804.144	1658
804.245	2165
804.346	1856
804.447	3282
804.548	5764
804.649	5848
804.750	2828
804.851	2327
804.952	2545
805.053	1756
805.154	1933
805.255	2407
805.355	2217
805.456	1218
805.557	1990
805.658	1991
805.758	2538
805.859	1977
805.960	1870
806.061	2086
806.161	2318
806.262	2931
806.362	2315
806.463	2471
806.564	3153
806.664	1758
806.765	6152
806.865	4854
806.966	3449
807.066	1709
807.166	3378
807.267	2628
807.367	2049
807.468	2530
807.568	486
807.668	3653
807.769	3144
807.869	1380
807.969	2573
808.069	2061
808.170	2238
808.270	2144
808.370	3456
808.470	4547
808.570	3434
808.670	1201
808.770	1791
808.870	781
808.970	2630
809.070	1153
809.170	1584
809.271	2721
809.370	2101
809.470	2713
809.570	1549
809.670	1660
809.770	2281
809.870	2564
809.970	2383
810.070	2802
810.169	2241
810.269	1023
810.369	2881
810.469	1827
810.568	1710
810.668	405
810.768	1347
810.867	1733
810.967	2683
811.066	2017
811.166	1854
811.265	2226
811.365	1328
811.464	1355
811.564	1953
811.663	2287
811.763	969
811.862	1757
811.962	2591
812.061	1223
812.160	1594
812.260	2235
812.359	1364
812.458	1624
812.557	3942
812.657	3632
812.756	2672
812.855	2152
812.954	1889
813.053	2257
813.153	1365
813.252	1412
813.351	1666
813.450	2403
813.549	1476
813.648	1447
813.747	1084
813.846	2289
813.945	1575
814.044	1538
814.143	1901
814.242	2708
814.341	1572
814.439	2694
814.538	3040
814.637	1556
814.736	1944
814.835	2892
814.933	2093
815.032	2614
815.131	2814
815.229	2907
815.328	3842
815.427	2667
815.525	3168
815.624	3036
815.722	2349
815.821	3659
815.919	2882
816.018	3115
816.116	4313
816.215	2630
816.313	3027
816.412	3773
816.510	3345
816.609	4981
816.707	4033
816.805	4676
816.904	4315
817.002	4708
817.100	5048
817.198	6282
817.296	6141
817.395	6996
817.493	8013
817.591	7783
817.689	11978
817.787	14764
817.885	22799
817.983	41697
818.081	85835
818.179	202484
818.277	485277
818.375	398762
818.473	115111
818.571	47302
818.669	31660
818.767	26564
818.865	27653
818.963	31687
819.061	46439
819.158	78991
819.256	164503
819.354	371749
819.452	726032
819.549	484302
819.647	159078
819.745	66990
819.842	40075
819.940	28109
820.038	20941
820.135	15531
820.233	13454
820.330	10609
820.428	8557
820.525	9237
820.623	8280
820.720	6579
820.818	5825
820.915	5101
821.012	6252
821.110	4627
821.207	5096
821.304	3338
821.402	4787
821.499	4238
821.596	4310
821.693	4011
821.791	4618
821.888	5864
821.985	12348
822.082	9245
822.179	4432
822.276	3176
822.373	3378
822.470	3346
822.567	3569
822.664	1927
822.761	3380
822.858	1880
822.955	3257
823.052	2521
823.149	2428
823.246	2688
823.343	1864
823.440	2816
823.536	1909
823.633	1938
823.730	2787
823.827	2522
823.923	2847
824.020	3904
824.117	2514
824.213	2023
824.310	2491
824.407	1552
824.503	2668
824.600	2692
824.696	2230
824.793	2585
824.889	1631
824.986	1335
825.082	2259
825.179	2393
825.275	2587
825.371	1725
825.468	2298
825.564	662
825.660	2194
825.757	2130
825.853	2710
825.949	793
826.045	1636
826.142	1025
826.238	1949
826.334	2274
826.430	1644
826.526	2510
826.622	1274
826.718	2347
826.814	1411
826.910	2631
827.006	1784
827.102	961
827.198	3209
827.294	1580
827.390	2369
827.486	1572
827.582	-30
827.678	571
827.774	2198
827.869	844
827.965	2983
828.061	1145
828.157	1759
828.252	1467
828.348	799
828.444	2104
828.539	1062
828.635	1095
828.731	2885
828.826	335
828.922	2884
829.017	1097
829.113	2588
829.208	1490
829.304	1767
829.399	3044
829.495	1887
829.590	1921
829.685	1999
829.781	2326
829.876	2123
829.971	730
830.066	1029
830.162	1745
830.257	1776
830.352	1344
830.447	2537
830.543	2335
830.638	2116
830.733	2426
830.828	1834
830.923	2285
831.018	1898
831.113	2630
831.208	1502
831.303	2334
831.398	1487
831.493	974
831.588	1470
831.683	492
831.778	1578
831.873	1105
831.967	2013
832.062	857
832.157	1280
832.252	2698
832.346	2075
832.441	3293
832.536	3811
832.631	12227
832.725	8583
832.820	1745
832.914	1404
833.009	1473
833.104	2563
833.198	3906
833.293	1878
833.387	2594
833.482	1666
833.576	1362
833.670	2075
833.765	1561
833.859	2909
833.954	3623
834.048	1644
834.142	1599
834.237	790
834.331	1051
834.425	1725
834.519	897
834.613	2320
834.708	944
834.802	1141
834.896	624
834.990	818
835.084	1508
835.178	833
835.272	2196
835.366	686
835.460	1405
835.554	1567
835.648	1024
835.742	878
835.836	1245
835.930	1368
836.024	1106
836.117	2238
836.211	2680
836.305	5162
836.399	7563
836.493	843
836.586	3301
836.680	604
836.774	565
836.867	2107
836.961	84
837.055	1073
837.148	341
837.242	972
837.335	1320
837.429	1495
837.522	570
837.616	3272
837.709	9144
837.803	5598
837.896	1884
837.989	2973
838.083	4744
838.176	12622
838.269	9988
838.363	2897
838.456	1417
838.549	3720
838.642	5813
838.735	12648
838.829	4514
838.922	1811
839.015	892
839.108	855
839.201	976
839.294	1255
839.387	1477
839.480	1415
839.573	3948
839.666	6173
839.759	2383
839.852	1047
839.945	1458
840.038	1824
840.131	1304
840.223	815
840.316	1041
840.409	310
840.502	761
840.594	2227
840.687	372
840.780	1402
840.873	1692
840.965	2511
841.058	3914
841.150	12222
841.243	7649
841.336	2714
841.428	1364
841.521	1172
841.613	1553
841.706	1623
841.798	1020
841.890	1448
841.983	509
842.075	1554
842.167	1809
842.260	2198
842.352	3833
842.444	6695
842.537	12736
842.629	18325
842.721	3210
842.813	648
842.905	825
842.997	2426
843.090	2882
843.182	5847
843.274	12186
843.366	29333
843.458	57288
843.550	32700
843.642	4669
843.734	3172
843.826	2988
843.918	3442
844.009	1924
844.101	1335
844.193	1389
844.285	1442
844.377	2033
844.469	1701
844.560	666
844.652	1631
844.744	281
844.835	1057
844.927	2176
845.019	3267
845.110	1820
845.202	1963
845.293	840
845.385	592
845.476	981
845.568	2169
845.659	1104
845.751	2073
845.842	132
845.934	812
846.025	702
846.116	1878
846.208	645
846.299	783
846.390	1732
846.482	1543
846.573	3012
846.664	4647
846.755	6606
846.846	5154
846.937	351
847.029	293
847.120	733
847.211	1224
847.302	1233
847.393	-431
847.484	1710
847.575	444
847.666	736
847.757	1887
847.847	901
847.938	1879
848.029	787
848.120	567
848.211	967
848.302	412
848.392	1392
848.483	1783
848.574	357
848.664	686
848.755	825
848.846	1103
848.936	1018
849.027	958
849.118	995
849.208	1612
849.299	2872
849.389	4943
849.480	10300
849.570	19272
849.661	36327
849.751	59842
849.841	17751
849.932	2322
850.022	1708
850.112	1145
850.203	1208
850.293	1568
850.383	1327
850.474	1147
850.564	439
850.654	1413
850.744	1082
850.834	1735
850.924	626
851.014	1384
851.104	1124
851.194	1553
851.284	3170
851.374	3071
851.464	1922
851.554	2009
851.644	2690
851.734	5139
851.824	2805
851.914	1110
852.004	1302
852.094	943
852.183	1138
852.273	1751
852.363	670
852.452	766
852.542	1083
852.632	1551
852.721	681
852.811	1215
852.901	1483
852.990	2237
853.080	1209
853.169	2310
853.259	1592
853.348	1678
853.438	3015
853.527	4702
853.617	5937
853.706	13724
853.795	22012
853.885	51801
853.974	97345
854.063	182061
854.152	262956
854.242	93592
854.331	18307
854.420	7407
854.509	6520
854.598	5292
854.687	5125
854.777	5097
854.866	2234
854.955	2927
855.044	1380
855.133	1616
855.222	1391
855.311	1006
855.400	1109
855.488	1595
855.577	-15
855.666	1834
855.755	1448
855.844	1137
855.933	1179
856.021	1412
856.110	1537
856.199	732
856.288	548
856.376	828
856.465	778
856.554	794
856.642	888
856.731	1346
856.819	1474
856.908	1521
856.996	1221
857.085	153
857.173	940
857.262	563
857.350	1017
857.438	127
857.527	363
857.615	168
857.703	1587
857.792	973
857.880	167
857.968	83
858.056	918
858.145	1072
858.233	790
858.321	320
858.409	1788
858.497	903
858.585	252
858.673	1647
858.761	422
858.849	830
858.937	625
859.025	820
859.113	975
859.201	1187
859.289	756
859.377	768
859.465	876
859.552	176
859.640	1112
859.728	1283
859.816	889
859.903	1349
859.991	261
860.079	558
860.166	-119
860.254	549
860.342	552
860.429	286
860.517	386
860.604	930
860.692	1079
860.779	497
860.867	898
860.954	1217
861.042	1917
861.129	1033
861.216	664
861.304	432
861.391	1005
861.478	693
861.565	1522
861.653	1800
861.740	629
861.827	1040
861.914	908
862.001	636
862.089	660
862.176	1015
862.263	84
862.350	868
862.437	-195
862.524	655
862.611	-205
862.698	1152
862.785	522
862.871	-323
862.958	48
863.045	1182
863.132	1327
863.219	-102
863.306	-530
863.392	1154
863.479	768
863.566	960
863.652	800
863.739	195
863.826	1034
863.912	608
863.999	642
864.086	760
864.172	736
864.259	1017
864.345	1168
864.432	510
864.518	1027
864.604	1356
864.691	105
864.777	1713
864.863	1690
864.950	1683
865.036	862
865.122	3061
865.209	3402
865.295	2742
865.381	2870
865.467	3325
865.553	4694
865.639	6416
865.726	12304
865.812	25861
865.898	51695
865.984	76745
866.070	143186
866.156	143328
866.242	34150
866.328	7733
866.414	4260
866.499	3859
866.585	2723
866.671	3629
866.757	3238
866.843	2401
866.928	2321
867.014	1996
867.100	2343
867.186	3203
867.271	3399
867.357	5146
867.442	5672
867.528	2891
867.614	1491
867.699	1392
867.785	1163
867.870	1756
867.956	2171
868.041	2894
868.127	3253
868.212	4028
868.297	1480
868.383	2340
868.468	3318
868.553	6432
868.639	6377
868.724	16393
868.809	11852
868.894	2769
868.979	1666
869.065	2305
869.150	1243
869.235	840
869.320	947
869.405	395
869.490	1319
869.575	583
869.660	792
869.745	1244
869.830	1145
869.915	620
870.000	1555
870.085	1294
870.169	1232
870.254	1532
870.339	434
870.424	-141
870.509	1269
870.593	1440
870.678	908
870.763	739
870.847	1073
870.932	1014
871.016	1478
871.101	615
871.186	112
871.270	1605
871.355	1299
871.439	1823
871.523	1231
871.608	1068
871.692	1110
871.777	1283
871.861	881
871.945	16
872.030	1250
872.114	532
872.198	422
872.282	758
872.367	277
872.451	957
872.535	795
872.619	1175
872.703	207
872.787	589
872.871	1311
872.955	161
873.039	1258
873.123	318
873.207	1388
873.291	936
873.375	946
873.459	1306
873.543	659
873.627	633
873.711	617
873.794	1197
873.878	173
873.962	220
874.045	186
874.129	3
874.137	77
874.213	819
874.245	788
874.296	743
874.352	354
874.380	163
874.460	901
874.464	931
874.547	-231
874.568	-126
874.631	185
874.676	370
874.714	514
874.784	637
874.798	668
874.881	1012
874.892	964
874.965	620
874.999	878
875.048	1241
875.107	887
875.131	739
875.215	807
875.215	807
875.298	1145
875.323	845
875.381	122
875.430	470
875.465	742
875.538	733
875.548	714
875.631	368
875.646	327
875.714	282
875.753	472
875.798	625
875.861	507
875.881	477
875.964	-89
875.968	-58
876.047	472
876.076	709
876.130	1219
876.183	1477
876.213	1581
876.291	1649
876.296	1655
876.379	962
876.398	784
876.462	204
876.506	528
876.545	816
876.613	1159
876.628	1236
876.711	153
876.721	266
876.794	1212
876.828	1164
876.877	1004
876.935	792
876.960	756
877.043	215
877.043	220
877.125	944
877.150	1076
877.208	1470
877.258	1090
877.291	863
877.365	473
877.374	428
877.456	836
877.472	960
877.539	1389
877.579	1199
877.622	987
877.687	1204
877.704	1288
877.787	1156
877.794	1077
877.869	214
877.901	382
877.952	567
878.008	941
878.034	1144
878.115	449
878.117	435
878.199	-255
878.222	-20
878.282	523
878.329	824
878.364	1030
878.437	607
878.447	594
878.529	-192
878.544	38
878.611	575
878.651	335
878.694	329
878.758	894
878.776	1044
878.858	384
878.865	394
878.941	173
878.972	366
879.023	804
879.078	99
879.105	-169
879.185	619
879.187	629
879.269	767
879.292	623
879.351	317
879.399	133
879.433	94
879.506	702
879.516	760
879.598	358
879.613	314
879.680	-160
879.720	54
879.762	518
879.827	19
879.844	-157
879.926	259
879.933	250
880.007	306
880.040	431
880.089	542
880.147	974
880.171	1225
880.253	3158
880.254	3173
880.335	4556
880.360	4643
880.417	5366
880.467	9020
880.499	11108
880.574	10631
880.580	10550
880.662	2478
880.680	1960
880.744	41
880.787	-161
880.825	-109
880.893	475
880.907	558
880.989	-205
881.000	-144
881.070	487
881.106	751
881.152	766
881.213	176
881.233	180
881.315	82
881.319	156
881.396	641
881.426	335
881.478	-114
881.532	26
881.559	193
881.639	-347
881.641	-355
881.722	629
881.745	692
881.803	689
881.852	370
881.885	43
881.958	112
881.966	120
882.047	638
882.064	596
882.129	698
882.171	1160
882.210	1613
882.277	2477
882.291	2609
882.372	865
882.383	770
882.454	59
882.489	-74
882.535	-104
882.596	16
882.616	13
882.697	-23
882.702	-21
882.778	502
882.808	632
882.859	8
882.914	-597
882.940	-457
883.020	5
883.021	3
883.102	-300
883.127	-382
883.183	-142
883.233	-31
883.264	-164
883.339	-674
883.345	-673
883.426	-29
883.445	62
883.507	12
883.551	-118
883.587	-116
883.657	175
883.668	222
883.749	403
883.763	361
883.830	227
883.869	256
883.910	1
883.975	-149
883.991	-144
884.072	-201
884.081	-237
884.152	-349
884.187	-325
884.233	-120
884.292	305
884.314	336
884.394	-71
884.398	-73
884.475	246
884.504	348
884.555	42
884.610	-364
884.636	-356
884.716	-445
884.716	-446
884.797	-330
884.821	-322
884.877	-2
884.927	-79
884.958	-266
885.033	-187
885.038	-177
885.118	-48
885.139	-64
885.199	-171
885.244	-152
885.279	-104
885.350	26
885.359	60
885.439	173
885.456	156
885.520	36
885.561	211
885.600	105
885.667	-429
885.680	-445
885.760	-78
885.773	-88
885.840	-148
885.878	-130
885.920	-174
885.984	-129
886.000	-61
886.080	-56
886.089	-0
886.160	240
886.195	206
886.240	-127
886.300	-499
886.320	-391
886.400	183
886.406	210
886.480	257
886.511	358
886.560	413
886.616	287
886.640	50
886.720	-897
886.722	-911
886.800	-324
886.827	-126
886.879	-174
886.932	-224
886.959	13
887.038	602
887.039	596
887.119	27
887.143	-133
887.198	248
887.248	561
887.278	345
887.354	-233
887.358	-217
887.437	144
887.459	238
887.517	-139
887.564	-486
887.596	-401
887.669	-62
887.676	-48
887.755	14
887.774	3
887.835	14
887.880	242
887.914	203
887.985	-201
887.994	-196
888.073	-49
888.090	-1
888.153	98
888.195	76
888.232	49
888.300	156
888.311	81
888.391	-603
888.405	-700
888.470	-508
888.510	-411
888.549	-340
888.615	-213
888.628	-189
888.708	-7
888.720	17
888.787	-146
888.825	-264
888.866	-178
888.930	16
888.945	-41
889.024	-321
889.035	-361
889.103	95
889.140	342
889.182	14
889.245	-442
889.261	-379
889.340	-106
889.349	-68
889.419	-235
889.454	-319
889.498	-28
889.559	382
889.577	209
889.656	-537
889.664	-605
889.735	-23
889.768	260
889.814	-157
889.873	-706
889.978	371
890.083	-212
890.187	-626
890.292	-323
890.397	-55
890.501	-200
890.606	-500
890.710	18
890.815	-503
890.919	-353
891.024	463
891.128	-740
891.233	456
891.337	-540
891.442	-1076
891.546	28
891.650	-1012
891.755	-542
891.859	1381
891.963	37
892.068	-107
892.172	87
892.276	-679
892.380	-419
892.484	-569
892.589	-398
892.693	554
892.797	-226
892.901	-156
893.005	525
893.109	1208
893.213	-465
893.317	1012
893.421	-59
893.525	644
893.629	-117
893.733	-139
893.837	-296
893.941	-631
894.045	-698
894.148	46
894.252	-321
894.356	-418
894.460	118
894.564	379
894.667	-520
894.771	-21
894.875	-745
894.978	194
895.082	-637
895.186	1111
895.289	581
895.393	-401
895.496	329
895.600	158
895.703	-607
895.807	-428
895.910	-433
896.014	-35
896.117	-830
896.221	575
896.324	467
896.427	-213
896.531	-206
896.634	-501
896.737	-440
896.840	421
896.944	-498
897.047	-44
897.150	650
897.253	-697
897.356	364
897.460	399
897.563	-3
897.666	-261
897.769	-516
897.872	-848
897.975	-330
898.078	-46
898.181	-93
898.284	-109
898.387	116
898.490	239
898.593	404
898.695	-90
898.798	-1029
898.901	513
899.004	61
899.107	32
899.209	-459
899.312	139
899.415	-785
899.518	-358
899.620	18
899.723	224
899.826	-190
899.928	62
900.031	-1047
900.133	168
900.236	-973
900.338	-179
900.441	-245
900.543	-624
900.646	-846
900.748	-311
900.851	-229
900.953	469
901.055	-620
901.158	1098
901.260	-257
901.362	378
901.465	-770
901.567	-99
901.669	-147
901.771	-478
901.873	-335
901.976	146
902.078	-250
902.180	-87
902.282	-173
902.384	43
902.486	-71
902.588	-569
902.690	263
902.792	486
902.894	-159
902.996	373
903.098	-809
903.200	-206
903.302	-37
903.404	30
903.505	-384
903.607	-165
903.709	-136
903.811	89
903.913	169
904.014	563
904.116	-988
904.218	92
904.319	234
904.421	-273
904.523	-327
904.624	-230
904.726	-536
904.827	-77
904.929	-474
905.030	-192
905.132	-444
905.233	-233
905.335	-169
905.436	944
905.537	-680
905.639	-54
905.740	-18
905.841	-453
905.943	-896
906.044	-464
906.145	2
906.247	-706
906.348	-247
906.449	482
906.550	-329
906.651	128
906.752	-231
906.854	-75
906.955	-79
907.056	-449
907.157	-386
907.258	-31
907.359	-89
907.460	490
907.561	-167
907.662	-529
907.762	121
907.863	364
907.964	-112
908.065	338
908.166	240
908.267	377
908.367	-463
908.468	25
908.569	43
908.670	587
908.770	-519
908.871	812
908.971	399
909.072	-27
909.173	-173
909.273	-443
909.374	-825
909.474	-907
909.575	-760
909.675	-797
909.776	-242
909.876	-495
909.977	-439
910.077	200
910.177	-1013
910.278	-420
910.378	-248
910.478	-150
910.579	-715
910.679	10
910.779	-140
910.879	-183
910.980	160
911.080	132
911.180	-756
911.280	157
911.380	69
911.480	107
911.580	-398
911.680	659
911.780	-553
911.880	-87
911.980	-907
912.080	-124
912.180	-82
912.280	-241
912.380	448
912.480	1112
912.580	-554
912.679	-352
912.779	421
912.879	-75
912.979	-692
913.078	-469
913.178	-74
913.278	255
913.377	-497
913.477	320
913.577	67
913.676	-92
913.776	-351
913.875	-299
913.975	608
914.074	488
914.174	146
914.273	364
914.373	497
914.472	169
914.572	102
914.671	-659
914.770	29
914.870	-33
914.969	-145
915.068	-302
915.167	438
915.267	-315
915.366	9
915.465	560
915.564	-874
915.663	297
915.763	770
915.862	392
915.961	505
916.060	9
916.159	-226
916.258	106
916.357	-305
916.456	441
916.555	-307
916.654	-316
916.752	372
916.851	-139
916.950	-576
917.049	-248
917.148	-556
917.247	98
917.345	-503
917.444	-443
917.543	-493
917.642	47
917.740	157
917.839	-563
917.937	-620
918.036	25
918.135	-600
918.233	116
918.332	52
918.430	-1524
918.529	-60
918.627	-96
918.726	227
918.824	208
918.923	-87
919.021	-349
919.119	-168
919.218	-163
919.316	-119
919.414	-511
919.512	-587
919.611	50
919.709	293
919.807	-103
919.905	-256
920.003	383
920.102	-701
920.200	-195
920.298	-937
920.396	39
920.494	-265
920.592	-299
920.690	-66
920.788	163
920.886	-649
920.984	849
921.082	-925
921.180	3
921.277	424
921.375	873
921.473	-694
921.571	-780
921.669	-1194
921.766	-630
921.864	6
921.962	-173
922.060	-620
922.157	275
922.255	460
922.352	-16
922.450	668
922.548	-279
922.645	-580
922.743	-187
922.840	-235
922.938	-329
923.035	128
923.133	-2
923.230	-842
923.327	5
923.425	277
923.522	779
923.619	-671
923.717	-33
923.814	335
923.911	57
924.008	392
924.106	454
924.203	78
924.300	520
924.397	-303
924.494	679
924.591	-209
924.688	266
924.786	-280
924.883	6
924.979	-588
925.077	-500
925.173	-485
925.270	22
925.367	81
925.464	492
925.561	-343
925.658	-16
925.755	232
925.852	163
925.948	-472
926.045	-57
926.142	367
926.239	430
926.335	-315
926.432	-403
926.529	-231
926.625	-4
926.722	-537
926.818	-12
926.915	-423
927.011	398
927.108	-82
927.204	-269
927.301	-309
927.397	-411
927.494	-737
927.590	-192
927.687	-337
927.783	44
927.879	-548
927.976	217
928.072	-66
928.168	456
928.264	-128
928.361	-67
928.457	-356
928.553	-555
928.649	-491
928.745	-222
928.841	-586
928.937	34
929.033	-511
929.129	328
929.225	-994
929.321	-291
929.417	-131
929.513	12
929.609	-94
929.705	-614
929.801	-538
929.897	-1014
929.993	-280
930.089	-565
930.184	-418
930.280	15
930.376	-961
930.471	-950
930.567	-678
930.663	-722
930.758	-116
930.854	509
930.950	-771
931.045	-110
931.141	43
931.236	-469
931.332	-520
931.427	-1227
931.523	-401
931.618	-481
931.714	-1067
931.809	206
931.905	-682
932.000	-673
932.095	-1222
932.191	-606
932.286	-182
932.381	-1182
932.476	-518
932.572	-515
932.667	-755
932.762	-760
932.857	-538
932.952	230
933.047	-283
933.142	299
933.237	-1244
933.332	-939
933.427	-282
933.522	-263
933.617	-912
933.712	-578
933.807	-164
933.902	-686
933.997	-305
934.092	-483
934.187	-518
934.282	313
934.376	-1035
934.471	-309
934.566	-596
934.661	-654
934.755	-899
934.850	-49
934.945	-1057
935.039	-872
935.134	-761
935.228	-100
935.323	-572
935.417	-873
935.512	-767
935.606	-984
935.701	-1075
935.795	-195
935.890	-537
935.984	-91
936.079	-1481
936.173	-504
936.267	-698
936.362	-697
936.456	-1182
936.550	-1006
936.644	-1327
936.738	40
936.833	-822
936.927	-552
937.021	-659
937.115	-1082
937.209	-1834
937.303	676
937.397	-878
937.491	-383
937.585	-641
937.679	149
937.773	-1258
937.867	-907
937.961	-1115
938.055	-917
938.149	-730
938.243	-794
938.337	-989
938.430	-715
938.524	-1028
938.618	-507
938.712	-646
938.805	-997
938.899	-1386
938.993	-636
939.086	-905
939.180	-267
939.274	-614
939.367	-56
939.461	-958
939.554	-918
939.648	-307
939.741	-582
939.835	-1335
939.928	-89
940.022	-200
940.115	-1340
940.208	-903
940.302	220
940.395	-1018
940.488	-1666
940.582	-412
940.675	-1137
940.768	-1071
940.861	-896
940.954	-597
941.048	-553
941.141	-1652
941.234	-998
941.327	-1372
941.420	72
941.513	-363
941.606	-1421
941.699	-751
941.792	-517
941.885	-1763
941.978	-1043
942.071	-886
942.164	-1118
942.257	-1484
942.349	-151
942.442	-1046
942.535	-460
942.628	-558
942.721	-242
942.813	-2293
942.906	-145
942.999	-990
943.091	-1169
943.184	-1146
943.277	-1546
943.369	-747
943.462	-777
943.554	-547
943.647	-1210
943.739	-667
943.832	-591
943.924	-1900
944.017	-987
944.109	-1589
944.201	-1264
944.294	-1155
944.386	32
944.478	-1028
944.571	-557
944.663	-815
944.755	-831
944.847	-165
944.940	-48
945.032	-1432
945.124	-971
945.216	-285
945.308	-317
945.400	-1188
945.492	-672
945.584	-1117
945.676	-680
945.768	-822
945.860	-457
945.952	-2336
946.044	-503
946.136	-1140
946.228	-843
946.320	-1290
946.412	-668
946.503	-1190
946.595	511
946.687	-1133
946.779	-796
946.870	-906
946.962	-1122
947.054	-631
947.145	-55
947.237	-1305
947.329	-462
947.420	-1175
947.512	-1148
947.603	-1522
947.695	-763
947.786	-2448
947.878	-687
947.969	-1372
948.061	-552
948.152	-1529
948.243	-806
948.335	-1049
948.426	-897
948.517	-997
948.609	-314
948.700	-1717
948.791	-1029
948.882	-1495
948.973	-754
949.065	-1451
949.156	-1152
949.247	-2253
949.338	-906
949.429	-1306
949.520	-312
949.611	-2208
949.702	-321
949.793	-918
949.884	-430
949.975	-1125
950.066	-1773
950.157	-758
950.247	-1059
950.338	-1227
950.429	-1325
950.520	-1739
950.611	-696
950.701	-1700
950.792	-715
950.883	-655
950.973	-884
951.064	-1198
951.155	-1166
951.245	-1201
951.336	-828
951.427	-2296
951.517	-1022
951.608	-1334
951.698	-1028
951.788	-1424
951.879	-1805
951.969	-1576
952.060	-1758
952.150	-1230
952.240	-1049
952.331	-2440
952.421	-328
952.511	-1914
952.602	-824
952.692	-459
952.782	-1991
952.872	-1721
952.962	-459
953.052	-1619
953.143	-1754
953.233	-773
953.323	133
953.413	-2672
953.503	-820
953.593	-1296
953.683	-1353
953.773	-1956
953.863	-648
953.953	-1296
954.042	-953
954.132	-1387
954.222	-686
954.312	-1406
954.402	-499
954.492	-1149
954.581	-1111
954.671	-1681
954.761	-2210
954.850	-937
954.940	-911
955.030	-1614
955.119	-1316
955.209	-1034
955.298	-1723
955.388	-2618
955.477	-492
955.567	-1991
955.656	-252
955.746	-1616
955.835	-731
955.925	-1669
956.014	-1022
956.103	-1809
956.193	-837
956.282	-1039
956.371	77
956.461	-507
956.550	-1430
956.639	-1176
956.728	-1002
956.817	-1706
956.906	-1027
956.995	-120
957.085	-1588
957.174	-1609
957.263	-1812
957.352	-1356
957.441	-1389
957.530	-982
957.619	-1661
957.708	-1474
957.796	-1297
957.885	-1207
957.974	-1089
958.063	-636
958.152	-1499
958.241	-1401
958.329	-977
958.418	-1106
958.507	-1420
958.596	-637
958.684	-1642
958.773	-714
958.861	-1522
958.950	-2034
959.039	-1273
959.127	-1644
959.216	-915
959.304	-896
959.393	-1737
959.481	-1152
959.570	-1518
959.658	-1415
959.746	-836
959.835	-850
959.923	-1056
960.011	-1511
960.100	-1075
960.188	-1638
960.276	-612
960.365	-1577
960.453	-830
960.541	-2118
960.629	-1637
960.717	132
960.805	-1536
960.893	-1134
960.981	-2324
961.069	-1474
961.158	-926
961.245	-1479
961.333	-1514
961.421	-1803
961.509	-1119
961.597	-698
961.685	-1341
961.773	-704
961.861	-1800
961.949	-595
962.036	-1232
962.124	-844
962.212	-940
962.299	-1466
962.387	-1349
962.475	-1508
962.562	-1863
962.650	-1230
962.738	-769
962.825	-1845
962.913	-1111
963.000	-1658
963.088	-1879
963.175	-1569
963.263	-865
963.350	-1453
963.438	-1385
963.525	-1718
963.612	255
963.700	-771
963.787	1437
963.874	-466
963.962	-1021
964.049	-1112
964.136	-842
964.223	-1614
964.310	-504
964.398	-904
964.485	-1908
964.572	-1773
964.659	-1266
964.746	-1818
964.833	-1130
964.920	-1115
965.007	-1149
965.094	-1002
965.181	-1772
965.268	-1674
965.355	-1423
965.441	-1227
965.528	-1953
965.615	-1002
965.702	-868
965.789	-1781
965.875	-1269
965.962	-2063
966.049	-1459
966.136	-1101
966.222	-1463
966.309	-1818
966.395	-1595
966.482	-861
966.569	-1227
966.655	-1020
966.742	-664
966.828	-135
966.915	-1274
967.001	-1274
967.087	-1532
967.174	-865
967.260	-228
967.347	-983
967.433	-384
967.519	89
967.605	-1032
967.692	-1736
967.778	-1028
967.864	-1605
967.950	-1415
968.036	-1708
968.123	-1587
968.209	-1509
968.295	-1801
968.381	-830
968.467	-530
968.553	-2407
968.639	-1010
968.725	-2278
968.811	-687
968.897	-1198
968.983	-1198
969.069	-1711
969.154	-457
969.240	-827
969.326	-2298
969.412	-2161
969.497	-1200
969.583	-2296
969.669	84
969.755	-1403
969.840	-1076
969.926	-628
970.012	-933
970.097	-954
970.183	-1456
970.268	-1601
970.354	-1254
970.439	-1472
970.525	823
970.610	-2740
970.696	-537
970.781	-1334
970.866	-1517
970.952	-272
971.037	-2410
971.122	-1175
971.208	-1146
971.293	-976
971.378	-1892
971.463	-2128
971.549	-436
971.634	-1179
971.719	-1235
971.804	-1938
971.889	-531
971.974	-1860
972.059	-1053
972.144	-1664
972.229	-971
972.314	-2162
972.399	-483
972.484	-1842
972.569	-694
972.654	-1829
972.739	340
972.824	-1617
972.908	-1007
972.993	-1698
973.078	-1315
973.163	-926
973.247	-1130
973.332	-2618
973.417	443
973.501	-1187
973.586	-1048
973.671	-1844
973.755	-707
973.840	-1157
973.924	-182
974.009	-1279
974.093	-1100
974.178	-539
974.262	-660
974.346	-1331
974.431	-825
974.515	-1412
974.600	-2223
974.684	-1053
974.768	-1515
974.852	-702
974.937	-1977
975.021	-1673
975.105	-173
975.189	-1737
975.273	-780
975.358	-1379
975.442	-2249
975.526	-751
975.610	-1671
975.694	-2651
975.778	-231
975.862	-1380
975.946	-2724
976.030	-11
976.114	-1066
976.198	-963
976.281	-1559
976.365	-706
976.449	-851
976.533	-1272
976.617	-2024
976.700	-1753
976.784	-987
976.868	-962
976.951	-82
977.035	-786
977.119	-624
977.202	-1268
977.286	-757
977.369	-1143
977.453	-603
977.536	-1468
977.620	-1909
977.703	-1205
977.787	-1602
977.870	-940
977.953	47
978.037	-1841
978.120	-565
978.203	-1222
978.287	-877
978.370	-1935
978.453	-1303
978.536	-1496
978.620	-286
978.703	-1672
978.786	-892
978.869	-2023
978.952	-1807
979.035	640
979.118	-1054
979.201	-1811
979.284	-1504
979.367	-1665
979.450	-485
979.533	-2006
979.616	-1295
979.699	-989
979.782	-747
979.865	-1079
979.948	-1246
980.030	-1399
980.113	-923
980.196	-2296
980.279	-262
980.361	-1783
980.444	-750
980.526	-955
980.609	-1233
980.692	-1347
980.774	-384
980.857	-2636
980.939	-926
981.022	-2270
981.104	-715
981.187	-1909
981.269	-561
981.352	-792
981.434	-1725
981.516	-1728
981.599	-420
981.681	-1142
981.763	-1076
981.846	-750
981.928	-661
982.010	-2150
982.092	-1548
982.174	-1102
982.256	-1899
982.339	-1679
982.421	-1147
982.503	-747
982.585	-1032
982.667	-759
982.749	-1072
982.831	-708
982.913	-1826
982.995	-1147
983.077	-1806
983.158	-751
983.240	-1345
983.322	-1267
983.404	-853
983.486	-1881
983.568	-1065
983.649	-2550
983.731	-1248
983.813	-1162
983.894	-149
983.976	-2019
984.058	-1244
984.139	-555
984.221	-1326
984.302	-432
984.384	-690
984.465	-1632
984.547	-756
984.628	-2194
984.710	-996
984.791	-1539
984.872	-831
984.954	-1509
985.035	-1549
985.116	-1965
985.198	-1677
985.279	-396
985.360	-1423
985.441	-1277
985.522	-562
985.604	-1529
985.685	-3066
985.766	-389
985.847	-1
985.928	-1988
986.009	-1832
986.090	-1230
986.171	-234
986.252	-1822
986.333	-975
986.414	-1896
986.495	-381
986.576	-1721
986.656	-1328
986.737	-1197
986.818	-959
986.899	-1462
986.980	-2175
987.060	-519
987.141	-1783
987.222	-1396
987.302	-1455
987.383	-1834
987.464	-586
987.544	-483
987.625	-1027
987.705	-952
987.786	-982
987.866	-1549
987.947	-2015
988.027	-2082
988.108	-2242
988.188	-718
988.268	-1296
988.349	-1880
988.429	-1431
988.509	-1390
988.589	-1557
988.670	-3114
988.750	523
988.830	-2044
988.910	-1100
988.990	-1715
989.070	-1337
989.151	-1801
989.231	-1623
989.311	-706
989.391	-1718
989.471	-1870
989.551	-1506
989.631	-2318
989.711	214
989.791	-2272
989.870	-1576
989.950	-65
990.030	-2351
990.110	-1436
990.190	-1842
990.269	-1334
990.349	-1486
990.429	-1677
990.509	-534
990.588	-1671
990.668	-1465
990.747	-1592
990.827	-1324
990.907	-1539
990.986	-2293
991.066	-565
991.145	-1268
991.225	-685
991.304	-1577
991.383	-800
991.463	-301
991.542	-2124
991.622	-2055
991.701	-1665
991.780	-1056
991.859	-1646
991.939	-1810
992.018	-1459
992.097	-1439
992.176	-1099
992.256	-879
992.335	-2759
992.414	-875
992.493	-2146
992.572	-1854
992.651	-1252
992.730	-1982
992.809	-1899
992.888	-2074
992.967	-1920
993.046	-767
993.125	-1970
993.203	-1729
993.282	-1713
993.361	-1064
993.440	-1748
993.519	-2195
993.597	-1777
993.676	-1366
993.755	-1569
993.834	-1260
993.912	-1835
993.991	-33
994.069	-1428
994.148	-1409
994.226	-1447
994.305	-1390
994.384	-2575
994.462	-907
994.540	-2787
994.619	-2025
994.697	-1542
994.776	-1751
994.854	-1110
994.932	-1862
995.011	-2072
995.089	-1181
995.167	-2459
995.245	-1495
995.324	-2243
995.402	-1519
995.480	-2226
995.558	-1264
995.636	-2295
995.714	-1615
995.792	-1668
995.870	-1821
995.948	-1860
996.026	-1393
996.104	-2566
996.182	-621
996.260	-2277
996.338	-1207
996.416	-2393
996.494	-1841
996.572	-1089
996.649	-1583
996.727	-2773
996.805	-2058
996.883	-2031
996.960	-1954
997.038	-1732
997.116	-755
997.193	-2263
997.271	-1048
997.348	-1806
997.426	-2004
997.504	-2824
997.581	-1179
997.658	-1395
997.736	-1656
997.813	-2199
997.891	-1814
997.968	-2424
998.046	-580
998.123	-1750
998.200	-1713
998.277	-3148
998.355	-1055
998.432	-1946
998.509	-1534
998.586	-1778
998.663	-1756
998.741	-1656
998.818	-1557
998.895	-1855
998.972	-929
999.049	-2205
999.126	-2260
999.203	-2176
999.280	-1466
999.357	-2373
999.434	-2083
999.511	-1716
999.587	-936
999.664	-2604
999.741	-1180
999.818	-1252
999.895	-1798
999.971	-2180
1000.048	-940
1000.125	-1495
1000.202	-2235
1000.278	-1979
1000.355	-1763
1000.431	-2174
1000.508	-2372
1000.584	-1945
1000.661	-1450
1000.738	-2912
1000.814	-1246
1000.890	-1347
1000.967	-2524
1001.043	-2155
1001.120	-2150
1001.196	-1628
1001.272	-2106
1001.349	-2045
1001.425	-1107
1001.501	-2162
1001.577	-2281
1001.654	-1530
1001.730	-2267
1001.806	-2101
1001.882	-1598
1001.958	-1931
1002.034	-1495
1002.110	-1533
1002.186	-1706
1002.262	-2206
1002.338	-2077
1002.414	-1304
1002.490	-1292
1002.566	-2085
1002.642	-2925
1002.718	-1183
1002.794	-2432
1002.870	-2646
1002.945	-980
1003.021	-1765
1003.097	-2596
1003.173	-1522
1003.248	-1931
1003.324	-2059
1003.400	-1372
1003.475	-2670
1003.551	-2121
1003.626	-2016
1003.702	-2211
1003.777	-2131
1003.853	-1890
1003.928	-2203
1004.004	-1921
1004.079	-2382
1004.155	-2345
1004.230	-2962
1004.305	-1460
1004.381	-2371
1004.456	-954
1004.531	-1939
1004.607	-1568
1004.682	-2757
1004.757	-2009
1004.832	-2000
1004.907	-1885
1004.982	-1921
1005.057	-1599
1005.133	-2209
1005.208	-2371
1005.283	-2640
1005.358	-1588
1005.433	-2436
1005.508	-1913
1005.583	-2354
1005.657	-1949
1005.732	-1664
1005.807	-1905
1005.882	-1735
1005.957	-2287
1006.032	-2092
1006.106	-1583
1006.181	-1693
1006.256	-1846
1006.331	-2165
1006.405	-1499
1006.480	-1770
1006.554	-1805
1006.629	-2000
1006.704	-1566
1006.778	-1086
1006.853	-1111
1006.927	-2383
1007.002	-2254
1007.076	-1297
1007.150	-2102
1007.225	-1462
1007.299	-1866
1007.373	-2337
1007.448	-2042
1007.522	-1636
1007.596	-1706
1007.671	-2599
1007.745	-1377
1007.819	-2270
1007.893	-2135
1007.967	-2216
1008.041	-3253
1008.115	-1680
1008.190	-2485
1008.264	-1223
1008.338	-3781
1008.412	-2733
1008.486	-1962
1008.560	-1509
1008.633	-1797
1008.707	-2040
1008.781	-1108
1008.855	-2774
1008.929	-2094
1009.003	-2927
1009.076	-1463
1009.150	-2658
1009.224	-1692
1009.298	-1765
1009.371	-2618
1009.445	-1918
1009.519	-873
1009.592	-2329
1009.666	-2026
1009.739	-1641
1009.813	-1980
1009.886	-1472
1009.960	-2558
1010.033	-1906
1010.107	-1614
1010.180	-2104
1010.253	-1541
1010.327	-2384
1010.400	-2322
1010.473	-3173
1010.547	-505
1010.620	-2437
1010.693	-2052
1010.766	-2192
1010.840	-1678
1010.913	-1896
1010.986	-2313
1011.059	-2184
1011.132	-2221
1011.205	-2375
1011.278	-2087
1011.351	-1952
1011.424	-2154
1011.497	-2326
1011.570	-1774
1011.643	-2670
1011.716	-1975
1011.789	-1788
1011.862	-2130
1011.934	-1168
1012.007	-2841
1012.080	-1024
1012.153	-1782
1012.225	-2157
1012.298	-2278
1012.371	-2217
1012.443	-1388
1012.516	-2406
1012.588	-1590
1012.661	-2728
1012.733	-2504
1012.806	-1690
1012.879	-2358
1012.951	-2141
1013.023	-3134
1013.096	-1699
1013.168	-1811
1013.241	-1536
1013.313	-2710
1013.385	-2782
1013.458	-1791
1013.530	-1797
1013.602	-2458
1013.674	-1724
1013.746	-2787
1013.819	-2846
1013.891	-1399
1013.963	-2611
1014.035	-1820
1014.107	-1950
1014.179	-1930
1014.251	-2312
1014.323	-1257
1014.395	-2272
1014.467	-2239
1014.539	-2231
1014.611	-2035
1014.683	-1951
1014.754	-1435
1014.826	-3126
1014.898	-2000
1014.970	-2633
1015.042	-1620
1015.113	-2469
1015.185	-2133
1015.257	-3075
1015.328	-2417
1015.400	-3094
1015.471	-1860
1015.543	-2932
1015.615	-537
1015.686	-2397
1015.757	-1752
1015.829	-2212
1015.901	-1650
1015.972	-1902
1016.043	-2188
1016.115	-1634
1016.186	-1226
1016.257	-1850
1016.328	-1619
1016.400	-1425
1016.471	-1678
1016.542	-2690
1016.613	-1623
1016.685	-2933
1016.756	-797
1016.827	-2889
1016.898	-2025
1016.969	-1577
1017.040	-1960
1017.111	-2579
1017.182	-2158
1017.253	-1927
1017.324	-1563
1017.395	-2147
1017.466	-2106
1017.537	-2366
1017.608	-1533
1017.678	-2068
1017.749	-2297
1017.820	-1994
1017.891	-1678
1017.961	-3017
1018.032	-1067
1018.103	-1729
1018.173	-1295
1018.244	-2541
1018.315	-1672
1018.385	-1484
1018.456	-1137
1018.526	-2796
1018.597	-2268
1018.667	-2666
1018.738	-1432
1018.808	-2317
1018.878	-2405
1018.949	-2371
1019.019	-1164
1019.089	-2423
1019.160	-1689
1019.230	-2744
1019.300	-1932
1019.371	-2837
1019.441	-1647
1019.511	-1954
1019.581	-1414
1019.651	-1669
1019.721	-1869
1019.791	-1756
1019.861	-1668
1019.931	-2059
1020.001	-1635
1020.071	-2624
1020.141	-1823
1020.211	-2341
1020.281	-2199
1020.351	-2233
1020.421	-1926
1020.491	-1811
1020.560	-2202
1020.630	-2386
1020.700	-1661
1020.770	-3016
1020.839	-1492
1020.909	-1916
1020.979	-2198
1021.048	-2262
1021.118	-2164
1021.187	-2198
1021.257	-1284
1021.326	-1736
1021.396	-2520
1021.465	-1998
1021.535	-1614
1021.604	-2824
1021.674	-1581
1021.743	-2118
1021.812	-1168
1021.882	-2350
1021.951	-1626
1022.020	-1648
1022.089	-1510
1022.159	-2526
1022.228	-1181
1022.297	-2326
1022.366	-1797
1022.435	-1649
1022.504	-1935
1022.573	-2364
1022.642	-1839
1022.711	-2318
1022.781	-1925
1022.849	-1404
1022.918	-2381
1022.987	-2494
1023.056	-1845
1023.125	-1940
1023.194	-1600
1023.263	-1844
1023.331	-1439
1023.400	-2959
1023.469	-2393
1023.538	-2032
1023.606	-2129
1023.675	-2248
1023.744	-2266
1023.812	-2632
1023.881	-1984
1023.949	-2144
1024.018	-1612
1024.086	-2501
1024.155	-1811
1024.223	-2619
1024.292	-2214
1024.360	-2241
1024.429	-1844
1024.497	-2151
1024.565	-2272
1024.634	-2643
1024.702	-2251
1024.770	-2113
1024.838	-2036
1024.907	-2835
1024.975	-1398
1025.043	-1571
1025.111	-1189
1025.179	-1795
1025.247	-2315
1025.315	-2483
1025.383	-1039
1025.451	-2804
1025.519	-1987
1025.587	-2873
1025.655	-1698
1025.723	-2239
1025.791	-1886
1025.859	-1878
1025.927	-1754
1025.995	-1799
1026.062	-1326
1026.130	-2161
1026.198	-2705
1026.266	-2465
1026.333	-1678
1026.401	-1290
1026.469	-1928
1026.536	-1967
1026.604	-2061
1026.671	-2545
1026.739	-1965
1026.806	-2136
1026.874	-1679
1026.941	-1737
1027.009	-2075
1027.076	-2232
1027.144	-943
1027.211	-2316
1027.278	-2558
1027.345	-2598
1027.413	-2208
1027.480	-3185
1027.547	-1633
1027.614	-1791
1027.682	-2321
1027.749	-1943
1027.816	-1742
1027.883	-1939
1027.950	-1284
1028.017	-2949
1028.084	-1536
1028.151	-2447
1028.218	-1619
1028.285	-2429
1028.352	-2229
1028.419	-3088
1028.486	-2214
1028.553	-1529
1028.619	-2339
1028.686	-2065
1028.753	-1887
1028.820	-2469
1028.886	-1913
1028.953	-2469
1029.020	-2506
1029.086	-2235
1029.153	-1803
1029.220	-1828
1029.286	-2068
1029.353	-2294
1029.419	-2378
1029.486	-2415
1029.552	-1448
1029.619	-1445
1029.685	-2055
1029.751	-1745
1029.818	-349
1029.884	-2433
1029.951	-1258
1030.017	-3316
1030.083	-1998
1030.149	-2607
1030.216	-2577
1030.282	-1698
1030.348	-2199
1030.414	-2976
1030.480	-2112
1030.546	-2064
1030.612	-1791
1030.678	-2102
1030.744	-2360
1030.810	-1227
1030.876	-2155
1030.942	-2639
1031.008	-1993
1031.074	-1809
1031.140	-1703
1031.206	-1205
1031.272	-2163
1031.337	-1910
1031.403	-2062
1031.469	-1935
1031.534	-1886
1031.600	-2327
1031.666	-2248
1031.731	-2382
1031.797	-1533
1031.863	-1837
1031.928	-1999
1031.994	-1259
1032.059	-2056
1032.125	-1652
1032.190	-2295
1032.256	-1538
1032.321	-2810
1032.386	-2177
1032.452	-1341
1032.517	-2992
1032.582	-1197
1032.647	-2378
1032.713	-1813
1032.778	-1877
1032.843	-1882
1032.908	-2886
1032.974	-2807
1033.039	-2751
1033.104	-1470
1033.169	-2592
1033.234	-1765
1033.299	-2189
1033.364	-1710
1033.429	-2450
1033.494	-1108
1033.559	-2387
1033.624	-2091
1033.688	-1942
1033.753	-2005
1033.818	-2556
1033.883	-1698
1033.948	-1760
1034.013	-2423
1034.077	-2017
1034.142	-1340
1034.207	-2680
1034.271	-1103
1034.336	-1361
1034.400	-1247
1034.465	-2341
1034.530	-1939
1034.594	-2285
1034.658	-1851
1034.723	-2691
1034.787	-1529
1034.852	-2003
1034.916	-2114
1034.981	-2085
1035.045	-1676
1035.109	-1750
1035.173	-1627
1035.238	-1899
1035.302	-1169
1035.366	-1947
1035.430	-1538
1035.495	-2037
1035.559	-2103
1035.623	-2127
1035.687	-1285
1035.751	-2459
1035.815	-1964
1035.879	-2508
1035.943	-2089
1036.007	-1990
1036.071	-1537
1036.135	-1708
1036.198	-1805
1036.262	-1860
1036.326	-2220
1036.390	-2270
1036.454	-840
1036.517	-1628
1036.581	-1813
1036.645	-2241
1036.709	-1248
1036.772	-2108
1036.836	-1504
1036.900	-1664
1036.963	-2415
1037.026	-2237
1037.090	-1953
1037.154	-2012
1037.217	-1432
1037.280	-2053
1037.344	-1817
1037.407	-2306
1037.471	-2380
1037.534	-2431
1037.597	-1962
1037.661	-2065
1037.724	-1155
1037.787	-2367
1037.850	-2665
1037.913	-2438
1037.977	-1342
1038.040	-2063
1038.103	-1651
1038.166	-1903
1038.229	-1434
1038.292	-2668
1038.355	-2524
1038.418	-2263
1038.481	-1112
1038.544	-2503
1038.607	-1930
1038.670	-2522
1038.732	-1944
1038.795	-2336
1038.858	-1232
1038.921	-1416
1038.984	-1665
1039.046	-2535
1039.109	-1325
1039.172	-2513
1039.234	-1889
1039.297	-1689
1039.360	-1594
1039.422	-1696
1039.485	-2002
1039.547	-2183
1039.610	-2202
1039.672	-2193
1039.734	-1408
1039.797	-1709
1039.859	-1945
1039.922	-1941
1039.984	-1410
1040.046	-1778
1040.109	-2196
1040.171	-2822
1040.233	-1573
1040.295	-1804
1040.358	-2040
1040.420	-2073
1040.482	-1594
1040.544	-1814
1040.606	-1791
1040.668	-2380
1040.730	-1786
1040.792	-2127
1040.854	-1922
1040.916	-1777
1040.978	-2157
1041.040	-1941
1041.102	-1134
1041.164	-2699
1041.225	-1573
1041.287	-2071
1041.349	-1746
1041.411	-2075
1041.472	-1202
1041.534	-1612
1041.596	-2190
1041.657	-2768
1041.719	-1581
1041.781	-2440
1041.842	-1965
1041.904	-1888
1041.965	-2039
1042.027	-1784
1042.088	-1523
1042.150	-2314
1042.211	-1907
1042.272	-1817
1042.334	-2479
1042.395	-1651
1042.456	-1062
1042.518	-1758
1042.579	-1619
1042.640	-2501
1042.701	-2482
1042.763	-1742
1042.824	-2526
1042.885	-2076
1042.946	-1066
1043.007	-2950
1043.068	-1842
1043.129	-1776
1043.190	-1790
1043.251	-1857
1043.312	-2754
1043.373	-1909
1043.434	-2028
1043.495	-2207
1043.556	-1840
1043.616	-2380
1043.677	-1542
1043.738	-2590
1043.799	-1278
1043.859	-1931
1043.920	-1631
1043.981	-2387
1044.041	-2275
1044.102	-2559
1044.162	-2202
1044.223	-2116
1044.284	-2147
1044.344	-2448
1044.405	-1069
1044.465	-2366
1044.525	-3297
1044.586	-2139
1044.646	-2297
1044.707	-1473
1044.767	-1432
1044.827	-2331
1044.887	-1358
1044.948	-1468
1045.008	-1400
1045.068	-2512
1045.128	-1365
1045.188	-2727
1045.249	-1076
1045.309	-1479
1045.369	-1071
1045.429	-1680
1045.489	-1096
1045.549	-2263
1045.609	-1151
1045.669	-1696
1045.729	-1600
1045.789	-1479
1045.848	-2156
1045.908	-1434
1045.968	-1252
1046.028	-1864
1046.088	-684
1046.147	-1234
1046.207	-1814
1046.267	-2230
1046.326	-1330
1046.386	-894
1046.446	-822
1046.505	-2355
1046.565	-495
1046.624	-1482
1046.684	-603
1046.743	-876
1046.803	-646
1046.862	-272
1046.922	0
