'Start Wavelength	183.907
'End Wavelength	1046.922
'Gate Delay	5.000
'Gate Width (ms)	1.050
'Laser Output Level	0.000
'X Position	0.000
'Y Position	0.000
'Z Position	0.000
'Grid Point Number	1.000
'Shot Number	100.000
183.907	27.000
183.977	279.000
184.047	-128
184.116	195
184.186	574
184.256	-296
184.325	-90
184.395	498
184.465	421
184.534	609
184.604	-202
184.674	619
184.743	-1006
184.813	671
184.883	-91
184.952	93
185.022	-647
185.092	1019
185.161	641
185.231	572
185.301	37
185.370	-119
185.440	129
185.509	-320
185.579	-99
185.649	327
185.718	20
185.788	557
185.857	-292
185.927	217
185.996	72
186.066	-430
186.136	-471
186.205	-511
186.275	258
186.344	476
186.414	125
186.483	70
186.553	677
186.622	755
186.692	-159
186.761	76
186.831	79
186.900	435
186.970	-80
187.039	524
187.109	589
187.178	-317
187.248	79
187.317	621
187.387	-532
187.456	52
187.526	-366
187.595	367
187.664	-199
187.734	382
187.803	-69
187.873	318
187.942	-85
188.012	277
188.081	-742
188.150	119
188.220	604
188.289	328
188.358	185
188.428	687
188.497	-1177
188.567	224
188.636	-277
188.705	-222
188.775	-62
188.844	-795
188.913	1068
188.983	212
189.052	318
189.121	344
189.191	-298
189.260	411
189.329	-1079
189.399	754
189.468	482
189.537	631
189.606	541
189.676	-327
189.745	556
189.814	545
189.883	-439
189.953	118
190.022	-84
190.091	306
190.161	-475
190.230	652
190.299	-1113
190.368	-183
190.437	-427
190.507	529
190.576	-284
190.645	-361
190.714	191
190.783	-320
190.853	-290
190.922	587
190.991	538
191.060	533
191.129	124
191.198	-206
191.268	-48
191.337	-75
191.406	167
191.475	55
191.544	-772
191.613	-40
191.682	548
191.752	-103
191.821	-314
191.890	81
191.959	66
192.028	99
192.097	-96
192.166	-43
192.235	-133
192.304	895
192.373	144
192.442	-735
192.511	-459
192.580	-206
192.650	80
192.719	-637
192.788	-200
192.857	-298
192.926	-816
192.995	-42
193.064	-158
193.133	-460
193.202	152
193.271	-252
193.340	75
193.409	524
193.478	28
193.547	-446
193.615	-330
193.684	450
193.753	-777
193.822	50
193.891	-666
193.960	-711
194.029	-1185
194.098	757
194.167	-358
194.236	35
194.305	-217
194.374	-485
194.443	-702
194.512	761
194.580	505
194.649	609
194.718	65
194.787	5
194.856	-850
194.925	-15
194.994	-723
195.062	-92
195.131	-357
195.200	-279
195.269	-506
195.338	229
195.407	-511
195.475	-425
195.544	222
195.613	-334
195.682	-442
195.751	-101
195.819	-601
195.888	-202
195.957	-168
196.026	-431
196.094	-99
196.163	0
196.232	239
196.301	365
196.369	-1042
196.438	-173
196.507	-551
196.576	97
196.644	121
196.713	-511
196.782	-235
196.850	-319
196.919	165
196.988	-474
197.056	-986
197.125	-198
197.194	-622
197.262	408
197.331	306
197.400	-1
197.468	78
197.537	-1115
197.606	-268
197.674	-23
197.743	-379
197.812	-215
197.880	71
197.949	-289
198.017	-147
198.086	290
198.155	-173
198.223	-355
198.292	-985
198.360	-669
198.429	-159
198.497	168
198.566	-670
198.635	302
198.703	65
198.772	287
198.840	-517
198.909	-136
198.977	-31
199.046	214
199.114	-302
199.183	-272
199.251	375
199.320	-606
199.388	-129
199.457	-273
199.525	65
199.594	-400
199.662	-663
199.731	27
199.799	-236
199.867	143
199.936	-861
200.004	-506
200.073	228
200.141	290
200.210	94
200.278	-482
200.346	138
200.415	528
200.483	15
200.552	46
200.620	-435
200.688	192
200.757	-50
200.825	419
200.893	-560
200.962	285
201.030	-570
201.098	-378
201.167	159
201.235	-285
201.303	-603
201.372	435
201.440	-3
201.508	45
201.577	186
201.645	-68
201.713	-57
201.781	177
201.850	211
201.918	421
201.986	-244
202.055	185
202.123	-624
202.191	386
202.259	-573
202.327	-573
202.396	311
202.464	76
202.532	-178
202.600	479
202.669	-957
202.737	-832
202.805	-328
202.873	-61
202.941	381
203.009	733
203.078	190
203.146	-232
203.214	-455
203.282	-598
203.350	398
203.418	201
203.487	310
203.555	-471
203.623	114
203.691	-251
203.759	203
203.827	682
203.895	-296
203.963	-126
204.031	14
204.099	-519
204.168	-800
204.236	-201
204.304	256
204.372	143
204.440	-520
204.508	-238
204.576	-598
204.644	-108
204.712	-61
204.780	-21
204.848	-403
204.916	-865
204.984	-493
205.052	-100
205.120	-976
205.188	-216
205.256	-313
205.324	53
205.392	-844
205.460	90
205.528	-447
205.596	330
205.664	629
205.732	6
205.799	-566
205.867	376
205.935	-388
206.003	21
206.071	-752
206.139	-87
206.207	-342
206.275	-416
206.343	-576
206.411	59
206.478	393
206.546	-32
206.614	434
206.682	60
206.750	-620
206.818	-184
206.885	263
206.953	-336
207.021	309
207.089	43
207.157	-434
207.225	228
207.292	-417
207.360	-610
207.428	-463
207.496	-168
207.563	-45
207.631	332
207.699	-502
207.767	43
207.834	-992
207.902	-364
207.970	-636
208.038	-95
208.105	264
208.173	222
208.241	-1325
208.309	-155
208.376	-28
208.444	-501
208.512	-866
208.579	-979
208.647	-195
208.715	224
208.782	-871
208.850	373
208.918	-386
208.985	-1134
209.053	196
209.120	224
209.188	-491
209.256	-7
209.323	-1159
209.391	-805
209.459	82
209.526	42
209.594	-303
209.661	41
209.729	-431
209.796	-18
209.864	-389
209.932	-1277
209.999	406
210.067	170
210.134	321
210.202	87
210.269	-377
210.337	-53
210.404	-585
210.472	-100
210.539	-652
210.607	-169
210.674	-1152
210.742	592
210.809	18
210.877	123
210.944	-182
211.012	-744
211.079	1149
211.146	-140
211.214	-246
211.281	332
211.349	-93
211.416	459
211.484	259
211.551	-278
211.618	-1023
211.686	44
211.753	-534
211.821	181
211.888	-815
211.955	-366
212.023	322
212.090	-251
212.157	-541
212.225	267
212.292	-352
212.359	50
212.427	315
212.494	345
212.561	-201
212.629	391
212.696	-291
212.763	-62
212.831	-1012
212.898	-274
212.965	-436
213.032	-154
213.100	-505
213.167	-668
213.234	709
213.301	219
213.369	-128
213.436	-439
213.503	14
213.570	1161
213.638	-178
213.705	-298
213.772	-570
213.839	-546
213.906	-159
213.973	-1238
214.041	-422
214.108	469
214.175	17
214.242	-642
214.309	60
214.376	-166
214.444	-737
214.511	-427
214.578	-34
214.645	-211
214.712	-526
214.779	-241
214.846	-1127
214.913	203
214.980	790
215.048	-218
215.115	544
215.182	143
215.249	-462
215.316	-331
215.383	400
215.450	105
215.517	-645
215.584	-19
215.651	32
215.718	-919
215.785	-22
215.852	-682
215.919	-68
215.986	-652
216.053	-165
216.120	-873
216.187	-126
216.254	-424
216.321	-609
216.388	-574
216.455	-138
216.522	250
216.589	-804
216.656	-524
216.722	-297
216.789	-300
216.856	46
216.923	74
216.990	-713
217.057	-536
217.124	-246
217.191	-435
217.258	-742
217.324	-251
217.391	-258
217.458	-3
217.525	-386
217.592	338
217.659	-1621
217.725	340
217.792	-699
217.859	423
217.926	-471
217.993	104
218.059	-513
218.126	531
218.193	-728
218.260	-707
218.327	113
218.393	224
218.460	-778
218.527	-485
218.594	-705
218.660	61
218.727	79
218.794	-842
218.860	886
218.927	-300
218.994	-488
219.061	-59
219.127	-515
219.194	-151
219.261	-456
219.327	-425
219.394	272
219.461	-478
219.527	-645
219.594	-615
219.661	-307
219.727	-871
219.794	139
219.860	-539
219.927	-150
219.994	561
220.060	816
220.127	1374
220.193	585
220.260	-6
220.326	96
220.393	-436
220.460	-459
220.526	-878
220.593	-1312
220.659	1264
220.726	44
220.792	-395
220.859	-220
220.925	-149
220.992	-745
221.058	258
221.125	-548
221.191	-163
221.258	-345
221.324	-239
221.391	-186
221.457	-233
221.524	-906
221.590	399
221.657	-117
221.723	215
221.789	-1013
221.856	20
221.922	-616
221.989	651
222.055	-1059
222.121	-1028
222.188	1299
222.254	288
222.321	-133
222.387	-200
222.453	-469
222.520	-109
222.586	-656
222.652	21
222.719	-942
222.785	-236
222.851	-618
222.918	-871
222.984	-354
223.050	-84
223.116	-1777
223.183	528
223.249	-969
223.315	-1070
223.382	-300
223.448	619
223.514	-306
223.580	-95
223.647	-267
223.713	146
223.779	-46
223.845	-218
223.911	390
223.978	-879
224.044	-587
224.110	-199
224.176	-522
224.242	637
224.309	-992
224.375	200
224.441	-329
224.507	603
224.573	-1065
224.639	105
224.705	-880
224.772	-254
224.838	-747
224.904	85
224.970	-159
225.036	-908
225.102	-1043
225.168	79
225.234	-570
225.300	38
225.366	45
225.432	-42
225.499	-522
225.565	60
225.631	-324
225.697	-11
225.763	-1020
225.829	25
225.895	-783
225.961	-118
226.027	-342
226.093	-473
226.159	-126
226.225	670
226.291	-89
226.357	394
226.423	224
226.489	96
226.554	-521
226.620	-253
226.686	-247
226.752	-556
226.818	-355
226.884	1369
226.950	647
227.016	-338
227.082	-409
227.148	-278
227.214	-455
227.279	-366
227.345	-179
227.411	357
227.477	236
227.543	2735
227.609	1663
227.674	1739
227.740	-159
227.806	675
227.872	-489
227.938	826
228.003	370
228.069	-576
228.135	-338
228.201	-208
228.267	-473
228.332	-331
228.398	-412
228.464	98
228.530	-1089
228.595	-490
228.661	-1368
228.727	-1192
228.792	290
228.858	-587
228.924	-2493
228.990	1829
229.055	-2021
229.121	-776
229.187	-1423
229.252	-793
229.318	261
229.384	-562
229.449	-486
229.515	-1878
229.581	-991
229.646	1189
229.712	-340
229.777	-512
229.843	-409
229.909	-518
229.974	-441
230.040	-857
230.105	-781
230.171	-430
230.236	237
230.302	-314
230.368	-1040
230.433	-910
230.499	-177
230.564	154
230.630	-1241
230.695	-631
230.761	-330
230.826	-1634
230.892	1108
230.957	-990
231.023	-134
231.088	-420
231.154	-1099
231.219	48
231.284	-1317
231.350	-121
231.415	-1120
231.481	297
231.546	-878
231.612	-476
231.677	-765
231.742	-1130
231.808	1967
231.873	-1062
231.939	-2232
232.004	-363
232.069	-22
232.135	-761
232.200	-1271
232.265	-84
232.331	-694
232.396	-627
232.461	-591
232.527	-441
232.592	-1456
232.657	-273
232.723	-1272
232.788	-487
232.853	-223
232.918	-459
232.984	-1068
233.049	-981
233.114	-1203
233.179	-3
233.245	350
233.310	304
233.375	-1201
233.440	597
233.506	-869
233.571	-334
233.636	-593
233.701	-383
233.766	-914
233.832	-341
233.897	-1340
233.962	-2086
234.027	-488
234.092	-503
234.157	-864
234.222	-1230
234.288	-777
234.353	-412
234.418	278
234.483	-141
234.548	-513
234.613	278
234.678	-1518
234.743	-1154
234.808	89
234.873	-1438
234.938	124
235.004	-454
235.069	-423
235.134	-725
235.199	85
235.264	-299
235.329	-1612
235.394	-465
235.459	384
235.524	-1424
235.589	-383
235.654	-859
235.719	-1943
235.784	575
235.849	-275
235.913	-233
235.978	-1448
236.043	-715
236.108	-634
236.173	-1076
236.238	148
236.303	-1039
236.368	-1805
236.433	-268
236.498	-1410
236.563	-778
236.627	294
236.692	1089
236.757	-28
236.822	-317
236.887	-386
236.952	961
237.017	-1873
237.081	264
237.146	-1060
237.211	-261
237.276	497
237.341	2713
237.405	54
237.470	-315
237.535	84
237.600	-385
237.664	-730
237.729	-1182
237.794	-1006
237.859	95
237.923	-76
237.988	-880
238.053	-127
238.118	168
238.182	-1163
238.247	908
238.312	-1510
238.376	-2
238.441	-1951
238.506	703
238.570	-888
238.635	1261
238.700	-824
238.764	-692
238.829	-286
238.893	-793
238.958	-348
239.023	-232
239.087	-744
239.152	-361
239.216	-794
239.281	-276
239.346	-773
239.410	-225
239.475	-305
239.539	323
239.604	-1030
239.668	616
239.733	575
239.797	3102
239.862	5264
239.926	3756
239.991	1383
240.055	843
240.120	-1268
240.184	-307
240.249	-1090
240.313	-236
240.378	-597
240.442	165
240.507	-202
240.571	-902
240.635	-1405
240.700	-345
240.764	-829
240.829	-910
240.893	-1138
240.957	-247
241.022	-636
241.086	120
241.151	-333
241.215	-1709
241.279	-569
241.344	-824
241.408	-428
241.472	-928
241.537	213
241.601	-45
241.665	-1770
241.730	-1513
241.794	-595
241.858	-998
241.922	-155
241.987	-224
242.051	-351
242.115	-1508
242.179	-648
242.244	-966
242.308	-142
242.372	-319
242.436	-277
242.501	-143
242.565	-1103
242.629	-608
242.693	-332
242.757	-1130
242.822	-774
242.886	-106
242.950	-296
243.014	-826
243.078	-139
243.142	-357
243.206	-1591
243.271	-693
243.335	-1485
243.399	590
243.463	-428
243.527	1994
243.591	-695
243.655	-246
243.719	-1085
243.783	1058
243.847	-830
243.911	-394
243.975	-1151
244.040	-1392
244.104	912
244.168	-1006
244.232	-737
244.296	-635
244.360	-703
244.424	-999
244.488	-602
244.552	24
244.615	-1864
244.679	-313
244.743	-1139
244.807	-1238
244.871	-918
244.935	16
244.999	-1136
245.063	-967
245.127	-310
245.191	-628
245.255	-457
245.319	-710
245.383	-2612
245.446	1055
245.510	-2165
245.574	-642
245.638	166
245.702	-1400
245.766	-528
245.829	-713
245.893	-1830
245.957	-758
246.021	388
246.085	-1036
246.149	-1156
246.212	461
246.276	-718
246.340	-870
246.404	-767
246.467	76
246.531	-2309
246.595	669
246.659	-19
246.722	-1667
246.786	-1015
246.850	-23
246.913	-1286
246.977	-1259
247.041	-712
247.104	-1168
247.168	-803
247.232	-948
247.295	-349
247.359	521
247.423	-862
247.486	-1095
247.550	121
247.614	-606
247.677	-347
247.741	-689
247.804	-503
247.868	31
247.932	-1910
247.995	373
248.059	-1246
248.122	-1595
248.186	371
248.249	-393
248.313	542
248.376	397
248.440	-610
248.503	-1863
248.567	-179
248.630	-1437
248.694	-1384
248.757	-365
248.821	1391
248.884	-351
248.948	-1001
249.011	-655
249.075	1935
249.138	1247
249.202	-446
249.265	-1263
249.328	-552
249.392	-1729
249.455	-840
249.519	-308
249.582	-1207
249.645	-508
249.709	-728
249.772	-847
249.835	-1756
249.899	-1178
249.962	-509
250.025	-1304
250.089	-736
250.152	39
250.215	-949
250.279	-1332
250.342	-591
250.405	333
250.468	-1183
250.532	-877
250.595	-402
250.658	893
250.721	4682
250.785	-132
250.848	434
250.911	-1053
250.974	-553
251.038	-655
251.101	-247
251.164	-611
251.227	-343
251.290	-1371
251.354	-329
251.417	3073
251.480	2743
251.543	879
251.606	7790
251.669	4407
251.732	687
251.795	89
251.859	216
251.922	3603
251.985	1782
252.048	-121
252.111	-1064
252.174	-1943
252.237	-76
252.300	1306
252.363	862
252.426	6846
252.489	11
252.552	257
252.615	-1479
252.678	417
252.741	373
252.804	1131
252.867	6045
252.930	1845
252.993	-850
253.056	627
253.119	-1165
253.182	-1210
253.245	-500
253.308	321
253.371	-1004
253.434	-1296
253.497	-612
253.559	244
253.622	-1654
253.685	-435
253.748	-836
253.811	-1147
253.874	-126
253.937	-2052
254.000	-1340
254.062	-651
254.125	21
254.188	579
254.251	-573
254.314	-489
254.376	-1612
254.439	-741
254.502	-611
254.565	-619
254.628	364
254.690	-843
254.753	-627
254.816	-1639
254.878	-610
254.941	-779
255.004	-369
255.067	-376
255.129	-1731
255.192	-616
255.255	-1702
255.317	-713
255.380	-1244
255.443	-580
255.505	-546
255.568	-868
255.631	-545
255.693	-169
255.756	-1828
255.819	597
255.881	-881
255.944	-666
256.006	-686
256.069	-1203
256.132	-1341
256.194	-346
256.257	-212
256.319	-1067
256.382	-913
256.444	895
256.507	-199
256.569	-894
256.632	-1479
256.694	-1547
256.757	-337
256.819	1675
256.882	-1440
256.944	-109
257.007	-10
257.069	-800
257.132	-693
257.194	119
257.257	-1081
257.319	-1611
257.381	-1542
257.444	589
257.506	1400
257.569	2051
257.631	-862
257.693	-473
257.756	-1042
257.818	-1134
257.880	-827
257.943	-24
258.005	-1849
258.067	-497
258.130	-1070
258.192	-1103
258.254	-1040
258.317	-537
258.379	-162
258.441	-835
258.503	-827
258.566	-1212
258.628	350
258.690	-1251
258.753	-206
258.815	-135
258.877	-1530
258.939	-336
259.001	-506
259.064	-1490
259.126	-1132
259.188	-989
259.250	-181
259.312	-333
259.375	-1028
259.437	-839
259.499	-689
259.561	-1039
259.623	-932
259.685	-1104
259.747	-1286
259.809	-426
259.872	-573
259.934	39
259.996	230
260.058	-215
260.120	-1663
260.182	-1088
260.244	-1266
260.306	-1287
260.368	-434
260.430	-1023
260.492	-1145
260.554	544
260.616	-1614
260.678	210
260.740	-412
260.802	-1443
260.864	-59
260.926	-1230
260.988	16
261.050	-792
261.112	-1268
261.174	-259
261.236	-856
261.298	-410
261.359	-621
261.421	703
261.483	-1815
261.545	495
261.607	-1626
261.669	73
261.731	-649
261.793	366
261.854	-2149
261.916	-339
261.978	-1824
262.040	-728
262.102	-1113
262.164	-608
262.225	-622
262.287	11
262.349	-1046
262.411	-912
262.472	-17
262.534	-1170
262.596	-1677
262.658	-471
262.719	-1355
262.781	222
262.843	-1780
262.904	-733
262.966	-732
263.028	-575
263.090	-717
263.151	787
263.213	-1093
263.275	-1131
263.336	-419
263.398	12
263.459	-1487
263.521	-849
263.583	-263
263.644	145
263.706	-575
263.767	-1367
263.829	-667
263.891	-549
263.952	-1156
264.014	-947
264.075	-596
264.137	-1056
264.198	20
264.260	-1179
264.321	-675
264.383	-738
264.444	5
264.506	-974
264.567	-369
264.629	753
264.690	-2567
264.752	-708
264.813	-1301
264.875	-1227
264.936	-386
264.998	-77
265.059	-11
265.120	-1117
265.182	-1365
265.243	283
265.305	-216
265.366	-235
265.427	-852
265.489	-415
265.550	-1254
265.611	-630
265.673	-480
265.734	-629
265.795	-1291
265.857	-872
265.918	-1514
265.979	93
266.040	984
266.102	436
266.163	-203
266.224	-591
266.286	-1305
266.347	-615
266.408	-803
266.469	-1120
266.530	-1029
266.592	-271
266.653	-1140
266.714	-879
266.775	-1346
266.836	-482
266.898	-1130
266.959	-1233
267.020	-958
267.081	-34
267.142	-952
267.203	-689
267.264	-1302
267.326	-329
267.387	-1043
267.448	-1429
267.509	53
267.570	-750
267.631	-1330
267.692	-871
267.753	-1219
267.814	-1484
267.875	-725
267.936	-251
267.997	-1351
268.058	-795
268.119	-1698
268.180	-1357
268.241	-1674
268.302	-924
268.363	-1367
268.424	-1099
268.485	-848
268.546	-1042
268.607	-375
268.668	-612
268.729	-1097
268.790	-1164
268.851	-1119
268.912	-932
268.972	-1186
269.033	-1169
269.094	-1552
269.155	-511
269.216	-653
269.277	-527
269.338	-1486
269.398	-651
269.459	-1362
269.520	-277
269.581	-526
269.642	-565
269.702	-865
269.763	-1250
269.824	-1005
269.885	-922
269.945	-725
270.006	-585
270.067	-1598
270.128	-156
270.188	-418
270.249	-2150
270.310	-505
270.370	-701
270.431	-857
270.492	-1500
270.553	-811
270.613	-772
270.674	-892
270.734	-1197
270.795	-596
270.856	-796
270.916	-726
270.977	-838
271.038	-155
271.098	-181
271.159	-677
271.219	-1588
271.280	-372
271.340	-329
271.401	-759
271.462	-504
271.522	-756
271.583	-1247
271.643	-1424
271.704	-700
271.764	-378
271.825	-866
271.885	223
271.946	752
272.006	-517
272.066	-507
272.127	595
272.187	3245
272.248	-20
272.308	-115
272.369	270
272.429	-538
272.489	-730
272.550	-824
272.610	-8
272.671	-1691
272.731	-150
272.791	-795
272.852	-946
272.912	-427
272.972	-71
273.033	-1017
273.093	-1448
273.153	25
273.214	-572
273.274	-635
273.334	-1158
273.394	-219
273.455	-1262
273.515	-57
273.575	-1052
273.635	261
273.696	-270
273.756	29
273.816	-806
273.876	-169
273.936	-961
273.997	528
274.057	-591
274.117	-362
274.177	-678
274.237	82
274.297	-79
274.358	-86
274.418	394
274.478	-201
274.538	-958
274.598	-412
274.658	-466
274.718	-402
274.778	-280
274.838	-292
274.898	-1214
274.958	-504
275.018	-330
275.078	2
275.138	-116
275.198	-704
275.258	-1087
275.318	141
275.378	-1041
275.438	-802
275.498	-909
275.558	48
275.618	-218
275.678	-875
275.738	-207
275.798	-1141
275.858	-1249
275.918	-1199
275.978	-906
276.038	-131
276.098	-517
276.157	-735
276.217	-265
276.277	1
276.337	-1405
276.397	-663
276.457	-897
276.517	-315
276.576	122
276.636	-322
276.696	-1048
276.756	74
276.815	-755
276.875	-544
276.935	-1067
276.995	-451
277.055	-22
277.114	624
277.174	-503
277.234	-575
277.293	-510
277.353	197
277.413	-1013
277.472	-204
277.532	-771
277.592	-13
277.651	117
277.711	1893
277.771	-695
277.830	2009
277.890	1690
277.950	872
278.009	5420
278.069	2449
278.128	998
278.188	1433
278.248	272
278.307	1707
278.367	1039
278.426	98
278.486	-725
278.545	-406
278.605	-469
278.664	-181
278.724	-1189
278.783	-361
278.843	465
278.902	-225
278.962	-568
279.021	-635
279.081	-225
279.140	-67
279.199	-732
279.259	-174
279.318	410
279.378	554
279.437	1089
279.496	4726
279.556	20728
279.615	15576
279.675	2911
279.734	1515
279.793	1415
279.853	2910
279.912	114
279.971	-297
280.031	90
280.090	459
280.149	1763
280.208	2867
280.268	14752
280.327	14071
280.386	2077
280.445	448
280.505	260
280.564	-216
280.623	-112
280.682	281
280.742	-106
280.801	-171
280.860	-323
280.919	-98
280.978	-356
281.037	-470
281.097	-652
281.156	100
281.215	-1250
281.274	359
281.333	1
281.392	-310
281.451	-599
281.510	-558
281.569	-816
281.628	-429
281.688	-655
281.747	31
281.806	-390
281.865	-890
281.924	-697
281.983	-402
282.042	-593
282.101	-404
282.160	-879
282.219	-273
282.278	-1376
282.337	172
282.396	-467
282.454	-931
282.513	-903
282.572	-586
282.631	-122
282.690	121
282.749	-1059
282.808	-358
282.867	-1125
282.926	-849
282.985	-822
283.043	-534
283.102	-900
283.161	-1094
283.220	141
283.279	-271
283.338	-444
283.396	-860
283.455	-72
283.514	-115
283.573	-955
283.631	-604
283.690	-563
283.749	-570
283.808	-660
283.866	208
283.925	-846
283.984	71
284.043	-602
284.101	83
284.160	-667
284.219	73
284.277	-929
284.336	108
284.395	554
284.453	-131
284.512	-816
284.570	366
284.629	-651
284.688	-318
284.746	-328
284.805	-138
284.863	-330
284.922	297
284.981	1549
285.039	2334
285.098	3855
285.156	10374
285.215	29521
285.273	25530
285.332	11959
285.390	5660
285.449	2117
285.507	1894
285.566	-3
285.624	574
285.683	310
285.741	-129
285.799	-541
285.858	-723
285.916	-339
285.975	-583
286.033	-895
286.091	392
286.150	-575
286.208	-56
286.267	-656
286.325	-743
286.383	-349
286.442	-390
286.500	-514
286.558	80
286.616	-96
286.675	-280
286.733	-1112
286.791	296
286.850	-12
286.908	-242
286.966	-375
287.024	-407
287.083	-184
287.141	-490
287.199	55
287.257	-367
287.315	-295
287.374	-596
287.432	-603
287.490	-436
287.548	-1299
287.606	-331
287.664	-534
287.723	463
287.781	-72
287.839	10
287.897	-745
287.955	267
288.013	-1137
288.071	519
288.129	4835
288.187	18865
288.245	6722
288.303	1036
288.361	11
288.419	-90
288.477	305
288.535	-276
288.593	-398
288.651	-446
288.709	409
288.767	-204
288.825	-280
288.883	199
288.941	-777
288.999	-345
289.057	-564
289.115	-59
289.173	-603
289.231	22
289.289	-1060
289.346	-323
289.404	437
289.462	-111
289.520	-960
289.578	-352
289.636	-21
289.694	-1203
289.751	-40
289.809	228
289.867	-153
289.925	484
289.983	-202
290.040	179
290.098	-359
290.156	-1103
290.214	-280
290.271	-648
290.329	-362
290.387	245
290.444	-979
290.502	31
290.560	-728
290.617	445
290.675	-498
290.733	182
290.790	-284
290.848	-370
290.906	-473
290.963	-778
291.021	77
291.078	340
291.136	-233
291.194	-583
291.251	465
291.309	-323
291.366	-240
291.424	-430
291.481	280
291.539	-614
291.596	-84
291.654	-156
291.711	-510
291.769	-276
291.826	-112
291.884	-185
291.941	-654
291.999	-1335
292.056	-490
292.114	-635
292.171	-528
292.228	-305
292.286	-318
292.343	390
292.401	-1352
292.458	-5
292.515	2
292.573	149
292.630	88
292.687	-318
292.745	-886
292.802	-649
292.859	243
292.917	15
292.974	-389
293.031	-379
293.089	-105
293.146	-176
293.203	-1181
293.260	-126
293.318	-340
293.375	-576
293.432	-718
293.489	-406
293.546	-184
293.604	93
293.661	-20
293.718	662
293.775	23
293.832	-132
293.889	358
293.947	91
294.004	-500
294.061	126
294.118	-610
294.175	368
294.232	325
294.289	77
294.346	-481
294.403	94
294.460	-625
294.517	-116
294.574	-127
294.631	-258
294.688	-863
294.745	-61
294.802	271
294.859	788
294.916	-95
294.973	51
295.030	-693
295.087	-337
295.144	-369
295.201	-63
295.258	-703
295.315	49
295.372	-492
295.429	187
295.486	-234
295.542	-568
295.599	342
295.656	778
295.713	-495
295.770	896
295.827	-496
295.883	-660
295.940	-960
295.997	-361
296.054	-166
296.111	-574
296.167	-451
296.224	-673
296.281	-678
296.338	-573
296.394	-277
296.451	-589
296.508	-553
296.564	-107
296.621	86
296.678	1243
296.734	1416
296.791	365
296.848	-456
296.904	-1071
296.961	-442
297.018	581
297.074	-627
297.131	-238
297.187	-585
297.244	-502
297.301	77
297.357	2533
297.414	-173
297.470	396
297.527	-443
297.583	-581
297.640	-347
297.696	-442
297.753	-625
297.809	151
297.866	-942
297.922	-421
297.979	-1026
298.035	-210
298.092	-480
298.148	-206
298.204	4
298.261	-156
298.317	13
298.374	875
298.430	411
298.486	186
298.543	-348
298.599	-331
298.656	-788
298.712	264
298.768	397
298.824	-871
298.881	-506
298.937	220
298.993	-1207
299.050	-7
299.106	-249
299.162	-935
299.218	-126
299.275	-519
299.331	-390
299.387	937
299.443	2079
299.500	8771
299.556	6766
299.612	2560
299.668	2022
299.724	7516
299.780	8426
299.837	2899
299.893	1147
299.949	5843
300.005	8105
300.061	6330
300.117	10201
300.173	3176
300.229	621
300.285	586
300.341	662
300.397	235
300.453	40
300.510	535
300.566	-364
300.622	2146
300.678	12445
300.734	15302
300.790	5684
300.845	3552
300.901	5838
300.957	9295
301.013	3503
301.069	612
301.125	1334
301.181	332
301.237	5
301.293	-644
301.349	33
301.405	-360
301.461	-246
301.516	240
301.572	-1131
301.628	-1005
301.684	-587
301.740	-238
301.796	-572
301.851	-135
301.907	-877
301.963	153
302.019	591
302.074	4134
302.130	3805
302.186	1810
302.242	-284
302.297	243
302.353	-204
302.409	-246
302.464	-498
302.520	-845
302.576	396
302.631	982
302.687	-677
302.743	-682
302.798	-878
302.854	-948
302.910	-814
302.965	-1094
303.021	-444
303.076	-1373
303.132	-110
303.187	-938
303.243	-777
303.299	-376
303.354	-269
303.410	-124
303.465	-303
303.521	-503
303.576	-391
303.632	-677
303.687	-372
303.743	204
303.798	467
303.853	-165
303.909	-991
303.964	-71
304.020	-1073
304.075	-512
304.130	-213
304.186	-399
304.241	433
304.297	-492
304.352	-1097
304.358	-1007
304.407	-284
304.449	-19
304.463	74
304.518	-659
304.539	-605
304.573	-534
304.629	174
304.630	150
304.684	-875
304.720	5
304.739	439
304.794	827
304.811	734
304.850	479
304.902	-131
304.905	-168
304.960	-128
304.992	-697
305.015	-1100
305.071	-237
305.083	-287
305.126	-540
305.173	-70
305.181	22
305.236	-998
305.264	-632
305.292	-295
305.347	-329
305.354	-336
305.402	-289
305.445	-45
305.457	6
305.512	32
305.535	28
305.567	50
305.622	-563
305.626	-542
305.678	-202
305.716	-209
305.733	-211
305.788	-289
305.807	-89
305.843	356
305.897	1171
305.898	1180
305.953	1203
305.988	1016
306.008	950
306.063	-134
306.078	-164
306.118	-33
306.168	-223
306.173	-272
306.228	-284
306.259	-339
306.283	-249
306.338	-463
306.349	-355
306.393	-82
306.440	81
306.448	127
306.503	227
306.530	124
306.558	133
306.613	392
306.620	452
306.668	776
306.711	972
306.723	923
306.778	-141
306.801	-90
306.833	256
306.888	-162
306.892	-134
306.943	88
306.982	-311
306.997	-418
307.052	407
307.072	394
307.107	335
307.162	289
307.163	284
307.217	222
307.253	593
307.272	674
307.327	-165
307.343	-5
307.381	550
307.434	162
307.436	157
307.491	229
307.524	702
307.546	832
307.600	727
307.614	540
307.655	-25
307.704	160
307.710	251
307.765	464
307.795	856
307.819	960
307.874	971
307.885	941
307.929	1012
307.975	1558
307.984	1691
308.038	2411
308.065	2676
308.093	5656
308.148	12352
308.156	13975
308.202	20547
308.246	24725
308.257	23701
308.312	10777
308.336	5811
308.366	3838
308.421	1900
308.426	1755
308.475	1377
308.517	1121
308.530	998
308.585	1288
308.607	1236
308.639	1071
308.694	280
308.697	295
308.748	1399
308.787	1657
308.803	1500
308.857	1221
308.877	1039
308.912	1072
308.967	1453
308.967	1453
309.021	2440
309.058	2994
309.076	3670
309.130	6289
309.148	7107
309.185	19067
309.238	40119
309.239	40171
309.293	38560
309.328	31688
309.348	26406
309.402	10295
309.418	6417
309.457	4362
309.508	2520
309.511	2482
309.566	2446
309.598	2675
309.620	3313
309.674	4767
309.688	5089
309.729	4341
309.778	3787
309.783	3768
309.837	2621
309.868	2233
309.892	2203
309.946	1935
309.959	1946
310.001	2110
310.049	2181
310.055	2110
310.109	1242
310.139	945
310.163	1050
310.218	1145
310.229	1119
310.272	1371
310.319	1785
310.326	1755
310.381	1460
310.409	1332
310.435	1277
310.489	882
310.499	870
310.543	846
310.589	696
310.598	813
310.652	1495
310.679	1774
310.706	1568
310.760	1326
310.769	1239
310.814	1390
310.859	1849
310.868	1900
310.923	1593
310.948	1652
310.977	1622
311.031	1301
311.038	1297
311.085	1536
311.128	1390
311.139	1432
311.193	1934
311.218	2012
311.247	1808
311.301	1571
311.308	1534
311.356	1690
311.398	1790
311.410	1785
311.464	1633
311.488	1637
311.518	1663
311.572	1583
311.578	1572
311.626	1761
311.668	1823
311.680	1778
311.734	1674
311.758	1562
311.788	1573
311.842	1652
311.847	1653
311.896	1847
311.937	1990
311.950	1946
312.004	1721
312.027	1624
312.058	1721
312.112	1874
312.117	1883
312.165	1753
312.207	1632
312.297	1318
312.386	1876
312.476	2082
312.566	1759
312.656	1472
312.745	2156
312.835	2747
312.925	2090
313.015	3029
313.104	1590
313.194	3108
313.284	2560
313.374	1787
313.463	2585
313.553	3426
313.643	2952
313.732	2772
313.822	2654
313.912	4010
314.001	4122
314.091	3882
314.180	3517
314.270	4063
314.360	3449
314.449	3924
314.539	3095
314.628	4226
314.718	3932
314.808	4530
314.897	5024
314.987	5189
315.076	4995
315.166	5552
315.255	4637
315.345	4583
315.434	4581
315.524	4160
315.613	5083
315.703	6599
315.792	21770
315.881	70840
315.971	17798
316.060	6542
316.150	4645
316.239	4251
316.328	3761
316.418	3851
316.507	4982
316.597	6151
316.686	5898
316.775	5563
316.865	5256
316.954	4891
317.043	3691
317.133	3500
317.222	3400
317.311	3962
317.400	1941
317.490	3655
317.579	3348
317.668	4890
317.757	9058
317.847	35951
317.936	103619
318.025	27048
318.114	28165
318.203	11701
318.293	5629
318.382	7974
318.471	7915
318.560	7408
318.649	6527
318.738	3717
318.828	2603
318.917	2535
319.006	2610
319.095	3542
319.184	5097
319.273	3447
319.362	2601
319.451	2309
319.540	1814
319.629	3209
319.718	2663
319.807	1963
319.896	3129
319.985	6070
320.074	3556
320.163	2582
320.252	2505
320.341	3595
320.430	3442
320.519	3205
320.608	3887
320.697	4172
320.786	5001
320.875	6452
320.964	7039
321.053	7409
321.142	7298
321.230	8539
321.319	9709
321.408	10942
321.497	10889
321.586	9638
321.675	7146
321.764	7131
321.852	7106
321.941	7931
322.030	7703
322.119	9191
322.207	10653
322.296	12463
322.385	12456
322.474	14832
322.562	15176
322.651	11724
322.740	9170
322.829	8333
322.917	6803
323.006	6106
323.095	5382
323.183	4614
323.272	4216
323.361	4546
323.449	5838
323.538	4627
323.626	3814
323.715	3900
323.804	2292
323.892	3845
323.981	3164
324.069	3161
324.158	3438
324.246	3490
324.335	3093
324.424	3127
324.512	3239
324.601	2482
324.689	2766
324.778	3235
324.866	2213
324.954	2480
325.043	2657
325.131	1157
325.220	3458
325.308	3258
325.397	1720
325.485	2245
325.574	1730
325.662	2742
325.750	1339
325.839	2813
325.927	2386
326.015	2249
326.104	1503
326.192	2282
326.280	2080
326.369	2067
326.457	2557
326.545	2359
326.634	1695
326.722	2740
326.810	2493
326.898	3518
326.987	3474
327.075	2600
327.163	2914
327.251	2643
327.340	3213
327.428	4621
327.516	5716
327.604	4034
327.692	3378
327.781	2885
327.869	2246
327.957	2170
328.045	1632
328.133	2148
328.221	1731
328.309	2422
328.397	2005
328.485	3399
328.574	5076
328.662	6889
328.750	4628
328.838	3723
328.926	1922
329.014	2395
329.102	1642
329.190	2603
329.278	2027
329.366	2015
329.454	1453
329.542	2131
329.630	1477
329.718	2359
329.806	1604
329.893	1646
329.981	1637
330.069	2270
330.157	2197
330.245	3986
330.333	2931
330.421	1316
330.509	2124
330.597	1928
330.684	1463
330.772	1847
330.860	1757
330.948	1957
331.036	2051
331.123	1517
331.211	1648
331.299	2271
331.387	2376
331.475	2144
331.562	1824
331.650	2326
331.738	773
331.825	2133
331.913	1664
332.001	1580
332.089	1625
332.176	1471
332.264	2487
332.352	1613
332.439	2336
332.527	2277
332.614	1457
332.702	2057
332.790	1725
332.877	2128
332.965	2730
333.052	2380
333.140	2189
333.228	3740
333.315	2463
333.403	2022
333.490	2705
333.578	3548
333.665	5735
333.753	4415
333.840	3576
333.928	5093
334.015	5934
334.103	7761
334.190	11431
334.278	12962
334.365	17637
334.452	17694
334.540	11656
334.627	12485
334.715	15400
334.802	20987
334.889	34443
334.977	43169
335.064	26495
335.151	14174
335.239	10679
335.326	8837
335.413	8871
335.501	10263
335.588	9225
335.675	10960
335.762	12874
335.850	18334
335.937	25679
336.024	40769
336.111	61082
336.199	51672
336.286	24628
336.373	14795
336.460	9668
336.547	7024
336.635	5290
336.722	6221
336.809	5012
336.896	4805
336.983	4552
337.070	6479
337.157	6636
337.245	4992
337.332	4625
337.419	4522
337.506	4186
337.593	3851
337.680	3869
337.767	5835
337.854	3373
337.941	3555
338.028	2514
338.115	3235
338.202	3605
338.289	3659
338.376	3710
338.463	3210
338.550	3315
338.637	3819
338.724	1826
338.811	3029
338.898	2923
338.984	2523
339.071	2365
339.158	2804
339.245	1644
339.332	2390
339.419	2508
339.506	2716
339.593	1611
339.679	2523
339.766	1646
339.853	1954
339.940	2037
340.027	2706
340.113	1818
340.200	2395
340.287	1105
340.374	1997
340.460	2516
340.547	1273
340.634	2282
340.720	2926
340.807	1616
340.894	2721
340.980	2150
341.067	2501
341.154	2319
341.240	2115
341.327	1462
341.414	2632
341.500	1937
341.587	2767
341.674	2918
341.760	3277
341.847	1746
341.933	1914
342.020	1688
342.106	2366
342.193	1639
342.279	2081
342.366	1515
342.452	3080
342.539	2359
342.625	2400
342.712	1925
342.798	2619
342.885	2010
342.971	1727
343.058	2242
343.144	2299
343.230	2421
343.317	2599
343.403	1698
343.490	1593
343.576	2022
343.662	1704
343.749	1561
343.835	1528
343.921	1983
344.008	5258
344.094	9217
344.180	3219
344.267	1735
344.353	2529
344.439	2568
344.525	1517
344.612	3099
344.698	2234
344.784	332
344.870	2752
344.957	1775
345.043	2387
345.129	1814
345.215	2011
345.301	1531
345.387	1386
345.474	1959
345.560	1386
345.646	1248
345.732	2354
345.818	1483
345.904	1623
345.990	2085
346.076	1974
346.162	1361
346.249	2412
346.335	2147
346.421	2326
346.507	2276
346.593	3336
346.679	1783
346.765	3709
346.851	5551
346.937	4457
347.023	3050
347.108	2942
347.194	2210
347.280	2728
347.366	3668
347.452	12237
347.538	12828
347.624	7247
347.710	3829
347.796	2383
347.882	2815
347.967	2079
348.053	2038
348.139	2235
348.225	1707
348.311	2001
348.397	2102
348.482	3353
348.568	2201
348.654	5511
348.740	17225
348.825	17368
348.911	7621
348.997	5263
349.083	5333
349.168	1926
349.254	2560
349.340	2713
349.425	2454
349.511	2337
349.597	1238
349.682	2421
349.768	3276
349.854	2744
349.939	3075
350.025	2568
350.110	3202
350.196	2973
350.282	2199
350.367	3232
350.453	2986
350.538	1731
350.624	1814
350.709	1919
350.795	976
350.880	1382
350.966	3213
351.051	2815
351.137	2051
351.222	2710
351.308	2736
351.393	2343
351.479	2291
351.564	1311
351.649	1771
351.735	2874
351.820	1598
351.906	2082
351.991	1582
352.076	2708
352.162	2213
352.247	2180
352.332	2195
352.418	1708
352.503	2178
352.588	3621
352.673	2509
352.759	2246
352.844	1744
352.929	2263
353.014	1333
353.100	2927
353.185	2489
353.270	1870
353.355	2455
353.441	1485
353.526	1654
353.611	2455
353.696	1235
353.781	2677
353.866	1322
353.952	2106
354.037	2145
354.122	3154
354.207	2043
354.292	1833
354.377	2140
354.462	2826
354.547	1417
354.632	3214
354.717	2203
354.802	758
354.887	2187
354.972	1941
355.057	2220
355.142	1963
355.227	2668
355.312	2214
355.397	1992
355.482	2346
355.567	1816
355.652	3359
355.737	2315
355.822	3427
355.907	1938
355.991	3402
356.076	2633
356.161	3210
356.246	2264
356.331	2957
356.416	2188
356.501	5584
356.585	3571
356.670	1995
356.755	4029
356.840	2548
356.924	4600
357.009	9370
357.094	5139
357.179	2770
357.263	1701
357.348	3454
357.433	2842
357.517	2143
357.602	1479
357.687	2835
357.771	2859
357.856	3095
357.941	3750
358.025	4554
358.110	13986
358.195	7132
358.279	2608
358.364	3604
358.448	3410
358.533	4477
358.617	2705
358.702	4279
358.787	3269
358.871	2979
358.956	2911
359.040	2628
359.125	2315
359.209	3399
359.294	3142
359.378	6512
359.462	5637
359.547	3805
359.631	3100
359.716	1808
359.800	2333
359.885	2989
359.969	1401
360.053	3366
360.138	2640
360.222	2988
360.306	2628
360.391	4175
360.475	3001
360.559	3703
360.644	3060
360.728	3014
360.812	4968
360.896	7033
360.981	4202
361.065	3084
361.149	3380
361.233	3239
361.318	2508
361.402	3249
361.486	3978
361.570	4519
361.654	4224
361.739	4289
361.823	6343
361.907	9317
361.991	6745
362.075	8235
362.159	10296
362.243	22435
362.327	49821
362.411	67245
362.495	26661
362.580	14569
362.664	13657
362.748	15279
362.832	24878
362.916	52058
363.000	125673
363.084	152213
363.168	60228
363.252	21789
363.336	12979
363.420	11573
363.503	10195
363.587	11349
363.671	7896
363.755	7927
363.839	10768
363.923	11138
364.007	14221
364.091	19920
364.175	29928
364.258	67437
364.342	143998
364.426	220776
364.510	116210
364.594	40448
364.677	20291
364.761	14727
364.845	11004
364.929	7849
365.013	6018
365.096	6022
365.180	4292
365.264	6317
365.347	8926
365.431	5752
365.515	3855
365.598	2872
365.682	5005
365.766	3330
365.849	3698
365.933	2764
366.017	5122
366.100	3348
366.184	2894
366.267	4694
366.351	3609
366.435	3700
366.518	2923
366.602	4315
366.685	3264
366.769	4206
366.852	3553
366.936	4120
367.019	4199
367.103	2725
367.186	4742
367.270	3946
367.353	3300
367.436	5002
367.520	4445
367.603	4097
367.687	3226
367.770	3971
367.853	5576
367.937	5172
368.020	4340
368.104	2908
368.187	3963
368.270	2886
368.353	2823
368.437	3772
368.520	3628
368.603	3505
368.687	1920
368.770	4300
368.853	2977
368.936	3364
369.020	3656
369.103	2339
369.186	2141
369.269	2770
369.352	3817
369.436	2559
369.519	2294
369.602	2264
369.685	4741
369.768	2034
369.851	3291
369.934	2570
370.018	2867
370.101	2100
370.184	4289
370.267	2957
370.350	2446
370.433	3972
370.516	13006
370.599	34844
370.682	14788
370.765	5130
370.848	4606
370.931	4018
371.014	4469
371.097	1550
371.180	3404
371.263	3156
371.346	1278
371.429	3947
371.511	1786
371.594	2400
371.677	3885
371.760	3471
371.843	2819
371.926	8343
372.009	12189
372.091	6870
372.174	2400
372.257	5557
372.340	3345
372.423	3072
372.505	4148
372.588	2688
372.671	3776
372.754	3532
372.836	3237
372.919	3942
373.002	5488
373.085	2627
373.167	4024
373.250	3455
373.332	4940
373.415	9932
373.498	15272
373.580	15569
373.663	52741
373.746	47992
373.828	8816
373.911	5845
373.993	4079
374.076	5794
374.159	5095
374.241	5006
374.324	5343
374.406	5303
374.489	6816
374.571	11564
374.654	6005
374.736	6216
374.819	8028
374.901	12996
374.983	11664
375.066	5981
375.148	5249
375.231	6586
375.313	8327
375.395	6207
375.478	5227
375.560	5224
375.643	5517
375.725	5792
375.807	7699
375.890	9386
375.972	3466
376.054	4429
376.136	4519
376.219	4148
376.301	5534
376.383	5565
376.465	5278
376.548	3400
376.630	3370
376.712	6333
376.794	3304
376.877	3111
376.959	2361
377.041	3594
377.123	2676
377.205	3308
377.287	2103
377.369	4049
377.452	2664
377.534	3407
377.616	2957
377.698	3511
377.780	2292
377.862	3368
377.944	3727
378.026	2054
378.108	2795
378.190	3554
378.272	2706
378.354	3084
378.436	2893
378.518	2253
378.600	2802
378.682	3823
378.764	2778
378.846	4120
378.928	2381
379.010	1891
379.091	4217
379.173	3591
379.255	1980
379.337	2530
379.419	3262
379.501	4413
379.583	3745
379.664	2933
379.746	2608
379.828	4052
379.910	3215
379.991	3869
380.073	2490
380.155	2693
380.237	2583
380.318	2621
380.400	2874
380.482	4110
380.564	2181
380.645	2920
380.727	2788
380.809	4509
380.890	2907
380.972	2292
381.053	2711
381.135	4017
381.217	2301
381.298	3935
381.380	2709
381.461	3095
381.543	5165
381.624	6077
381.706	3404
381.787	3171
381.869	4018
381.951	4922
382.032	8734
382.113	9121
382.195	2195
382.276	4523
382.358	3038
382.439	4880
382.521	7462
382.602	9406
382.684	6533
382.765	7464
382.846	12460
382.928	23352
383.009	13371
383.090	12662
383.172	37308
383.253	48696
383.334	15714
383.416	9764
383.497	7359
383.578	6718
383.659	11117
383.741	37364
383.822	79595
383.903	37533
383.984	10463
384.066	9891
384.147	7759
384.228	6717
384.309	7413
384.390	7544
384.471	6451
384.553	6822
384.634	5586
384.715	6547
384.796	4331
384.877	4286
384.958	5468
385.039	4463
385.120	5340
385.201	6124
385.282	5063
385.363	5950
385.444	5709
385.525	7307
385.606	7149
385.687	7744
385.768	5905
385.849	5592
385.930	9678
386.011	13102
386.092	7314
386.173	7105
386.254	6186
386.335	7081
386.416	6008
386.496	6206
386.577	6367
386.658	6504
386.739	4743
386.820	7054
386.901	5710
386.981	8130
387.062	8948
387.143	9776
387.224	9457
387.304	12198
387.385	12199
387.466	9525
387.547	12718
387.627	12197
387.708	13482
387.789	13225
387.869	10934
387.950	11033
388.031	9260
388.111	7243
388.192	9405
388.273	9746
388.353	7582
388.434	5448
388.514	6333
388.595	8363
388.676	7150
388.756	6179
388.837	5668
388.917	4808
388.998	3753
389.078	6320
389.159	5405
389.239	3010
389.320	5782
389.400	3514
389.480	5723
389.561	4705
389.641	5997
389.722	4619
389.802	3215
389.883	5375
389.963	5528
390.043	4624
390.124	3419
390.204	5049
390.284	5487
390.365	5043
390.445	6016
390.525	7516
390.605	8095
390.686	4578
390.766	5594
390.846	6972
390.927	4507
391.007	4225
391.087	6480
391.167	5571
391.247	4103
391.328	6275
391.408	6613
391.488	7384
391.568	4956
391.648	6748
391.728	8495
391.808	8591
391.888	7392
391.969	8815
392.049	7941
392.129	10874
392.209	10451
392.289	13551
392.369	12842
392.449	13638
392.529	14542
392.609	17675
392.689	20393
392.769	23811
392.849	29798
392.929	39504
393.009	52522
393.089	79471
393.169	145512
393.248	306487
393.328	514887
393.408	495565
393.488	284807
393.568	133843
393.648	72784
393.728	45948
393.807	31684
393.887	26074
393.967	20988
394.047	17688
394.127	15068
394.206	15035
394.286	21951
394.366	65293
394.446	65993
394.525	18505
394.605	9707
394.685	10491
394.764	11043
394.844	20163
394.924	24812
395.003	12985
395.083	7870
395.163	8127
395.242	7108
395.322	7822
395.402	6699
395.481	9377
395.561	11159
395.640	32664
395.720	58678
395.799	31212
395.879	14156
395.958	13157
396.038	26237
396.117	85619
396.197	88424
396.276	28884
396.356	19728
396.435	23934
396.515	34914
396.594	53426
396.673	111141
396.753	272486
396.832	458335
396.912	355301
396.991	144267
397.070	64964
397.150	36280
397.229	31957
397.308	53335
397.388	88331
397.467	46051
397.546	17771
397.625	8684
397.705	11465
397.784	8467
397.863	7407
397.942	7473
398.022	7183
398.101	5565
398.180	7406
398.259	5620
398.338	6602
398.417	4857
398.497	4092
398.576	4569
398.655	3368
398.734	5013
398.813	3799
398.892	4669
398.971	6490
399.050	3395
399.129	3505
399.208	4074
399.287	4454
399.366	3395
399.445	2990
399.524	3366
399.603	2525
399.682	3066
399.761	3768
399.840	6162
399.919	5237
399.998	2577
400.077	2127
400.156	1719
400.235	4516
400.313	2643
400.392	1515
400.471	2763
400.550	3580
400.629	2149
400.708	3585
400.786	1416
400.865	2310
400.944	1460
401.023	4299
401.102	1616
401.180	2498
401.259	2196
401.338	2470
401.416	2258
401.495	1670
401.574	2901
401.652	1087
401.731	1987
401.810	349
401.888	1394
401.967	845
402.046	2014
402.124	2096
402.203	737
402.281	2613
402.360	1190
402.438	2722
402.517	904
402.596	2351
402.674	1725
402.753	1609
402.831	1870
402.910	2768
402.988	2373
403.066	3578
403.145	3548
403.223	4268
403.302	3171
403.380	4447
403.459	3477
403.537	2732
403.615	2981
403.694	1620
403.772	3377
403.850	3004
403.929	1944
404.007	1695
404.085	2452
404.164	1609
404.242	1759
404.320	3387
404.398	5837
404.477	4781
404.555	6795
404.633	5481
404.711	3708
404.789	3152
404.868	2290
404.946	1687
405.024	1649
405.102	973
405.180	1027
405.258	685
405.336	2500
405.415	1135
405.493	1405
405.571	2887
405.649	1060
405.727	1308
405.805	2380
405.883	2891
405.961	2838
406.039	1301
406.117	1044
406.195	2240
406.273	952
406.351	3216
406.429	2473
406.507	1287
406.585	1415
406.663	1213
406.740	1381
406.818	529
406.896	760
406.974	2864
407.052	819
407.130	2818
407.208	2572
407.285	2779
407.363	1243
407.441	625
407.519	971
407.596	2717
407.674	8480
407.752	28993
407.830	20601
407.907	4268
407.985	1287
408.063	2294
408.141	999
408.218	2301
408.296	713
408.373	1628
408.451	2372
408.529	1618
408.606	2605
408.684	2397
408.762	3290
408.839	3120
408.917	3548
408.994	4232
409.072	3983
409.149	6383
409.227	10280
409.304	15224
409.382	16629
409.459	19794
409.537	24870
409.614	21410
409.692	19354
409.769	18529
409.846	24895
409.924	31758
410.001	21767
410.079	16643
410.156	12997
410.233	8953
410.311	7235
410.388	6279
410.465	5696
410.543	5165
410.620	5329
410.697	5060
410.775	4141
410.852	3673
410.929	5580
411.006	5955
411.083	5012
411.161	3348
411.238	5024
411.315	3735
411.392	3354
411.469	3593
411.547	3025
411.624	1786
411.701	1944
411.778	2378
411.855	2669
411.932	2578
412.009	1478
412.086	2382
412.163	2769
412.240	2128
412.317	2532
412.394	2254
412.471	2220
412.548	1302
412.625	1512
412.702	2020
412.779	1641
412.856	2546
412.933	863
413.010	2021
413.087	1784
413.164	1305
413.241	1442
413.318	1154
413.395	1927
413.471	1307
413.548	1317
413.625	2598
413.702	186
413.779	645
413.855	1305
413.932	1136
414.009	-10
414.086	1743
414.162	1326
414.239	2008
414.316	1022
414.393	2554
414.469	-155
414.546	642
414.623	1985
414.699	1500
414.776	1632
414.853	1218
414.929	1355
415.006	902
415.082	1296
415.159	1139
415.236	1351
415.312	1843
415.389	611
415.465	542
415.542	503
415.618	1216
415.695	1217
415.771	146
415.848	542
415.924	2036
416.000	571
416.077	1394
416.153	315
416.230	324
416.306	1059
416.383	1321
416.459	998
416.535	181
416.612	255
416.688	1432
416.764	1032
416.841	232
416.917	839
416.993	771
417.069	1504
417.146	439
417.222	698
417.298	1567
417.374	413
417.451	1751
417.527	450
417.603	693
417.679	1055
417.755	1098
417.831	111
417.908	2451
417.984	835
418.060	616
418.136	1730
418.212	1522
418.288	1860
418.364	1718
418.440	559
418.516	1973
418.592	1833
418.668	1033
418.744	894
418.820	1574
418.896	1791
418.972	321
419.048	1892
419.124	3495
419.200	867
419.276	1874
419.352	1272
419.428	3032
419.504	1062
419.579	3108
419.655	2287
419.731	2647
419.807	2287
419.883	2529
419.959	2812
420.034	3142
420.110	3171
420.186	3273
420.262	3981
420.337	3542
420.413	3201
420.489	4331
420.565	4736
420.640	4317
420.716	4720
420.792	4470
420.867	5558
420.943	5400
421.019	5965
421.094	7017
421.170	7386
421.245	7670
421.321	8431
421.397	8785
421.472	15565
421.548	25526
421.623	20173
421.699	15985
421.774	16700
421.850	18789
421.925	21949
422.001	27425
422.076	31182
422.152	41122
422.227	52648
422.302	72690
422.378	100797
422.453	146852
422.529	197783
422.604	203200
422.679	158969
422.755	195833
422.830	194664
422.905	145765
422.981	103050
423.056	76875
423.131	58805
423.207	44837
423.282	34304
423.357	30008
423.432	23138
423.508	20754
423.583	17186
423.658	15763
423.733	14061
423.808	13615
423.883	13097
423.959	13472
424.034	14989
424.109	13608
424.184	10673
424.259	8915
424.334	6677
424.409	6560
424.484	6134
424.559	5640
424.634	4721
424.709	4911
424.784	4558
424.859	4415
424.934	3979
425.009	4077
425.084	4213
425.159	3600
425.234	3546
425.309	3555
425.384	3007
425.459	2451
425.534	2994
425.609	1945
425.683	2272
425.758	3003
425.833	2881
425.908	3042
425.983	2621
426.058	3335
426.132	2897
426.207	2281
426.282	3039
426.357	1111
426.431	1606
426.506	2126
426.581	1626
426.655	2269
426.730	1754
426.805	845
426.879	2171
426.954	2128
427.029	1923
427.103	2699
427.178	2671
427.253	2600
427.327	1697
427.402	1457
427.476	1902
427.551	1390
427.625	1502
427.700	1844
427.774	2007
427.849	1920
427.923	1150
427.998	2502
428.072	2719
428.147	9105
428.221	39575
428.296	100715
428.370	56516
428.444	10131
428.519	3168
428.593	2862
428.667	3938
428.742	5382
428.816	16319
428.890	66131
428.965	89236
429.039	25030
429.113	4860
429.188	3043
429.262	2517
429.336	2420
429.410	1969
429.485	2644
429.559	2954
429.633	3187
429.707	3439
429.781	14463
429.855	61683
429.930	81904
430.004	24049
430.078	15926
430.152	47629
430.226	135840
430.300	127957
430.374	32894
430.448	10329
430.522	6949
430.596	8668
430.670	23409
430.744	79109
430.818	78939
430.892	16173
430.966	4128
431.040	2828
431.114	997
431.188	1230
431.262	1176
431.336	1081
431.410	2275
431.484	1538
431.557	1915
431.631	2500
431.705	7753
431.779	32611
431.853	97627
431.927	63559
432.000	10953
432.074	3831
432.148	1586
432.222	1024
432.295	866
432.369	346
432.443	833
432.516	866
432.590	2371
432.664	475
432.737	190
432.811	146
432.885	188
432.958	920
433.032	-107
433.106	-308
433.179	848
433.253	191
433.326	539
433.400	490
433.473	271
433.547	156
433.620	384
433.694	450
433.767	865
433.841	439
433.914	1301
433.988	526
434.061	1201
434.134	704
434.208	787
434.281	-484
434.355	30
434.428	805
434.501	1037
434.575	426
434.648	13
434.721	444
434.795	442
434.868	-38
434.941	1289
435.014	1248
435.088	1278
435.161	1235
435.234	2398
435.307	2191
435.381	4275
435.454	6319
435.527	11223
435.600	13359
435.673	10252
435.746	7387
435.819	5513
435.892	4571
435.966	3594
436.039	2384
436.112	2385
436.185	1840
436.258	1570
436.331	341
436.404	1150
436.477	765
436.550	847
436.623	900
436.696	764
436.769	660
436.842	276
436.915	81
436.987	398
437.060	295
437.133	560
437.206	-120
437.279	763
437.352	158
437.425	-254
437.498	43
437.570	-381
437.643	219
437.716	482
437.789	-116
437.861	546
437.934	-186
438.007	754
438.080	109
438.152	-320
438.225	148
438.298	1291
438.370	3807
438.443	1824
438.516	491
438.588	446
438.661	179
438.734	329
438.806	442
438.879	570
438.951	-612
439.024	356
439.096	32
439.169	1041
439.241	451
439.314	-9
439.386	-345
439.459	615
439.531	-194
439.604	250
439.676	-47
439.749	342
439.821	-246
439.893	1060
439.966	-79
440.038	-8
440.110	564
440.183	45
440.255	141
440.327	1404
440.400	752
440.472	1449
440.544	813
440.617	860
440.689	1314
440.761	1387
440.833	587
440.905	835
440.978	322
441.050	646
441.122	1137
441.194	527
441.266	754
441.338	900
441.411	746
441.483	1605
441.555	721
441.627	916
441.699	882
441.771	358
441.843	1263
441.915	1704
441.987	1109
442.059	1914
442.131	1981
442.203	3330
442.275	4615
442.347	9308
442.419	23043
442.491	87811
442.563	151477
442.635	63711
442.706	14350
442.778	6969
442.850	4132
442.922	4505
442.994	3791
443.066	4759
443.137	6067
443.209	9052
443.281	14875
443.353	33133
443.425	103563
443.496	229152
443.568	226495
443.640	100313
443.711	27885
443.783	11611
443.855	7671
443.926	5797
443.998	3665
444.070	2824
444.141	2905
444.213	3006
444.285	2073
444.356	2006
444.428	2775
444.499	2453
444.571	2120
444.642	2843
444.714	2626
444.785	3477
444.857	2944
444.928	3774
445.000	5271
445.071	8023
445.143	9416
445.214	14994
445.285	26283
445.357	64636
445.428	172758
445.500	257882
445.571	216588
445.642	145621
445.714	53896
445.785	18569
445.856	9089
445.928	6473
445.999	4043
446.070	3496
446.141	2520
446.213	2994
446.284	1669
446.355	1863
446.426	717
446.497	1536
446.569	718
446.640	935
446.711	1088
446.782	875
446.853	608
446.924	1110
446.995	232
447.066	303
447.138	132
447.209	1269
447.280	98
447.351	-65
447.422	-654
447.493	113
447.564	-38
447.635	759
447.706	-589
447.777	-465
447.847	-491
447.918	11
447.989	125
448.060	-269
448.131	-125
448.202	-284
448.273	662
448.344	191
448.414	459
448.485	-458
448.556	203
448.627	-357
448.698	586
448.768	-289
448.839	-469
448.910	-163
448.981	19
449.051	245
449.122	211
449.193	187
449.263	-322
449.334	261
449.405	-474
449.475	-752
449.546	190
449.616	1034
449.687	498
449.758	-205
449.828	-399
449.899	-122
449.969	-477
450.040	332
450.110	-328
450.181	970
450.251	-254
450.322	470
450.392	568
450.463	691
450.533	-50
450.604	82
450.674	-326
450.744	994
450.815	479
450.885	1544
450.955	255
451.026	1166
451.096	155
451.166	1424
451.237	1288
451.307	2325
451.377	1775
451.447	-134
451.518	796
451.588	507
451.658	-668
451.728	51
451.799	460
451.869	1180
451.939	-304
452.009	405
452.079	480
452.149	818
452.219	279
452.289	1608
452.360	703
452.430	1150
452.500	2145
452.570	3733
452.640	11583
452.710	26577
452.780	28066
452.850	14188
452.920	6541
452.990	3768
453.060	1891
453.129	526
453.199	160
453.269	1549
453.339	2045
453.409	2552
453.479	1577
453.549	2353
453.619	2192
453.688	570
453.758	166
453.828	-90
453.898	-445
453.968	391
454.037	277
454.087	184
454.107	139
454.168	111
454.177	93
454.247	253
454.249	242
454.316	-257
454.330	-225
454.386	-164
454.411	-425
454.456	-969
454.492	-199
454.525	495
454.574	-130
454.595	-416
454.655	-726
454.665	-789
454.734	208
454.736	230
454.804	497
454.817	501
454.873	446
454.898	386
454.943	274
454.979	157
455.013	-4
455.060	43
455.082	88
455.141	418
455.152	478
455.221	575
455.222	600
455.291	711
455.303	1038
455.360	2319
455.384	3241
455.430	4490
455.465	3417
455.499	2522
455.546	1301
455.569	755
455.627	740
455.638	730
455.707	411
455.708	420
455.777	483
455.789	372
455.846	-28
455.869	381
455.916	1015
455.950	770
455.985	536
456.031	390
456.054	308
456.112	171
456.124	154
456.193	481
456.193	469
456.262	635
456.274	800
456.332	1459
456.355	1028
456.401	266
456.436	443
456.470	449
456.516	153
456.540	72
456.597	310
456.609	354
456.678	1303
456.678	1294
456.747	559
456.759	539
456.817	460
456.840	786
456.886	1332
456.920	1275
456.955	1331
457.001	1492
457.024	1477
457.082	892
457.093	805
457.162	1744
457.163	1755
457.232	1535
457.243	1584
457.301	1877
457.324	1742
457.370	1615
457.405	2362
457.439	2853
457.485	2572
457.508	2688
457.566	3353
457.577	3771
457.646	7423
457.647	7492
457.715	17824
457.727	20322
457.784	33949
457.808	45146
457.853	56479
457.889	62176
457.922	63616
457.969	44880
457.991	43716
458.050	52684
458.060	54470
458.129	93700
458.130	94767
458.198	88153
458.211	77245
458.267	43042
458.292	30796
458.336	21043
458.372	21665
458.405	30403
458.453	46939
458.474	56173
458.533	95802
458.543	97653
458.611	137090
458.614	137130
458.680	83785
458.694	66071
458.749	28988
458.775	20954
458.818	12191
458.855	9518
458.887	7549
458.936	5695
458.955	5308
459.016	4210
459.024	4083
459.093	4467
459.097	4443
459.162	3374
459.177	3360
459.230	3416
459.257	3203
459.299	2925
459.338	2919
459.368	2878
459.418	2555
459.437	2350
459.499	2078
459.505	2103
459.574	2217
459.579	2237
459.643	1999
459.659	1926
459.711	2147
459.740	2322
459.780	2279
459.820	2384
459.849	2469
459.900	2277
459.917	2311
459.981	2398
459.986	2358
460.054	1979
460.061	1966
460.123	2188
460.141	2287
460.191	2532
460.222	2660
460.260	2736
460.302	2725
460.328	2697
460.382	2868
460.397	3014
460.462	3303
460.465	3499
460.534	8510
460.543	9222
460.602	20576
460.623	25110
460.671	37969
460.703	49916
460.739	42201
460.783	25879
460.808	21644
460.864	6048
460.876	4443
460.944	2998
460.945	2980
461.013	2522
461.024	2373
461.081	1726
461.104	2044
461.150	2216
461.184	1804
461.218	2277
461.264	3310
461.286	3293
461.345	2537
461.355	2433
461.423	2212
461.425	2200
461.491	1757
461.505	1818
461.559	2177
461.585	2163
461.628	2712
461.665	3493
461.696	3683
461.745	3417
461.764	3034
461.825	2046
461.832	2116
461.901	2523
461.905	2582
461.969	2162
461.985	1962
462.037	2463
462.065	2776
462.105	2413
462.145	2428
462.173	2862
462.225	3198
462.241	3078
462.305	2214
462.310	2204
462.378	2827
462.385	2862
462.446	2594
462.465	2542
462.514	2699
462.545	2614
462.582	2636
462.625	2892
462.650	2811
462.705	2403
462.718	2382
462.785	2681
462.786	2681
462.854	2240
462.865	2191
462.922	2634
462.945	2863
462.990	2995
463.025	3007
463.058	2998
463.104	2881
463.126	2722
463.184	2553
463.194	2679
463.262	2970
463.264	2994
463.330	2746
463.344	2646
463.398	2272
463.424	2166
463.466	2388
463.504	2538
463.533	2652
463.583	2783
463.601	2686
463.663	2193
463.669	2193
463.737	2675
463.743	2675
463.805	3039
463.823	3250
463.873	3379
463.903	3253
463.940	3385
463.982	3653
464.008	3227
464.062	2259
464.076	2361
464.142	2987
464.144	2979
464.211	2364
464.221	2268
464.279	2314
464.301	2351
464.347	2609
464.381	2879
464.414	2863
464.461	2735
464.482	2728
464.540	2722
464.550	2738
464.617	2779
464.620	2776
464.685	2583
464.699	2560
464.753	2743
464.779	2745
464.820	2937
464.859	3101
464.888	2652
464.938	2173
464.956	2605
465.018	3751
465.023	3706
465.091	3343
465.098	3276
465.158	3136
465.177	3130
465.226	3525
465.257	3761
465.293	3375
465.336	2819
465.361	2949
465.416	3273
465.428	3361
465.495	3905
465.496	3912
465.563	3824
465.575	3841
465.631	3985
465.654	4000
465.698	3770
465.734	3611
465.765	3192
465.813	2407
465.833	2617
465.893	3434
465.900	3408
465.968	3004
465.972	2976
466.035	2881
466.052	2847
466.102	2785
466.131	2734
466.170	2668
466.210	2522
466.237	2856
466.290	3655
466.304	3592
466.369	3077
466.372	3087
466.439	3318
466.449	3341
466.506	3561
466.528	3635
466.573	3626
466.607	3594
466.641	4106
466.687	4869
466.708	5140
466.766	5771
466.775	5531
466.842	3708
466.845	3612
466.909	2913
466.925	2745
466.977	3473
467.004	3858
467.044	4197
467.083	4536
467.111	4253
467.163	3679
467.178	3765
467.242	4094
467.245	4094
467.312	3995
467.321	3978
467.379	3919
467.400	3886
467.446	4308
467.480	4603
467.559	4550
467.638	4249
467.717	5213
467.796	5256
467.875	5518
467.955	5349
468.034	6804
468.113	9524
468.192	11169
468.271	12411
468.350	17564
468.429	23553
468.508	25040
468.588	14322
468.667	8828
468.746	6531
468.825	5409
468.904	4974
468.983	5245
469.062	4395
469.141	4886
469.220	4209
469.299	3949
469.378	3448
469.456	4344
469.535	4527
469.614	3115
469.693	3819
469.772	4888
469.851	5089
469.930	4158
470.009	3728
470.088	3746
470.166	4473
470.245	5323
470.324	4859
470.403	3969
470.482	3866
470.560	4645
470.639	3935
470.718	3392
470.797	3195
470.875	4322
470.954	3721
471.033	4450
471.111	3405
471.190	3557
471.269	3455
471.347	3821
471.426	3436
471.505	4239
471.583	2883
471.662	3095
471.740	4265
471.819	3993
471.898	2734
471.976	4929
472.055	3756
472.133	3432
472.212	5640
472.290	2938
472.369	2797
472.447	3708
472.526	3331
472.604	4319
472.683	3214
472.761	3639
472.839	3962
472.918	3550
472.996	4218
473.075	4254
473.153	4008
473.231	3724
473.310	4243
473.388	3353
473.466	2779
473.545	4136
473.623	4512
473.701	3402
473.780	4536
473.858	3010
473.936	5224
474.014	3834
474.093	5208
474.171	5046
474.249	5414
474.327	3692
474.405	3099
474.484	3866
474.562	2692
474.640	3086
474.718	3974
474.796	3406
474.874	3749
474.952	4248
475.030	2898
475.108	3663
475.187	4072
475.265	3819
475.343	4814
475.421	3549
475.499	3529
475.577	2722
475.655	4293
475.733	4358
475.811	5327
475.889	4538
475.966	4223
476.044	3664
476.122	3662
476.200	3484
476.278	2713
476.356	3809
476.434	3447
476.512	4434
476.590	3462
476.667	4018
476.745	3435
476.823	3038
476.901	2989
476.979	2895
477.056	3086
477.134	4323
477.212	3575
477.290	3320
477.367	2743
477.445	4167
477.523	2754
477.601	2697
477.678	3948
477.756	3247
477.834	3757
477.911	3151
477.989	3258
478.066	3409
478.144	2340
478.222	2951
478.299	3230
478.377	3523
478.454	3732
478.532	3086
478.609	3086
478.687	3788
478.764	2517
478.842	2986
478.919	2803
478.997	2702
479.074	3873
479.152	3390
479.229	3463
479.307	2650
479.384	3508
479.461	3041
479.539	3019
479.616	2675
479.694	3356
479.771	3536
479.848	3492
479.926	3387
480.003	4224
480.080	3371
480.157	3304
480.235	3510
480.312	3396
480.389	3416
480.467	3222
480.544	3930
480.621	4566
480.698	4469
480.775	4378
480.853	4525
480.930	4176
481.007	4037
481.084	5355
481.161	7278
481.238	4556
481.315	4719
481.392	4160
481.470	3951
481.547	4154
481.624	4067
481.701	4857
481.778	3893
481.855	4530
481.932	5244
482.009	6484
482.086	6404
482.163	6633
482.240	8608
482.317	8117
482.393	6213
482.470	6359
482.547	6087
482.624	5782
482.701	4547
482.778	4599
482.855	5392
482.932	5354
483.009	5732
483.085	8285
483.162	9213
483.239	8972
483.316	8143
483.393	8719
483.469	6463
483.546	6062
483.623	6421
483.699	5104
483.776	4734
483.853	4930
483.930	4588
484.006	5730
484.083	7686
484.160	6352
484.236	7236
484.313	6548
484.389	5564
484.466	7587
484.543	9860
484.619	11514
484.696	13649
484.772	8170
484.849	5789
484.925	5319
485.002	5814
485.078	4383
485.155	4179
485.231	4562
485.308	3536
485.384	3548
485.461	5024
485.537	4586
485.614	5860
485.690	3663
485.766	4548
485.843	3923
485.919	4002
485.995	4531
486.072	3862
486.148	3698
486.224	4310
486.301	4733
486.377	4000
486.453	3563
486.530	4653
486.606	5647
486.682	5558
486.758	5667
486.835	6512
486.911	4525
486.987	8031
487.063	7478
487.139	8256
487.215	9589
487.292	11874
487.368	12566
487.444	16216
487.520	23930
487.596	42903
487.672	125778
487.748	331571
487.824	418265
487.900	117675
487.976	36192
488.052	19116
488.128	13366
488.204	8970
488.280	8842
488.356	8185
488.432	7975
488.508	8113
488.584	4740
488.660	4528
488.736	4893
488.812	4497
488.888	5175
488.964	4638
489.039	4175
489.115	4909
489.191	5307
489.267	4435
489.343	5009
489.418	3657
489.494	3269
489.570	3335
489.646	5794
489.722	3249
489.797	3916
489.873	4946
489.949	6329
490.024	5061
490.100	4016
490.176	3897
490.251	3320
490.327	3943
490.403	3871
490.478	4725
490.554	4106
490.629	3891
490.705	4215
490.781	4088
490.856	2510
490.932	3360
491.007	3135
491.083	3192
491.158	3125
491.234	4426
491.309	4954
491.385	3618
491.460	2460
491.536	3652
491.611	2781
491.686	3525
491.762	4011
491.837	4044
491.913	4100
491.988	4255
492.063	3129
492.139	3811
492.214	1942
492.289	2892
492.365	2533
492.440	2720
492.515	2712
492.590	2235
492.666	2004
492.741	2554
492.816	2628
492.891	1809
492.967	3073
493.042	2903
493.117	2051
493.192	3238
493.267	6176
493.342	12077
493.418	13028
493.493	2021
493.568	2998
493.643	1756
493.718	2654
493.793	1921
493.868	2660
493.943	2731
494.018	3579
494.093	2018
494.168	3393
494.243	2018
494.318	1845
494.393	2406
494.468	2268
494.543	1905
494.618	2930
494.693	2667
494.768	3143
494.842	2953
494.917	2074
494.992	3110
495.067	2117
495.142	2363
495.217	1908
495.292	2640
495.366	2138
495.441	2231
495.516	2759
495.591	2753
495.665	3673
495.740	4270
495.815	3331
495.890	1373
495.964	526
496.039	3939
496.114	4235
496.188	4574
496.263	3703
496.338	2259
496.412	1727
496.487	3043
496.561	3176
496.636	2401
496.710	2439
496.785	3167
496.860	2739
496.934	1187
497.009	1972
497.083	1727
497.158	1714
497.232	1985
497.307	2527
497.381	2869
497.455	2803
497.530	2714
497.604	2919
497.679	2496
497.753	3661
497.827	2522
497.902	2125
497.976	3348
498.050	9124
498.125	27008
498.199	16048
498.273	2628
498.348	2101
498.422	2895
498.496	2733
498.570	3568
498.645	3098
498.719	1718
498.793	2772
498.867	3819
498.941	4161
499.016	13107
499.090	22439
499.164	5033
499.238	3335
499.312	2813
499.386	2904
499.460	3005
499.534	3050
499.609	2931
499.683	2859
499.757	4407
499.831	7531
499.905	16938
499.979	9342
500.053	3077
500.127	2686
500.201	1251
500.275	2780
500.349	2949
500.422	2375
500.496	3569
500.570	4886
500.644	11879
500.718	13607
500.792	4116
500.866	3349
500.940	2790
501.013	4108
501.087	2678
501.161	3508
501.235	2831
501.309	9573
501.382	14261
501.456	8487
501.530	4129
501.603	4282
501.677	2532
501.751	1509
501.825	3815
501.898	4624
501.972	5769
502.046	3957
502.119	2187
502.193	4204
502.266	6174
502.340	4473
502.413	4696
502.487	6343
502.561	3131
502.634	3477
502.708	3579
502.781	2007
502.855	3437
502.928	2244
503.002	2925
503.075	2005
503.149	2822
503.222	3350
503.295	3091
503.369	4381
503.442	5293
503.516	8607
503.589	12808
503.662	9667
503.736	10451
503.809	14964
503.882	17669
503.956	31241
504.029	71892
504.102	188672
504.175	224294
504.249	75750
504.322	28900
504.395	15123
504.468	10132
504.542	7206
504.615	4950
504.688	5379
504.761	2658
504.834	5154
504.907	2824
504.980	3658
505.053	2457
505.127	435
505.200	5053
505.273	2445
505.346	2544
505.419	1033
505.492	2818
505.565	2861
505.638	2746
505.711	2222
505.784	785
505.857	1997
505.930	3262
506.003	648
506.076	3136
506.149	1935
506.221	197
506.294	3026
506.367	2502
506.440	7117
506.513	2667
506.586	2097
506.659	615
506.731	1534
506.804	1861
506.877	1645
506.950	1307
507.022	2629
507.095	-161
507.168	2124
507.241	2021
507.313	1199
507.386	776
507.459	2184
507.531	1378
507.604	1140
507.677	2287
507.749	554
507.822	2027
507.894	1373
507.967	1631
508.040	483
508.112	1819
508.185	2508
508.257	684
508.330	3172
508.402	1220
508.475	1473
508.547	1549
508.620	1603
508.692	1656
508.765	1432
508.837	852
508.909	2167
508.982	1840
509.054	2410
509.127	1593
509.199	1629
509.271	787
509.344	435
509.416	1893
509.488	1619
509.560	1979
509.633	697
509.705	864
509.777	1252
509.849	1775
509.922	726
509.994	1190
510.066	2370
510.138	-39
510.210	3196
510.283	1461
510.355	2352
510.427	2205
510.499	1538
510.571	1478
510.643	717
510.715	2688
510.787	474
510.859	2087
510.931	1349
511.003	1506
511.076	2145
511.148	1178
511.219	1031
511.291	2187
511.363	2544
511.435	1520
511.507	931
511.579	1914
511.651	3118
511.723	1463
511.795	1053
511.867	1107
511.939	1042
512.010	1985
512.082	2182
512.154	518
512.226	699
512.298	1490
512.369	1913
512.441	2478
512.513	1946
512.585	340
512.656	2791
512.728	1459
512.800	1212
512.871	2356
512.943	2331
513.015	469
513.086	2351
513.158	2234
513.230	521
513.301	1408
513.373	1712
513.444	1239
513.516	1530
513.588	1410
513.659	2138
513.731	1380
513.802	-119
513.874	3012
513.945	1922
514.016	865
514.088	1179
514.159	563
514.231	1516
514.302	1825
514.374	1941
514.445	393
514.516	2943
514.588	809
514.659	1474
514.730	1351
514.802	3147
514.873	-881
514.944	3981
515.016	2164
515.087	1013
515.158	1320
515.229	2630
515.301	1400
515.372	2524
515.443	1166
515.514	1083
515.585	646
515.656	1686
515.728	2553
515.799	1662
515.870	1952
515.941	2193
516.012	1241
516.083	2013
516.154	696
516.225	3206
516.296	3664
516.367	1203
516.438	2061
516.509	3107
516.580	4855
516.651	15825
516.722	29357
516.793	8869
516.864	4013
516.935	3833
517.006	5134
517.077	5414
517.148	13642
517.219	58055
517.289	57496
517.360	9537
517.431	5748
517.502	2945
517.573	3581
517.643	3470
517.714	3361
517.785	3206
517.856	3463
517.926	5948
517.997	6023
518.068	7032
518.138	11144
518.209	14647
518.280	53282
518.350	127087
518.421	36798
518.492	17783
518.562	21529
518.633	31512
518.703	55629
518.774	147870
518.845	337002
518.915	235362
518.986	64195
519.056	28052
519.127	18108
519.197	13649
519.268	13238
519.338	9854
519.408	6263
519.479	5292
519.549	4005
519.620	5262
519.690	4278
519.760	3195
519.831	4122
519.901	3164
519.971	3233
520.042	2252
520.112	2360
520.182	3321
520.253	3140
520.323	2448
520.393	1568
520.463	4238
520.534	83
520.604	4085
520.674	3774
520.744	2065
520.814	2258
520.885	3117
520.955	4112
521.025	9243
521.095	2827
521.165	3276
521.235	1102
521.305	779
521.375	2686
521.445	2901
521.515	1638
521.585	2871
521.655	490
521.725	2697
521.795	3276
521.865	1017
521.935	4555
522.005	1413
522.075	2183
522.145	3420
522.215	1508
522.285	3601
522.355	2781
522.424	4248
522.494	2829
522.564	3008
522.634	2938
522.704	4351
522.774	1255
522.843	3051
522.913	3230
522.983	1920
523.053	2447
523.122	2890
523.192	1903
523.262	1956
523.331	1707
523.401	2598
523.471	1902
523.540	3116
523.610	1820
523.680	3844
523.749	3131
523.819	4107
523.888	2661
523.958	2387
524.027	2886
524.097	2892
524.166	3320
524.236	1475
524.305	3647
524.375	2566
524.444	2017
524.514	5042
524.583	2712
524.653	2321
524.722	3555
524.791	2752
524.861	5001
524.930	3102
524.999	3352
525.069	4804
525.138	4082
525.207	4423
525.277	5739
525.346	6008
525.415	6845
525.484	7889
525.554	8745
525.623	12278
525.692	14915
525.761	18280
525.830	21679
525.900	30415
525.969	52746
526.038	107492
526.107	272314
526.176	599373
526.245	364027
526.314	132589
526.383	338944
526.452	376502
526.522	610764
526.591	376066
526.660	63566
526.729	40794
526.797	47789
526.867	85859
526.935	295816
527.004	823574
527.073	362951
527.142	54038
527.211	24182
527.280	16946
527.349	12201
527.418	8267
527.487	8576
527.555	5856
527.624	5627
527.693	4316
527.762	6995
527.831	3078
527.899	4669
527.968	3742
528.037	3251
528.106	4455
528.174	3882
528.243	3455
528.312	3857
528.380	2920
528.449	1988
528.518	4087
528.586	2344
528.655	4539
528.723	4075
528.792	2724
528.861	1899
528.929	1496
528.998	3316
529.066	2638
529.135	2996
529.203	2735
529.272	1689
529.340	4264
529.409	4843
529.477	1230
529.545	2163
529.614	5201
529.682	1888
529.751	3327
529.819	5756
529.887	3505
529.956	2659
530.024	4731
530.092	2336
530.161	3652
530.229	3930
530.297	2833
530.365	4240
530.434	4416
530.502	4166
530.570	4128
530.638	2448
530.707	4092
530.775	4797
530.843	3437
530.911	3306
530.979	4260
531.047	3073
531.115	5115
531.183	2882
531.252	4025
531.320	3949
531.388	2516
531.456	4292
531.524	2512
531.592	4607
531.660	6042
531.728	2715
531.796	3310
531.864	4514
531.932	3729
532.000	3591
532.067	4629
532.135	4708
532.203	5357
532.271	2891
532.339	6232
532.407	5324
532.475	4854
532.542	6480
532.610	5578
532.678	3442
532.746	7439
532.814	6558
532.881	5561
532.949	5985
533.017	5216
533.084	4893
533.152	4105
533.220	5323
533.287	3332
533.355	4076
533.423	5803
533.490	4243
533.558	5038
533.625	5707
533.693	4687
533.761	5112
533.828	5991
533.896	4033
533.963	6622
534.031	6878
534.098	8341
534.166	9538
534.233	9186
534.300	11192
534.368	10746
534.435	10138
534.503	11845
534.570	12784
534.637	14789
534.705	16205
534.772	25530
534.840	72163
534.907	311167
534.974	239691
535.041	26459
535.109	12696
535.176	10619
535.243	10640
535.310	8939
535.378	7944
535.445	8147
535.512	8521
535.579	8823
535.646	8336
535.714	9501
535.781	10037
535.848	10027
535.915	9258
535.982	7930
536.049	7562
536.116	9936
536.183	8296
536.250	8301
536.317	8328
536.384	9393
536.451	8531
536.518	9751
536.585	6857
536.652	10535
536.719	9475
536.786	7276
536.853	8995
536.920	10252
536.987	8410
537.053	8428
537.120	10921
537.187	10581
537.254	8954
537.321	9412
537.388	10733
537.454	9032
537.521	8717
537.588	9883
537.654	10274
537.721	10434
537.788	10650
537.855	9098
537.921	9602
537.988	8928
538.055	9470
538.121	7721
538.188	8116
538.254	8222
538.321	8932
538.388	10348
538.454	10136
538.521	10806
538.587	9965
538.654	10334
538.720	9618
538.787	9806
538.853	9786
538.920	9481
538.986	8341
539.053	8547
539.119	8630
539.185	8766
539.252	10497
539.318	10785
539.385	12246
539.451	8733
539.517	9664
539.583	10728
539.650	9950
539.716	10067
539.782	8581
539.849	8717
539.915	10446
539.981	9509
540.047	8791
540.114	9621
540.180	11664
540.246	8778
540.312	10906
540.378	10788
540.444	10727
540.510	11102
540.576	11041
540.643	9370
540.709	9180
540.775	9778
540.841	8856
540.907	10115
540.973	10311
541.039	9867
541.105	10623
541.171	10196
541.237	10579
541.303	10284
541.369	12719
541.435	10705
541.500	10606
541.566	8330
541.632	8739
541.698	9498
541.764	11221
541.830	9169
541.896	10321
541.961	9581
542.027	8777
542.093	11998
542.159	10080
542.224	8920
542.290	10894
542.356	9922
542.421	9685
542.487	9728
542.553	9610
542.618	9186
542.684	9556
542.750	10456
542.815	10643
542.881	9879
542.947	11336
543.012	10654
543.078	9922
543.143	9449
543.209	9501
543.274	9285
543.340	10037
543.405	10173
543.471	10032
543.536	10742
543.602	10677
543.667	9078
543.732	11438
543.798	9749
543.863	10993
543.928	10937
543.994	10798
544.059	11670
544.124	11980
544.190	11709
544.255	11873
544.320	12046
544.386	10222
544.451	11650
544.516	12393
544.581	11374
544.646	11893
544.712	13160
544.777	11458
544.842	11313
544.907	11913
544.972	12672
545.037	13190
545.102	12951
545.168	12380
545.233	13615
545.298	14349
545.363	12864
545.428	14657
545.493	15890
545.558	13409
545.623	14316
545.688	13685
545.753	14907
545.818	15593
545.883	16374
545.947	16383
546.012	17931
546.077	16685
546.142	19198
546.207	19754
546.272	20915
546.337	20319
546.401	22525
546.466	23291
546.531	24371
546.596	26352
546.661	27062
546.725	28936
546.790	30697
546.855	33606
546.919	36390
546.984	41355
547.049	44974
547.113	51093
547.178	56111
547.243	64451
547.307	75910
547.372	81428
547.436	81999
547.501	88275
547.565	92376
547.630	82579
547.695	82033
547.759	81591
547.823	82046
547.888	84868
547.952	87169
548.017	91307
548.081	92546
548.146	91099
548.210	95258
548.274	102300
548.339	97115
548.403	88594
548.468	82921
548.532	83471
548.596	85683
548.660	87127
548.725	96430
548.789	102869
548.853	97295
548.917	95241
548.982	90743
549.046	80728
549.110	74287
549.174	79345
549.238	93562
549.303	100613
549.367	100345
549.431	94523
549.495	89331
549.559	92260
549.623	108752
549.687	113372
549.751	117519
549.815	138504
549.879	135962
549.943	131838
550.007	139486
550.071	133266
550.135	120384
550.199	115270
550.263	113115
550.327	107517
550.391	110909
550.455	124603
550.519	131331
550.582	141836
550.646	157355
550.710	157212
550.774	156419
550.838	157691
550.901	164621
550.965	173039
551.029	181980
551.093	196781
551.156	221068
551.220	255250
551.284	266571
551.347	196195
551.411	170585
551.475	164484
551.538	168291
551.602	153760
551.666	147784
551.729	134739
551.793	134336
551.856	131404
551.920	130173
551.983	130229
552.047	128597
552.110	131485
552.174	131744
552.237	133628
552.301	123046
552.364	117030
552.428	114450
552.491	119894
552.554	119992
552.618	120864
552.681	123657
552.745	116727
552.808	123748
552.871	127647
552.934	124181
552.998	121113
553.061	119057
553.124	112896
553.187	115153
553.251	116522
553.314	116359
553.377	118615
553.440	128830
553.503	137616
553.567	137446
553.630	125999
553.693	126154
553.756	126154
553.819	123105
553.882	116878
553.945	119671
554.008	119092
554.071	119862
554.134	121027
554.197	112937
554.260	110628
554.323	114585
554.386	115779
554.449	121175
554.512	121439
554.575	114259
554.638	114563
554.701	113456
554.764	111068
554.827	107583
554.889	102179
554.952	97396
555.015	95655
555.078	97933
555.141	98960
555.203	96573
555.266	97234
555.329	94856
555.391	92227
555.454	92283
555.517	87806
555.580	85738
555.642	81980
555.705	80179
555.768	79868
555.830	76792
555.893	75024
555.955	71345
556.018	70644
556.080	71620
556.143	73425
556.206	71295
556.268	70355
556.330	68387
556.393	67688
556.455	66055
556.518	64412
556.580	62389
556.643	59923
556.705	59303
556.767	58052
556.830	56992
556.892	56764
556.955	55710
557.017	54467
557.079	54612
557.142	52136
557.204	52097
557.266	51813
557.328	48956
557.391	45092
557.453	45669
557.515	45322
557.577	46428
557.639	47255
557.701	47099
557.764	46005
557.826	49001
557.888	50203
557.950	52430
558.012	59838
558.074	89304
558.136	231105
558.198	369434
558.260	102801
558.322	55033
558.384	55385
558.446	59267
558.508	62086
558.570	70227
558.632	81259
558.694	111875
558.756	220623
558.818	644773
558.880	904786
558.942	375423
559.003	409760
559.065	146626
559.127	72913
559.189	69627
559.251	82764
559.312	138376
559.374	374851
559.436	764906
559.498	267485
559.559	81155
559.621	71233
559.683	89131
559.744	173457
559.806	518933
559.868	477707
559.929	103675
559.991	87020
560.052	182248
560.114	401510
560.176	195917
560.237	282059
560.299	291209
560.360	54751
560.422	31143
560.483	26032
560.545	24262
560.606	22446
560.667	20898
560.729	20168
560.790	19763
560.852	19437
560.913	18639
560.974	17143
561.036	17369
561.097	18046
561.158	16919
561.220	18074
561.281	15867
561.342	15835
561.403	16452
561.465	14675
561.526	17096
561.587	15793
561.648	14344
561.709	14302
561.771	14429
561.832	13977
561.893	13988
561.954	14037
562.015	13673
562.076	13074
562.137	13814
562.198	13227
562.259	13244
562.320	13300
562.381	13059
562.442	12795
562.503	12697
562.564	13283
562.625	12280
562.686	12458
562.747	12119
562.808	11772
562.869	11986
562.930	11937
562.991	11706
563.051	11386
563.112	12401
563.173	10885
563.234	10533
563.294	10350
563.355	11387
563.416	11258
563.477	11298
563.537	10220
563.598	11121
563.659	11890
563.720	10767
563.780	10735
563.841	10536
563.901	11356
563.962	10776
564.023	10947
564.083	10203
564.144	10706
564.204	9381
564.265	10272
564.325	10801
564.386	10730
564.446	10137
564.507	10133
564.567	9116
564.628	9899
564.688	8921
564.749	9461
564.809	10317
564.869	9685
564.930	9122
564.990	10290
565.050	9764
565.111	9620
565.171	10111
565.231	9625
565.292	10344
565.352	9421
565.412	10814
565.472	9200
565.532	8721
565.593	8703
565.653	9188
565.713	9535
565.773	10400
565.833	10716
565.893	10977
565.953	8870
566.013	9399
566.074	8651
566.134	9005
566.194	8654
566.254	9114
566.314	9111
566.374	9316
566.434	9960
566.494	9902
566.554	9463
566.614	9605
566.673	9860
566.733	9202
566.793	10118
566.853	9771
566.913	9895
566.973	10339
567.033	9820
567.092	9864
567.152	9262
567.212	10501
567.272	9422
567.331	9626
567.391	9862
567.451	11764
567.511	10783
567.570	11168
567.630	11212
567.690	10401
567.749	9586
567.809	10278
567.868	9367
567.928	9574
567.988	9836
568.047	10888
568.107	10545
568.166	10742
568.226	10083
568.285	10622
568.345	10363
568.404	10464
568.464	9749
568.523	9428
568.582	10070
568.642	10021
568.701	9793
568.761	10101
568.820	10723
568.879	9547
568.939	11652
568.998	10813
569.057	10408
569.116	9357
569.176	10340
569.235	10201
569.294	9954
569.353	9376
569.413	9011
569.472	9581
569.531	9451
569.590	8614
569.649	10439
569.708	9130
569.767	9689
569.827	9238
569.886	9226
569.945	9315
570.004	9421
570.063	9888
570.122	10120
570.181	10833
570.240	10269
570.299	11239
570.358	10605
570.417	9838
570.475	9537
570.534	10534
570.593	10387
570.652	11317
570.711	10416
570.770	10066
570.829	10345
570.887	11188
570.946	11212
571.005	10756
571.064	10557
571.122	10992
571.181	10412
571.240	10309
571.299	10137
571.357	9779
571.416	10705
571.475	9305
571.533	10707
571.592	11312
571.650	11600
571.709	12510
571.768	12926
571.826	14032
571.885	12337
571.943	11181
572.002	10790
572.060	9920
572.119	10820
572.177	10517
572.236	10042
572.294	11060
572.352	11687
572.411	11301
572.469	10420
572.528	10875
572.586	10109
572.644	10428
572.703	9784
572.761	9877
572.819	9782
572.877	8894
572.936	9127
572.994	8878
573.052	9490
573.110	9349
573.169	10409
573.227	9598
573.285	10408
573.343	9578
573.401	9237
573.459	11054
573.517	10218
573.576	11399
573.634	10084
573.692	10872
573.750	10346
573.808	10443
573.866	9754
573.924	10029
573.982	9691
574.040	9871
574.098	9506
574.155	9543
574.213	10516
574.271	9733
574.329	10116
574.387	9525
574.445	9231
574.503	9321
574.560	9409
574.618	8902
574.676	8703
574.734	8947
574.792	8416
574.849	8521
574.907	7594
574.965	7705
575.022	6633
575.080	8030
575.138	7776
575.195	6874
575.253	7112
575.311	7614
575.368	8167
575.426	7365
575.483	7359
575.541	7990
575.598	7991
575.656	7212
575.713	8194
575.771	9088
575.828	8716
575.886	6800
575.943	7804
576.001	7505
576.058	7074
576.115	6679
576.173	7137
576.230	7458
576.287	7400
576.345	7575
576.402	7727
576.459	7528
576.517	7624
576.574	6835
576.631	8153
576.688	7312
576.746	6881
576.803	6458
576.860	7446
576.917	7082
576.974	7558
577.031	7286
577.089	7734
577.146	6401
577.203	6672
577.260	7356
577.317	5976
577.374	7120
577.431	6934
577.488	6711
577.545	5559
577.602	6835
577.659	6331
577.716	8027
577.773	7525
577.830	6129
577.886	7275
577.943	5913
578.000	6076
578.057	7050
578.114	7144
578.171	7650
578.227	7210
578.284	6647
578.341	7028
578.398	7074
578.454	6976
578.511	6479
578.568	7445
578.625	6133
578.681	6728
578.738	6518
578.794	6967
578.851	7336
578.908	7534
578.964	6773
579.021	7768
579.077	6509
579.134	7108
579.190	7001
579.247	7461
579.303	7454
579.360	6833
579.416	6087
579.473	6432
579.529	7338
579.586	7312
579.642	7133
579.698	7423
579.755	7308
579.811	7369
579.867	8030
579.924	7197
579.980	7346
580.036	8724
580.093	8475
580.149	7770
580.205	9159
580.261	7852
580.317	8792
580.374	8275
580.430	9536
580.486	7704
580.542	7377
580.598	7616
580.619	8103
580.654	8958
580.692	8647
580.710	8505
580.765	8665
580.767	8677
580.823	8228
580.838	8378
580.879	8806
580.911	8505
580.935	8291
580.984	8959
580.991	9061
581.047	8909
581.057	8808
581.103	8384
581.130	8196
581.159	8019
581.203	8222
581.215	8285
581.270	7877
581.276	7890
581.326	8013
581.349	7945
581.382	7844
581.422	7497
581.438	7362
581.494	7095
581.494	7096
581.550	7520
581.567	7609
581.606	7802
581.640	7353
581.661	7127
581.713	8126
581.717	8207
581.773	7452
581.786	7721
581.829	8497
581.859	8487
581.885	8563
581.932	8648
581.940	8654
581.996	9168
582.004	9058
582.052	8446
582.077	8235
582.107	8009
582.150	8172
582.163	8221
582.219	7065
582.223	7106
582.274	7690
582.296	7735
582.330	7791
582.368	7977
582.386	8077
582.441	8764
582.441	8766
582.497	8330
582.514	8236
582.552	8199
582.587	8162
582.608	8057
582.659	8497
582.663	8540
582.719	8463
582.732	8417
582.774	8203
582.805	8220
582.830	8277
582.877	8580
582.885	8640
582.941	8479
582.950	8548
582.996	8753
583.023	8791
583.052	8986
583.095	9112
583.107	9089
583.162	8299
583.168	8440
583.218	9651
583.240	9061
583.273	8228
583.313	8884
583.328	9257
583.384	8124
583.385	8160
583.439	8607
583.458	8427
583.494	8275
583.531	8515
583.549	8712
583.603	8502
583.605	8487
583.660	8622
583.676	8653
583.715	8780
583.748	8737
583.770	8752
583.820	8979
583.825	8970
583.881	9484
583.893	9170
583.936	8414
583.965	8602
583.991	8626
584.038	9032
584.046	9138
584.101	8720
584.110	8767
584.156	8822
584.183	8810
584.211	9033
584.255	10012
584.266	10161
584.321	9978
584.328	9969
584.376	10052
584.400	10043
584.431	9985
584.472	9723
584.486	9689
584.541	10328
584.545	10388
584.596	11327
584.617	11376
584.651	11615
584.689	12251
584.706	12341
584.761	11951
584.762	11949
584.816	12662
584.834	13243
584.871	14051
584.906	14459
584.926	14798
584.978	15130
584.980	15141
585.035	16642
585.051	17004
585.090	18412
585.123	19892
585.145	20867
585.195	22566
585.200	22823
585.254	27025
585.267	28136
585.309	32248
585.340	35837
585.364	38773
585.412	45429
585.419	46696
585.473	60199
585.484	64293
585.528	87644
585.556	112041
585.583	153883
585.628	252869
585.637	286148
585.692	573424
585.700	602526
585.747	680899
585.772	596396
585.801	383360
585.845	167384
585.856	140393
585.910	68977
585.917	61488
585.965	44729
585.989	37862
586.019	33451
586.061	28490
586.074	27499
586.128	25358
586.133	25043
586.183	22489
586.205	21786
586.237	21406
586.277	21260
586.292	21235
586.346	20273
586.349	20241
586.401	19979
586.421	19908
586.455	19942
586.493	20087
586.509	20225
586.564	20201
586.565	20226
586.618	22976
586.637	23889
586.672	26722
586.709	30480
586.727	32346
586.781	35524
586.781	35535
586.835	27106
586.853	25374
586.889	23081
586.925	20773
586.944	20236
586.996	20055
586.998	20069
587.052	19820
587.068	19551
587.106	19498
587.140	19777
587.161	19717
587.212	19726
587.215	19775
587.269	19831
587.284	20114
587.323	20417
587.356	20553
587.377	20943
587.427	21472
587.431	21516
587.485	22321
587.499	22447
587.539	22572
587.571	22512
587.593	22981
587.643	24866
587.648	24986
587.702	25171
587.715	25350
587.755	25458
587.786	25317
587.810	25607
587.858	25969
587.864	25983
587.917	26023
587.930	26000
587.971	25969
588.001	26029
588.025	26212
588.073	26427
588.079	26476
588.133	26628
588.145	26728
588.187	26697
588.217	26664
588.241	27438
588.288	28939
588.295	29034
588.348	29246
588.360	29316
588.402	30442
588.431	31158
588.456	31574
588.503	32923
588.510	33260
588.564	35769
588.575	36270
588.617	38331
588.646	39815
588.671	41582
588.718	46182
588.725	47429
588.778	58951
588.789	62006
588.832	91742
588.861	116373
588.886	160614
588.932	260742
588.939	270323
588.993	309887
589.004	307404
589.047	175375
589.075	103693
589.100	81822
589.147	49275
589.154	48308
589.207	43120
589.218	41893
589.261	41383
589.290	41730
589.314	43172
589.361	47241
589.368	48889
589.421	64268
589.433	68473
589.475	114865
589.504	153227
589.528	197460
589.576	276842
589.582	268630
589.635	147396
589.647	125529
589.689	74616
589.718	43242
589.742	39729
589.790	33158
589.795	33076
589.849	32222
589.861	32003
589.902	31066
589.932	30250
589.955	30067
590.004	29939
590.009	29967
590.062	29973
590.075	29865
590.115	29138
590.146	28662
590.168	28810
590.218	29001
590.222	29064
590.275	29524
590.289	29604
590.328	29818
590.360	29874
590.381	30346
590.431	31649
590.435	31668
590.488	30998
590.503	30842
590.541	31310
590.574	31638
590.594	32033
590.645	33025
590.647	33098
590.700	33947
590.716	34155
590.753	34861
590.787	35528
590.806	35755
590.859	36364
590.859	36417
590.912	37023
590.930	37246
590.965	38195
591.001	39116
591.018	38806
591.071	37585
591.072	37528
591.124	36844
591.143	36555
591.177	36953
591.214	37348
591.230	37659
591.283	38689
591.285	38670
591.336	38033
591.356	37736
591.389	38113
591.427	38479
591.442	38312
591.495	37444
591.498	37336
591.547	37827
591.569	38003
591.600	38237
591.640	38379
591.653	38636
591.706	39494
591.711	39554
591.759	40035
591.782	40124
591.811	41578
591.853	43638
591.864	43413
591.917	42004
591.924	41737
591.969	42776
591.995	43284
592.022	43362
592.066	43411
592.075	43749
592.127	45460
592.137	45721
592.180	45849
592.208	45845
592.233	46241
592.279	46786
592.285	47107
592.338	49354
592.350	49792
592.390	49779
592.421	49655
592.443	50225
592.491	51306
592.495	51380
592.548	51467
592.562	51432
592.600	51838
592.633	52056
592.653	52066
592.704	51623
592.705	51947
592.775	53420
592.846	54328
592.916	54914
592.987	54884
593.058	54937
593.128	56500
593.199	56880
593.270	56783
593.341	58105
593.411	60304
593.482	61975
593.553	64038
593.623	65315
593.694	66410
593.764	68448
593.835	66360
593.906	67741
593.976	68930
594.047	70955
594.117	76147
594.188	77699
594.258	76283
594.329	76801
594.399	78449
594.470	81835
594.540	84169
594.611	86031
594.681	85475
594.751	86492
594.822	88773
594.892	92453
594.963	94873
595.033	95774
595.103	99366
595.174	100183
595.244	102426
595.314	106926
595.384	108956
595.455	111629
595.525	115485
595.595	120105
595.665	119843
595.736	116059
595.806	121373
595.876	120860
595.946	123395
596.016	125946
596.087	130051
596.157	130402
596.227	132057
596.297	139885
596.367	147587
596.437	156488
596.507	157364
596.577	155663
596.647	161246
596.717	168284
596.787	172777
596.857	172852
596.927	171874
596.997	172455
597.067	174578
597.137	178015
597.207	177619
597.277	180248
597.347	173065
597.417	166031
597.487	167265
597.557	170639
597.626	176230
597.696	177885
597.766	176328
597.836	166288
597.906	158266
597.975	155055
598.045	158116
598.115	165008
598.185	178913
598.254	197440
598.324	214297
598.394	217722
598.464	211383
598.533	205976
598.603	194639
598.672	187829
598.742	193279
598.812	191606
598.881	197901
598.951	195696
599.020	199952
599.090	207110
599.159	209736
599.229	200216
599.299	197618
599.368	203526
599.437	200874
599.507	184729
599.576	177641
599.646	175268
599.715	173497
599.785	170478
599.854	166390
599.924	165525
599.993	163718
600.062	169013
600.132	170372
600.201	181844
600.270	207670
600.340	221793
600.409	216005
600.478	215005
600.547	221463
600.617	199537
600.686	159995
600.755	145206
600.824	137295
600.894	135258
600.963	135915
601.032	132347
601.101	128410
601.170	120494
601.239	117643
601.308	116811
601.378	117689
601.447	117912
601.516	119121
601.585	120105
601.654	122710
601.723	120394
601.792	125944
601.861	129929
601.930	134792
601.999	134281
602.068	133899
602.137	135784
602.206	138717
602.275	142061
602.343	142821
602.412	143093
602.481	144376
602.550	146332
602.619	150333
602.688	151299
602.756	154217
602.825	154097
602.894	159958
602.963	161167
603.032	163815
603.100	164910
603.169	164069
603.238	166613
603.307	166574
603.375	170849
603.444	174315
603.513	175555
603.581	179663
603.650	179002
603.719	177913
603.787	182716
603.856	188954
603.924	192058
603.993	198874
604.061	206499
604.130	216451
604.198	217747
604.267	222352
604.335	226032
604.404	231284
604.472	234780
604.541	234275
604.609	237378
604.678	238537
604.746	239558
604.815	244113
604.883	248468
604.951	248567
605.020	252855
605.088	259239
605.156	264765
605.225	267665
605.293	267351
605.361	266335
605.429	270483
605.498	276751
605.566	282437
605.634	293948
605.702	303701
605.771	313902
605.839	313005
605.907	308912
605.975	298826
606.043	293240
606.111	292924
606.180	292704
606.248	289499
606.316	286944
606.384	286127
606.452	288112
606.520	293742
606.588	305296
606.656	305648
606.724	303607
606.792	285724
606.860	261183
606.928	237774
606.996	227193
607.064	224168
607.132	231172
607.200	242476
607.267	252480
607.335	257117
607.403	261982
607.471	252972
607.539	246480
607.607	248052
607.674	217367
607.742	216943
607.810	215447
607.878	218885
607.946	221504
608.013	232384
608.081	236830
608.149	237416
608.216	248126
608.284	254394
608.352	253778
608.419	251519
608.487	245228
608.555	241831
608.622	251279
608.690	265399
608.757	291411
608.825	297775
608.893	290565
608.960	272620
609.028	260130
609.095	262342
609.163	259730
609.230	235071
609.298	215872
609.365	226632
609.432	244096
609.500	264977
609.567	302864
609.635	340210
609.702	356091
609.769	338212
609.837	270567
609.904	236171
609.971	244539
610.039	267291
610.106	330755
610.173	541317
610.241	1017040
610.308	702972
610.375	323257
610.442	266345
610.509	248918
610.577	245629
610.644	247713
610.711	256485
610.778	261129
610.845	272012
610.912	285082
610.980	297257
611.047	298117
611.114	291916
611.181	281553
611.248	283108
611.315	297064
611.382	302862
611.449	313568
611.516	319774
611.583	312005
611.650	316966
611.717	321547
611.784	326577
611.851	341893
611.918	356488
611.984	406399
612.051	517088
612.118	806753
612.185	1370571
612.252	1103370
612.319	551495
612.386	432634
612.452	387594
612.519	364558
612.586	354204
612.653	360983
612.719	370117
612.786	355649
612.853	333647
612.919	325231
612.986	328014
613.053	312054
613.120	292658
613.186	283980
613.253	285502
613.319	285102
613.386	286639
613.453	292517
613.519	292317
613.586	285310
613.652	291502
613.719	287548
613.785	293478
613.852	295610
613.918	292497
613.985	296934
614.051	308224
614.118	307386
614.184	296747
614.250	292176
614.317	300748
614.383	294875
614.449	299553
614.516	297602
614.582	301987
614.648	296533
614.715	294232
614.781	285939
614.847	285209
614.914	286606
614.980	277545
615.046	279424
615.112	286783
615.179	289090
615.245	290742
615.311	287877
615.377	291135
615.443	295479
615.509	297832
615.575	307822
615.642	307987
615.708	313201
615.774	327164
615.840	345949
615.906	366077
615.972	426409
616.038	576476
616.104	954493
616.170	1487516
616.236	1363494
616.302	752430
616.368	583657
616.434	438674
616.500	387870
616.565	423387
616.631	526370
616.697	447170
616.763	446035
616.829	617075
616.895	1005733
616.961	983229
617.026	527004
617.092	361604
617.158	325108
617.224	307864
617.289	285085
617.355	270050
617.421	264406
617.487	263811
617.552	251967
617.618	248265
617.684	250030
617.749	248973
617.815	240592
617.880	234599
617.946	235349
618.012	238814
618.077	243857
618.143	234382
618.208	234387
618.274	251683
618.339	251929
618.405	210800
618.470	210294
618.536	211312
618.601	206000
618.667	191414
618.732	182236
618.798	181818
618.863	180781
618.928	178952
618.994	181556
619.059	178991
619.124	181810
619.190	178216
619.255	178864
619.320	178589
619.386	180203
619.451	178908
619.516	169853
619.581	175587
619.647	181222
619.712	181804
619.777	173654
619.842	171661
619.907	178264
619.972	180439
620.038	179175
620.103	173228
620.168	174427
620.233	176226
620.298	177190
620.363	180764
620.428	185147
620.493	188820
620.558	192021
620.623	192708
620.688	192372
620.753	189513
620.818	196146
620.883	194800
620.948	195849
621.013	193508
621.078	189479
621.143	192721
621.207	195442
621.272	189727
621.337	184827
621.402	184571
621.467	182535
621.532	183642
621.596	182759
621.661	180485
621.726	177629
621.791	178673
621.855	177952
621.920	176354
621.985	179928
622.049	183187
622.114	183361
622.179	184912
622.243	190343
622.308	195626
622.373	205507
622.437	198802
622.502	188616
622.566	186584
622.631	187561
622.695	191688
622.760	189305
622.824	188593
622.889	187941
622.953	189583
623.018	200623
623.082	202474
623.147	200032
623.211	196430
623.276	198178
623.340	189017
623.404	183828
623.469	182757
623.533	186330
623.597	181774
623.662	180979
623.726	170049
623.790	158324
623.854	153545
623.919	158207
623.983	159559
624.047	163242
624.111	163686
624.176	167808
624.240	168446
624.304	172860
624.368	169678
624.432	168405
624.496	171531
624.560	180778
624.625	183739
624.689	181335
624.753	188969
624.817	181291
624.881	176097
624.945	161330
625.009	155872
625.073	156427
625.137	163097
625.201	171363
625.265	170510
625.329	164259
625.393	164415
625.456	166448
625.520	169865
625.584	173780
625.648	175760
625.712	180001
625.776	181294
625.839	170692
625.903	145735
625.967	136693
626.031	145518
626.095	171269
626.158	158477
626.222	127361
626.286	119772
626.349	116108
626.413	106917
626.477	106455
626.540	108783
626.604	108272
626.668	106041
626.731	103295
626.795	103992
626.858	104505
626.922	102670
626.986	100680
627.049	101112
627.113	105891
627.176	101142
627.240	100773
627.303	101294
627.366	98236
627.430	100666
627.493	100281
627.557	95410
627.620	99714
627.684	102623
627.747	105168
627.810	94514
627.874	86106
627.937	82175
628.000	86860
628.064	83610
628.127	75797
628.190	74644
628.253	71893
628.317	69805
628.380	65717
628.443	64963
628.506	64010
628.569	62142
628.632	58432
628.696	58621
628.759	59147
628.822	56267
628.885	54610
628.948	53398
629.011	52645
629.074	50924
629.137	49419
629.200	48020
629.263	49400
629.326	46553
629.389	48459
629.452	47446
629.515	46235
629.578	45466
629.641	47042
629.704	45590
629.767	46304
629.830	44646
629.892	43686
629.955	43751
630.018	47182
630.081	44215
630.144	44338
630.207	42371
630.269	44578
630.332	41461
630.395	41917
630.458	41670
630.520	38492
630.583	40811
630.646	41251
630.708	40760
630.771	41496
630.834	45516
630.896	42869
630.959	42385
631.021	42237
631.084	42317
631.146	41603
631.209	43334
631.272	42391
631.334	44283
631.397	45981
631.459	45655
631.522	49736
631.584	50847
631.646	54282
631.709	55819
631.771	56341
631.834	53642
631.896	51090
631.958	46686
632.021	47120
632.083	42808
632.145	42790
632.208	40499
632.270	42894
632.332	39727
632.395	40872
632.457	40468
632.519	39549
632.581	40765
632.643	38945
632.706	39168
632.768	38382
632.830	39614
632.892	40278
632.954	40544
633.016	42804
633.078	40099
633.141	41075
633.203	39020
633.265	41230
633.327	40395
633.389	40283
633.451	41564
633.513	40091
633.575	42619
633.637	41501
633.698	41617
633.760	46332
633.822	47326
633.884	48543
633.946	49723
634.008	51856
634.070	55025
634.132	57856
634.193	63839
634.255	71313
634.317	71226
634.379	68983
634.441	62677
634.502	55606
634.564	49902
634.626	47014
634.687	43812
634.749	42572
634.811	41768
634.873	39827
634.934	41350
634.996	41348
635.057	40174
635.119	40958
635.181	43279
635.242	43915
635.304	41385
635.365	45841
635.427	43272
635.488	42634
635.550	41887
635.611	43579
635.673	43614
635.734	47759
635.796	49774
635.857	57845
635.918	59553
635.980	67452
636.041	70916
636.102	77939
636.164	78192
636.225	75126
636.286	63134
636.348	58169
636.409	49719
636.470	46351
636.531	44447
636.593	42250
636.654	40843
636.715	38323
636.776	37747
636.838	37216
636.899	36166
636.960	34072
637.021	34382
637.082	33619
637.143	33557
637.204	31910
637.265	31682
637.326	33519
637.387	33769
637.448	32717
637.509	34488
637.570	32557
637.631	33203
637.692	30806
637.753	30985
637.814	31396
637.875	30084
637.936	31254
637.997	30382
638.058	29865
638.119	29583
638.179	30112
638.240	30193
638.301	30494
638.362	27848
638.423	27618
638.483	28985
638.544	25559
638.605	27557
638.666	27447
638.726	27997
638.787	27862
638.848	27727
638.908	25989
638.969	26578
639.030	25403
639.090	24728
639.151	25852
639.211	27712
639.272	27000
639.332	27326
639.393	28406
639.453	30465
639.514	32431
639.574	27596
639.635	25910
639.695	25040
639.756	24784
639.816	24873
639.877	24484
639.937	25841
639.997	25153
640.058	23956
640.118	24428
640.178	25090
640.239	24853
640.299	24674
640.359	25363
640.420	28075
640.480	31999
640.540	37763
640.600	38487
640.661	32524
640.721	30607
640.781	32475
640.841	27918
640.901	26560
640.961	26936
641.021	26919
641.082	29819
641.142	25663
641.202	25787
641.262	21545
641.322	24091
641.382	22120
641.442	23266
641.502	22953
641.562	24036
641.622	24084
641.682	27344
641.742	31168
641.802	30150
641.861	24408
641.921	22985
641.981	22375
642.041	21373
642.101	20534
642.161	19951
642.221	21433
642.280	22606
642.340	20873
642.400	21994
642.460	22739
642.519	22863
642.579	22380
642.639	24535
642.698	21301
642.758	25536
642.818	24198
642.877	23171
642.937	23318
642.997	23216
643.056	22644
643.116	21965
643.175	23522
643.235	24802
643.294	25335
643.354	27486
643.414	30813
643.473	34683
643.532	40822
643.592	54753
643.651	80644
643.711	133796
643.770	245045
643.830	526729
643.889	866202
643.948	338727
644.008	95076
644.067	53975
644.126	39315
644.186	33367
644.245	29586
644.304	25993
644.363	28035
644.423	23582
644.482	24684
644.541	27283
644.600	26616
644.659	34229
644.719	42199
644.778	62923
644.837	105552
644.896	213039
644.955	439055
645.014	166145
645.073	45994
645.132	33242
645.191	30062
645.250	27711
645.309	30059
645.368	34232
645.427	46464
645.486	80422
645.545	143331
645.604	43893
645.663	26336
645.722	25029
645.781	28053
645.840	29319
645.898	36274
645.957	50028
646.016	73244
646.075	124782
646.134	231949
646.192	536019
646.251	694812
646.310	189244
646.369	67473
646.427	51374
646.486	36731
646.545	28882
646.603	25553
646.662	23975
646.721	22097
646.779	22446
646.838	23495
646.896	30094
646.955	40924
647.014	65187
647.072	123328
647.131	316602
647.189	160275
647.248	30782
647.306	22583
647.365	20255
647.423	16525
647.481	18220
647.540	15312
647.598	16648
647.657	16262
647.715	17079
647.773	15127
647.832	15396
647.890	12921
647.948	14075
648.007	14079
648.065	12896
648.123	12668
648.181	15318
648.240	13470
648.298	12661
648.356	12760
648.414	14125
648.472	12996
648.531	11707
648.589	12047
648.647	12609
648.705	12341
648.763	12862
648.821	14113
648.879	14176
648.937	16452
648.995	19690
649.053	24219
649.111	37371
649.169	59206
649.227	104765
649.285	213179
649.343	520794
649.401	279725
649.459	52544
649.516	28194
649.574	21250
649.632	23268
649.690	26734
649.748	32009
649.806	47108
649.863	89628
649.921	239578
649.979	163434
650.037	25652
650.094	14124
650.152	14094
650.210	11052
650.268	11954
650.325	11883
650.383	12278
650.440	9384
650.498	9671
650.556	9242
650.613	9673
650.671	10082
650.728	10534
650.786	10992
650.843	17104
650.901	11556
650.958	8587
651.016	7937
651.073	8659
651.131	8004
651.188	8042
651.246	6950
651.303	6287
651.360	7830
651.418	7283
651.475	7480
651.532	6867
651.590	7985
651.647	6131
651.704	7240
651.762	6809
651.819	6744
651.876	6608
651.933	5763
651.990	7457
652.048	5415
652.105	6067
652.162	6962
652.219	6210
652.276	7153
652.333	6460
652.390	5101
652.448	6814
652.505	5905
652.562	6958
652.619	6416
652.676	7128
652.733	6617
652.790	6604
652.847	4800
652.904	6510
652.961	5037
653.017	4601
653.074	5561
653.131	5761
653.188	4280
653.245	5068
653.302	5617
653.359	6101
653.415	6015
653.472	5654
653.529	6324
653.586	4881
653.642	5453
653.699	6632
653.756	5129
653.813	5470
653.869	6374
653.926	5964
653.983	5353
654.039	5495
654.096	5334
654.152	6254
654.209	4043
654.266	5584
654.322	4241
654.379	4915
654.435	5409
654.492	4202
654.548	5144
654.605	4304
654.661	6291
654.717	5464
654.774	5173
654.830	4735
654.887	4333
654.943	5671
655.000	5698
655.056	5978
655.112	5178
655.168	4380
655.225	5465
655.281	5968
655.337	4426
655.394	4494
655.450	4966
655.506	5247
655.562	3903
655.618	5601
655.675	4205
655.731	4476
655.787	4345
655.843	5174
655.899	4377
655.955	5621
656.011	4069
656.067	3591
656.123	5479
656.179	4087
656.235	6021
656.291	4286
656.347	5755
656.403	4381
656.459	4765
656.515	4513
656.571	4070
656.627	4924
656.683	3752
656.739	5506
656.795	5147
656.850	4818
656.906	5010
656.962	5932
657.018	4752
657.074	6742
657.129	10715
657.185	17127
657.241	40329
657.297	22307
657.352	6160
657.408	5045
657.464	5216
657.519	4718
657.575	3704
657.630	4545
657.686	3651
657.742	3527
657.797	4221
657.853	2926
657.908	4655
657.964	3259
658.019	4305
658.075	3955
658.130	5364
658.186	3760
658.241	3876
658.297	3475
658.352	3839
658.407	3862
658.463	3069
658.518	3481
658.573	4163
658.629	2453
658.684	3581
658.739	4229
658.795	2653
658.850	3952
658.905	2827
658.960	3878
659.016	3040
659.071	2734
659.126	3744
659.181	3027
659.236	3699
659.291	3591
659.346	2543
659.401	3256
659.457	4401
659.512	3162
659.567	4145
659.622	3367
659.677	3398
659.732	2699
659.787	3795
659.842	3653
659.897	3440
659.952	4429
660.007	3030
660.061	4088
660.116	2770
660.171	2684
660.226	3468
660.281	4570
660.336	2648
660.391	3314
660.445	2681
660.500	3110
660.555	3496
660.610	3210
660.664	3758
660.719	2426
660.774	2791
660.828	3553
660.883	2688
660.938	3519
660.992	2360
661.047	2848
661.101	2831
661.156	2531
661.211	1847
661.265	3753
661.320	2683
661.374	2877
661.429	2700
661.483	3181
661.538	1676
661.592	3187
661.647	1809
661.701	4139
661.755	3384
661.810	3748
661.864	2324
661.919	1617
661.973	2473
662.027	3266
662.081	2480
662.136	2399
662.190	2849
662.244	3405
662.299	3462
662.353	2920
662.407	2717
662.461	3187
662.515	3398
662.569	2617
662.624	3783
662.678	2195
662.732	2369
662.786	2204
662.840	2388
662.894	3086
662.948	2469
663.002	2952
663.056	1763
663.110	2260
663.164	2533
663.218	2415
663.272	2825
663.326	2621
663.380	3083
663.434	2624
663.488	2307
663.542	3094
663.595	2336
663.649	2792
663.703	3286
663.757	2597
663.811	2196
663.864	3082
663.918	2548
663.972	2968
664.026	2645
664.079	2104
664.133	2729
664.187	2923
664.240	2767
664.294	2808
664.348	3347
664.401	3241
664.455	3267
664.508	2389
664.562	2000
664.615	3460
664.669	1982
664.722	2882
664.776	2490
664.829	2976
664.883	1852
664.936	1938
664.990	2162
665.043	2403
665.097	1741
665.150	3259
665.203	2001
665.257	3161
665.310	3047
665.363	3449
665.417	3891
665.470	3642
665.523	3230
665.576	3143
665.630	2743
665.683	4075
665.736	3257
665.789	3510
665.842	1897
665.895	2963
665.949	2714
666.002	3565
666.055	2534
666.108	4149
666.161	3256
666.214	3718
666.267	3437
666.320	3220
666.373	4272
666.426	3951
666.479	3404
666.532	3915
666.585	3442
666.638	3686
666.691	3177
666.744	4325
666.796	2823
666.849	3236
666.902	2736
666.955	2860
667.008	2840
667.060	3051
667.113	2688
667.166	3897
667.219	3867
667.271	3746
667.324	3913
667.377	3183
667.430	3234
667.482	3587
667.535	2556
667.587	3343
667.640	2658
667.693	2958
667.745	2679
667.798	4175
667.850	2774
667.903	3434
667.955	2907
668.008	3282
668.060	3191
668.113	3042
668.165	2952
668.218	3440
668.270	2852
668.322	2636
668.375	2994
668.427	3463
668.479	2606
668.532	3235
668.584	2156
668.636	3043
668.689	2599
668.741	2582
668.793	2737
668.845	3507
668.898	3242
668.950	2766
669.002	2432
669.054	2724
669.106	2438
669.158	2989
669.211	2539
669.263	2740
669.315	3444
669.367	3396
669.419	2598
669.471	3519
669.523	2096
669.575	3418
669.627	1966
669.679	2614
669.731	3131
669.783	3300
669.835	2232
669.886	2525
669.938	2714
669.990	3387
670.042	2266
670.094	1902
670.146	2395
670.197	3523
670.249	3126
670.301	3288
670.353	4035
670.404	3697
670.456	4691
670.508	6036
670.560	7828
670.611	12470
670.663	19102
670.715	46033
670.766	70461
670.818	19755
670.869	5447
670.921	5267
670.972	4286
671.024	3693
671.075	3908
671.127	4270
671.178	3837
671.230	4543
671.281	4944
671.333	5946
671.384	6622
671.436	11046
671.487	15108
671.538	22332
671.590	37087
671.641	60720
671.692	105607
671.744	191878
671.795	147156
671.846	57188
671.897	27923
671.949	17900
672.000	11682
672.051	9319
672.102	7689
672.153	5367
672.204	4935
672.256	5367
672.307	4204
672.358	3896
672.409	3524
672.460	3636
672.511	2031
672.562	2571
672.613	2010
672.664	2477
672.715	3123
672.766	2385
672.817	1105
672.868	1792
672.919	1624
672.970	1808
673.021	1353
673.071	887
673.122	1832
673.173	1855
673.224	1599
673.275	1810
673.326	2174
673.376	1629
673.427	1615
673.478	2086
673.528	2545
673.579	1419
673.630	1545
673.680	2486
673.731	852
673.782	819
673.832	1148
673.883	2320
673.934	1584
673.984	1538
674.035	1793
674.085	1936
674.136	1543
674.186	2022
674.237	1826
674.287	1701
674.338	2238
674.388	2459
674.438	1919
674.489	2737
674.539	2939
674.589	2677
674.640	2568
674.690	3229
674.740	2521
674.791	2288
674.841	1693
674.891	2095
674.942	1528
674.992	1267
675.042	1513
675.092	1161
675.142	523
675.193	1285
675.243	1449
675.293	2602
675.343	1174
675.393	1375
675.443	2604
675.493	2048
675.543	1314
675.593	1908
675.643	1678
675.693	1955
675.743	1693
675.793	1367
675.843	606
675.893	1217
675.943	1012
675.993	1243
676.043	678
676.093	1741
676.142	484
676.192	1322
676.242	356
676.292	421
676.341	428
676.391	888
676.441	639
676.491	1139
676.540	292
676.590	1347
676.640	1331
676.689	849
676.739	-530
676.789	1446
676.838	461
676.888	610
676.937	171
676.987	441
677.037	943
677.086	704
677.136	679
677.185	192
677.235	709
677.284	873
677.333	451
677.383	746
677.432	-636
677.482	1175
677.531	814
677.580	292
677.630	1142
677.679	973
677.728	530
677.778	1000
677.827	843
677.876	602
677.925	734
677.975	561
678.024	1025
678.073	1139
678.122	837
678.171	1268
678.220	1672
678.269	1718
678.319	2029
678.368	2761
678.417	1643
678.466	1042
678.515	411
678.564	-57
678.613	502
678.662	159
678.711	923
678.760	2
678.809	436
678.857	1115
678.906	1402
678.955	1131
679.004	208
679.053	13
679.102	557
679.151	1006
679.199	376
679.248	870
679.297	-105
679.346	124
679.394	-85
679.443	456
679.492	487
679.540	-330
679.589	950
679.638	77
679.686	442
679.735	657
679.784	878
679.832	2421
679.881	843
679.929	1211
679.978	542
680.026	12
680.075	939
680.123	-264
680.172	296
680.220	-31
680.268	589
680.317	-264
680.365	-197
680.414	-735
680.462	171
680.510	608
680.559	-5
680.607	786
680.655	462
680.703	-223
680.752	-558
680.800	820
680.848	-141
680.896	578
680.945	352
680.993	490
681.041	-349
681.089	306
681.137	-122
681.185	-203
681.233	12
681.258	-100
681.281	-255
681.329	-29
681.377	-104
681.380	-50
681.425	43
681.473	1942
681.502	1186
681.521	579
681.569	1778
681.617	486
681.624	656
681.665	1371
681.713	879
681.745	790
681.761	682
681.809	986
681.857	1352
681.867	1442
681.904	1554
681.952	1670
681.989	1328
682.000	1158
682.048	2255
682.096	1163
682.111	1368
682.143	1655
682.191	2229
682.233	2911
682.239	2969
682.286	2441
682.334	1789
682.354	2206
682.382	2682
682.430	2423
682.476	2574
682.477	2532
682.525	2608
682.572	2405
682.598	2545
682.620	2618
682.667	3209
682.715	3148
682.720	3129
682.763	2480
682.810	2400
682.841	3215
682.857	3582
682.905	2972
682.952	3767
682.963	3868
683.000	4013
683.047	3536
683.085	4405
683.095	4610
683.142	3887
683.190	4734
683.206	4620
683.237	4263
683.284	4481
683.328	4660
683.332	4641
683.379	4423
683.426	4486
683.449	4713
683.473	4913
683.521	4391
683.568	4570
683.571	4599
683.615	4432
683.662	5889
683.693	5505
683.709	5204
683.757	5570
683.804	4910
683.814	4937
683.851	4997
683.898	5441
683.936	5695
683.945	5719
683.992	5553
684.039	5911
684.057	5929
684.086	5853
684.133	6111
684.179	5224
684.180	5167
684.227	5939
684.274	6005
684.300	6229
684.321	6394
684.368	6079
684.415	5682
684.422	5753
684.462	6013
684.509	7083
684.543	6587
684.556	6368
684.603	7212
684.649	7145
684.665	7275
684.696	7475
684.743	7732
684.786	7799
684.790	7772
684.837	7469
684.883	7787
684.908	7926
684.930	8069
684.977	7778
685.023	7913
685.029	7943
685.070	7857
685.117	8140
685.150	8343
685.164	8437
685.210	8189
685.257	7904
685.272	8015
685.303	8167
685.350	8721
685.393	8198
685.396	8117
685.443	8321
685.490	8427
685.514	8186
685.536	8104
685.583	8384
685.629	8578
685.636	8478
685.675	7776
685.722	8983
685.757	8264
685.768	7977
685.815	8821
685.861	9435
685.878	9005
685.908	8389
685.954	8693
686.000	9089
686.000	9085
686.047	8956
686.093	9350
686.121	9926
686.139	10211
686.185	10077
686.232	9716
686.242	9818
686.278	10187
686.324	10434
686.363	10352
686.370	10338
686.416	10037
686.463	11106
686.484	10999
686.509	10745
686.555	10833
686.601	10144
686.606	10206
686.647	10781
686.693	11104
686.727	10572
686.739	10404
686.785	10789
686.831	10751
686.848	10800
686.877	10828
686.923	10787
686.969	10981
686.969	10981
687.015	11654
687.061	11611
687.090	12268
687.107	12565
687.153	12619
687.199	12679
687.211	12522
687.245	11939
687.291	11799
687.332	12473
687.336	12553
687.382	12109
687.428	12422
687.453	12471
687.474	12547
687.520	12653
687.565	12846
687.574	12759
687.611	12663
687.657	13366
687.695	13819
687.702	13887
687.748	14495
687.794	15262
687.816	15231
687.839	14963
687.885	14510
687.931	14198
687.937	14136
687.976	13848
688.022	14146
688.058	13933
688.067	13896
688.113	13691
688.158	13234
688.179	13445
688.204	13768
688.249	13607
688.295	13651
688.300	13599
688.340	13483
688.386	13836
688.421	13925
688.431	13915
688.477	13735
688.522	13959
688.542	14000
688.567	14397
688.613	14830
688.658	15226
688.663	15301
688.703	15578
688.749	15840
688.784	15691
688.794	15637
688.839	15728
688.884	15428
688.905	15524
688.930	15590
688.975	14549
689.020	15138
689.026	15052
689.065	14947
689.110	15432
689.146	15627
689.155	15704
689.201	15976
689.246	16191
689.267	16274
689.291	16142
689.336	15759
689.381	15645
689.388	15561
689.426	15553
689.471	15832
689.509	15736
689.516	15746
689.561	16353
689.606	16524
689.630	16577
689.651	16432
689.696	15457
689.741	16013
689.750	15836
689.785	15795
689.830	16169
689.871	16179
689.875	16172
689.920	16423
689.965	16018
689.992	16175
690.010	16339
690.054	16311
690.099	16300
690.112	16267
690.144	16223
690.189	16507
690.233	15857
690.233	15878
690.278	16460
690.323	16202
690.354	16506
690.367	16748
690.412	16754
690.457	16633
690.474	16862
690.501	16960
690.546	16594
690.590	16643
690.595	16563
690.635	16439
690.680	16054
690.716	16344
690.724	16459
690.769	16815
690.813	16774
690.836	16932
690.857	17432
690.902	18093
690.946	19391
690.957	19438
690.991	20164
691.035	22087
691.077	23343
691.080	23334
691.124	22730
691.168	21209
691.198	20513
691.213	20220
691.257	19423
691.301	18497
691.318	18167
691.346	18210
691.390	17914
691.434	18085
691.439	17996
691.478	17698
691.522	17978
691.559	17844
691.567	17945
691.611	18695
691.655	19336
691.680	19779
691.699	19803
691.743	19048
691.787	19310
691.800	19060
691.831	18854
691.875	19103
691.919	18837
691.921	18808
691.964	18908
692.008	18884
692.041	18657
692.052	18767
692.096	19396
692.139	19866
692.162	20101
692.183	20097
692.227	19931
692.271	19458
692.282	19493
692.315	19670
692.359	18700
692.402	18773
692.403	18815
692.447	18895
692.490	18967
692.523	19231
692.534	19415
692.578	19709
692.622	19284
692.643	19655
692.666	19915
692.709	19496
692.753	19669
692.763	19492
692.797	19404
692.840	19994
692.884	19948
692.884	19988
692.928	20055
692.971	20024
693.004	19613
693.015	19560
693.059	20093
693.102	19977
693.124	19706
693.146	19683
693.189	20551
693.233	20712
693.245	20822
693.276	20872
693.320	20466
693.363	20189
693.365	20134
693.407	20408
693.450	20553
693.485	20741
693.493	20871
693.537	21566
693.580	21671
693.605	22050
693.624	22532
693.667	22951
693.710	23713
693.725	23892
693.753	26031
693.797	29454
693.840	32881
693.845	33214
693.883	31275
693.926	28782
693.966	26714
693.970	26610
694.013	24603
694.056	22966
694.086	21641
694.099	21601
694.142	21545
694.185	21179
694.206	21020
694.229	21380
694.272	22024
694.315	22790
694.326	22793
694.358	22394
694.401	22446
694.444	22141
694.446	22076
694.487	22368
694.530	22653
694.566	22781
694.573	22802
694.616	22516
694.659	22599
694.686	22399
694.702	22602
694.745	23129
694.787	23684
694.806	23793
694.830	23792
694.873	23842
694.916	23863
694.926	23791
694.959	23818
695.002	23972
695.044	23959
695.046	23909
695.087	24565
695.130	24878
695.166	25192
695.172	25271
695.215	25384
695.258	25672
695.286	25575
695.301	25678
695.343	26072
695.386	26365
695.406	26430
695.428	27406
695.471	29179
695.514	31072
695.526	31483
695.556	33200
695.599	35882
695.641	38269
695.646	38432
695.684	36426
695.726	34114
695.766	32052
695.769	32085
695.811	31261
695.854	30348
695.886	29832
695.896	30062
695.938	30393
695.981	30686
696.005	30843
696.023	31677
696.065	33745
696.108	35619
696.125	36303
696.150	36789
696.192	37371
696.235	38004
696.245	38071
696.277	38195
696.319	38280
696.361	38440
696.365	38340
696.404	37773
696.446	37193
696.485	36562
696.488	36660
696.530	36622
696.572	36601
696.604	36589
696.614	36707
696.656	36633
696.698	36740
696.724	36722
696.740	36948
696.783	37121
696.825	37563
696.844	37510
696.867	37703
696.909	38111
696.951	38399
696.964	38390
696.992	38570
697.034	38799
697.076	38928
697.083	38873
697.118	40018
697.160	41099
697.202	42295
697.203	42216
697.244	41910
697.286	41663
697.323	41160
697.327	41249
697.369	41192
697.411	41183
697.442	40938
697.453	41084
697.494	41295
697.536	41570
697.562	41646
697.578	41730
697.620	41598
697.661	41474
697.682	41301
697.703	42010
697.744	43180
697.786	44475
697.801	44770
697.828	44763
697.869	44603
697.911	44515
697.921	44374
697.952	44373
697.994	44121
698.035	43973
698.040	43830
698.077	44255
698.118	44641
698.160	45065
698.160	44949
698.201	45864
698.243	46712
698.279	47353
698.284	47606
698.325	48785
698.367	49954
698.399	50724
698.408	50942
698.449	51338
698.491	51748
698.518	51855
698.532	51798
698.573	51221
698.614	50655
698.638	50173
698.656	50587
698.697	51275
698.738	51940
698.757	52119
698.779	52260
698.820	52252
698.862	52258
698.877	52120
698.903	52235
698.944	52186
698.985	52149
698.996	51999
699.026	51981
699.067	51767
699.116	51374
699.235	50749
699.354	49897
699.474	47692
699.593	47360
699.713	48245
699.832	48213
699.951	49444
700.070	49043
700.190	46379
700.309	45853
700.428	44775
700.547	44549
700.667	43220
700.786	44411
700.905	41911
701.024	42949
701.143	42144
701.262	44252
701.381	43930
701.500	44806
701.619	43172
701.738	45487
701.857	42410
701.976	40577
702.095	43458
702.214	42843
702.333	42030
702.452	44513
702.571	42712
702.690	43632
702.809	44146
702.928	41663
703.047	39642
703.165	40024
703.284	40905
703.403	38206
703.522	38932
703.640	38085
703.759	38405
703.878	38083
703.997	37299
704.115	39404
704.234	38398
704.353	38853
704.471	35944
704.590	34655
704.708	36651
704.827	34635
704.946	33795
705.064	35485
705.183	33913
705.301	36272
705.420	33027
705.538	33321
705.656	31832
705.775	31600
705.893	34298
706.012	33422
706.130	31436
706.249	34288
706.367	30775
706.485	32215
706.604	30134
706.722	30915
706.840	33045
706.958	35638
707.077	30908
707.195	29805
707.313	30040
707.431	28681
707.549	29580
707.668	26528
707.786	30454
707.904	28501
708.022	29536
708.140	28154
708.258	27028
708.376	29753
708.494	26387
708.612	29258
708.730	28648
708.848	26986
708.966	27819
709.084	27839
709.202	28936
709.320	24904
709.438	25592
709.556	26914
709.674	24407
709.791	25714
709.909	25186
710.027	24947
710.145	24419
710.263	23914
710.380	24983
710.498	23813
710.616	24086
710.733	22792
710.851	23949
710.969	23969
711.086	22747
711.204	23174
711.322	23783
711.439	23099
711.557	20891
711.674	22093
711.792	22630
711.909	21929
712.027	22543
712.144	21314
712.262	22047
712.379	22880
712.497	22296
712.614	20692
712.732	22851
712.849	21236
712.966	22442
713.084	23194
713.201	19436
713.318	20979
713.436	22716
713.553	20195
713.670	22697
713.787	22583
713.905	20458
714.022	22484
714.139	22467
714.256	25438
714.373	32227
714.490	52140
714.608	119962
714.725	425092
714.842	407494
714.959	58585
715.076	27746
715.193	25871
715.310	23901
715.427	19738
715.544	21510
715.661	19841
715.778	19200
715.895	19583
716.011	20114
716.128	18555
716.245	19566
716.362	18839
716.479	17661
716.596	18269
716.713	17738
716.829	18544
716.946	16429
717.063	17633
717.180	16766
717.296	16819
717.413	17086
717.530	16947
717.646	15628
717.763	17361
717.880	16668
717.996	16206
718.113	15719
718.229	16196
718.346	15852
718.462	16019
718.579	15893
718.695	15959
718.812	16421
718.928	14933
719.045	14686
719.161	15479
719.277	15707
719.394	17245
719.510	15766
719.626	16605
719.743	18582
719.859	26548
719.975	47279
720.092	163555
720.208	330703
720.324	54101
720.440	19571
720.557	17220
720.673	16042
720.789	15738
720.905	14652
721.021	15418
721.137	13825
721.253	13865
721.369	13502
721.486	14492
721.602	13337
721.718	12646
721.834	13694
721.950	12933
722.066	13033
722.181	13282
722.297	12909
722.413	13004
722.529	13770
722.645	12929
722.761	12945
722.877	13024
722.993	14104
723.108	16209
723.224	14899
723.340	13863
723.456	12694
723.571	12826
723.687	12339
723.803	12365
723.918	13016
724.034	12179
724.150	11764
724.265	11690
724.381	11992
724.497	11910
724.612	11717
724.728	12636
724.843	10972
724.959	11369
725.074	12268
725.190	12742
725.305	11979
725.421	12182
725.536	12047
725.651	12576
725.767	11861
725.882	12857
725.997	11211
726.113	11739
726.228	11820
726.343	11311
726.459	11076
726.574	10952
726.689	11725
726.804	11598
726.920	11493
727.035	11452
727.150	11057
727.265	11018
727.380	11532
727.495	12376
727.610	11650
727.725	11006
727.841	11846
727.956	11780
728.071	11849
728.186	11309
728.301	10149
728.416	11514
728.531	10773
728.645	10302
728.760	10017
728.875	10570
728.990	10993
729.105	10182
729.220	10194
729.335	11210
729.449	10473
729.564	11127
729.679	10949
729.794	11619
729.908	11094
730.023	10599
730.138	11296
730.253	11552
730.367	10890
730.482	11314
730.596	10131
730.711	12783
730.826	16727
730.940	16077
731.055	13538
731.169	14301
731.284	13693
731.398	14675
731.513	14945
731.627	15671
731.742	19316
731.856	24513
731.970	22637
732.085	26283
732.199	33875
732.313	54034
732.428	125607
732.542	345858
732.656	210837
732.771	49626
732.885	32479
732.999	30788
733.113	33385
733.227	31407
733.342	30785
733.456	31306
733.570	29925
733.684	28340
733.798	27080
733.912	27509
734.026	28924
734.140	27438
734.254	26469
734.368	26266
734.482	25706
734.596	26137
734.710	25494
734.824	25201
734.938	24118
735.052	27071
735.166	25207
735.280	24923
735.393	23077
735.507	24017
735.621	24545
735.735	22440
735.849	24269
735.962	22329
736.076	24094
736.190	21891
736.303	22654
736.417	23352
736.531	21400
736.644	22650
736.758	22202
736.872	22984
736.985	21684
737.099	21298
737.212	21144
737.326	19829
737.439	22079
737.553	20631
737.666	21956
737.780	20153
737.893	21540
738.007	19178
738.120	21964
738.233	19105
738.347	20490
738.460	18386
738.573	21710
738.687	19052
738.800	20175
738.913	21434
739.026	20033
739.140	18910
739.253	18838
739.366	18508
739.479	18850
739.592	19308
739.705	15896
739.818	21127
739.932	17607
740.045	17949
740.158	17669
740.271	18820
740.384	18577
740.497	15686
740.610	18573
740.723	15959
740.836	17654
740.949	17562
741.062	19785
741.174	17046
741.287	16323
741.400	18328
741.513	14647
741.626	17313
741.739	16822
741.851	16289
741.964	16430
742.077	16148
742.189	15046
742.302	16699
742.415	16313
742.527	15211
742.640	16882
742.753	13671
742.865	15584
742.978	16137
743.090	14177
743.203	15804
743.316	13946
743.428	14593
743.541	15744
743.653	13252
743.766	14299
743.878	16777
743.990	13453
744.103	15826
744.215	14262
744.327	12204
744.440	16439
744.552	14488
744.664	12149
744.777	14785
744.889	13425
745.001	12873
745.113	14485
745.226	13972
745.338	12685
745.450	14523
745.562	13530
745.674	11988
745.786	14575
745.898	13830
746.010	12438
746.122	13338
746.234	13502
746.347	13403
746.459	12533
746.570	10631
746.682	13721
746.794	15879
746.906	11979
747.018	11710
747.130	14229
747.242	11074
747.354	11701
747.466	12104
747.577	11586
747.689	11791
747.801	12474
747.913	11142
748.024	11260
748.136	11661
748.248	11112
748.359	11584
748.471	13352
748.583	10963
748.694	9768
748.806	12113
748.918	10521
749.029	10983
749.141	11410
749.252	12372
749.364	9804
749.475	9819
749.587	9386
749.698	10073
749.809	11469
749.921	11541
750.032	10544
750.144	10126
750.255	9944
750.366	10956
750.478	9791
750.589	11437
750.700	8860
750.811	10958
750.923	10567
751.034	8879
751.145	10914
751.256	9651
751.367	8950
751.479	9793
751.590	9021
751.701	9119
751.812	8539
751.923	8443
752.034	10776
752.145	10605
752.256	10348
752.367	9711
752.478	9101
752.589	9351
752.700	10161
752.811	9690
752.922	9357
753.032	9595
753.143	9926
753.254	9355
753.365	10176
753.476	10149
753.586	9626
753.697	8836
753.808	9543
753.919	8939
754.029	8972
754.140	8945
754.251	8584
754.361	9130
754.472	9635
754.582	8998
754.693	8411
754.804	10087
754.914	8730
755.025	7517
755.135	9372
755.246	9425
755.356	8362
755.466	8504
755.577	7360
755.687	9206
755.798	8537
755.908	7239
756.018	8731
756.129	8612
756.239	8532
756.349	8895
756.460	8224
756.570	9240
756.680	8301
756.790	8448
756.900	8922
757.011	8474
757.121	7567
757.231	8238
757.341	7186
757.451	7466
757.561	7739
757.671	7965
757.781	9309
757.891	8918
758.001	6575
758.111	8768
758.221	9307
758.331	8921
758.441	8801
758.551	7715
758.661	8633
758.771	9212
758.880	7622
758.990	7780
759.100	7388
759.210	7906
759.320	8354
759.429	8471
759.539	8635
759.649	9022
759.758	10150
759.868	10547
759.978	9851
760.087	11901
760.197	10517
760.307	10581
760.416	9182
760.526	9361
760.635	9433
760.745	10258
760.854	10909
760.964	12712
761.073	11614
761.182	11803
761.292	9431
761.401	10019
761.511	8994
761.620	7518
761.729	8332
761.839	7891
761.948	8211
762.057	6974
762.166	7515
762.276	7176
762.385	8493
762.494	8157
762.603	7214
762.712	7486
762.822	7605
762.931	8750
763.040	6538
763.149	7306
763.258	7466
763.367	7469
763.476	7556
763.585	7428
763.694	7283
763.803	7103
763.912	8585
764.021	7743
764.130	7153
764.238	7249
764.347	8363
764.456	8916
764.565	8876
764.674	8109
764.783	8161
764.891	9526
765.000	10576
765.109	10119
765.217	10152
765.326	11562
765.435	12302
765.543	14325
765.652	15246
765.761	19549
765.869	25182
765.978	34616
766.086	57838
766.195	103167
766.303	205201
766.412	330070
766.520	259002
766.629	176306
766.737	86496
766.846	51151
766.954	33661
767.062	26446
767.171	20579
767.279	17276
767.387	14823
767.496	13624
767.604	13016
767.712	11086
767.820	10923
767.928	10519
768.037	8912
768.145	8633
768.253	9971
768.361	9160
768.469	8775
768.577	8957
768.685	10825
768.793	10302
768.901	10769
769.009	12059
769.117	11416
769.225	14179
769.333	18445
769.441	26914
769.549	44042
769.657	88037
769.765	202893
769.873	268719
769.981	170134
770.088	72867
770.196	37567
770.304	26273
770.412	20258
770.519	16614
770.627	15108
770.735	13276
770.842	11872
770.950	11866
771.058	12335
771.165	13965
771.273	14478
771.380	13838
771.488	17216
771.595	20874
771.703	18116
771.810	17136
771.918	17091
772.025	19738
772.133	23071
772.240	20349
772.348	24127
772.455	24156
772.562	20402
772.670	20035
772.777	21373
772.884	19999
772.991	19103
773.099	20698
773.206	18230
773.313	19282
773.420	20029
773.528	18753
773.635	17994
773.742	20101
773.849	17451
773.956	18730
774.063	17904
774.170	19286
774.277	17741
774.384	17236
774.491	17611
774.598	17694
774.705	16387
774.812	18191
774.919	16029
775.026	17790
775.133	17435
775.239	17409
775.346	15792
775.453	16715
775.560	15081
775.667	16287
775.773	16059
775.880	15693
775.987	16354
776.093	15990
776.200	17744
776.307	12758
776.413	13991
776.520	17795
776.627	15589
776.733	13648
776.840	12197
776.946	18435
777.053	15551
777.159	15050
777.266	13663
777.372	14899
777.478	14772
777.585	15630
777.691	11874
777.798	15542
777.904	14008
778.010	12363
778.117	14458
778.223	14272
778.329	14629
778.435	12363
778.542	14567
778.648	12322
778.754	12251
778.860	12979
778.966	13323
779.072	11721
779.178	13166
779.284	11320
779.391	12243
779.497	13229
779.603	14418
779.708	12384
779.815	12696
779.920	21355
780.026	30701
780.132	14006
780.238	12694
780.344	9963
780.450	15002
780.556	9646
780.661	10362
780.767	13443
780.873	8637
780.979	10641
781.085	12302
781.190	10472
781.296	9791
781.402	11324
781.507	10721
781.613	8977
781.719	10600
781.824	13547
781.930	10348
782.035	9485
782.141	12675
782.246	8673
782.352	9073
782.457	10548
782.563	10105
782.668	10740
782.773	9024
782.879	8184
782.984	9759
783.090	9491
783.195	10469
783.300	11409
783.405	9579
783.511	7759
783.616	8652
783.721	9418
783.826	9303
783.932	7926
784.037	9522
784.142	9008
784.247	9501
784.352	8999
784.457	7308
784.562	9243
784.667	10224
784.772	6669
784.877	6322
784.982	9999
785.087	9478
785.192	8151
785.297	9077
785.402	8857
785.507	8807
785.611	8978
785.716	7566
785.821	9064
785.926	8637
786.031	8219
786.135	8442
786.240	9390
786.345	5554
786.450	6085
786.554	8279
786.659	7109
786.763	7568
786.868	8066
786.973	8627
787.077	6573
787.182	6609
787.286	7751
787.391	8887
787.495	6093
787.600	5584
787.704	7237
787.809	7712
787.913	7413
788.017	7595
788.122	8755
788.226	6611
788.330	5235
788.435	7250
788.539	8561
788.643	7089
788.747	4691
788.852	6753
788.956	6811
789.060	7987
789.164	6731
789.268	6180
789.372	7687
789.476	6067
789.580	6124
789.684	5024
789.788	8222
789.892	7127
789.996	5606
790.100	5219
790.204	7227
790.308	8116
790.412	5539
790.516	4910
790.620	5400
790.724	7701
790.828	6568
790.931	4058
791.035	6345
791.139	6690
791.242	6872
791.346	6982
791.450	5976
791.554	5271
791.657	4138
791.761	5664
791.864	7144
791.968	6269
792.072	6589
792.175	5589
792.279	5574
792.382	5805
792.486	5222
792.589	5660
792.693	6308
792.796	5109
792.899	6478
793.003	6678
793.106	4664
793.209	5492
793.313	5000
793.416	2804
793.519	5928
793.623	6711
793.726	5620
793.829	4829
793.932	3662
794.035	2944
794.138	6221
794.242	7283
794.345	4671
794.448	4187
794.551	4241
794.654	10120
794.757	16025
794.860	5484
794.963	5859
795.066	4115
795.169	6258
795.272	4516
795.375	5379
795.477	4252
795.580	3566
795.683	3444
795.786	6008
795.889	4237
795.991	5128
796.094	5405
796.197	4893
796.300	5780
796.402	6436
796.505	4311
796.608	3521
796.710	4196
796.813	5388
796.915	5159
797.018	5084
797.120	4583
797.223	3897
797.326	6170
797.428	3628
797.530	3351
797.633	4434
797.735	4952
797.838	4150
797.940	6079
798.042	4290
798.145	4421
798.247	3424
798.349	3259
798.452	4620
798.554	4668
798.656	5147
798.758	5932
798.860	4691
798.962	4446
799.065	2783
799.167	2844
799.269	4760
799.371	5237
799.473	6280
799.575	5086
799.677	4181
799.779	4700
799.881	2818
799.983	5510
800.085	3577
800.187	4299
800.289	3310
800.390	3811
800.492	5587
800.594	4637
800.696	3061
800.798	3554
800.899	3560
801.001	4326
801.103	3665
801.205	4445
801.306	4135
801.408	3435
801.509	3786
801.611	4394
801.713	3878
801.814	3052
801.916	3044
802.017	3012
802.119	2586
802.220	4217
802.322	2415
802.423	4763
802.525	2250
802.626	3944
802.727	4560
802.829	4197
802.930	914
803.031	4123
803.133	3169
803.234	3979
803.335	4041
803.436	3359
803.538	4233
803.639	3348
803.740	4287
803.841	3479
803.942	3547
804.043	3556
804.144	2242
804.245	3594
804.346	3290
804.447	2767
804.548	2415
804.649	4513
804.750	2337
804.851	3289
804.952	3369
805.053	3401
805.154	2320
805.255	3221
805.355	3200
805.456	3609
805.557	2506
805.658	2910
805.758	4204
805.859	3413
805.960	3184
806.061	3332
806.161	3109
806.262	3129
806.362	2383
806.463	3389
806.564	4786
806.664	4497
806.765	2717
806.865	2885
806.966	2342
807.066	3190
807.166	4000
807.267	3684
807.367	3015
807.468	4268
807.568	1557
807.668	3649
807.769	3781
807.869	3420
807.969	2873
808.069	3713
808.170	3428
808.270	2264
808.370	3362
808.470	3451
808.570	3035
808.670	2984
808.770	2333
808.870	2562
808.970	3144
809.070	2859
809.170	2515
809.271	3537
809.370	3097
809.470	3584
809.570	1791
809.670	2012
809.770	2681
809.870	3462
809.970	2713
810.070	2537
810.169	3190
810.269	2388
810.369	2928
810.469	3171
810.568	2667
810.668	1547
810.768	3123
810.867	3300
810.967	2422
811.066	2305
811.166	2214
811.265	3612
811.365	2607
811.464	2005
811.564	3432
811.663	3961
811.763	2076
811.862	4481
811.962	3889
812.061	2847
812.160	2549
812.260	2688
812.359	3474
812.458	1585
812.557	3653
812.657	2719
812.756	3283
812.855	2655
812.954	2702
813.053	3591
813.153	2553
813.252	2412
813.351	3276
813.450	3328
813.549	2696
813.648	2397
813.747	1992
813.846	4158
813.945	3551
814.044	3441
814.143	2958
814.242	3535
814.341	3354
814.439	3885
814.538	5097
814.637	3762
814.736	3831
814.835	4697
814.933	4382
815.032	5636
815.131	6779
815.229	12496
815.328	19316
815.427	13028
815.525	11847
815.624	11507
815.722	11480
815.821	12643
815.919	12520
816.018	12282
816.116	11012
816.215	12309
816.313	12846
816.412	14716
816.510	15819
816.609	16365
816.707	17296
816.805	15546
816.904	15282
817.002	15560
817.100	16014
817.198	15937
817.296	14626
817.395	15212
817.493	14496
817.591	13265
817.689	14539
817.787	14613
817.885	13964
817.983	13076
818.081	14627
818.179	15684
818.277	24001
818.375	18853
818.473	13908
818.571	12612
818.669	13466
818.767	15045
818.865	13356
818.963	10995
819.061	14107
819.158	12966
819.256	17550
819.354	17629
819.452	29760
819.549	19756
819.647	15341
819.745	10863
819.842	12137
819.940	13111
820.038	11747
820.135	10339
820.233	12914
820.330	11648
820.428	9869
820.525	12858
820.623	11134
820.720	9877
820.818	11561
820.915	12083
821.012	10762
821.110	9975
821.207	11938
821.304	9888
821.402	12003
821.499	11820
821.596	10860
821.693	10138
821.791	12218
821.888	10711
821.985	12187
822.082	8300
822.179	10314
822.276	11158
822.373	9363
822.470	8709
822.567	12052
822.664	9102
822.761	9974
822.858	10724
822.955	10243
823.052	7947
823.149	10271
823.246	10622
823.343	7835
823.440	9340
823.536	10556
823.633	10166
823.730	8866
823.827	9737
823.923	8984
824.020	8455
824.117	10647
824.213	9986
824.310	9057
824.407	7033
824.503	9371
824.600	9637
824.696	7496
824.793	10525
824.889	10121
824.986	8038
825.082	6919
825.179	7453
825.275	9897
825.371	10639
825.468	7896
825.564	4903
825.660	8328
825.757	11255
825.853	8524
825.949	6771
826.045	6856
826.142	8005
826.238	9518
826.334	8296
826.430	7620
826.526	6490
826.622	5297
826.718	9128
826.814	9485
826.910	8516
827.006	4398
827.102	5278
827.198	8820
827.294	9014
827.390	9191
827.486	7180
827.582	4903
827.678	5560
827.774	10629
827.869	6793
827.965	5389
828.061	5301
828.157	8445
828.252	9209
828.348	6797
828.444	5532
828.539	5883
828.635	8162
828.731	7251
828.826	5406
828.922	7435
829.017	8633
829.113	8120
829.208	4823
829.304	7044
829.399	8922
829.495	7485
829.590	6384
829.685	6139
829.781	7605
829.876	8101
829.971	4928
830.066	3943
830.162	5354
830.257	9216
830.352	6122
830.447	5920
830.543	5703
830.638	6152
830.733	8717
830.828	5161
830.923	6637
831.018	6545
831.113	7458
831.208	4820
831.303	4016
831.398	4291
831.493	6098
831.588	8906
831.683	5688
831.778	3493
831.873	4436
831.967	7203
832.062	6721
832.157	5672
832.252	5155
832.346	4754
832.441	7145
832.536	5256
832.631	6285
832.725	4544
832.820	5507
832.914	6284
833.009	4657
833.104	4244
833.198	3479
833.293	5235
833.387	6263
833.482	5635
833.576	5764
833.670	4992
833.765	5499
833.859	6177
833.954	6260
834.048	6025
834.142	3720
834.237	3560
834.331	5490
834.425	6101
834.519	5289
834.613	4573
834.708	4319
834.802	4235
834.896	5937
834.990	5143
835.084	3841
835.178	3387
835.272	4439
835.366	5770
835.460	6821
835.554	4406
835.648	4075
835.742	2557
835.836	3876
835.930	5013
836.024	5424
836.117	5672
836.211	4695
836.305	4528
836.399	3577
836.493	3979
836.586	5169
836.680	5145
836.774	3688
836.867	3754
836.961	3612
837.055	3782
837.148	4234
837.242	3622
837.335	5130
837.429	4231
837.522	4352
837.616	3813
837.709	3995
837.803	3140
837.896	5060
837.989	5190
838.083	2791
838.176	2766
838.269	1224
838.363	3650
838.456	2961
838.549	5136
838.642	4493
838.735	3150
838.829	4131
838.922	3657
839.015	4057
839.108	2648
839.201	3386
839.294	3544
839.387	4050
839.480	3095
839.573	3258
839.666	1595
839.759	3560
839.852	2518
839.945	5139
840.038	2695
840.131	2779
840.223	2890
840.316	4458
840.409	4167
840.502	4151
840.594	5364
840.687	1955
840.780	2643
840.873	2435
840.965	2636
841.058	3363
841.150	4247
841.243	1483
841.336	2891
841.428	2724
841.521	2881
841.613	2596
841.706	2981
841.798	2985
841.890	3356
841.983	2174
842.075	2729
842.167	2323
842.260	2475
842.352	4547
842.444	3844
842.537	2939
842.629	2452
842.721	1626
842.813	3336
842.905	2377
842.997	3655
843.090	3118
843.182	2396
843.274	1787
843.366	2938
843.458	3433
843.550	4150
843.642	2571
843.734	3341
843.826	1582
843.918	1538
844.009	2945
844.101	2720
844.193	3039
844.285	3165
844.377	3718
844.469	3151
844.560	432
844.652	2529
844.744	2404
844.835	3377
844.927	3113
845.019	3171
845.110	2260
845.202	2921
845.293	1980
845.385	1474
845.476	3149
845.568	2391
845.659	2197
845.751	2452
845.842	2146
845.934	2653
846.025	2444
846.116	3004
846.208	2107
846.299	2096
846.390	886
846.482	1450
846.573	2725
846.664	3149
846.755	2239
846.846	3853
846.937	1468
847.029	1949
847.120	1371
847.211	2414
847.302	3393
847.393	2308
847.484	3054
847.575	975
847.666	1911
847.757	1901
847.847	2863
847.938	4124
848.029	2722
848.120	1732
848.211	2576
848.302	1040
848.392	2148
848.483	2465
848.574	2617
848.664	2131
848.755	2409
848.846	1816
848.936	1571
849.027	1980
849.118	2460
849.208	2050
849.299	3410
849.389	5201
849.480	8808
849.570	15728
849.661	29037
849.751	46483
849.841	17212
849.932	4651
850.022	2345
850.112	3179
850.203	2822
850.293	2096
850.383	1740
850.474	2249
850.564	1235
850.654	2007
850.744	2048
850.834	1789
850.924	2842
851.014	3403
851.104	2912
851.194	1665
851.284	2172
851.374	2191
851.464	2442
851.554	2204
851.644	2374
851.734	2887
851.824	2628
851.914	1332
852.004	2152
852.094	1897
852.183	2265
852.273	2191
852.363	2177
852.452	1863
852.542	2531
852.632	1747
852.721	2003
852.811	2004
852.901	2985
852.990	2939
853.080	2759
853.169	2141
853.259	3721
853.348	3099
853.438	2903
853.527	4946
853.617	4733
853.706	10103
853.795	15618
853.885	32268
853.974	53587
854.063	96195
854.152	129661
854.242	58119
854.331	15832
854.420	8030
854.509	5780
854.598	4734
854.687	4196
854.777	4755
854.866	2478
854.955	2830
855.044	1603
855.133	2732
855.222	1684
855.311	2090
855.400	2466
855.488	2299
855.577	1996
855.666	2730
855.755	2360
855.844	1541
855.933	2440
856.021	2683
856.110	1977
856.199	1406
856.288	1031
856.376	1539
856.465	1753
856.554	2048
856.642	2714
856.731	2603
856.819	2264
856.908	2298
856.996	1968
857.085	2032
857.173	1470
857.262	2005
857.350	1284
857.438	1579
857.527	2646
857.615	2158
857.703	2773
857.792	2021
857.880	2416
857.968	2029
858.056	1852
858.145	980
858.233	2448
858.321	1498
858.409	2357
858.497	2521
858.585	1637
858.673	1234
858.761	1168
858.849	1988
858.937	1477
859.025	1686
859.113	2320
859.201	1745
859.289	3060
859.377	2365
859.465	2577
859.552	2216
859.640	1936
859.728	2117
859.816	2546
859.903	1894
859.991	1303
860.079	1968
860.166	1373
860.254	1624
860.342	1849
860.429	1491
860.517	1859
860.604	1613
860.692	1215
860.779	1289
860.867	1725
860.954	2064
861.042	3140
861.129	2490
861.216	2088
861.304	2387
861.391	2324
861.478	2482
861.565	2107
861.653	3006
861.740	852
861.827	650
861.914	1834
862.001	2478
862.089	1859
862.176	2591
862.263	2385
862.350	1794
862.437	1731
862.524	1680
862.611	1940
862.698	3316
862.785	1860
862.871	3307
862.958	2341
863.045	3373
863.132	3044
863.219	2699
863.306	954
863.392	1578
863.479	2628
863.566	2456
863.652	2498
863.739	2607
863.826	3210
863.912	2848
863.999	2339
864.086	2197
864.172	2851
864.259	3505
864.345	3562
864.432	3469
864.518	3426
864.604	3271
864.691	3158
864.777	3721
864.863	5383
864.950	7619
865.036	9425
865.122	16460
865.209	18759
865.295	16054
865.381	14613
865.467	14014
865.553	13476
865.639	14901
865.726	19032
865.812	26914
865.898	41202
865.984	53631
866.070	86729
866.156	88492
866.242	36195
866.328	19052
866.414	15057
866.499	14047
866.585	13677
866.671	13159
866.757	12554
866.843	12319
866.928	11816
867.014	11483
867.100	12742
867.186	11459
867.271	11169
867.357	12081
867.442	11338
867.528	11758
867.614	11524
867.699	11132
867.785	11233
867.870	10599
867.956	11087
868.041	11778
868.127	9814
868.212	10909
868.297	10653
868.383	11504
868.468	10309
868.553	11970
868.639	11011
868.724	11342
868.809	10731
868.894	10937
868.979	11067
869.065	9769
869.150	8948
869.235	9675
869.320	10465
869.405	9613
869.490	10431
869.575	10364
869.660	7841
869.745	10495
869.830	11269
869.915	9801
870.000	8735
870.085	8452
870.169	11643
870.254	11828
870.339	7754
870.424	7099
870.509	9283
870.593	10247
870.678	10321
870.763	8842
870.847	7541
870.932	9306
871.016	10081
871.101	7904
871.186	8116
871.270	10763
871.355	7242
871.439	8235
871.523	10298
871.608	7742
871.692	6993
871.777	9800
871.861	9454
871.945	7965
872.030	9078
872.114	7885
872.198	7624
872.282	8000
872.367	7625
872.451	7979
872.535	8370
872.619	8419
872.703	6838
872.787	8499
872.871	8525
872.955	7329
873.039	5902
873.123	8118
873.207	8368
873.291	5465
873.375	6047
873.459	8714
873.543	7586
873.627	6832
873.711	6928
873.794	8142
873.878	7644
873.962	5835
874.045	6451
874.129	7426
874.137	7452
874.213	7717
874.245	7513
874.296	7196
874.352	6015
874.380	5437
874.460	6888
874.464	6949
874.547	6093
874.568	6555
874.631	7911
874.676	7246
874.714	6712
874.784	7706
874.798	7905
874.881	6293
874.892	6126
874.965	4996
874.999	5769
875.048	6793
875.107	6863
875.131	6905
875.215	4556
875.215	4556
875.298	5144
875.323	5274
875.381	5597
875.430	6950
875.465	7885
875.538	6752
875.548	6599
875.631	5373
875.646	5191
875.714	4362
875.753	4864
875.798	5461
875.861	6252
875.881	6458
875.964	5163
875.968	5108
876.047	4342
876.076	4741
876.130	5362
876.183	5682
876.213	5906
876.291	6381
876.296	6408
876.379	5189
876.398	5150
876.462	4958
876.506	4564
876.545	4309
876.613	4857
876.628	4959
876.711	4804
876.721	4988
876.794	6322
876.828	6311
876.877	6197
876.935	4619
876.960	4069
877.043	5187
877.043	5190
877.125	5325
877.150	5523
877.208	5964
877.258	5081
877.291	4521
877.365	3618
877.374	3486
877.456	3886
877.472	3885
877.539	4137
877.579	4688
877.622	5129
877.687	5255
877.704	5328
877.787	4692
877.794	4791
877.869	5840
877.901	5505
877.952	4769
878.008	3876
878.034	3502
878.115	3411
878.117	3409
878.199	2639
878.222	3135
878.282	4569
878.329	5207
878.364	5557
878.437	4575
878.447	4417
878.529	3656
878.544	3462
878.611	2595
878.651	3157
878.694	3924
878.758	4585
878.776	4726
878.858	4618
878.865	4611
878.941	4209
878.972	3562
879.023	2936
879.078	3799
879.105	4060
879.185	4018
879.187	4016
879.269	4396
879.292	4385
879.351	4187
879.399	3603
879.433	3271
879.506	3474
879.516	3504
879.598	3863
879.613	3556
879.680	2274
879.720	3024
879.762	3776
879.827	3372
879.844	3207
879.926	2564
879.933	2609
880.007	3143
880.040	2814
880.089	2308
880.147	2659
880.171	2962
880.253	4393
880.254	4393
880.335	3288
880.360	3431
880.417	3857
880.467	3859
880.499	3773
880.574	3810
880.580	3847
880.662	3728
880.680	3682
880.744	3137
880.787	2701
880.825	2244
880.893	2566
880.907	2704
880.989	2710
881.000	2750
881.070	3256
881.106	3669
881.152	3670
881.213	2819
881.233	2649
881.315	2707
881.319	2743
881.396	3491
881.426	3297
881.478	2731
881.532	3577
881.559	4111
881.639	3626
881.641	3596
881.722	3014
881.745	2946
881.803	3217
881.852	3344
881.885	3239
881.958	2622
881.966	2586
882.047	2411
882.064	2471
882.129	2386
882.171	2268
882.210	2216
882.277	2035
882.291	1998
882.372	2391
882.383	2428
882.454	3424
882.489	3647
882.535	3304
882.596	3346
882.616	3418
882.697	3224
882.702	3184
882.778	2385
882.808	2231
882.859	1772
882.914	1711
882.940	1988
883.020	2702
883.021	2700
883.102	2717
883.127	2953
883.183	3669
883.233	3131
883.264	2422
883.339	1266
883.345	1211
883.426	1224
883.445	1334
883.507	2008
883.551	2279
883.587	2647
883.657	3375
883.668	3375
883.749	3161
883.763	3050
883.830	2283
883.869	1988
883.910	1803
883.975	2094
883.991	2273
884.072	2318
884.081	2418
884.152	2989
884.187	3052
884.233	3332
884.292	3619
884.314	3394
884.394	1539
884.398	1516
884.475	1663
884.504	1611
884.555	1509
884.610	1682
884.636	1872
884.716	2124
884.716	2126
884.797	3295
884.821	3542
884.877	3096
884.927	2321
884.958	2021
885.033	1708
885.038	1662
885.118	1195
885.139	1016
885.199	1069
885.244	1260
885.279	1624
885.350	2651
885.359	2718
885.439	3268
885.456	3138
885.520	2152
885.561	2024
885.600	1924
885.667	1730
885.680	1796
885.760	2184
885.773	2191
885.840	1374
885.878	1133
885.920	1460
885.984	1934
886.000	1989
886.080	2115
886.089	2156
886.160	2361
886.195	2344
886.240	2114
886.300	1764
886.320	1774
886.400	2115
886.406	2109
886.480	911
886.511	670
886.560	1188
886.616	1549
886.640	1628
886.720	1890
886.722	1901
886.800	1559
886.827	1427
886.879	1479
886.932	1553
886.959	2023
887.038	3327
887.039	3318
887.119	2401
887.143	2183
887.198	1984
887.248	1701
887.278	1657
887.354	1680
887.358	1702
887.437	2057
887.459	2247
887.517	2445
887.564	2365
887.596	1965
887.669	1082
887.676	1049
887.755	820
887.774	783
887.835	819
887.880	886
887.914	1151
887.985	1563
887.994	1672
888.073	2943
888.090	3115
888.153	3320
888.195	3525
888.232	2784
888.300	1579
888.311	1553
888.391	1273
888.405	1236
888.470	983
888.510	814
888.549	1134
888.615	1787
888.628	1842
888.708	2074
888.720	2113
888.787	1830
888.825	1641
888.866	1335
888.930	990
888.945	1091
889.024	1635
889.035	1705
889.103	1854
889.140	1932
889.182	1731
889.245	1497
889.261	1437
889.340	1124
889.349	1095
889.419	1096
889.454	1116
889.498	1163
889.559	1255
889.577	1322
889.656	1633
889.664	1670
889.735	1966
889.768	2111
889.814	1878
889.873	1565
889.978	1432
890.083	1675
890.187	1335
890.292	1445
890.397	1665
890.501	1220
890.606	653
890.710	2542
890.815	1649
890.919	1605
891.024	2075
891.128	546
891.233	2352
891.337	2106
891.442	1305
891.546	2430
891.650	1216
891.755	1569
891.859	2720
891.963	2475
892.068	2075
892.172	1577
892.276	740
892.380	1696
892.484	1995
892.589	1999
892.693	1273
892.797	455
892.901	1303
893.005	1401
893.109	3262
893.213	2152
893.317	1718
893.421	1389
893.525	1296
893.629	479
893.733	1754
893.837	1342
893.941	1367
894.045	802
894.148	721
894.252	1491
894.356	1853
894.460	1167
894.564	1296
894.667	1439
894.771	1325
894.875	807
894.978	186
895.082	1198
895.186	1399
895.289	1988
895.393	878
895.496	1479
895.600	874
895.703	1375
895.807	1543
895.910	1753
896.014	1498
896.117	724
896.221	1689
896.324	1932
896.427	276
896.531	1134
896.634	982
896.737	1644
896.840	1352
896.944	1924
897.047	2443
897.150	1351
897.253	1318
897.356	1075
897.460	375
897.563	1668
897.666	1847
897.769	1450
897.872	263
897.975	413
898.078	987
898.181	327
898.284	374
898.387	1811
898.490	1615
898.593	1256
898.695	737
898.798	1559
898.901	127
899.004	1050
899.107	1101
899.209	2204
899.312	1868
899.415	1333
899.518	185
899.620	798
899.723	485
899.826	1464
899.928	1235
900.031	989
900.133	1458
900.236	1036
900.338	234
900.441	948
900.543	1212
900.646	1346
900.748	305
900.851	1070
900.953	819
901.055	232
901.158	750
901.260	1161
901.362	979
901.465	971
901.567	2073
901.669	1906
901.771	298
901.873	544
901.976	1125
902.078	1415
902.180	1222
902.282	588
902.384	853
902.486	1709
902.588	1074
902.690	692
902.792	337
902.894	1122
902.996	1620
903.098	936
903.200	94
903.302	829
903.404	565
903.505	474
903.607	1532
903.709	1903
903.811	2015
903.913	1025
904.014	852
904.116	359
904.218	1106
904.319	833
904.421	1649
904.523	943
904.624	811
904.726	373
904.827	697
904.929	829
905.030	553
905.132	2730
905.233	1861
905.335	1009
905.436	827
905.537	683
905.639	430
905.740	326
905.841	1392
905.943	974
906.044	840
906.145	937
906.247	182
906.348	856
906.449	1202
906.550	841
906.651	255
906.752	1251
906.854	411
906.955	584
907.056	49
907.157	988
907.258	1379
907.359	821
907.460	923
907.561	-558
907.662	504
907.762	968
907.863	926
907.964	1289
908.065	1166
908.166	538
908.267	359
908.367	315
908.468	839
908.569	658
908.670	1382
908.770	1335
908.871	1092
908.971	1067
909.072	959
909.173	207
909.273	427
909.374	1813
909.474	776
909.575	134
909.675	178
909.776	1209
909.876	684
909.977	1119
910.077	1805
910.177	1053
910.278	863
910.378	566
910.478	309
910.579	579
910.679	972
910.779	1021
910.879	364
910.980	920
911.080	1433
911.180	1301
911.280	877
911.380	415
911.480	401
911.580	422
911.680	560
911.780	1575
911.880	976
911.980	545
912.080	1017
912.180	587
912.280	365
912.380	-159
912.480	493
912.580	807
912.679	-173
912.779	1564
912.879	813
912.979	666
913.078	524
913.178	626
913.278	667
913.377	763
913.477	392
913.577	498
913.676	1517
913.776	477
913.875	456
913.975	824
914.074	633
914.174	791
914.273	-89
914.373	1403
914.472	473
914.572	136
914.671	445
914.770	884
914.870	631
914.969	257
915.068	795
915.167	1097
915.267	603
915.366	329
915.465	46
915.564	1329
915.663	255
915.763	1007
915.862	1181
915.961	737
916.060	551
916.159	939
916.258	-61
916.357	369
916.456	1054
916.555	370
916.654	85
916.752	945
916.851	1455
916.950	1013
917.049	986
917.148	594
917.247	1018
917.345	634
917.444	747
917.543	372
917.642	624
917.740	1428
917.839	1693
917.937	2325
918.036	1537
918.135	1158
918.233	1487
918.332	332
918.430	1239
918.529	1478
918.627	1308
918.726	277
918.824	775
918.923	1497
919.021	484
919.119	428
919.218	638
919.316	955
919.414	470
919.512	786
919.611	1236
919.709	1992
919.807	1855
919.905	1701
920.003	1454
920.102	1691
920.200	1594
920.298	1393
920.396	1037
920.494	795
920.592	1442
920.690	1709
920.788	1023
920.886	1522
920.984	1656
921.082	1559
921.180	1866
921.277	2455
921.375	2230
921.473	3189
921.571	2537
921.669	2522
921.766	2276
921.864	2792
921.962	3944
922.060	2853
922.157	2303
922.255	2756
922.352	3336
922.450	3401
922.548	3859
922.645	3199
922.743	4812
922.840	6822
922.938	8717
923.035	7062
923.133	6700
923.230	7604
923.327	10041
923.425	9177
923.522	8340
923.619	8539
923.717	7459
923.814	6810
923.911	6796
924.008	7027
924.106	7759
924.203	6675
924.300	7534
924.397	7078
924.494	7530
924.591	6130
924.688	6750
924.786	6495
924.883	6476
924.979	6139
925.077	7033
925.173	7100
925.270	6299
925.367	6969
925.464	7078
925.561	7839
925.658	7573
925.755	6460
925.852	7247
925.948	6888
926.045	6546
926.142	6594
926.239	6646
926.335	5481
926.432	6684
926.529	6929
926.625	7420
926.722	5218
926.818	6213
926.915	7333
927.011	6383
927.108	5985
927.204	6485
927.301	5824
927.397	6439
927.494	8406
927.590	4369
927.687	5744
927.783	7073
927.879	6954
927.976	5529
928.072	6081
928.168	6785
928.264	6531
928.361	5923
928.457	7181
928.553	5965
928.649	6143
928.745	5486
928.841	4866
928.937	6199
929.033	5491
929.129	5344
929.225	6874
929.321	6059
929.417	5027
929.513	6485
929.609	5369
929.705	4736
929.801	6581
929.897	4286
929.993	5041
930.089	5442
930.184	4462
930.280	5092
930.376	6896
930.471	5653
930.567	4526
930.663	5253
930.758	4800
930.854	5472
930.950	5041
931.045	5121
931.141	4859
931.236	6265
931.332	5279
931.427	4153
931.523	5907
931.618	6050
931.714	2898
931.809	4944
931.905	5346
932.000	2696
932.095	3821
932.191	5570
932.286	6324
932.381	4496
932.476	3954
932.572	4012
932.667	4538
932.762	4260
932.857	4875
932.952	5587
933.047	5158
933.142	3096
933.237	4913
933.332	4069
933.427	5230
933.522	4519
933.617	4310
933.712	4070
933.807	5007
933.902	5622
933.997	5544
934.092	3653
934.187	4089
934.282	4957
934.376	4292
934.471	5588
934.566	4006
934.661	4357
934.755	4854
934.850	4355
934.945	4333
935.039	3752
935.134	3358
935.228	3830
935.323	6314
935.417	3558
935.512	2900
935.606	2369
935.701	5071
935.795	5047
935.890	4086
935.984	3299
936.079	2834
936.173	2937
936.267	3755
936.362	2810
936.456	3685
936.550	5144
936.644	4893
936.738	2620
936.833	2840
936.927	2090
937.021	3864
937.115	3841
937.209	3947
937.303	4338
937.397	1886
937.491	3721
937.585	4186
937.679	4282
937.773	2237
937.867	2252
937.961	2717
938.055	4029
938.149	4475
938.243	2884
938.337	2036
938.430	2733
938.524	5326
938.618	3188
938.712	2497
938.805	3076
938.899	4310
938.993	4032
939.086	2672
939.180	974
939.274	2669
939.367	3243
939.461	4395
939.554	2955
939.648	2228
939.741	1755
939.835	3098
939.928	4249
940.022	3957
940.115	2929
940.208	3721
940.302	4656
940.395	3975
940.488	2297
940.582	2188
940.675	2487
940.768	2096
940.861	3185
940.954	3352
941.048	2038
941.141	1870
941.234	1653
941.327	2713
941.420	4040
941.513	3047
941.606	2317
941.699	3127
941.792	2505
941.885	3213
941.978	2970
942.071	2402
942.164	1562
942.257	2740
942.349	1826
942.442	3286
942.535	1707
942.628	2030
942.721	3373
942.813	2371
942.906	3092
942.999	2161
943.091	1715
943.184	1901
943.277	1980
943.369	2131
943.462	1729
943.554	2226
943.647	2507
943.739	3723
943.832	3491
943.924	638
944.017	2598
944.109	1471
944.201	2512
944.294	2068
944.386	2535
944.478	1784
944.571	1960
944.663	1500
944.755	1648
944.847	2604
944.940	2243
945.032	22
945.124	1407
945.216	2951
945.308	1924
945.400	2390
945.492	2291
945.584	2754
945.676	3119
945.768	2456
945.860	2288
945.952	2639
946.044	2414
946.136	1932
946.228	2249
946.320	2194
946.412	2017
946.503	3330
946.595	3333
946.687	2279
946.779	363
946.870	1900
946.962	1384
947.054	2396
947.145	2460
947.237	1600
947.329	1483
947.420	1797
947.512	2147
947.603	1084
947.695	1590
947.786	1005
947.878	727
947.969	2118
948.061	1955
948.152	1390
948.243	869
948.335	976
948.426	1864
948.517	757
948.609	1348
948.700	2008
948.791	946
948.882	961
948.973	1032
949.065	1387
949.156	1861
949.247	940
949.338	1346
949.429	19
949.520	966
949.611	657
949.702	1792
949.793	1074
949.884	1464
949.975	2004
950.066	629
950.157	799
950.247	1164
950.338	1037
950.429	53
950.520	1308
950.611	643
950.701	1472
950.792	2294
950.883	1519
950.973	1167
951.064	1677
951.155	1469
951.245	1128
951.336	1896
951.427	1010
951.517	3281
951.608	1853
951.698	822
951.788	1010
951.879	654
951.969	170
952.060	620
952.150	1913
952.240	1457
952.331	822
952.421	1823
952.511	360
952.602	433
952.692	231
952.782	1033
952.872	1148
952.962	830
953.052	1509
953.143	483
953.233	1063
953.323	1866
953.413	1437
953.503	1770
953.593	1011
953.683	873
953.773	-1
953.863	582
953.953	436
954.042	1495
954.132	737
954.222	2026
954.312	762
954.402	153
954.492	819
954.581	844
954.671	-220
954.761	540
954.850	1563
954.940	-150
955.030	496
955.119	-448
955.209	341
955.298	768
955.388	1114
955.477	1042
955.567	413
955.656	295
955.746	1085
955.835	682
955.925	923
956.014	429
956.103	1341
956.193	1439
956.282	1943
956.371	895
956.461	1297
956.550	1071
956.639	1141
956.728	-368
956.817	1069
956.906	647
956.995	1854
957.085	1118
957.174	427
957.263	743
957.352	668
957.441	956
957.530	627
957.619	1182
957.708	601
957.796	220
957.885	492
957.974	243
958.063	545
958.152	-809
958.241	808
958.329	315
958.418	264
958.507	117
958.596	1472
958.684	0
958.773	50
958.861	467
958.950	-170
959.039	724
959.127	222
959.216	-58
959.304	474
959.393	608
959.481	654
959.570	553
959.658	-267
959.746	68
959.835	368
959.923	669
960.011	409
960.100	724
960.188	283
960.276	1241
960.365	189
960.453	594
960.541	-151
960.629	581
960.717	277
960.805	-820
960.893	374
960.981	597
961.069	915
961.158	1083
961.245	1742
961.333	501
961.421	1274
961.509	786
961.597	465
961.685	-99
961.773	855
961.861	425
961.949	1347
962.036	313
962.124	774
962.212	119
962.299	-169
962.387	986
962.475	968
962.562	-605
962.650	1027
962.738	-246
962.825	-155
962.913	557
963.000	209
963.088	956
963.175	625
963.263	521
963.350	677
963.438	-439
963.525	-416
963.612	758
963.700	275
963.787	957
963.874	-50
963.962	157
964.049	-387
964.136	873
964.223	-400
964.310	469
964.398	395
964.485	-59
964.572	-205
964.659	611
964.746	268
964.833	-35
964.920	117
965.007	208
965.094	-8
965.181	895
965.268	657
965.355	163
965.441	811
965.528	374
965.615	358
965.702	70
965.789	-24
965.875	837
965.962	546
966.049	-612
966.136	703
966.222	573
966.309	1430
966.395	388
966.482	1608
966.569	231
966.655	697
966.742	879
966.828	244
966.915	-187
967.001	511
967.087	-165
967.174	-353
967.260	1248
967.347	106
967.433	152
967.519	621
967.605	358
967.692	324
967.778	350
967.864	976
967.950	-353
968.036	-304
968.123	274
968.209	210
968.295	-548
968.381	2225
968.467	-472
968.553	-421
968.639	896
968.725	-297
968.811	465
968.897	706
968.983	298
969.069	-262
969.154	426
969.240	641
969.326	-358
969.412	271
969.497	35
969.583	-28
969.669	1092
969.755	904
969.840	468
969.926	1522
970.012	1013
970.097	2305
970.183	965
970.268	-573
970.354	659
970.439	-239
970.525	558
970.610	-327
970.696	433
970.781	-258
970.866	-506
970.952	741
971.037	537
971.122	481
971.208	675
971.293	89
971.378	-393
971.463	648
971.549	138
971.634	1001
971.719	-351
971.804	-2
971.889	236
971.974	-165
972.059	-338
972.144	774
972.229	1
972.314	538
972.399	540
972.484	158
972.569	591
972.654	-704
972.739	446
972.824	-364
972.908	-36
972.993	-41
973.078	311
973.163	798
973.247	321
973.332	-781
973.417	938
973.501	-616
973.586	450
973.671	550
973.755	-66
973.840	402
973.924	1073
974.009	1208
974.093	413
974.178	1352
974.262	695
974.346	399
974.431	-764
974.515	768
974.600	313
974.684	1441
974.768	1041
974.852	613
974.937	-236
975.021	1382
975.105	701
975.189	-566
975.273	487
975.358	-331
975.442	-770
975.526	492
975.610	395
975.694	-252
975.778	494
975.862	-84
975.946	-1624
976.030	1887
976.114	12
976.198	190
976.281	189
976.365	371
976.449	63
976.533	945
976.617	-454
976.700	186
976.784	-254
976.868	-351
976.951	-447
977.035	116
977.119	660
977.202	-410
977.286	179
977.369	367
977.453	2367
977.536	696
977.620	543
977.703	1373
977.787	-131
977.870	1081
977.953	1101
978.037	-746
978.120	347
978.203	-317
978.287	712
978.370	850
978.453	206
978.536	535
978.620	1402
978.703	-227
978.786	-630
978.869	-380
978.952	-684
979.035	2225
979.118	738
979.201	-231
979.284	556
979.367	15
979.450	737
979.533	-272
979.616	474
979.699	-286
979.782	-281
979.865	-363
979.948	-507
980.030	-214
980.113	467
980.196	31
980.279	842
980.361	123
980.444	-127
980.526	1133
980.609	1344
980.692	1594
980.774	1436
980.857	91
980.939	2141
981.022	759
981.104	966
981.187	-455
981.269	445
981.352	930
981.434	-66
981.516	-129
981.599	1552
981.681	247
981.763	392
981.846	87
981.928	-275
982.010	-48
982.092	-179
982.174	1032
982.256	467
982.339	-389
982.421	362
982.503	191
982.585	-846
982.667	-87
982.749	246
982.831	299
982.913	-532
982.995	690
983.077	105
983.158	1210
983.240	-278
983.322	1230
983.404	2253
983.486	879
983.568	1312
983.649	1529
983.731	1217
983.813	706
983.894	159
983.976	759
984.058	630
984.139	960
984.221	479
984.302	1048
984.384	836
984.465	535
984.547	1244
984.628	175
984.710	598
984.791	710
984.872	639
984.954	462
985.035	995
985.116	-173
985.198	132
985.279	1111
985.360	549
985.441	634
985.522	859
985.604	926
985.685	-749
985.766	922
985.847	1553
985.928	-451
986.009	145
986.090	432
986.171	821
986.252	286
986.333	755
986.414	947
986.495	274
986.576	846
986.656	1267
986.737	746
986.818	898
986.899	428
986.980	1247
987.060	1424
987.141	777
987.222	1800
987.302	1913
987.383	1727
987.464	940
987.544	1849
987.625	1164
987.705	1628
987.786	866
987.866	319
987.947	703
988.027	1029
988.108	618
988.188	1684
988.268	1139
988.349	1363
988.429	1271
988.509	948
988.589	-103
988.670	-9
988.750	1926
988.830	1466
988.910	1454
988.990	1237
989.070	434
989.151	388
989.231	403
989.311	1774
989.391	762
989.471	80
989.551	1086
989.631	-143
989.711	1216
989.791	79
989.870	684
989.950	1965
990.030	919
990.110	925
990.190	-86
990.269	363
990.349	1351
990.429	360
990.509	915
990.588	209
990.668	1110
990.747	1129
990.827	637
990.907	1306
990.986	919
991.066	1290
991.145	-485
991.225	1799
991.304	-295
991.383	399
991.463	53
991.542	709
991.622	-252
991.701	685
991.780	147
991.859	289
991.939	506
992.018	604
992.097	367
992.176	302
992.256	111
992.335	-246
992.414	367
992.493	-90
992.572	-259
992.651	1716
992.730	-363
992.809	643
992.888	-506
992.967	638
993.046	662
993.125	-288
993.203	-199
993.282	424
993.361	262
993.440	-452
993.519	-957
993.597	587
993.676	498
993.755	845
993.834	-1
993.912	-436
993.991	836
994.069	465
994.148	616
994.226	9
994.305	474
994.384	203
994.462	604
994.540	-658
994.619	-471
994.697	267
994.776	-1086
994.854	890
994.932	160
995.011	-804
995.089	-77
995.167	-547
995.245	-80
995.324	-583
995.402	581
995.480	138
995.558	-627
995.636	-1788
995.714	-1044
995.792	888
995.870	-263
995.948	-847
996.026	-328
996.104	-1255
996.182	770
996.260	-754
996.338	-215
996.416	-1129
996.494	-881
996.572	509
996.649	-1328
996.727	-1328
996.805	402
996.883	-717
996.960	-1121
997.038	462
997.116	-191
997.193	-580
997.271	53
997.348	-177
997.426	-1015
997.504	-565
997.581	926
997.658	385
997.736	-1747
997.813	-468
997.891	90
997.968	-356
998.046	-1241
998.123	-625
998.200	360
998.277	-400
998.355	-726
998.432	-2119
998.509	-200
998.586	605
998.663	-636
998.741	-358
998.818	-259
998.895	-1313
998.972	248
999.049	-724
999.126	-1164
999.203	-554
999.280	346
999.357	-768
999.434	-551
999.511	-552
999.587	448
999.664	-1401
999.741	-366
999.818	83
999.895	-533
999.971	-711
1000.048	-1016
1000.125	775
1000.202	-1361
1000.278	-509
1000.355	200
1000.431	-1180
1000.508	-1443
1000.584	-1409
1000.661	-475
1000.738	-1079
1000.814	-736
1000.890	-490
1000.967	-511
1001.043	-1148
1001.120	-2072
1001.196	-844
1001.272	-1153
1001.349	-848
1001.425	-225
1001.501	-685
1001.577	-1945
1001.654	-987
1001.730	-674
1001.806	40
1001.882	-1119
1001.958	265
1002.034	-1114
1002.110	-1263
1002.186	-1613
1002.262	-485
1002.338	-778
1002.414	-850
1002.490	-254
1002.566	-2155
1002.642	-1391
1002.718	-446
1002.794	-1089
1002.870	-1163
1002.945	-688
1003.021	-1408
1003.097	-1496
1003.173	-190
1003.248	-2534
1003.324	-432
1003.400	-812
1003.475	-1135
1003.551	-513
1003.626	-1361
1003.702	-1067
1003.777	-680
1003.853	-1373
1003.928	-2155
1004.004	-968
1004.079	-1171
1004.155	-264
1004.230	-1643
1004.305	-710
1004.381	-1182
1004.456	-827
1004.531	-1160
1004.607	-1521
1004.682	-651
1004.757	-1324
1004.832	-372
1004.907	-1685
1004.982	-2202
1005.057	-1191
1005.133	-761
1005.208	-984
1005.283	-689
1005.358	-935
1005.433	-1647
1005.508	-1217
1005.583	-1654
1005.657	-1655
1005.732	-608
1005.807	-1532
1005.882	-1543
1005.957	-798
1006.032	-1122
1006.106	-1075
1006.181	-1268
1006.256	-1618
1006.331	-2078
1006.405	-1673
1006.480	-847
1006.554	-2551
1006.629	-902
1006.704	-1448
1006.778	-1390
1006.853	-817
1006.927	-1386
1007.002	-1015
1007.076	-1675
1007.150	-1953
1007.225	-1241
1007.299	-505
1007.373	-1459
1007.448	-2213
1007.522	-950
1007.596	-1113
1007.671	-1772
1007.745	-541
1007.819	-2246
1007.893	-2107
1007.967	-1175
1008.041	-1214
1008.115	-237
1008.190	-1738
1008.264	-933
1008.338	-2288
1008.412	-1503
1008.486	-536
1008.560	-1608
1008.633	-1614
1008.707	-1660
1008.781	-668
1008.855	-610
1008.929	-1805
1009.003	-1150
1009.076	-1685
1009.150	-1347
1009.224	-1665
1009.298	-1259
1009.371	-2376
1009.445	-1239
1009.519	-1844
1009.592	-1146
1009.666	-1829
1009.739	-1634
1009.813	-1918
1009.886	-229
1009.960	-2060
1010.033	-1139
1010.107	-1974
1010.180	-1864
1010.253	-2484
1010.327	-1566
1010.400	-1679
1010.473	-1880
1010.547	448
1010.620	-1166
1010.693	-1860
1010.766	-2814
1010.840	-1384
1010.913	-1898
1010.986	-1778
1011.059	-1966
1011.132	-2154
1011.205	-1012
1011.278	-1791
1011.351	-1336
1011.424	-1335
1011.497	-1706
1011.570	-1555
1011.643	-1197
1011.716	-1856
1011.789	-1252
1011.862	-1804
1011.934	-612
1012.007	-2558
1012.080	-1152
1012.153	-1197
1012.225	-709
1012.298	-1747
1012.371	-1754
1012.443	-1251
1012.516	-2274
1012.588	-1035
1012.661	-1524
1012.733	-1505
1012.806	-1252
1012.879	-2492
1012.951	-1674
1013.023	-1800
1013.096	-1475
1013.168	-2148
1013.241	-956
1013.313	-1839
1013.385	-1775
1013.458	-1798
1013.530	-1892
1013.602	-2325
1013.674	-1478
1013.746	-1936
1013.819	-1763
1013.891	-1140
1013.963	-1783
1014.035	-1931
1014.107	-969
1014.179	-1312
1014.251	-2091
1014.323	-1208
1014.395	-1731
1014.467	-1729
1014.539	-1399
1014.611	-1983
1014.683	-1359
1014.754	-1491
1014.826	-2420
1014.898	-1923
1014.970	-2377
1015.042	-513
1015.113	-1575
1015.185	-1765
1015.257	-2932
1015.328	-767
1015.400	-1946
1015.471	-1913
1015.543	-3275
1015.615	-1607
1015.686	-2671
1015.757	-2216
1015.829	-1534
1015.901	-2158
1015.972	-2249
1016.043	-1915
1016.115	-1797
1016.186	-2121
1016.257	-2458
1016.328	-1977
1016.400	-787
1016.471	-2083
1016.542	-2036
1016.613	-1816
1016.685	-1586
1016.756	-1867
1016.827	-1839
1016.898	-2309
1016.969	-2269
1017.040	-1178
1017.111	-2056
1017.182	-2424
1017.253	-2292
1017.324	-2316
1017.395	-2099
1017.466	-1566
1017.537	-1703
1017.608	-2364
1017.678	-1597
1017.749	-3121
1017.820	-1723
1017.891	-2291
1017.961	-2496
1018.032	-1652
1018.103	-1783
1018.173	-2232
1018.244	-2123
1018.315	-1500
1018.385	-1415
1018.456	-2446
1018.526	-2968
1018.597	-2106
1018.667	-2093
1018.738	-2044
1018.808	-1884
1018.878	-1705
1018.949	-2109
1019.019	-2125
1019.089	-2041
1019.160	-2014
1019.230	-2433
1019.300	-1577
1019.371	-1969
1019.441	-1075
1019.511	-1799
1019.581	-2088
1019.651	-2506
1019.721	-2025
1019.791	-2101
1019.861	-2056
1019.931	-1159
1020.001	-1898
1020.071	-1856
1020.141	-2226
1020.211	-1943
1020.281	-2553
1020.351	-1722
1020.421	-1317
1020.491	-1535
1020.560	-2488
1020.630	-2110
1020.700	-3252
1020.770	-2792
1020.839	-1931
1020.909	-1879
1020.979	-1649
1021.048	-2620
1021.118	-2030
1021.187	-1945
1021.257	-1165
1021.326	-1947
1021.396	-2399
1021.465	-1578
1021.535	-1770
1021.604	-2612
1021.674	-2114
1021.743	-1657
1021.812	-1844
1021.882	-2090
1021.951	-2509
1022.020	-2154
1022.089	-1525
1022.159	-2365
1022.228	-1806
1022.297	-2392
1022.366	-1818
1022.435	-2641
1022.504	-2084
1022.573	-2137
1022.642	-2640
1022.711	-2928
1022.781	-2314
1022.849	-1263
1022.918	-1679
1022.987	-1859
1023.056	-1914
1023.125	-2089
1023.194	-2109
1023.263	-1679
1023.331	-1529
1023.400	-2754
1023.469	-2159
1023.538	-2128
1023.606	-2252
1023.675	-1440
1023.744	-1945
1023.812	-2299
1023.881	-2434
1023.949	-1377
1024.018	-2163
1024.086	-2897
1024.155	-1824
1024.223	-2590
1024.292	-1586
1024.360	-2015
1024.429	-2482
1024.497	-2589
1024.565	-2016
1024.634	-1748
1024.702	-2585
1024.770	-2037
1024.838	-2763
1024.907	-2397
1024.975	-2315
1025.043	-1235
1025.111	-2605
1025.179	-2093
1025.247	-2116
1025.315	-2843
1025.383	-1647
1025.451	-1452
1025.519	-2381
1025.587	-2283
1025.655	-2074
1025.723	-2449
1025.791	-2306
1025.859	-1737
1025.927	-1841
1025.995	-2113
1026.062	-1808
1026.130	-2692
1026.198	-2405
1026.266	-2201
1026.333	-2208
1026.401	-2692
1026.469	-2125
1026.536	-1638
1026.604	-2063
1026.671	-2352
1026.739	-1932
1026.806	-2550
1026.874	-2231
1026.941	-2382
1027.009	-2293
1027.076	-2004
1027.144	-1261
1027.211	-2966
1027.278	-2606
1027.345	-2243
1027.413	-1791
1027.480	-2289
1027.547	-1898
1027.614	-2553
1027.682	-1933
1027.749	-2717
1027.816	-2223
1027.883	-1909
1027.950	-2697
1028.017	-2906
1028.084	-1988
1028.151	-2421
1028.218	-2193
1028.285	-2037
1028.352	-1972
1028.419	-2752
1028.486	-3260
1028.553	-2277
1028.619	-1820
1028.686	-1863
1028.753	-2897
1028.820	-2042
1028.886	-2544
1028.953	-2549
1029.020	-2406
1029.086	-2480
1029.153	-2223
1029.220	-2291
1029.286	-2461
1029.353	-3130
1029.419	-2141
1029.486	-1765
1029.552	-2060
1029.619	-2572
1029.685	-2078
1029.751	-2055
1029.818	-1990
1029.884	-1807
1029.951	-924
1030.017	-2687
1030.083	-2793
1030.149	-2759
1030.216	-3507
1030.282	-1888
1030.348	-1858
1030.414	-2018
1030.480	-2001
1030.546	-2318
1030.612	-1839
1030.678	-2743
1030.744	-2734
1030.810	-2363
1030.876	-2335
1030.942	-2364
1031.008	-2113
1031.074	-1799
1031.140	-2078
1031.206	-1303
1031.272	-2589
1031.337	-1851
1031.403	-1562
1031.469	-2307
1031.534	-2317
1031.600	-2183
1031.666	-2947
1031.731	-1955
1031.797	-2510
1031.863	-1745
1031.928	-1962
1031.994	-1878
1032.059	-2558
1032.125	-2764
1032.190	-1981
1032.256	-2496
1032.321	-2253
1032.386	-2380
1032.452	-1801
1032.517	-1972
1032.582	-1207
1032.647	-2286
1032.713	-2557
1032.778	-1865
1032.843	-2082
1032.908	-1944
1032.974	-1689
1033.039	-1915
1033.104	-2631
1033.169	-2458
1033.234	-2624
1033.299	-2632
1033.364	-1874
1033.429	-1670
1033.494	-1628
1033.559	-2294
1033.624	-2052
1033.688	-1242
1033.753	-2206
1033.818	-1679
1033.883	-2452
1033.948	-1717
1034.013	-1640
1034.077	-1555
1034.142	-1498
1034.207	-402
1034.271	-365
1034.336	-25
1034.400	-401
1034.465	-2151
1034.530	-2348
1034.594	-2023
1034.658	-1972
1034.723	-2299
1034.787	-1737
1034.852	-2552
1034.916	-2605
1034.981	-2842
1035.045	-2519
1035.109	-2646
1035.173	-2067
1035.238	-1729
1035.302	-2091
1035.366	-2475
1035.430	-1878
1035.495	-2691
1035.559	-1958
1035.623	-1274
1035.687	-3005
1035.751	-2431
1035.815	-1802
1035.879	-1692
1035.943	-1952
1036.007	-2350
1036.071	-1902
1036.135	-1633
1036.198	-1823
1036.262	-2336
1036.326	-2265
1036.390	-2195
1036.454	-2394
1036.517	-2467
1036.581	-1890
1036.645	-2136
1036.709	-1650
1036.772	-3276
1036.836	-2038
1036.900	-2492
1036.963	-2974
1037.026	-2094
1037.090	-2145
1037.154	-2387
1037.217	-2153
1037.280	-2253
1037.344	-2158
1037.407	-2584
1037.471	-2135
1037.534	-2425
1037.597	-2406
1037.661	-2440
1037.724	-1793
1037.787	-2708
1037.850	-1987
1037.913	-2756
1037.977	-1786
1038.040	-1634
1038.103	-2056
1038.166	-2918
1038.229	-1941
1038.292	-2838
1038.355	-2347
1038.418	-1838
1038.481	-2030
1038.544	-2691
1038.607	-2368
1038.670	-2546
1038.732	-2248
1038.795	-2575
1038.858	-2441
1038.921	-2009
1038.984	-1419
1039.046	-2397
1039.109	-1713
1039.172	-2014
1039.234	-2940
1039.297	-2457
1039.360	-1841
1039.422	-2071
1039.485	-2723
1039.547	-2426
1039.610	-2014
1039.672	-2904
1039.734	-2284
1039.797	-1625
1039.859	-1925
1039.922	-2760
1039.984	-1993
1040.046	-1914
1040.109	-1672
1040.171	-2103
1040.233	-2660
1040.295	-2561
1040.358	-1907
1040.420	-2520
1040.482	-3139
1040.544	-1935
1040.606	-1880
1040.668	-1900
1040.730	-1288
1040.792	-1835
1040.854	-2647
1040.916	-2685
1040.978	-2604
1041.040	-1923
1041.102	-1803
1041.164	-2683
1041.225	-2900
1041.287	-3102
1041.349	-2551
1041.411	-1973
1041.472	-3107
1041.534	-1950
1041.596	-2553
1041.657	-2171
1041.719	-1963
1041.781	-2280
1041.842	-2159
1041.904	-1576
1041.965	-2419
1042.027	-1711
1042.088	-2322
1042.150	-2173
1042.211	-1530
1042.272	-2241
1042.334	-2492
1042.395	-1766
1042.456	-2493
1042.518	-2205
1042.579	-1944
1042.640	-2101
1042.701	-1637
1042.763	-2613
1042.824	-2338
1042.885	-2381
1042.946	-2831
1043.007	-1458
1043.068	-2394
1043.129	-1989
1043.190	-2359
1043.251	-1765
1043.312	-1830
1043.373	-1392
1043.434	-1667
1043.495	-1920
1043.556	-1768
1043.616	-1875
1043.677	-2492
1043.738	-2414
1043.799	-2369
1043.859	-2547
1043.920	-2647
1043.981	-2946
1044.041	-2797
1044.102	-1937
1044.162	-1840
1044.223	-2304
1044.284	-2325
1044.344	-1606
1044.405	-2354
1044.465	-1938
1044.525	-2454
1044.586	-2099
1044.646	-1850
1044.707	-1743
1044.767	-2517
1044.827	-2266
1044.887	-1855
1044.948	-2444
1045.008	-1619
1045.068	-1454
1045.128	-2759
1045.188	-3017
1045.249	-1658
1045.309	-1549
1045.369	-2561
1045.429	-2400
1045.489	-2505
1045.549	-2411
1045.609	-2955
1045.669	-1668
1045.729	-2001
1045.789	-1811
1045.848	-2085
1045.908	-2001
1045.968	-1863
1046.028	-2225
1046.088	-2389
1046.147	-1120
1046.207	-1573
1046.267	-1055
1046.326	-1762
1046.386	-2055
1046.446	-1102
1046.505	-1660
1046.565	-1275
1046.624	-550
1046.684	-849
1046.743	-42
1046.803	-987
1046.862	-520
1046.922	0
