'Start Wavelength	183.907
'End Wavelength	1046.922
'Gate Delay	5.000
'Gate Width (ms)	1.050
'Laser Output Level	0.000
'X Position	0.000
'Y Position	0.000
'Z Position	0.000
'Grid Point Number	1.000
'Shot Number	100.000
183.907	790.000
183.977	-336.000
184.047	696
184.116	761
184.186	-493
184.256	497
184.325	251
184.395	-1047
184.465	835
184.534	-285
184.604	-617
184.674	527
184.743	-325
184.813	435
184.883	-6
184.952	-582
185.022	-99
185.092	-319
185.161	386
185.231	544
185.301	238
185.370	658
185.440	-282
185.509	-152
185.579	450
185.649	107
185.718	415
185.788	491
185.857	438
185.927	140
185.996	1094
186.066	442
186.136	234
186.205	96
186.275	718
186.344	-278
186.414	-21
186.483	-231
186.553	1040
186.622	611
186.692	344
186.761	237
186.831	479
186.900	376
186.970	648
187.039	308
187.109	930
187.178	19
187.248	603
187.317	-85
187.387	307
187.456	529
187.526	575
187.595	40
187.664	-30
187.734	14
187.803	-390
187.873	-438
187.942	101
188.012	347
188.081	-24
188.150	140
188.220	333
188.289	1207
188.358	438
188.428	846
188.497	27
188.567	371
188.636	262
188.705	137
188.775	127
188.844	159
188.913	566
188.983	648
189.052	-242
189.121	109
189.191	-97
189.260	1025
189.329	-24
189.399	242
189.468	457
189.537	-21
189.606	538
189.676	379
189.745	778
189.814	629
189.883	422
189.953	-297
190.022	-234
190.091	-731
190.161	668
190.230	850
190.299	-378
190.368	295
190.437	-65
190.507	431
190.576	317
190.645	257
190.714	-157
190.783	-19
190.853	589
190.922	407
190.991	236
191.060	389
191.129	176
191.198	350
191.268	269
191.337	51
191.406	501
191.475	365
191.544	1055
191.613	777
191.682	835
191.752	0
191.821	413
191.890	199
191.959	463
192.028	187
192.097	494
192.166	1140
192.235	-326
192.304	738
192.373	10
192.442	-84
192.511	445
192.580	352
192.650	957
192.719	-226
192.788	-192
192.857	-413
192.926	-31
192.995	88
193.064	6
193.133	90
193.202	-434
193.271	611
193.340	422
193.409	940
193.478	527
193.547	828
193.615	557
193.684	625
193.753	85
193.822	632
193.891	-314
193.960	278
194.029	353
194.098	352
194.167	379
194.236	713
194.305	604
194.374	-340
194.443	725
194.512	464
194.580	899
194.649	717
194.718	1516
194.787	-321
194.856	-296
194.925	212
194.994	88
195.062	-252
195.131	677
195.200	184
195.269	173
195.338	179
195.407	1101
195.475	277
195.544	1019
195.613	192
195.682	1041
195.751	98
195.819	-12
195.888	821
195.957	790
196.026	222
196.094	465
196.163	130
196.232	790
196.301	-246
196.369	227
196.438	554
196.507	-133
196.576	476
196.644	283
196.713	106
196.782	663
196.850	350
196.919	543
196.988	456
197.056	276
197.125	135
197.194	218
197.262	-123
197.331	356
197.400	104
197.468	648
197.537	422
197.606	266
197.674	462
197.743	1370
197.812	247
197.880	509
197.949	250
198.017	1377
198.086	707
198.155	99
198.223	633
198.292	1271
198.360	329
198.429	475
198.497	341
198.566	916
198.635	890
198.703	602
198.772	819
198.840	1011
198.909	404
198.977	629
199.046	302
199.114	780
199.183	836
199.251	936
199.320	-445
199.388	-489
199.457	290
199.525	38
199.594	-342
199.662	435
199.731	-578
199.799	474
199.867	550
199.936	-20
200.004	856
200.073	245
200.141	9
200.210	685
200.278	323
200.346	599
200.415	908
200.483	520
200.552	1093
200.620	638
200.688	463
200.757	814
200.825	737
200.893	-415
200.962	724
201.030	449
201.098	727
201.167	1335
201.235	468
201.303	376
201.372	789
201.440	1034
201.508	292
201.577	889
201.645	171
201.713	573
201.781	324
201.850	648
201.918	547
201.986	291
202.055	142
202.123	444
202.191	201
202.259	469
202.327	-173
202.396	788
202.464	252
202.532	698
202.600	856
202.669	293
202.737	507
202.805	135
202.873	300
202.941	-272
203.009	-122
203.078	580
203.146	1285
203.214	363
203.282	409
203.350	1473
203.418	420
203.487	1359
203.555	388
203.623	203
203.691	4
203.759	239
203.827	-99
203.895	1547
203.963	277
204.031	121
204.099	462
204.168	163
204.236	1305
204.304	861
204.372	435
204.440	55
204.508	311
204.576	472
204.644	-169
204.712	183
204.780	671
204.848	-420
204.916	363
204.984	314
205.052	961
205.120	281
205.188	469
205.256	607
205.324	-518
205.392	273
205.460	276
205.528	-354
205.596	751
205.664	790
205.732	-302
205.799	279
205.867	1562
205.935	314
206.003	424
206.071	249
206.139	116
206.207	582
206.275	603
206.343	133
206.411	536
206.478	285
206.546	653
206.614	440
206.682	89
206.750	990
206.818	1581
206.885	996
206.953	-197
207.021	936
207.089	570
207.157	204
207.225	60
207.292	366
207.360	200
207.428	10
207.496	235
207.563	1347
207.631	864
207.699	-430
207.767	350
207.834	889
207.902	638
207.970	282
208.038	368
208.105	288
208.173	-218
208.241	309
208.309	743
208.376	579
208.444	769
208.512	-139
208.579	112
208.647	1171
208.715	1132
208.782	456
208.850	700
208.918	-418
208.985	411
209.053	607
209.120	-16
209.188	65
209.256	1017
209.323	-525
209.391	-88
209.459	1366
209.526	641
209.594	334
209.661	380
209.729	821
209.796	325
209.864	891
209.932	-404
209.999	2126
210.067	1347
210.134	366
210.202	573
210.269	592
210.337	1439
210.404	224
210.472	877
210.539	593
210.607	446
210.674	500
210.742	154
210.809	399
210.877	1145
210.944	1375
211.012	-84
211.079	1844
211.146	648
211.214	308
211.281	1485
211.349	197
211.416	823
211.484	849
211.551	450
211.618	930
211.686	313
211.753	463
211.821	843
211.888	621
211.955	1397
212.023	1098
212.090	440
212.157	429
212.225	189
212.292	493
212.359	925
212.427	2613
212.494	1479
212.561	1763
212.629	449
212.696	620
212.763	685
212.831	67
212.898	1669
212.965	112
213.032	561
213.100	449
213.167	44
213.234	1465
213.301	365
213.369	630
213.436	32
213.503	307
213.570	715
213.638	900
213.705	405
213.772	297
213.839	98
213.906	1712
213.973	794
214.041	188
214.108	322
214.175	1065
214.242	278
214.309	400
214.376	1291
214.444	649
214.511	494
214.578	1606
214.645	984
214.712	908
214.779	350
214.846	54
214.913	1517
214.980	932
215.048	1973
215.115	1920
215.182	1502
215.249	692
215.316	1314
215.383	863
215.450	1261
215.517	202
215.584	448
215.651	419
215.718	860
215.785	774
215.852	302
215.919	1217
215.986	314
216.053	1071
216.120	-573
216.187	662
216.254	1252
216.321	608
216.388	283
216.455	1150
216.522	681
216.589	487
216.656	956
216.722	471
216.789	1712
216.856	1237
216.923	965
216.990	648
217.057	699
217.124	1306
217.191	62
217.258	970
217.324	513
217.391	1265
217.458	1214
217.525	825
217.592	1120
217.659	74
217.725	1625
217.792	733
217.859	623
217.926	558
217.993	289
218.059	822
218.126	-154
218.193	-46
218.260	1339
218.327	839
218.393	596
218.460	592
218.527	124
218.594	775
218.660	778
218.727	551
218.794	317
218.860	897
218.927	-164
218.994	132
219.061	337
219.127	548
219.194	-80
219.261	583
219.327	593
219.394	643
219.461	-192
219.527	689
219.594	452
219.661	887
219.727	-281
219.794	1073
219.860	-96
219.927	1391
219.994	2003
220.060	3497
220.127	3152
220.193	2569
220.260	518
220.326	1431
220.393	1563
220.460	1543
220.526	780
220.593	890
220.659	1576
220.726	910
220.792	2027
220.859	1923
220.925	2025
220.992	3304
221.058	3181
221.125	2079
221.191	1914
221.258	587
221.324	1575
221.391	230
221.457	82
221.524	719
221.590	927
221.657	2690
221.723	1027
221.789	1471
221.856	1442
221.922	611
221.989	1215
222.055	529
222.121	-407
222.188	1790
222.254	897
222.321	1349
222.387	349
222.453	1239
222.520	604
222.586	294
222.652	480
222.719	-344
222.785	978
222.851	706
222.918	63
222.984	860
223.050	-5
223.116	-554
223.183	1100
223.249	-82
223.315	-98
223.382	654
223.448	144
223.514	-361
223.580	-82
223.647	131
223.713	168
223.779	746
223.845	-243
223.911	1092
223.978	-1003
224.044	1261
224.110	121
224.176	378
224.242	-868
224.309	-1076
224.375	257
224.441	472
224.507	-621
224.573	-447
224.639	714
224.705	-393
224.772	464
224.838	-238
224.904	1254
224.970	395
225.036	408
225.102	-425
225.168	575
225.234	688
225.300	-32
225.366	570
225.432	107
225.499	336
225.565	601
225.631	229
225.697	-285
225.763	1001
225.829	677
225.895	118
225.961	861
226.027	1592
226.093	408
226.159	2120
226.225	1483
226.291	3450
226.357	5051
226.423	3745
226.489	2178
226.554	1347
226.620	1330
226.686	1724
226.752	1389
226.818	2959
226.884	6897
226.950	7010
227.016	3023
227.082	2128
227.148	1287
227.214	858
227.279	736
227.345	521
227.411	2148
227.477	3435
227.543	4306
227.609	4755
227.674	3857
227.740	1946
227.806	1595
227.872	778
227.938	280
228.003	1476
228.069	583
228.135	652
228.201	680
228.267	59
228.332	1315
228.398	-1289
228.464	744
228.530	-189
228.595	1021
228.661	23
228.727	260
228.792	1402
228.858	-206
228.924	-539
228.990	1531
229.055	-315
229.121	46
229.187	954
229.252	112
229.318	-33
229.384	950
229.449	57
229.515	-931
229.581	-514
229.646	1754
229.712	14
229.777	205
229.843	601
229.909	27
229.974	1330
230.040	300
230.105	79
230.171	305
230.236	1263
230.302	1413
230.368	109
230.433	-597
230.499	307
230.564	423
230.630	-353
230.695	241
230.761	977
230.826	-884
230.892	2675
230.957	34
231.023	480
231.088	399
231.154	89
231.219	125
231.284	411
231.350	1093
231.415	-909
231.481	205
231.546	228
231.612	-395
231.677	-55
231.742	406
231.808	1642
231.873	-118
231.939	-1186
232.004	1062
232.069	998
232.135	-250
232.200	34
232.265	127
232.331	-84
232.396	95
232.461	-398
232.527	-606
232.592	-501
232.657	129
232.723	-78
232.788	102
232.853	820
232.918	900
232.984	-1055
233.049	-174
233.114	-280
233.179	978
233.245	1179
233.310	-155
233.375	-610
233.440	580
233.506	-616
233.571	116
233.636	232
233.701	151
233.766	362
233.832	479
233.897	179
233.962	-1048
234.027	950
234.092	717
234.157	-134
234.222	505
234.288	631
234.353	-190
234.418	1367
234.483	1238
234.548	44
234.613	29
234.678	617
234.743	-159
234.808	1510
234.873	-153
234.938	2405
235.004	1006
235.069	936
235.134	65
235.199	762
235.264	263
235.329	-1004
235.394	408
235.459	1245
235.524	-536
235.589	1018
235.654	-213
235.719	-1006
235.784	-78
235.849	204
235.913	1109
235.978	454
236.043	-100
236.108	-255
236.173	-295
236.238	269
236.303	350
236.368	454
236.433	1140
236.498	67
236.563	1356
236.627	2352
236.692	8993
236.757	8501
236.822	2408
236.887	1572
236.952	2304
237.017	532
237.081	2590
237.146	1124
237.211	3718
237.276	8813
237.341	13457
237.405	5660
237.470	1856
237.535	1592
237.600	1445
237.664	1015
237.729	23
237.794	623
237.859	3387
237.923	1233
237.988	-110
238.053	820
238.118	104
238.182	1091
238.247	1854
238.312	-425
238.376	541
238.441	-272
238.506	1382
238.570	-464
238.635	1096
238.700	1205
238.764	-75
238.829	688
238.893	143
238.958	1175
239.023	615
239.087	469
239.152	947
239.216	-138
239.281	828
239.346	382
239.410	961
239.475	-495
239.539	2189
239.604	519
239.668	2330
239.733	2487
239.797	5802
239.862	10270
239.926	8883
239.991	3899
240.055	2110
240.120	625
240.184	889
240.249	230
240.313	-250
240.378	994
240.442	245
240.507	1862
240.571	62
240.635	-667
240.700	1383
240.764	681
240.829	239
240.893	-109
240.957	585
241.022	934
241.086	1731
241.151	-360
241.215	-581
241.279	1634
241.344	-828
241.408	855
241.472	-308
241.537	2522
241.601	1600
241.665	-174
241.730	-99
241.794	1741
241.858	305
241.922	678
241.987	654
242.051	368
242.115	-17
242.179	387
242.244	-64
242.308	1292
242.372	260
242.436	69
242.501	842
242.565	-111
242.629	1
242.693	1395
242.757	-336
242.822	1322
242.886	344
242.950	1574
243.014	-655
243.078	708
243.142	321
243.206	-113
243.271	1113
243.335	-47
243.399	1927
243.463	3681
243.527	11241
243.591	1999
243.655	1146
243.719	523
243.783	1607
243.847	1095
243.911	2562
243.975	749
244.040	-650
244.104	1847
244.168	543
244.232	547
244.296	891
244.360	1656
244.424	-229
244.488	828
244.552	1199
244.615	-336
244.679	455
244.743	18
244.807	-484
244.871	-32
244.935	1012
244.999	-480
245.063	-523
245.127	1230
245.191	706
245.255	711
245.319	1023
245.383	-344
245.446	397
245.510	131
245.574	410
245.638	1005
245.702	-392
245.766	1821
245.829	1486
245.893	-861
245.957	-7
246.021	993
246.085	43
246.149	371
246.212	2942
246.276	2811
246.340	314
246.404	1324
246.467	1549
246.531	-434
246.595	1674
246.659	1474
246.722	-945
246.786	1158
246.850	600
246.913	1266
246.977	-956
247.041	1478
247.104	35
247.168	1217
247.232	2129
247.295	3477
247.359	1912
247.423	179
247.486	1170
247.550	1566
247.614	571
247.677	788
247.741	1153
247.804	522
247.868	1252
247.932	1136
247.995	4110
248.059	1357
248.122	-27
248.186	2282
248.249	1570
248.313	6127
248.376	6362
248.440	2886
248.503	169
248.567	2463
248.630	1183
248.694	2286
248.757	3585
248.821	7092
248.884	5355
248.948	2794
249.011	4686
249.075	7724
249.138	6333
249.202	2989
249.265	636
249.328	1931
249.392	1434
249.455	2017
249.519	1515
249.582	1540
249.645	1281
249.709	2152
249.772	1388
249.835	1632
249.899	1050
249.962	1971
250.025	543
250.089	2619
250.152	4596
250.215	2085
250.279	261
250.342	1783
250.405	2044
250.468	397
250.532	1281
250.595	3533
250.658	9984
250.721	17290
250.785	5335
250.848	4713
250.911	2260
250.974	2702
251.038	1350
251.101	3917
251.164	2828
251.227	3033
251.290	2390
251.354	4527
251.417	16233
251.480	15209
251.543	9983
251.606	26820
251.669	19402
251.732	7717
251.795	6907
251.859	7512
251.922	16968
251.985	9987
252.048	4771
252.111	2485
252.174	1920
252.237	4369
252.300	7808
252.363	9197
252.426	22371
252.489	8349
252.552	4004
252.615	2813
252.678	3569
252.741	6505
252.804	9020
252.867	23397
252.930	11938
252.993	6101
253.056	3881
253.119	1790
253.182	1619
253.245	2582
253.308	3315
253.371	1430
253.434	1413
253.497	2417
253.559	4501
253.622	2848
253.685	2043
253.748	2335
253.811	788
253.874	849
253.937	587
254.000	928
254.062	2258
254.125	2903
254.188	3627
254.251	2134
254.314	1237
254.376	1361
254.439	2296
254.502	2456
254.565	1114
254.628	4573
254.690	1433
254.753	539
254.816	523
254.878	1414
254.941	2031
255.004	3319
255.067	906
255.129	1074
255.192	-222
255.255	144
255.317	1008
255.380	596
255.443	395
255.505	524
255.568	249
255.631	400
255.693	1386
255.756	-138
255.819	1812
255.881	1057
255.944	619
256.006	79
256.069	-163
256.132	965
256.194	746
256.257	1591
256.319	994
256.382	1180
256.444	3630
256.507	2595
256.569	1763
256.632	1076
256.694	1092
256.757	6156
256.819	17037
256.882	6678
256.944	2369
257.007	2825
257.069	1174
257.132	1121
257.194	1874
257.257	1463
257.319	977
257.381	2281
257.444	4508
257.506	18856
257.569	19309
257.631	5974
257.693	2997
257.756	1812
257.818	887
257.880	1999
257.943	1331
258.005	792
258.067	479
258.130	825
258.192	1889
258.254	1142
258.317	1027
258.379	1730
258.441	1572
258.503	3402
258.566	2013
258.628	2773
258.690	358
258.753	1899
258.815	1845
258.877	1001
258.939	830
259.001	1444
259.064	261
259.126	667
259.188	989
259.250	1262
259.312	1163
259.375	317
259.437	1240
259.499	1066
259.561	617
259.623	1647
259.685	366
259.747	957
259.809	1496
259.872	2361
259.934	4497
259.996	6053
260.058	1836
260.120	528
260.182	1162
260.244	1273
260.306	147
260.368	1797
260.430	288
260.492	1447
260.554	2799
260.616	1689
260.678	3448
260.740	2408
260.802	490
260.864	1387
260.926	-62
260.988	2081
261.050	728
261.112	2304
261.174	4307
261.236	2983
261.298	1568
261.359	1815
261.421	2657
261.483	1575
261.545	2075
261.607	235
261.669	797
261.731	1093
261.793	2493
261.854	554
261.916	1986
261.978	1115
262.040	1357
262.102	1605
262.164	205
262.225	1213
262.287	912
262.349	1399
262.411	1309
262.472	1982
262.534	266
262.596	1121
262.658	512
262.719	-68
262.781	1308
262.843	1475
262.904	848
262.966	1384
263.028	1010
263.090	4256
263.151	12596
263.213	5059
263.275	2371
263.336	778
263.398	1057
263.459	717
263.521	1118
263.583	1658
263.644	1719
263.706	1624
263.767	112
263.829	1102
263.891	893
263.952	858
264.014	1078
264.075	876
264.137	3035
264.198	1975
264.260	440
264.321	980
264.383	1431
264.444	4984
264.506	1472
264.567	1753
264.629	2355
264.690	3222
264.752	1938
264.813	1384
264.875	364
264.936	1521
264.998	762
265.059	1236
265.120	1890
265.182	1203
265.243	9585
265.305	9116
265.366	3082
265.427	1821
265.489	1775
265.550	579
265.611	1452
265.673	1353
265.734	580
265.795	1966
265.857	702
265.918	98
265.979	3491
266.040	13490
266.102	12403
266.163	3135
266.224	1766
266.286	1259
266.347	486
266.408	1186
266.469	1825
266.530	683
266.592	1371
266.653	1944
266.714	1687
266.775	1536
266.836	891
266.898	227
266.959	1297
267.020	572
267.081	1541
267.142	1104
267.203	533
267.264	182
267.326	1701
267.387	502
267.448	629
267.509	864
267.570	1232
267.631	1282
267.692	287
267.753	1018
267.814	950
267.875	721
267.936	2997
267.997	1297
268.058	574
268.119	975
268.180	311
268.241	-150
268.302	1273
268.363	295
268.424	634
268.485	1313
268.546	177
268.607	927
268.668	-295
268.729	989
268.790	-151
268.851	915
268.912	1038
268.972	1695
269.033	865
269.094	570
269.155	898
269.216	446
269.277	495
269.338	665
269.398	673
269.459	976
269.520	1670
269.581	1894
269.642	756
269.702	460
269.763	970
269.824	478
269.885	744
269.945	1913
270.006	1130
270.067	642
270.128	876
270.188	1068
270.249	567
270.310	278
270.370	1540
270.431	716
270.492	677
270.553	1155
270.613	1975
270.674	2965
270.734	1339
270.795	1369
270.856	867
270.916	-67
270.977	892
271.038	1128
271.098	1018
271.159	1396
271.219	1466
271.280	1735
271.340	710
271.401	938
271.462	887
271.522	1276
271.583	619
271.643	616
271.704	422
271.764	733
271.825	2125
271.885	6057
271.946	7727
272.006	3988
272.066	4434
272.127	7526
272.187	8520
272.248	3468
272.308	2029
272.369	6207
272.429	3523
272.489	1888
272.550	1980
272.610	2459
272.671	1306
272.731	1294
272.791	1460
272.852	892
272.912	1681
272.972	537
273.033	884
273.093	1056
273.153	863
273.214	889
273.274	282
273.334	4035
273.394	6421
273.455	2783
273.515	2520
273.575	5218
273.635	2541
273.696	3517
273.756	5927
273.816	2431
273.876	1959
273.936	2014
273.997	2284
274.057	1488
274.117	1835
274.177	1708
274.237	7049
274.297	7043
274.358	2882
274.418	4839
274.478	4480
274.538	1619
274.598	810
274.658	2258
274.718	3534
274.778	1057
274.838	969
274.898	1177
274.958	2696
275.018	5329
275.078	4159
275.138	2016
275.198	1374
275.258	987
275.318	1071
275.378	1661
275.438	1705
275.498	1286
275.558	1473
275.618	4786
275.678	4250
275.738	3036
275.798	2943
275.858	1531
275.918	343
275.978	1796
276.038	1669
276.098	1337
276.157	1381
276.217	4521
276.277	1479
276.337	1056
276.397	1224
276.457	1748
276.517	1121
276.576	1272
276.636	1047
276.696	2035
276.756	2226
276.815	1749
276.875	1466
276.935	1433
276.995	824
277.055	749
277.114	1729
277.174	2347
277.234	3535
277.293	1385
277.353	780
277.413	1840
277.472	971
277.532	738
277.592	1160
277.651	3709
277.711	6177
277.771	2547
277.830	7711
277.890	6402
277.950	3461
278.009	14310
278.069	5862
278.128	5422
278.188	6469
278.248	3033
278.307	7853
278.367	4855
278.426	2112
278.486	881
278.545	1536
278.605	1934
278.664	585
278.724	1051
278.783	2670
278.843	7610
278.902	2914
278.962	1712
279.021	1665
279.081	2155
279.140	2410
279.199	1791
279.259	914
279.318	2609
279.378	2388
279.437	3873
279.496	9825
279.556	28147
279.615	20997
279.675	5752
279.734	3525
279.793	4782
279.853	7501
279.912	3596
279.971	2100
280.031	2225
280.090	2728
280.149	5925
280.208	3497
280.268	19262
280.327	19525
280.386	4703
280.445	3794
280.505	3148
280.564	2039
280.623	1233
280.682	1693
280.742	3733
280.801	2020
280.860	1631
280.919	1488
280.978	1207
281.037	784
281.097	969
281.156	1641
281.215	789
281.274	1516
281.333	4878
281.392	3326
281.451	1363
281.510	1294
281.569	1482
281.628	1122
281.688	1428
281.747	1648
281.806	447
281.865	1270
281.924	467
281.983	917
282.042	1772
282.101	879
282.160	1018
282.219	1529
282.278	1041
282.337	2623
282.396	2033
282.454	1308
282.513	1241
282.572	3703
282.631	2913
282.690	1155
282.749	513
282.808	932
282.867	1814
282.926	855
282.985	1126
283.043	792
283.102	1011
283.161	1030
283.220	2483
283.279	4128
283.338	2488
283.396	1842
283.455	2085
283.514	1649
283.573	1708
283.631	1163
283.690	1302
283.749	855
283.808	1956
283.866	1940
283.925	1201
283.984	770
284.043	1494
284.101	1443
284.160	1341
284.219	1444
284.277	2032
284.336	1554
284.395	5088
284.453	4478
284.512	2703
284.570	2295
284.629	1498
284.688	1951
284.746	3087
284.805	2369
284.863	2808
284.922	4248
284.981	5291
285.039	6671
285.098	11923
285.156	26694
285.215	50032
285.273	47576
285.332	28682
285.390	14990
285.449	8453
285.507	6602
285.566	5145
285.624	3045
285.683	3110
285.741	2230
285.799	3525
285.858	1301
285.916	2008
285.975	1432
286.033	1784
286.091	1051
286.150	1423
286.208	1553
286.267	1890
286.325	1343
286.383	2547
286.442	1679
286.500	989
286.558	831
286.616	1066
286.675	1570
286.733	1245
286.791	648
286.850	1587
286.908	1084
286.966	2784
287.024	1591
287.083	1554
287.141	1629
287.199	2168
287.257	2463
287.315	1785
287.374	1569
287.432	3161
287.490	1693
287.548	1409
287.606	1044
287.664	1474
287.723	2169
287.781	2276
287.839	1502
287.897	2603
287.955	2581
288.013	3412
288.071	6410
288.129	22521
288.187	61543
288.245	27608
288.303	8568
288.361	5008
288.419	3647
288.477	2651
288.535	2533
288.593	3088
288.651	2531
288.709	1734
288.767	1750
288.825	1746
288.883	1299
288.941	1639
288.999	1392
289.057	1168
289.115	738
289.173	1120
289.231	1283
289.289	1290
289.346	903
289.404	2522
289.462	1521
289.520	1374
289.578	1413
289.636	1521
289.694	1143
289.751	1547
289.809	1405
289.867	1111
289.925	1728
289.983	1179
290.040	882
290.098	1659
290.156	1591
290.214	1173
290.271	1108
290.329	1825
290.387	1887
290.444	2264
290.502	1121
290.560	1070
290.617	1557
290.675	1471
290.733	1045
290.790	1787
290.848	2037
290.906	932
290.963	931
291.021	1714
291.078	790
291.136	1094
291.194	2699
291.251	4788
291.309	2207
291.366	755
291.424	1098
291.481	591
291.539	869
291.596	1394
291.654	1268
291.711	944
291.769	1642
291.826	2191
291.884	1475
291.941	1588
291.999	1167
292.056	1138
292.114	1538
292.171	1255
292.228	2046
292.286	1657
292.343	2016
292.401	1855
292.458	1873
292.515	1022
292.573	1811
292.630	2080
292.687	1100
292.745	1048
292.802	1310
292.859	2726
292.917	4489
292.974	2419
293.031	1218
293.089	987
293.146	939
293.203	1336
293.260	1148
293.318	641
293.375	1556
293.432	1116
293.489	1884
293.546	1813
293.604	1377
293.661	4193
293.718	8118
293.775	4100
293.832	3108
293.889	2445
293.947	770
294.004	1497
294.061	1026
294.118	2544
294.175	5257
294.232	7323
294.289	3136
294.346	2172
294.403	2198
294.460	1370
294.517	1309
294.574	1544
294.631	1852
294.688	1920
294.745	2579
294.802	10065
294.859	10051
294.916	4091
294.973	2009
295.030	1507
295.087	825
295.144	1269
295.201	1844
295.258	1097
295.315	1415
295.372	3162
295.429	6590
295.486	3175
295.542	2428
295.599	5173
295.656	8353
295.713	5080
295.770	6865
295.827	3022
295.883	1472
295.940	1839
295.997	2035
296.054	1247
296.111	1619
296.167	2228
296.224	1752
296.281	1152
296.338	1148
296.394	1212
296.451	1387
296.508	3260
296.564	5156
296.621	3220
296.678	7383
296.734	9872
296.791	3676
296.848	2717
296.904	1850
296.961	4800
297.018	7192
297.074	5135
297.131	2786
297.187	1982
297.244	1871
297.301	7281
297.357	12898
297.414	4425
297.470	2403
297.527	1829
297.583	1200
297.640	1514
297.696	1615
297.753	988
297.809	252
297.866	1013
297.922	1585
297.979	1678
298.035	1116
298.092	1904
298.148	4106
298.204	4500
298.261	2059
298.317	4143
298.374	8204
298.430	4670
298.486	1932
298.543	1479
298.599	2406
298.656	2560
298.712	2796
298.768	7529
298.824	5709
298.881	3217
298.937	1690
298.993	2312
299.050	1422
299.106	1080
299.162	1617
299.218	1922
299.275	1687
299.331	2231
299.387	3360
299.443	10526
299.500	18749
299.556	14299
299.612	5536
299.668	5025
299.724	13547
299.780	16375
299.837	5964
299.893	5148
299.949	13581
300.005	19293
300.061	14579
300.117	23407
300.173	10003
300.229	3979
300.285	3871
300.341	5314
300.397	2305
300.453	2714
300.510	2569
300.566	3580
300.622	6248
300.678	21303
300.734	26574
300.790	13905
300.845	12224
300.901	13592
300.957	20664
301.013	9689
301.069	3493
301.125	3561
301.181	2880
301.237	2461
301.293	1157
301.349	1870
301.405	1806
301.461	1564
301.516	1946
301.572	1933
301.628	2074
301.684	1933
301.740	2669
301.796	4609
301.851	3480
301.907	5250
301.963	4848
302.019	7517
302.074	20569
302.130	20764
302.186	9975
302.242	4341
302.297	2995
302.353	3283
302.409	4251
302.464	5360
302.520	3064
302.576	7400
302.631	7849
302.687	4539
302.743	1868
302.798	2177
302.854	1788
302.910	2821
302.965	1432
303.021	2671
303.076	1977
303.132	3069
303.187	3445
303.243	1641
303.299	2063
303.354	1556
303.410	1880
303.465	1612
303.521	1777
303.576	818
303.632	1644
303.687	2643
303.743	7191
303.798	6567
303.853	2765
303.909	2335
303.964	1660
304.020	1964
304.075	2881
304.130	2501
304.186	3643
304.241	4683
304.297	3396
304.352	2081
304.358	2067
304.407	1954
304.449	1726
304.463	1649
304.518	2054
304.539	1867
304.573	1561
304.629	1907
304.630	1929
304.684	2949
304.720	4597
304.739	5388
304.794	8429
304.811	7258
304.850	4426
304.902	2898
304.905	2806
304.960	2555
304.992	1893
305.015	1384
305.071	2401
305.083	2200
305.126	1501
305.173	2218
305.181	2341
305.236	962
305.264	1218
305.292	1503
305.347	2245
305.354	2306
305.402	2635
305.445	2488
305.457	2465
305.512	2003
305.535	2402
305.567	2878
305.622	2845
305.626	2881
305.678	4476
305.716	7502
305.733	8288
305.788	8255
305.807	7121
305.843	5825
305.897	9144
305.898	9172
305.953	8278
305.988	5593
306.008	4344
306.063	2787
306.078	2702
306.118	2567
306.168	1900
306.173	1847
306.228	2511
306.259	2384
306.283	2273
306.338	2188
306.349	2097
306.393	1832
306.440	2542
306.448	2658
306.503	2315
306.530	2452
306.558	2936
306.613	3920
306.620	4122
306.668	5714
306.711	7642
306.723	7682
306.778	6537
306.801	5272
306.833	4151
306.888	2861
306.892	2822
306.943	2760
306.982	2472
306.997	2301
307.052	1822
307.072	1879
307.107	2339
307.162	2777
307.163	2776
307.217	2715
307.253	2655
307.272	2732
307.327	3653
307.343	3427
307.381	2774
307.434	3454
307.436	3570
307.491	5240
307.524	6981
307.546	7085
307.600	6954
307.614	6299
307.655	4568
307.704	3375
307.710	3365
307.765	3467
307.795	3986
307.819	4504
307.874	6103
307.885	6169
307.929	6131
307.975	6557
307.984	6953
308.038	9997
308.065	11808
308.093	22100
308.148	46069
308.156	51114
308.202	70121
308.246	81220
308.257	77906
308.312	40588
308.336	25830
308.366	19184
308.421	11727
308.426	11088
308.475	7800
308.517	5770
308.530	5385
308.585	5195
308.607	5121
308.639	5360
308.694	4868
308.697	4870
308.748	6432
308.787	8308
308.803	8226
308.857	6808
308.877	6303
308.912	6420
308.967	7023
308.967	7024
309.021	9845
309.058	12045
309.076	15596
309.130	27413
309.148	31877
309.185	63382
309.238	115516
309.239	115693
309.293	110708
309.328	95643
309.348	81642
309.402	38408
309.418	27173
309.457	19463
309.508	12674
309.511	12515
309.566	10860
309.598	10145
309.620	10961
309.674	13664
309.688	14460
309.729	13508
309.778	11265
309.783	11092
309.837	8635
309.868	7483
309.892	8746
309.946	12123
309.959	13043
310.001	15020
310.049	16512
310.055	15940
310.109	9973
310.139	6622
310.163	5726
310.218	4117
310.229	3812
310.272	3872
310.319	4059
310.326	3999
310.381	3586
310.409	3315
310.435	3506
310.489	3933
310.499	3950
310.543	3806
310.589	3987
310.598	4063
310.652	4340
310.679	4466
310.706	4354
310.760	4034
310.769	3964
310.814	3845
310.859	3778
310.868	3855
310.923	4281
310.948	4405
310.977	4480
311.031	4756
311.038	4759
311.085	4526
311.128	4389
311.139	4478
311.193	4742
311.218	4845
311.247	4676
311.301	4453
311.308	4396
311.356	4480
311.398	4649
311.410	4625
311.464	4372
311.488	4229
311.518	4065
311.572	3764
311.578	3724
311.626	4775
311.668	5691
311.680	5708
311.734	5647
311.758	5618
311.788	5711
311.842	5829
311.847	5825
311.896	6139
311.937	6385
311.950	6244
312.004	5541
312.027	5220
312.058	4912
312.112	4340
312.117	4272
312.165	4321
312.207	4344
312.297	5382
312.386	4932
312.476	4554
312.566	6403
312.656	5149
312.745	5411
312.835	6118
312.925	5549
313.015	5461
313.104	5485
313.194	6449
313.284	6397
313.374	6958
313.463	6783
313.553	7173
313.643	7241
313.732	7475
313.822	7192
313.912	8597
314.001	9374
314.091	10171
314.180	10137
314.270	10381
314.360	9859
314.449	9404
314.539	9919
314.628	9429
314.718	8605
314.808	10323
314.897	10576
314.987	11728
315.076	11785
315.166	12166
315.255	10834
315.345	10373
315.434	9346
315.524	9956
315.613	11031
315.703	14472
315.792	36643
315.881	113992
315.971	29619
316.060	13433
316.150	12622
316.239	11057
316.328	9400
316.418	10429
316.507	10302
316.597	12556
316.686	12537
316.775	11798
316.865	13575
316.954	9975
317.043	8638
317.133	8476
317.222	8286
317.311	7500
317.400	6222
317.490	9214
317.579	9490
317.668	10450
317.757	17061
317.847	58785
317.936	163157
318.025	42978
318.114	46770
318.203	19490
318.293	12487
318.382	18745
318.471	19693
318.560	21410
318.649	28170
318.738	10550
318.828	8723
318.917	6866
319.006	7346
319.095	11825
319.184	30289
319.273	13936
319.362	9408
319.451	7046
319.540	6744
319.629	8564
319.718	9863
319.807	8429
319.896	12745
319.985	35477
320.074	12415
320.163	7895
320.252	8243
320.341	9097
320.430	8895
320.519	10303
320.608	9609
320.697	11469
320.786	11785
320.875	14776
320.964	15428
321.053	17172
321.142	18997
321.230	21420
321.319	23045
321.408	29205
321.497	23582
321.586	20490
321.675	18763
321.764	16781
321.852	16517
321.941	19230
322.030	17954
322.119	21314
322.207	27132
322.296	27824
322.385	29678
322.474	32950
322.562	38636
322.651	25906
322.740	22034
322.829	19371
322.917	16889
323.006	14819
323.095	13949
323.183	11634
323.272	12611
323.361	14762
323.449	27298
323.538	12935
323.626	20216
323.715	13451
323.804	9657
323.892	17223
323.981	10461
324.069	8439
324.158	13532
324.246	10822
324.335	8726
324.424	8936
324.512	6782
324.601	7882
324.689	9996
324.778	12775
324.866	8911
324.954	7205
325.043	7064
325.131	7495
325.220	10106
325.308	9541
325.397	9352
325.485	7470
325.574	5934
325.662	6049
325.750	5746
325.839	6665
325.927	7002
326.015	6954
326.104	6939
326.192	7283
326.280	5523
326.369	6394
326.457	6078
326.545	8348
326.634	6284
326.722	6049
326.810	7241
326.898	8357
326.987	8841
327.075	7458
327.163	8213
327.251	7859
327.340	10309
327.428	12508
327.516	13495
327.604	9327
327.692	7204
327.781	7177
327.869	6989
327.957	6056
328.045	6434
328.133	6161
328.221	5631
328.309	6031
328.397	7135
328.485	6667
328.574	12810
328.662	20685
328.750	11241
328.838	8759
328.926	6584
329.014	5711
329.102	6574
329.190	8948
329.278	7007
329.366	6373
329.454	6032
329.542	5694
329.630	4634
329.718	5764
329.806	5572
329.893	5994
329.981	4475
330.069	5766
330.157	6275
330.245	7195
330.333	6368
330.421	5770
330.509	6487
330.597	12190
330.684	8158
330.772	6241
330.860	7171
330.948	8112
331.036	6593
331.123	5506
331.211	5894
331.299	6307
331.387	8822
331.475	10043
331.562	7195
331.650	6320
331.738	5752
331.825	6100
331.913	4893
332.001	6208
332.089	6961
332.176	7880
332.264	9818
332.352	8621
332.439	6254
332.527	6812
332.614	6146
332.702	7146
332.790	6431
332.877	8872
332.965	10266
333.052	6711
333.140	7690
333.228	9592
333.315	6476
333.403	6777
333.490	9200
333.578	9242
333.665	12893
333.753	9379
333.840	8075
333.928	10594
334.015	14469
334.103	21359
334.190	43320
334.278	28380
334.365	36524
334.452	33994
334.540	23033
334.627	23338
334.715	29079
334.802	44276
334.889	85240
334.977	99446
335.064	52628
335.151	28858
335.239	20681
335.326	18515
335.413	33434
335.501	32952
335.588	18500
335.675	19795
335.762	26093
335.850	35291
335.937	49530
336.024	83044
336.111	140684
336.199	106953
336.286	51131
336.373	29246
336.460	19749
336.547	15948
336.635	14157
336.722	11725
336.809	10016
336.896	10337
336.983	17098
337.070	30446
337.157	39045
337.245	24513
337.332	17604
337.419	10029
337.506	9263
337.593	9045
337.680	15515
337.767	25465
337.854	11147
337.941	10947
338.028	12107
338.115	8195
338.202	8897
338.289	11070
338.376	18874
338.463	10451
338.550	17959
338.637	15626
338.724	8696
338.811	8596
338.898	6523
338.984	6576
339.071	7246
339.158	6679
339.245	9430
339.332	7606
339.419	8190
339.506	8281
339.593	5404
339.679	6506
339.766	6318
339.853	7594
339.940	8654
340.027	6272
340.113	6748
340.200	6751
340.287	6207
340.374	6350
340.460	7637
340.547	5296
340.634	7137
340.720	13167
340.807	8641
340.894	6770
340.980	6366
341.067	6480
341.154	7264
341.240	6616
341.327	8811
341.414	7027
341.500	6510
341.587	7056
341.674	7213
341.760	8236
341.847	7958
341.933	6310
342.020	5454
342.106	6645
342.193	7197
342.279	6608
342.366	6300
342.452	7847
342.539	6251
342.625	8776
342.712	11915
342.798	7605
342.885	6545
342.971	4877
343.058	5552
343.144	5708
343.230	6407
343.317	6255
343.403	5766
343.490	6047
343.576	5958
343.662	5874
343.749	5490
343.835	6429
343.921	8586
344.008	30929
344.094	53377
344.180	13828
344.267	8097
344.353	18240
344.439	16229
344.525	9250
344.612	9280
344.698	9150
344.784	7075
344.870	6076
344.957	6331
345.043	7359
345.129	5724
345.215	7573
345.301	5948
345.387	5972
345.474	5215
345.560	5526
345.646	6001
345.732	6051
345.818	6022
345.904	6551
345.990	6126
346.076	6642
346.162	6574
346.249	7027
346.335	6187
346.421	6645
346.507	11026
346.593	23379
346.679	8401
346.765	8606
346.851	13437
346.937	9570
347.023	7472
347.108	6972
347.194	6745
347.280	6782
347.366	9388
347.452	29412
347.538	47315
347.624	25414
347.710	16982
347.796	7918
347.882	6945
347.967	7052
348.053	6623
348.139	6587
348.225	6201
348.311	6497
348.397	7131
348.482	7358
348.568	7916
348.654	11896
348.740	36466
348.825	35289
348.911	15126
348.997	19829
349.083	26227
349.168	8350
349.254	7160
349.340	7913
349.425	6103
349.511	7478
349.597	7212
349.682	8959
349.768	18713
349.854	10434
349.939	7493
350.025	6826
350.110	6231
350.196	6534
350.282	5252
350.367	7293
350.453	6565
350.538	6981
350.624	6384
350.709	6851
350.795	6048
350.880	5411
350.966	6984
351.051	6834
351.137	6227
351.222	6814
351.308	8313
351.393	13908
351.479	7085
351.564	5240
351.649	7113
351.735	6072
351.820	6302
351.906	5935
351.991	5905
352.076	11363
352.162	13932
352.247	6628
352.332	6657
352.418	8027
352.503	8921
352.588	19528
352.673	12915
352.759	6403
352.844	6703
352.929	5960
353.014	6436
353.100	5870
353.185	6545
353.270	6773
353.355	7559
353.441	6217
353.526	5765
353.611	6961
353.696	7582
353.781	7748
353.866	5477
353.952	6901
354.037	6869
354.122	10215
354.207	8812
354.292	6371
354.377	6135
354.462	6125
354.547	6030
354.632	6678
354.717	6733
354.802	5749
354.887	5873
354.972	6497
355.057	5255
355.142	5535
355.227	6815
355.312	6400
355.397	8136
355.482	12804
355.567	8093
355.652	8099
355.737	9768
355.822	19411
355.907	14307
355.991	7630
356.076	6351
356.161	6886
356.246	6736
356.331	6665
356.416	9231
356.501	33799
356.585	28834
356.670	8123
356.755	8993
356.840	8500
356.924	23662
357.009	61656
357.094	22014
357.179	8293
357.263	7271
357.348	8827
357.433	7935
357.517	8373
357.602	7182
357.687	6704
357.771	9606
357.856	18656
357.941	13660
358.025	22381
358.110	66470
358.195	27984
358.279	9261
358.364	7873
358.448	14707
358.533	29758
358.617	20254
358.702	21798
358.787	10697
358.871	9011
358.956	8804
359.040	7377
359.125	7083
359.209	7653
359.294	13418
359.378	20954
359.462	12563
359.547	8613
359.631	7161
359.716	6306
359.800	7058
359.885	8107
359.969	6208
360.053	7528
360.138	6588
360.222	7417
360.306	7849
360.391	8329
360.475	11749
360.559	17337
360.644	13753
360.728	11085
360.812	23036
360.896	43956
360.981	19046
361.065	11507
361.149	8657
361.233	8497
361.318	7554
361.402	8411
361.486	8977
361.570	9123
361.654	9719
361.739	12850
361.823	35224
361.907	48066
361.991	17247
362.075	16869
362.159	24481
362.243	41301
362.327	96894
362.411	129522
362.495	52024
362.580	25870
362.664	23845
362.748	27659
362.832	44041
362.916	92677
363.000	235453
363.084	304453
363.168	142025
363.252	45118
363.336	26592
363.420	23405
363.503	38796
363.587	37863
363.671	18125
363.755	15839
363.839	19579
363.923	19693
364.007	26433
364.091	34214
364.175	58639
364.258	140497
364.342	276395
364.426	417468
364.510	223647
364.594	75481
364.677	42527
364.761	55146
364.845	37176
364.929	18918
365.013	14732
365.096	12965
365.180	13089
365.264	20784
365.347	47482
365.431	20847
365.515	10604
365.598	8257
365.682	10034
365.766	10424
365.849	11596
365.933	8647
366.017	10618
366.100	9034
366.184	9027
366.267	9475
366.351	8654
366.435	7884
366.518	8005
366.602	8781
366.685	8203
366.769	8455
366.852	10600
366.936	12061
367.019	10429
367.103	9818
367.186	12031
367.270	9296
367.353	8280
367.436	10629
367.520	10045
367.603	11168
367.687	9891
367.770	11991
367.853	11556
367.937	19410
368.020	22068
368.104	10391
368.187	10620
368.270	10179
368.353	10344
368.437	10835
368.520	15171
368.603	11912
368.687	15811
368.770	23594
368.853	10380
368.936	10536
369.020	10630
369.103	6845
369.186	6492
369.269	6256
369.352	9455
369.436	8210
369.519	7860
369.602	5818
369.685	8506
369.768	6883
369.851	7771
369.934	6957
370.018	6632
370.101	8277
370.184	10357
370.267	8427
370.350	8164
370.433	11970
370.516	36180
370.599	72903
370.682	30516
370.765	16889
370.848	19784
370.931	28133
371.014	14666
371.097	5886
371.180	8028
371.263	7060
371.346	4860
371.429	7651
371.511	6194
371.594	6619
371.677	9265
371.760	10443
371.843	9625
371.926	30102
372.009	51532
372.091	20495
372.174	15073
372.257	30837
372.340	14609
372.423	11311
372.505	13340
372.588	8605
372.671	14573
372.754	28075
372.836	17219
372.919	17330
373.002	23827
373.085	10096
373.167	9844
373.250	16645
373.332	30584
373.415	43783
373.498	72014
373.580	42205
373.663	107006
373.746	99979
373.828	21023
373.911	13264
373.993	13005
374.076	27173
374.159	23732
374.241	15258
374.324	26327
374.406	20970
374.489	30524
374.571	62653
374.654	28026
374.736	20551
374.819	44066
374.901	60209
374.983	56322
375.066	17076
375.148	14832
375.231	29173
375.313	39425
375.395	20185
375.478	13553
375.560	13173
375.643	12420
375.725	21636
375.807	52856
375.890	37640
375.972	15984
376.054	13515
376.136	14440
376.219	11452
376.301	21562
376.383	42074
376.465	20004
376.548	12879
376.630	17101
376.712	35937
376.794	17913
376.877	8260
376.959	7067
377.041	7853
377.123	9327
377.205	9615
377.287	6796
377.369	8354
377.452	7645
377.534	7717
377.616	7171
377.698	7582
377.780	7176
377.862	7507
377.944	8500
378.026	6524
378.108	7715
378.190	7738
378.272	7678
378.354	6355
378.436	6509
378.518	7823
378.600	12574
378.682	12529
378.764	18406
378.846	15458
378.928	8365
379.010	9038
379.091	8219
379.173	7349
379.255	6894
379.337	7311
379.419	13671
379.501	24201
379.583	12935
379.664	8062
379.746	9458
379.828	18404
379.910	21796
379.991	19810
380.073	7780
380.155	6678
380.237	6515
380.318	6371
380.400	6453
380.482	9026
380.564	8445
380.645	8048
380.727	8634
380.809	8324
380.890	7535
380.972	5656
381.053	6584
381.135	7514
381.217	10256
381.298	18759
381.380	11680
381.461	12793
381.543	35611
381.624	37981
381.706	11150
381.787	8898
381.869	10186
381.951	22488
382.032	57483
382.113	35847
382.195	9805
382.276	10559
382.358	15296
382.439	33427
382.521	39932
382.602	53349
382.684	27523
382.765	41206
382.846	43386
382.928	54383
383.009	32296
383.090	30209
383.172	89234
383.253	114481
383.334	44284
383.416	48085
383.497	26695
383.578	15907
383.659	26861
383.741	87260
383.822	182421
383.903	88567
383.984	37345
384.066	54780
384.147	33631
384.228	15884
384.309	16119
384.390	15429
384.471	13770
384.553	13038
384.634	12925
384.715	12616
384.796	11304
384.877	11307
384.958	20833
385.039	21531
385.120	13135
385.201	12113
385.282	12036
385.363	13551
385.444	13372
385.525	17579
385.606	32742
385.687	29766
385.768	15709
385.849	15897
385.930	38358
386.011	51997
386.092	20783
386.173	15170
386.254	13908
386.335	14235
386.416	13742
386.496	20068
386.577	23110
386.658	15536
386.739	14217
386.820	16031
386.901	15510
386.981	17442
387.062	18387
387.143	21992
387.224	31267
387.304	32715
387.385	27353
387.466	24824
387.547	26722
387.627	26321
387.708	31428
387.789	47812
387.869	48060
387.950	27010
388.031	18459
388.111	17272
388.192	21432
388.273	22780
388.353	18077
388.434	13454
388.514	17179
388.595	37317
388.676	40676
388.756	22599
388.837	19974
388.917	16132
388.998	10219
389.078	12736
389.159	11931
389.239	9713
389.320	13201
389.400	10200
389.480	16334
389.561	22992
389.641	16817
389.722	12592
389.802	12179
389.883	16766
389.963	28358
390.043	19113
390.124	11129
390.204	14422
390.284	22289
390.365	17092
390.445	23962
390.525	46402
390.605	39463
390.686	17142
390.766	13314
390.846	12526
390.927	11547
391.007	10690
391.087	12435
391.167	11873
391.247	10553
391.328	14501
391.408	15375
391.488	15014
391.568	13179
391.648	14833
391.728	15834
391.808	16526
391.888	18213
391.969	24580
392.049	28078
392.129	23717
392.209	26888
392.289	38697
392.369	32465
392.449	31572
392.529	30264
392.609	34519
392.689	41217
392.769	58218
392.849	64679
392.929	76758
393.009	111929
393.089	154506
393.169	267884
393.248	540611
393.328	830016
393.408	790754
393.488	492048
393.568	240213
393.648	131078
393.728	85478
393.807	60376
393.887	48418
393.967	39666
394.047	34577
394.127	31676
394.206	34288
394.286	68791
394.366	203248
394.446	197365
394.525	55600
394.605	26344
394.685	23313
394.764	31831
394.844	53939
394.924	57210
395.003	25438
395.083	17376
395.163	17042
395.242	15425
395.322	16647
395.402	15702
395.481	20020
395.561	29131
395.640	75462
395.720	119406
395.799	76689
395.879	41296
395.958	34598
396.038	87852
396.117	258748
396.197	259629
396.276	89747
396.356	50444
396.435	52734
396.515	66203
396.594	99649
396.673	204327
396.753	479023
396.832	746547
396.912	592984
396.991	261719
397.070	115673
397.150	69680
397.229	59747
397.308	103560
397.388	164922
397.467	82926
397.546	31970
397.625	21800
397.705	21778
397.784	18943
397.863	17500
397.942	15609
398.022	14959
398.101	20602
398.180	32853
398.259	20474
398.338	13467
398.417	12107
398.497	9978
398.576	11388
398.655	9557
398.734	10454
398.813	10348
398.892	17324
398.971	32134
399.050	17689
399.129	8590
399.208	9527
399.287	9232
399.366	8516
399.445	7914
399.524	8101
399.603	6958
399.682	9259
399.761	14360
399.840	34374
399.919	26676
399.998	8945
400.077	7431
400.156	6070
400.235	8608
400.313	6443
400.392	6060
400.471	13142
400.550	14922
400.629	7727
400.708	7724
400.786	6349
400.865	9756
400.944	8953
401.023	8959
401.102	5322
401.180	6419
401.259	6419
401.338	5770
401.416	7059
401.495	5371
401.574	6534
401.652	5723
401.731	7065
401.810	4515
401.888	5978
401.967	4949
402.046	5376
402.124	6706
402.203	5566
402.281	6711
402.360	6381
402.438	10370
402.517	7559
402.596	6453
402.674	5525
402.753	5198
402.831	6386
402.910	6878
402.988	8016
403.066	13716
403.145	11158
403.223	9592
403.302	12260
403.380	11680
403.459	11086
403.537	7159
403.615	7327
403.694	6982
403.772	7469
403.850	7416
403.929	6249
404.007	6105
404.085	8393
404.164	6984
404.242	7442
404.320	15156
404.398	33119
404.477	31803
404.555	47215
404.633	41667
404.711	25870
404.789	17382
404.868	7190
404.946	5108
405.024	5718
405.102	5650
405.180	5040
405.258	4459
405.336	5625
405.415	4502
405.493	6394
405.571	5827
405.649	4827
405.727	5184
405.805	8541
405.883	7357
405.961	7941
406.039	6093
406.117	4677
406.195	6313
406.273	12755
406.351	34126
406.429	20883
406.507	6233
406.585	4723
406.663	5416
406.740	5194
406.818	3976
406.896	4846
406.974	5513
407.052	6035
407.130	22450
407.208	26089
407.285	8694
407.363	5365
407.441	5454
407.519	5040
407.596	6940
407.674	17641
407.752	54776
407.830	40742
407.907	9996
407.985	6020
408.063	5991
408.141	4560
408.218	6204
408.296	4475
408.373	4679
408.451	6499
408.529	6347
408.606	5874
408.684	7193
408.762	7013
408.839	7396
408.917	8368
408.994	10041
409.072	9823
409.149	13205
409.227	21846
409.304	32397
409.382	35701
409.459	40506
409.537	50142
409.614	46775
409.692	35798
409.769	36411
409.846	51492
409.924	61774
410.001	46352
410.079	32809
410.156	23719
410.233	17568
410.311	14803
410.388	13386
410.465	12588
410.543	11596
410.620	12019
410.697	10590
410.775	11209
410.852	10561
410.929	12373
411.006	12750
411.083	10944
411.161	11636
411.238	11519
411.315	8994
411.392	8850
411.469	9225
411.547	8349
411.624	6746
411.701	7401
411.778	6951
411.855	7179
411.932	6108
412.009	5876
412.086	5879
412.163	6352
412.240	5955
412.317	7401
412.394	5580
412.471	6541
412.548	4784
412.625	4959
412.702	5543
412.779	6057
412.856	5799
412.933	4925
413.010	4740
413.087	5986
413.164	9806
413.241	12001
413.318	4944
413.395	5882
413.471	5098
413.548	5737
413.625	5847
413.702	3879
413.779	4852
413.855	4556
413.932	3611
414.009	3880
414.086	3736
414.162	4188
414.239	4727
414.316	9381
414.393	14832
414.469	6585
414.546	4634
414.623	5060
414.699	4343
414.776	4615
414.853	3943
414.929	3419
415.006	3522
415.082	4994
415.159	3435
415.236	3803
415.312	4837
415.389	4515
415.465	4229
415.542	3967
415.618	3562
415.695	5104
415.771	3284
415.848	3511
415.924	4251
416.000	4001
416.077	5370
416.153	3674
416.230	3455
416.306	3696
416.383	4008
416.459	4389
416.535	3271
416.612	3492
416.688	4051
416.764	2969
416.841	3446
416.917	3255
416.993	3935
417.069	4314
417.146	3596
417.222	4368
417.298	3975
417.374	3515
417.451	4891
417.527	2877
417.603	4063
417.679	4649
417.755	4667
417.831	3125
417.908	3764
417.984	3096
418.060	3046
418.136	5012
418.212	5239
418.288	4182
418.364	3726
418.440	3504
418.516	4580
418.592	4788
418.668	6124
418.744	6792
418.820	5869
418.896	4881
418.972	3437
419.048	4487
419.124	7001
419.200	4602
419.276	4950
419.352	4252
419.428	5400
419.504	4738
419.579	5217
419.655	5329
419.731	6533
419.807	7328
419.883	8205
419.959	8180
420.034	6578
420.110	8233
420.186	13960
420.262	12588
420.337	8142
420.413	8484
420.489	8395
420.565	9853
420.640	9379
420.716	10208
420.792	9642
420.867	11351
420.943	11287
421.019	13329
421.094	13508
421.170	14208
421.245	14905
421.321	17001
421.397	18201
421.472	29355
421.548	48496
421.623	36763
421.699	27744
421.774	29182
421.850	32482
421.925	40912
422.001	46873
422.076	56888
422.152	71099
422.227	94067
422.302	127229
422.378	182135
422.453	272069
422.529	371188
422.604	343889
422.679	246683
422.755	339533
422.830	370711
422.905	272898
422.981	190865
423.056	137307
423.131	101948
423.207	78907
423.282	64228
423.357	53721
423.432	43640
423.508	38927
423.583	33386
423.658	30491
423.733	26334
423.808	24713
423.883	24296
423.959	26701
424.034	30266
424.109	27986
424.184	19645
424.259	16214
424.334	14908
424.409	12769
424.484	11896
424.559	11649
424.634	10238
424.709	9764
424.784	9758
424.859	9396
424.934	8191
425.009	12685
425.084	14945
425.159	10081
425.234	8669
425.309	7527
425.384	9779
425.459	11943
425.534	8229
425.609	6705
425.683	6197
425.758	5846
425.833	6254
425.908	7112
425.983	8498
426.058	12926
426.132	8698
426.207	6239
426.282	7555
426.357	5902
426.431	5423
426.506	5730
426.581	5085
426.655	4775
426.730	4831
426.805	4590
426.879	5050
426.954	4470
427.029	5882
427.103	15118
427.178	27116
427.253	13602
427.327	6224
427.402	5793
427.476	9047
427.551	6773
427.625	4602
427.700	5788
427.774	4348
427.849	5881
427.923	4565
427.998	5748
428.072	7864
428.147	17367
428.221	69583
428.296	166616
428.370	93693
428.444	17865
428.519	9785
428.593	10511
428.667	10352
428.742	13496
428.816	30028
428.890	113404
428.965	153712
429.039	45061
429.113	12887
429.188	7439
429.262	5867
429.336	6887
429.410	8613
429.485	7345
429.559	8491
429.633	8672
429.707	9187
429.781	26976
429.855	110371
429.930	139194
430.004	48672
430.078	43466
430.152	92473
430.226	226390
430.300	205829
430.374	56195
430.448	19607
430.522	18960
430.596	31138
430.670	48481
430.744	140953
430.818	142841
430.892	30774
430.966	8928
431.040	6156
431.114	4108
431.188	3766
431.262	4731
431.336	3756
431.410	5905
431.484	7539
431.557	8321
431.631	5746
431.705	13607
431.779	56851
431.853	160540
431.927	106111
432.000	19108
432.074	7847
432.148	5099
432.222	3553
432.295	3790
432.369	3051
432.443	3955
432.516	13407
432.590	26023
432.664	9955
432.737	2060
432.811	1368
432.885	2063
432.958	2116
433.032	1881
433.106	1976
433.179	2523
433.253	2185
433.326	2254
433.400	1522
433.473	2882
433.547	1452
433.620	2765
433.694	2581
433.767	3070
433.841	2659
433.914	3017
433.988	2532
434.061	2518
434.134	2627
434.208	2354
434.281	2332
434.355	2075
434.428	2497
434.501	1824
434.575	1904
434.648	2417
434.721	2385
434.795	2525
434.868	2866
434.941	3348
435.014	2871
435.088	3447
435.161	5106
435.234	5805
435.307	5773
435.381	8368
435.454	13050
435.527	23286
435.600	26520
435.673	22087
435.746	17254
435.819	11916
435.892	9840
435.966	6842
436.039	6363
436.112	5478
436.185	4127
436.258	3558
436.331	2825
436.404	2819
436.477	3097
436.550	3189
436.623	2950
436.696	2495
436.769	3436
436.842	2916
436.915	2476
436.987	2602
437.060	2501
437.133	2231
437.206	1996
437.279	2337
437.352	2036
437.425	1912
437.498	2685
437.570	2202
437.643	2673
437.716	1366
437.789	1589
437.861	2697
437.934	3497
438.007	2008
438.080	2269
438.152	2614
438.225	3919
438.298	17278
438.370	38439
438.443	14860
438.516	3875
438.588	2972
438.661	1821
438.734	2493
438.806	2128
438.879	2082
438.951	2449
439.024	3076
439.096	1606
439.169	2880
439.241	2549
439.314	2075
439.386	1999
439.459	2702
439.531	1771
439.604	2345
439.676	2378
439.749	2659
439.821	1207
439.893	1851
439.966	2383
440.038	1365
440.110	2587
440.183	2583
440.255	1981
440.327	3850
440.400	7014
440.472	22241
440.544	13800
440.617	3032
440.689	4102
440.761	3185
440.833	3227
440.905	2419
440.978	2999
441.050	2081
441.122	3494
441.194	2106
441.266	1768
441.338	2396
441.411	3446
441.483	8167
441.555	9466
441.627	4566
441.699	4600
441.771	3082
441.843	3222
441.915	3075
441.987	3669
442.059	4620
442.131	5280
442.203	6952
442.275	9197
442.347	15473
442.419	39057
442.491	150715
442.563	255796
442.635	106350
442.706	28157
442.778	15495
442.850	9025
442.922	7756
442.994	7926
443.066	9053
443.137	11408
443.209	15324
443.281	25153
443.353	55606
443.425	171828
443.496	379329
443.568	379343
443.640	166678
443.711	45139
443.783	19651
443.855	13687
443.926	9171
443.998	8005
444.070	7438
444.141	6493
444.213	5797
444.285	6996
444.356	5743
444.428	4777
444.499	4523
444.571	6183
444.642	5474
444.714	5734
444.785	6692
444.857	7994
444.928	10432
445.000	10780
445.071	12876
445.143	17725
445.214	25150
445.285	43410
445.357	108250
445.428	284543
445.500	416652
445.571	367808
445.642	245241
445.714	92460
445.785	33602
445.856	16576
445.928	11794
445.999	8964
446.070	6999
446.141	6092
446.213	5869
446.284	4403
446.355	4727
446.426	3308
446.497	3152
446.569	3156
446.640	2806
446.711	2985
446.782	2362
446.853	2204
446.924	2929
446.995	2003
447.066	2366
447.138	2042
447.209	1854
447.280	1366
447.351	1186
447.422	727
447.493	1672
447.564	1940
447.635	1515
447.706	1022
447.777	1121
447.847	1252
447.918	1321
447.989	1679
448.060	1811
448.131	2305
448.202	2696
448.273	1287
448.344	1484
448.414	854
448.485	432
448.556	1207
448.627	1612
448.698	1687
448.768	479
448.839	1042
448.910	1694
448.981	1729
449.051	1832
449.122	756
449.193	-64
449.263	1340
449.334	831
449.405	843
449.475	2643
449.546	2402
449.616	3399
449.687	2572
449.758	1937
449.828	1684
449.899	1413
449.969	1200
450.040	1421
450.110	1041
450.181	1502
450.251	889
450.322	1412
450.392	690
450.463	1271
450.533	860
450.604	872
450.674	1408
450.744	2687
450.815	2392
450.885	3195
450.955	2135
451.026	2225
451.096	1867
451.166	2318
451.237	4283
451.307	7279
451.377	4473
451.447	1765
451.518	1675
451.588	1299
451.658	2060
451.728	2338
451.799	5142
451.869	4791
451.939	1528
452.009	1550
452.079	1882
452.149	2516
452.219	2743
452.289	5965
452.360	3842
452.430	2951
452.500	4182
452.570	7979
452.640	20570
452.710	49091
452.780	50978
452.850	25350
452.920	11937
452.990	6500
453.060	4132
453.129	3064
453.199	3165
453.269	8593
453.339	12466
453.409	16387
453.479	18942
453.549	23746
453.619	23487
453.688	8242
453.758	2323
453.828	1315
453.898	1282
453.968	1334
454.037	1451
454.087	1215
454.107	1110
454.168	630
454.177	550
454.247	1116
454.249	1123
454.316	1057
454.330	1104
454.386	1222
454.411	1502
454.456	1867
454.492	2739
454.525	3535
454.574	2364
454.595	1850
454.655	766
454.665	584
454.734	1867
454.736	1900
454.804	2130
454.817	2731
454.873	5074
454.898	4742
454.943	4145
454.979	2634
455.013	1300
455.060	1262
455.082	1240
455.141	1549
455.152	1601
455.221	4743
455.222	4785
455.291	5722
455.303	5837
455.360	6238
455.384	8080
455.430	10834
455.465	7746
455.499	5012
455.546	4990
455.569	4911
455.627	3207
455.638	2932
455.707	1294
455.708	1308
455.777	901
455.789	975
455.846	1466
455.869	1343
455.916	1033
455.950	1145
455.985	1194
456.031	1526
456.054	1732
456.112	1380
456.124	1301
456.193	1736
456.193	1724
456.262	1589
456.274	1823
456.332	3105
456.355	2812
456.401	2209
456.436	1864
456.470	1416
456.516	1760
456.540	1916
456.597	1684
456.609	1661
456.678	2544
456.678	2534
456.747	2699
456.759	2480
456.817	1410
456.840	1684
456.886	2201
456.920	2321
456.955	2409
457.001	2672
457.024	2724
457.082	2714
457.093	2745
457.162	3071
457.163	3085
457.232	3010
457.243	3038
457.301	3161
457.324	2895
457.370	2552
457.405	3017
457.439	3474
457.485	3849
457.508	4115
457.566	5218
457.577	5778
457.646	9527
457.647	9607
457.715	20731
457.727	23674
457.784	38401
457.808	52744
457.853	72032
457.889	81909
457.922	86032
457.969	58001
457.991	52958
458.050	60249
458.060	61505
458.129	111960
458.130	113198
458.198	121553
458.211	107155
458.267	56293
458.292	40767
458.336	25599
458.372	25015
458.405	33176
458.453	51241
458.474	60307
458.533	103560
458.543	106717
458.611	174447
458.614	174286
458.680	113512
458.694	91281
458.749	37466
458.775	27193
458.818	14874
458.855	11551
458.887	9425
458.936	7670
458.955	6821
459.016	5624
459.024	5606
459.093	4984
459.097	5014
459.162	5090
459.177	4904
459.230	4376
459.257	4498
459.299	4555
459.338	4379
459.368	4216
459.418	4170
459.437	4123
459.499	3474
459.505	3432
459.574	3798
459.579	3813
459.643	3920
459.659	3986
459.711	3682
459.740	3374
459.780	3222
459.820	3294
459.849	3389
459.900	3447
459.917	3481
459.981	3949
459.986	3979
460.054	3801
460.061	3831
460.123	3423
460.141	3367
460.191	3806
460.222	3846
460.260	3717
460.302	3800
460.328	3912
460.382	4232
460.397	4416
460.462	5235
460.465	5426
460.534	9796
460.543	10367
460.602	21680
460.623	26614
460.671	39273
460.703	53540
460.739	49433
460.783	34152
460.808	30070
460.864	9247
460.876	6544
460.944	4267
460.945	4241
461.013	4133
461.024	4080
461.081	3655
461.104	3662
461.150	4001
461.184	4034
461.218	3746
461.264	3765
461.286	3863
461.345	3929
461.355	3918
461.423	3546
461.425	3538
461.491	3609
461.505	3764
461.559	4794
461.585	4994
461.628	5821
461.665	7171
461.696	7356
461.745	7567
461.764	7220
461.825	4796
461.832	4698
461.901	4014
461.905	4002
461.969	3312
461.985	3139
462.037	4013
462.065	4590
462.105	4752
462.145	4716
462.173	4861
462.225	5578
462.241	5831
462.305	6310
462.310	6175
462.378	4333
462.385	4064
462.446	4241
462.465	4384
462.514	4109
462.545	4027
462.582	3921
462.625	3755
462.650	3680
462.705	3311
462.718	3393
462.785	4264
462.786	4271
462.854	4052
462.865	4112
462.922	4737
462.945	4930
462.990	4714
463.025	4246
463.058	4106
463.104	4340
463.126	4207
463.184	3465
463.194	3495
463.262	3590
463.264	3601
463.330	4269
463.344	4490
463.398	4750
463.424	4659
463.466	3974
463.504	3513
463.533	4132
463.583	4913
463.601	4663
463.663	4051
463.669	4114
463.737	4776
463.743	4844
463.805	5874
463.823	6061
463.873	7426
463.903	8474
463.940	8014
463.982	7556
464.008	6968
464.062	5203
464.076	5057
464.142	4091
464.144	4097
464.211	4582
464.221	4667
464.279	4039
464.301	3761
464.347	4339
464.381	4772
464.414	4740
464.461	4791
464.482	4768
464.540	4476
464.550	4436
464.617	4185
464.620	4170
464.685	4994
464.699	5184
464.753	5594
464.779	5782
464.820	6259
464.859	6781
464.888	6174
464.938	4960
464.956	5275
465.018	6415
465.023	6389
465.091	5980
465.098	5921
465.158	5905
465.177	5892
465.226	5714
465.257	5585
465.293	5354
465.336	5095
465.361	5362
465.416	6005
465.428	6132
465.495	6753
465.496	6776
465.563	8822
465.575	9196
465.631	9870
465.654	10188
465.698	7753
465.734	5481
465.765	5447
465.813	5398
465.833	5488
465.893	6000
465.900	5910
465.968	4841
465.972	4760
466.035	5489
466.052	5694
466.102	5805
466.131	5906
466.170	5707
466.210	5399
466.237	5572
466.290	5897
466.304	5751
466.369	5047
466.372	5068
466.439	5424
466.449	5471
466.506	5435
466.528	5418
466.573	6765
466.607	7739
466.641	8946
466.687	10633
466.708	11212
466.766	12795
466.775	12100
466.842	6662
466.845	6395
466.909	5847
466.925	5714
466.977	6064
467.004	6260
467.044	6605
467.083	6919
467.111	7379
467.163	8219
467.178	8138
467.242	7752
467.245	7760
467.312	7703
467.321	7686
467.379	7774
467.400	7785
467.446	8114
467.480	8328
467.559	7848
467.638	7321
467.717	7650
467.796	8175
467.875	7809
467.955	8703
468.034	11749
468.113	17167
468.192	21509
468.271	15827
468.350	22089
468.429	28654
468.508	28710
468.588	17451
468.667	12362
468.746	9859
468.825	8485
468.904	7691
468.983	9170
469.062	8812
469.141	9737
469.220	6509
469.299	6918
469.378	6009
469.456	8500
469.535	7839
469.614	8282
469.693	7611
469.772	8572
469.851	8716
469.930	7136
470.009	7642
470.088	8114
470.166	8409
470.245	8757
470.324	8382
470.403	8086
470.482	6535
470.560	7126
470.639	5973
470.718	7779
470.797	7533
470.875	7662
470.954	7699
471.033	7624
471.111	6098
471.190	6721
471.269	6057
471.347	6213
471.426	6283
471.505	6901
471.583	7168
471.662	6949
471.740	6926
471.819	6826
471.898	6629
471.976	7323
472.055	6378
472.133	7543
472.212	8538
472.290	7640
472.369	6295
472.447	6388
472.526	6045
472.604	7243
472.683	6170
472.761	6163
472.839	6220
472.918	6054
472.996	5707
473.075	7527
473.153	7498
473.231	6498
473.310	7379
473.388	7254
473.466	7177
473.545	6682
473.623	7580
473.701	7767
473.780	7644
473.858	5598
473.936	7775
474.014	7798
474.093	7984
474.171	9234
474.249	8413
474.327	6994
474.405	6750
474.484	7040
474.562	5945
474.640	6600
474.718	6766
474.796	6303
474.874	6450
474.952	6609
475.030	5068
475.108	5732
475.187	6403
475.265	6683
475.343	7038
475.421	7812
475.499	6026
475.577	6468
475.655	8388
475.733	10194
475.811	12190
475.889	10777
475.966	8747
476.044	6472
476.122	6108
476.200	6431
476.278	6369
476.356	6012
476.434	6642
476.512	6238
476.590	6006
476.667	6799
476.745	4959
476.823	6560
476.901	6176
476.979	5947
477.056	6660
477.134	6355
477.212	6251
477.290	5740
477.367	6370
477.445	6344
477.523	5294
477.601	5561
477.678	6893
477.756	6602
477.834	7149
477.911	5956
477.989	6719
478.066	5794
478.144	5523
478.222	6343
478.299	6594
478.377	7063
478.454	6321
478.532	5852
478.609	5457
478.687	6546
478.764	6220
478.842	6715
478.919	5698
478.997	6266
479.074	5315
479.152	6817
479.229	6794
479.307	6675
479.384	5961
479.461	6060
479.539	5212
479.616	5369
479.694	5217
479.771	6317
479.848	5929
479.926	6924
480.003	7640
480.080	6606
480.157	5734
480.235	6168
480.312	7258
480.389	5799
480.467	7012
480.544	8236
480.621	7366
480.698	7434
480.775	7392
480.853	7275
480.930	6536
481.007	6744
481.084	7658
481.161	9634
481.238	7133
481.315	5870
481.392	6477
481.470	6387
481.547	6844
481.624	6557
481.701	6781
481.778	6955
481.855	7022
481.932	9216
482.009	12336
482.086	10097
482.163	9946
482.240	10402
482.317	10799
482.393	10624
482.470	8846
482.547	8917
482.624	8166
482.701	7982
482.778	7509
482.855	8090
482.932	6917
483.009	8116
483.085	10243
483.162	11520
483.239	13296
483.316	10914
483.393	11498
483.469	9607
483.546	9839
483.623	9093
483.699	7529
483.776	7171
483.853	6832
483.930	8820
484.006	12430
484.083	19330
484.160	14592
484.236	20628
484.313	16058
484.389	13706
484.466	15102
484.543	16382
484.619	20967
484.696	21413
484.772	15839
484.849	13389
484.925	12008
485.002	11741
485.078	11090
485.155	10477
485.231	9503
485.308	10265
485.384	10746
485.461	12558
485.537	14529
485.614	14761
485.690	10043
485.766	10348
485.843	9934
485.919	10728
485.995	11430
486.072	10102
486.148	8226
486.224	9124
486.301	9603
486.377	10135
486.453	9803
486.530	11262
486.606	14561
486.682	14438
486.758	14701
486.835	16017
486.911	14092
486.987	18117
487.063	18185
487.139	19781
487.215	19280
487.292	18959
487.368	19327
487.444	22499
487.520	29725
487.596	49609
487.672	137870
487.748	360628
487.824	481596
487.900	140438
487.976	41783
488.052	25467
488.128	20587
488.204	14783
488.280	13674
488.356	15067
488.432	17547
488.508	19562
488.584	11418
488.660	9768
488.736	9208
488.812	8847
488.888	10127
488.964	12164
489.039	15742
489.115	18373
489.191	13606
489.267	9224
489.343	9443
489.418	8871
489.494	8897
489.570	7224
489.646	9969
489.722	8879
489.797	7995
489.873	11476
489.949	15571
490.024	13062
490.100	7818
490.176	8920
490.251	8619
490.327	9581
490.403	7478
490.478	8443
490.554	7687
490.629	9302
490.705	7649
490.781	8658
490.856	7550
490.932	8582
491.007	7546
491.083	8003
491.158	7351
491.234	9253
491.309	12848
491.385	11546
491.460	7067
491.536	8379
491.611	7574
491.686	8463
491.762	7370
491.837	11271
491.913	14099
491.988	17157
492.063	16916
492.139	10432
492.214	7128
492.289	6916
492.365	6040
492.440	7503
492.515	7070
492.590	7357
492.666	6392
492.741	7677
492.816	8019
492.891	6959
492.967	7171
493.042	7063
493.117	5830
493.192	6631
493.267	11138
493.342	23162
493.418	24539
493.493	6599
493.568	5906
493.643	6005
493.718	6195
493.793	7891
493.868	8105
493.943	6644
494.018	6922
494.093	5051
494.168	6202
494.243	5745
494.318	5339
494.393	6775
494.468	4928
494.543	5875
494.618	5282
494.693	5654
494.768	5645
494.842	6126
494.917	5069
494.992	5760
495.067	4570
495.142	4981
495.217	6050
495.292	5314
495.366	5700
495.441	5011
495.516	6656
495.591	8281
495.665	17877
495.740	29028
495.815	11664
495.890	7095
495.964	4424
496.039	8471
496.114	7163
496.188	9878
496.263	7757
496.338	5788
496.412	6120
496.487	7110
496.561	6647
496.636	6369
496.710	6630
496.785	6602
496.860	5950
496.934	5536
497.009	6317
497.083	6393
497.158	5822
497.232	6579
497.307	5592
497.381	6052
497.455	6985
497.530	8056
497.604	5946
497.679	6207
497.753	8674
497.827	7814
497.902	6594
497.976	11645
498.050	32512
498.125	94333
498.199	70355
498.273	9309
498.348	6374
498.422	6885
498.496	6755
498.570	7402
498.645	5865
498.719	5639
498.793	6928
498.867	10176
498.941	14513
499.016	45028
499.090	89992
499.164	22096
499.238	6896
499.312	6030
499.386	7964
499.460	7110
499.534	6741
499.609	8095
499.683	8584
499.757	10187
499.831	22988
499.905	63645
499.979	45285
500.053	8974
500.127	8158
500.201	6266
500.275	6678
500.349	6612
500.422	7132
500.496	8667
500.570	15096
500.644	38102
500.718	54612
500.792	12531
500.866	7096
500.940	7838
501.013	7080
501.087	6846
501.161	8801
501.235	10139
501.309	25916
501.382	53054
501.456	36409
501.530	11647
501.603	17400
501.677	8102
501.751	4655
501.825	8301
501.898	11344
501.972	21156
502.046	11666
502.119	6309
502.193	12286
502.266	21412
502.340	10939
502.413	13333
502.487	19094
502.561	11404
502.634	6097
502.708	6996
502.781	4929
502.855	6703
502.928	4898
503.002	6719
503.075	4856
503.149	6623
503.222	6024
503.295	6329
503.369	7080
503.442	10799
503.516	22224
503.589	38707
503.662	24321
503.736	16275
503.809	27780
503.882	29576
503.956	48682
504.029	89223
504.102	215312
504.175	275801
504.249	97706
504.322	34980
504.395	19801
504.468	13110
504.542	8964
504.615	8006
504.688	7563
504.761	5195
504.834	7751
504.907	6605
504.980	6701
505.053	5293
505.127	3141
505.200	8427
505.273	5432
505.346	4469
505.419	3729
505.492	6447
505.565	3943
505.638	5765
505.711	4124
505.784	3965
505.857	3437
505.930	6112
506.003	3262
506.076	5996
506.149	4372
506.221	3207
506.294	7305
506.367	11061
506.440	27117
506.513	12548
506.586	5944
506.659	3998
506.731	4158
506.804	4364
506.877	3775
506.950	4840
507.022	4554
507.095	3555
507.168	4620
507.241	5256
507.313	3301
507.386	4210
507.459	4662
507.531	3414
507.604	3459
507.677	4019
507.749	2904
507.822	5405
507.894	5979
507.967	9003
508.040	5198
508.112	5765
508.185	5369
508.257	4165
508.330	6618
508.402	4040
508.475	5133
508.547	4554
508.620	4668
508.692	5644
508.765	5534
508.837	4472
508.909	3928
508.982	4036
509.054	4766
509.127	4533
509.199	4395
509.271	3567
509.344	4300
509.416	3906
509.488	4156
509.560	5199
509.633	3523
509.705	4034
509.777	4488
509.849	5935
509.922	4015
509.994	4877
510.066	5814
510.138	4394
510.210	9740
510.283	6981
510.355	5540
510.427	6798
510.499	5000
510.571	6028
510.643	4506
510.715	6341
510.787	3767
510.859	6063
510.931	5621
511.003	6817
511.076	6623
511.148	4489
511.219	5267
511.291	6446
511.363	7273
511.435	5022
511.507	3733
511.579	6199
511.651	5909
511.723	4163
511.795	4271
511.867	5069
511.939	6204
512.010	6982
512.082	6233
512.154	3676
512.226	5472
512.298	7445
512.369	8065
512.441	7503
512.513	6304
512.585	4718
512.656	6260
512.728	5344
512.800	5062
512.871	5221
512.943	5710
513.015	3775
513.086	5383
513.158	6048
513.230	5263
513.301	5076
513.373	7148
513.444	5516
513.516	4917
513.588	4509
513.659	6230
513.731	6310
513.802	4106
513.874	9178
513.945	8863
514.016	4629
514.088	5535
514.159	5131
514.231	6127
514.302	7468
514.374	6590
514.445	5183
514.516	10466
514.588	5993
514.659	5974
514.730	7470
514.802	6680
514.873	3509
514.944	6868
515.016	5549
515.087	5947
515.158	6453
515.229	8240
515.301	4741
515.372	6297
515.443	3934
515.514	5051
515.585	3831
515.656	6403
515.728	5988
515.799	4286
515.870	5883
515.941	6247
516.012	4860
516.083	7698
516.154	5869
516.225	7851
516.296	6976
516.367	6609
516.438	6703
516.509	7012
516.580	10769
516.651	31064
516.722	69897
516.793	26559
516.864	10136
516.935	9250
517.006	10858
517.077	12866
517.148	30740
517.219	105387
517.289	118919
517.360	34263
517.431	14562
517.502	8003
517.573	9138
517.643	7665
517.714	8834
517.785	9003
517.856	9136
517.926	12110
517.997	12246
518.068	11832
518.138	17502
518.209	25543
518.280	90903
518.350	224180
518.421	71006
518.492	25543
518.562	27495
518.633	39268
518.703	65920
518.774	170327
518.845	398803
518.915	314815
518.986	84897
519.056	36134
519.127	26069
519.197	25413
519.268	38545
519.338	22553
519.408	11045
519.479	10476
519.549	8047
519.620	9520
519.690	6818
519.760	7385
519.831	6785
519.901	6690
519.971	7287
520.042	6714
520.112	6759
520.182	7414
520.253	7469
520.323	5738
520.393	7747
520.463	10139
520.534	5244
520.604	12857
520.674	8240
520.744	8334
520.814	12293
520.885	10884
520.955	16326
521.025	35987
521.095	11984
521.165	6559
521.235	5400
521.305	5004
521.375	5489
521.445	6036
521.515	6016
521.585	6655
521.655	4943
521.725	6019
521.795	6631
521.865	3163
521.935	9371
522.005	5890
522.075	5430
522.145	6706
522.215	5545
522.285	7940
522.355	8754
522.424	12126
522.494	8720
522.564	6716
522.634	9848
522.704	18477
522.774	7171
522.843	5586
522.913	6316
522.983	5444
523.053	4862
523.122	6702
523.192	6761
523.262	10525
523.331	8780
523.401	6410
523.471	5822
523.540	5931
523.610	3797
523.680	6919
523.749	6221
523.819	8076
523.888	7806
523.958	5873
524.027	7012
524.097	5932
524.166	5808
524.236	4765
524.305	7317
524.375	4902
524.444	5695
524.514	7609
524.583	6542
524.653	6602
524.722	6957
524.791	5737
524.861	8444
524.930	5351
524.999	6915
525.069	8949
525.138	8231
525.207	7391
525.277	9024
525.346	8665
525.415	10481
525.484	12416
525.554	13774
525.623	16550
525.692	19621
525.761	23179
525.830	27721
525.900	36172
525.969	61756
526.038	121662
526.107	297940
526.176	696823
526.245	448878
526.314	152463
526.383	375594
526.452	444088
526.522	666952
526.591	461061
526.660	81108
526.729	49346
526.797	56125
526.867	100638
526.935	345446
527.004	912366
527.073	441745
527.142	65909
527.211	30407
527.280	21535
527.349	16051
527.418	12067
527.487	11331
527.555	8831
527.624	9220
527.693	6985
527.762	9506
527.831	7135
527.899	7389
527.968	7322
528.037	5519
528.106	7937
528.174	8248
528.243	8052
528.312	9146
528.380	7336
528.449	6004
528.518	7071
528.586	5021
528.655	7273
528.723	5897
528.792	5682
528.861	4904
528.929	4652
528.998	6856
529.066	8762
529.135	11119
529.203	11230
529.272	14235
529.340	16699
529.409	17404
529.477	14162
529.545	15240
529.614	18344
529.682	18282
529.751	19715
529.819	24013
529.887	23612
529.956	21418
530.024	20953
530.092	18987
530.161	19613
530.229	19914
530.297	21129
530.365	22413
530.434	22241
530.502	22950
530.570	19768
530.638	17365
530.707	17992
530.775	17691
530.843	17018
530.911	18930
530.979	20265
531.047	22209
531.115	21154
531.183	18598
531.252	19061
531.320	17071
531.388	17166
531.456	20493
531.524	19262
531.592	23651
531.660	26091
531.728	22451
531.796	20596
531.864	21026
531.932	20329
532.000	21213
532.067	22903
532.135	24712
532.203	25920
532.271	26741
532.339	28165
532.407	29908
532.475	25748
532.542	24339
532.610	24276
532.678	26139
532.746	41542
532.814	53395
532.881	30070
532.949	25570
533.017	24499
533.084	23563
533.152	22408
533.220	22071
533.287	20849
533.355	23993
533.423	24402
533.490	24147
533.558	23457
533.625	23347
533.693	22265
533.761	22352
533.828	21777
533.896	21440
533.963	26093
534.031	26800
534.098	29522
534.166	26517
534.233	24731
534.300	27923
534.368	27691
534.435	24820
534.503	25666
534.570	28787
534.637	30218
534.705	34054
534.772	42450
534.840	90377
534.907	349097
534.974	306222
535.041	45030
535.109	26621
535.176	23016
535.243	22591
535.310	22466
535.378	21203
535.445	20947
535.512	21449
535.579	20406
535.646	19136
535.714	19231
535.781	21577
535.848	21148
535.915	22403
535.982	22133
536.049	21144
536.116	21536
536.183	18220
536.250	18441
536.317	17833
536.384	19599
536.451	19550
536.518	20149
536.585	17690
536.652	20022
536.719	21375
536.786	16773
536.853	17925
536.920	19944
536.987	18605
537.053	17975
537.120	34163
537.187	28302
537.254	19459
537.321	18742
537.388	20204
537.454	17352
537.521	17668
537.588	17731
537.654	18357
537.721	18397
537.788	18657
537.855	18183
537.921	19249
537.988	17210
538.055	18403
538.121	15794
538.188	15364
538.254	15183
538.321	16491
538.388	17259
538.454	18542
538.521	18376
538.587	18875
538.654	17989
538.720	16552
538.787	18015
538.853	17320
538.920	16319
538.986	15414
539.053	15357
539.119	16053
539.185	15893
539.252	18292
539.318	17748
539.385	20458
539.451	17105
539.517	18376
539.583	18715
539.650	20984
539.716	24488
539.782	17285
539.849	15799
539.915	16801
539.981	15777
540.047	16186
540.114	15703
540.180	17732
540.246	16764
540.312	18097
540.378	19145
540.444	19191
540.510	21601
540.576	26722
540.643	17943
540.709	14447
540.775	15941
540.841	15927
540.907	17087
540.973	17812
541.039	16629
541.105	17365
541.171	17726
541.237	16670
541.303	17241
541.369	18991
541.435	18246
541.500	18061
541.566	14060
541.632	15099
541.698	16014
541.764	17080
541.830	15579
541.896	14707
541.961	16652
542.027	15493
542.093	17208
542.159	17264
542.224	15417
542.290	18324
542.356	17254
542.421	17137
542.487	15534
542.553	14726
542.618	15462
542.684	15859
542.750	16492
542.815	16235
542.881	18562
542.947	26696
543.012	21003
543.078	15615
543.143	14311
543.209	15968
543.274	14942
543.340	17273
543.405	18982
543.471	20490
543.536	16625
543.602	16468
543.667	15804
543.732	17594
543.798	15300
543.863	16218
543.928	16230
543.994	15606
544.059	16637
544.124	17135
544.190	16936
544.255	17803
544.320	18307
544.386	17124
544.451	18658
544.516	17755
544.581	18469
544.646	24639
544.712	25603
544.777	20136
544.842	17976
544.907	18422
544.972	18586
545.037	19090
545.102	21290
545.168	20013
545.233	20748
545.298	21534
545.363	21250
545.428	21722
545.493	25709
545.558	27207
545.623	21890
545.688	21584
545.753	22534
545.818	24200
545.883	25793
545.947	25168
546.012	27385
546.077	26027
546.142	29040
546.207	28091
546.272	31059
546.337	31115
546.401	33000
546.466	33984
546.531	34370
546.596	38449
546.661	39006
546.725	41016
546.790	42835
546.855	47950
546.919	51947
546.984	56913
547.049	61140
547.113	70823
547.178	77171
547.243	88950
547.307	102715
547.372	113076
547.436	113017
547.501	120876
547.565	125748
547.630	115322
547.695	112672
547.759	112811
547.823	112575
547.888	116817
547.952	120549
548.017	125441
548.081	127360
548.146	125494
548.210	131638
548.274	141584
548.339	134411
548.403	121854
548.468	115546
548.532	114272
548.596	118294
548.660	119538
548.725	133314
548.789	142281
548.853	135249
548.917	130035
548.982	125934
549.046	112551
549.110	103842
549.174	107767
549.238	126465
549.303	136519
549.367	139750
549.431	130258
549.495	122421
549.559	125445
549.623	149109
549.687	156808
549.751	157155
549.815	186458
549.879	187150
549.943	180999
550.007	188730
550.071	184766
550.135	163968
550.199	157581
550.263	155421
550.327	147195
550.391	152283
550.455	169812
550.519	177093
550.582	189873
550.646	215650
550.710	215281
550.774	209229
550.838	216191
550.901	219620
550.965	235627
551.029	245139
551.093	265309
551.156	296062
551.220	345069
551.284	358062
551.347	272466
551.411	234614
551.475	226426
551.538	228461
551.602	210069
551.666	200007
551.729	186349
551.793	182572
551.856	180223
551.920	175794
551.983	176228
552.047	173042
552.110	175556
552.174	177976
552.237	179501
552.301	165331
552.364	160886
552.428	155942
552.491	163037
552.554	163325
552.618	163112
552.681	164679
552.745	157408
552.808	167343
552.871	174446
552.934	168195
552.998	162581
553.061	159047
553.124	153878
553.187	155025
553.251	158356
553.314	157087
553.377	161400
553.440	173559
553.503	192604
553.567	189784
553.630	171565
553.693	169275
553.756	168488
553.819	163451
553.882	158962
553.945	158573
554.008	160432
554.071	161086
554.134	162521
554.197	149769
554.260	147935
554.323	151227
554.386	155104
554.449	161783
554.512	159847
554.575	153194
554.638	152057
554.701	150289
554.764	147643
554.827	145159
554.889	136727
554.952	127826
555.015	128214
555.078	131063
555.141	131642
555.203	129186
555.266	128083
555.329	126577
555.391	122437
555.454	121666
555.517	118316
555.580	113631
555.642	109725
555.705	108114
555.768	107727
555.830	103172
555.893	99558
555.955	94950
556.018	96566
556.080	96482
556.143	99081
556.206	96398
556.268	94340
556.330	93007
556.393	90173
556.455	86800
556.518	86938
556.580	83392
556.643	80532
556.705	79435
556.767	76801
556.830	76057
556.892	74843
556.955	75146
557.017	72627
557.079	72628
557.142	71264
557.204	70197
557.266	72128
557.328	65277
557.391	61958
557.453	60556
557.515	60729
557.577	61516
557.639	62254
557.701	61760
557.764	61989
557.826	63354
557.888	65059
557.950	67075
558.012	74678
558.074	106769
558.136	263999
558.198	462569
558.260	137668
558.322	71085
558.384	69810
558.446	72179
558.508	77260
558.570	84794
558.632	99006
558.694	132733
558.756	247335
558.818	704926
558.880	1049484
558.942	458164
559.003	507794
559.065	193667
559.127	89175
559.189	86272
559.251	98325
559.312	154414
559.374	407480
559.436	877690
559.498	340704
559.559	101615
559.621	85317
559.683	104046
559.744	192485
559.806	583977
559.868	583785
559.929	132140
559.991	103955
560.052	204355
560.114	484829
560.176	248224
560.237	325373
560.299	376073
560.360	74310
560.422	38941
560.483	33787
560.545	32398
560.606	31292
560.667	28579
560.729	28246
560.790	25895
560.852	27160
560.913	25213
560.974	24025
561.036	24564
561.097	24626
561.158	24612
561.220	24523
561.281	21873
561.342	22164
561.403	23344
561.465	22165
561.526	25137
561.587	26114
561.648	21392
561.709	21178
561.771	21104
561.832	19972
561.893	18792
561.954	20485
562.015	19234
562.076	18364
562.137	18879
562.198	18759
562.259	19173
562.320	19184
562.381	19794
562.442	20133
562.503	18067
562.564	18271
562.625	18019
562.686	17876
562.747	17405
562.808	17052
562.869	17103
562.930	18184
562.991	16983
563.051	17545
563.112	16716
563.173	17034
563.234	16136
563.294	16741
563.355	15712
563.416	16996
563.477	15746
563.537	16405
563.598	15481
563.659	15523
563.720	15033
563.780	15658
563.841	15837
563.901	16855
563.962	15460
564.023	14735
564.083	15530
564.144	16043
564.204	15257
564.265	15829
564.325	15261
564.386	18378
564.446	15728
564.507	14829
564.567	13499
564.628	14257
564.688	14410
564.749	13294
564.809	14777
564.869	15821
564.930	14163
564.990	14637
565.050	13444
565.111	14219
565.171	13994
565.231	14160
565.292	14530
565.352	13580
565.412	13699
565.472	13673
565.532	14012
565.593	14079
565.653	14066
565.713	14327
565.773	14487
565.833	14628
565.893	15965
565.953	13547
566.013	13117
566.074	13591
566.134	13922
566.194	15377
566.254	14347
566.314	14568
566.374	13371
566.434	12652
566.494	13357
566.554	12722
566.614	13741
566.673	13824
566.733	14557
566.793	14191
566.853	14516
566.913	14264
566.973	14853
567.033	13729
567.092	14200
567.152	13984
567.212	13890
567.272	14204
567.331	14473
567.391	14750
567.451	15381
567.511	16452
567.570	15446
567.630	14984
567.690	13860
567.749	14253
567.809	13663
567.868	13809
567.928	13793
567.988	14415
568.047	14295
568.107	14450
568.166	14104
568.226	14139
568.285	14362
568.345	15389
568.404	15296
568.464	13997
568.523	13669
568.582	14418
568.642	13757
568.701	14134
568.761	13875
568.820	13823
568.879	14250
568.939	16325
568.998	14342
569.057	13919
569.116	13927
569.176	14115
569.235	13354
569.294	13986
569.353	13036
569.413	13579
569.472	13015
569.531	13408
569.590	12508
569.649	13151
569.708	13137
569.767	13991
569.827	13162
569.886	13440
569.945	13076
570.004	12595
570.063	12697
570.122	13856
570.181	14168
570.240	15032
570.299	13437
570.358	14221
570.417	14886
570.475	14747
570.534	14833
570.593	14609
570.652	14715
570.711	15579
570.770	14891
570.829	14480
570.887	14491
570.946	15280
571.005	13921
571.064	14527
571.122	14403
571.181	14507
571.240	13757
571.299	13713
571.357	13309
571.416	13030
571.475	14111
571.533	15017
571.592	15337
571.650	16301
571.709	15196
571.768	17872
571.826	17384
571.885	16313
571.943	14364
572.002	14526
572.060	13472
572.119	13055
572.177	13476
572.236	13669
572.294	13855
572.352	14944
572.411	14801
572.469	13980
572.528	12896
572.586	13358
572.644	13072
572.703	14001
572.761	13050
572.819	12142
572.877	12001
572.936	12752
572.994	11931
573.052	12771
573.110	12645
573.169	13329
573.227	13482
573.285	13826
573.343	12459
573.401	12569
573.459	13398
573.517	13779
573.576	13514
573.634	13676
573.692	13024
573.750	13633
573.808	13182
573.866	12697
573.924	12866
573.982	12903
574.040	12548
574.098	12836
574.155	11832
574.213	12822
574.271	14219
574.329	14760
574.387	12107
574.445	11192
574.503	11115
574.560	10697
574.618	12536
574.676	12699
574.734	11364
574.792	11768
574.849	10411
574.907	10542
574.965	9717
575.022	9471
575.080	9212
575.138	9815
575.195	9311
575.253	9447
575.311	9199
575.368	10690
575.426	9437
575.483	10354
575.541	10691
575.598	10320
575.656	10249
575.713	10331
575.771	10747
575.828	10022
575.886	8838
575.943	9890
576.001	9653
576.058	9914
576.115	10006
576.173	9842
576.230	10877
576.287	10674
576.345	9924
576.402	10940
576.459	10234
576.517	10263
576.574	9718
576.631	9991
576.688	9156
576.746	8933
576.803	9547
576.860	9435
576.917	9827
576.974	9546
577.031	9393
577.089	8993
577.146	8195
577.203	8933
577.260	9019
577.317	9426
577.374	9550
577.431	8617
577.488	7953
577.545	8884
577.602	10034
577.659	8187
577.716	9162
577.773	9419
577.830	8754
577.886	9029
577.943	8665
578.000	9575
578.057	9296
578.114	10447
578.171	10724
578.227	11891
578.284	11332
578.341	10470
578.398	9731
578.454	9196
578.511	9644
578.568	9819
578.625	8509
578.681	8564
578.738	8865
578.794	9360
578.851	9241
578.908	9724
578.964	9374
579.021	10107
579.077	8829
579.134	9711
579.190	9112
579.247	9793
579.303	9301
579.360	8810
579.416	9281
579.473	8687
579.529	9113
579.586	10066
579.642	9800
579.698	9972
579.755	8980
579.811	10102
579.867	10729
579.924	9864
579.980	9584
580.036	11875
580.093	12893
580.149	16603
580.205	16028
580.261	13262
580.317	11991
580.374	13379
580.430	11645
580.486	11176
580.542	10938
580.598	10878
580.619	10906
580.654	10962
580.692	11490
580.710	11758
580.765	11257
580.767	11245
580.823	10877
580.838	11184
580.879	12013
580.911	12052
580.935	12088
580.984	11454
580.991	11372
581.047	12280
581.057	12372
581.103	12800
581.130	12760
581.159	12711
581.203	13043
581.215	13135
581.270	12853
581.276	12827
581.326	12573
581.349	12342
581.382	12018
581.422	12315
581.438	12428
581.494	11384
581.494	11387
581.550	11673
581.567	11782
581.606	12002
581.640	12146
581.661	12230
581.713	13059
581.717	13129
581.773	12774
581.786	12633
581.829	12100
581.859	12937
581.885	13701
581.932	13607
581.940	13579
581.996	13906
582.004	13810
582.052	13170
582.077	13182
582.107	13246
582.150	13246
582.163	13234
582.219	13494
582.223	13516
582.274	13833
582.296	13952
582.330	14107
582.368	14386
582.386	14576
582.441	14408
582.441	14403
582.497	15074
582.514	14741
582.552	14321
582.587	14745
582.608	14916
582.659	15257
582.663	15291
582.719	16399
582.732	16271
582.774	15919
582.805	16740
582.830	17375
582.877	18004
582.885	18138
582.941	18840
582.950	19166
582.996	21055
583.023	21855
583.052	22647
583.095	23413
583.107	23498
583.162	22810
583.168	22743
583.218	21935
583.240	21252
583.273	20080
583.313	19255
583.328	19071
583.384	18103
583.385	18105
583.439	18137
583.458	18021
583.494	17840
583.531	17843
583.549	17972
583.603	17779
583.605	17756
583.660	17593
583.676	17610
583.715	17953
583.748	17722
583.770	17572
583.820	17851
583.825	17891
583.881	18066
583.893	18083
583.936	17912
583.965	17898
583.991	18008
584.038	18279
584.046	18321
584.101	17997
584.110	18145
584.156	19198
584.183	19145
584.211	18903
584.255	20113
584.266	20526
584.321	20538
584.328	20599
584.376	20803
584.400	20754
584.431	20782
584.472	21294
584.486	21518
584.541	22988
584.545	22976
584.596	23024
584.617	23210
584.651	23552
584.689	24827
584.706	25400
584.761	25443
584.762	25432
584.816	25986
584.834	26252
584.871	26788
584.906	27058
584.926	27350
584.978	28622
584.980	28699
585.035	30922
585.051	31384
585.090	32736
585.123	34148
585.145	35417
585.195	38236
585.200	38629
585.254	42694
585.267	44192
585.309	49923
585.340	54089
585.364	58142
585.412	66266
585.419	67938
585.473	85969
585.484	90762
585.528	120430
585.556	149104
585.583	206936
585.628	337505
585.637	385461
585.692	772011
585.700	817234
585.747	935244
585.772	845562
585.801	556447
585.845	238765
585.856	203759
585.910	103339
585.917	92279
585.965	70070
585.989	60588
586.019	55340
586.061	49276
586.074	48304
586.128	44555
586.133	44198
586.183	41687
586.205	40590
586.237	39811
586.277	38964
586.292	38792
586.346	37335
586.349	37211
586.401	36164
586.421	35939
586.455	36253
586.493	36289
586.509	36542
586.564	37755
586.565	37746
586.618	43097
586.637	44437
586.672	46709
586.709	50633
586.727	53135
586.781	57794
586.781	57866
586.835	45920
586.853	42943
586.889	39173
586.925	35862
586.944	35468
586.996	35028
586.998	35094
587.052	34804
587.068	34740
587.106	34959
587.140	34707
587.161	34717
587.212	34665
587.215	34762
587.269	35666
587.284	35797
587.323	36396
587.356	36854
587.377	37333
587.427	38088
587.431	38182
587.485	38349
587.499	38384
587.539	39272
587.571	39970
587.593	41210
587.643	43789
587.648	43975
587.702	43489
587.715	43616
587.755	44007
587.786	43839
587.810	44112
587.858	44350
587.864	44478
587.917	45057
587.930	45054
587.971	45416
588.001	45440
588.025	45381
588.073	44334
588.079	44462
588.133	45702
588.145	45826
588.187	46121
588.217	46209
588.241	47043
588.288	48478
588.295	48777
588.348	49869
588.360	49993
588.402	50479
588.431	50755
588.456	51447
588.503	52712
588.510	53256
588.564	56136
588.575	56769
588.617	59300
588.646	60816
588.671	62717
588.718	66688
588.725	68066
588.778	79152
588.789	82047
588.832	118084
588.861	145998
588.886	212144
588.932	355077
588.939	369697
588.993	447995
589.004	451073
589.047	247279
589.075	129304
589.100	105955
589.147	69617
589.154	68989
589.207	63160
589.218	61964
589.261	63536
589.290	64631
589.314	66392
589.361	70475
589.368	72676
589.421	90555
589.433	95175
589.475	160852
589.504	212245
589.528	282157
589.576	414473
589.582	400160
589.635	214013
589.647	178101
589.689	109152
589.718	64190
589.742	62076
589.790	57368
589.795	57540
589.849	57785
589.861	57810
589.902	58259
589.932	57673
589.955	56547
590.004	54018
590.009	54143
590.062	54221
590.075	53965
590.115	54170
590.146	54199
590.168	54115
590.218	53309
590.222	53593
590.275	55277
590.289	55520
590.328	56834
590.360	57690
590.381	58219
590.431	58701
590.435	58884
590.488	58846
590.503	58639
590.541	59453
590.574	59952
590.594	61048
590.645	63291
590.647	63592
590.700	66038
590.716	66597
590.753	67613
590.787	68123
590.806	69122
590.859	71083
590.859	71333
590.912	72408
590.930	72529
590.965	72978
591.001	73054
591.018	73215
591.071	72710
591.072	72463
591.124	72049
591.143	71591
591.177	72402
591.214	72849
591.230	73572
591.283	75060
591.285	74861
591.336	74892
591.356	74660
591.389	74521
591.427	73632
591.442	73752
591.495	73334
591.498	73059
591.547	74744
591.569	75171
591.600	75857
591.640	76070
591.653	77024
591.706	79969
591.711	80017
591.759	82529
591.782	83400
591.811	84930
591.853	86285
591.864	86565
591.917	86494
591.924	86181
591.969	86623
591.995	86383
592.022	87343
592.066	88140
592.075	88670
592.127	90075
592.137	90017
592.180	93469
592.208	95162
592.233	96090
592.279	96928
592.285	97554
592.338	99874
592.350	100050
592.390	100033
592.421	99381
592.443	100261
592.491	101073
592.495	101692
592.548	105184
592.562	105765
592.600	104685
592.633	103058
592.653	103294
592.704	102369
592.705	103030
592.775	106578
592.846	109477
592.916	110642
592.987	110927
593.058	113358
593.128	114402
593.199	116379
593.270	116069
593.341	116850
593.411	120848
593.482	126744
593.553	129919
593.623	131474
593.694	135176
593.764	138967
593.835	135908
593.906	136744
593.976	141470
594.047	145126
594.117	151517
594.188	154691
594.258	155617
594.329	154263
594.399	159233
594.470	163321
594.540	170725
594.611	173113
594.681	170914
594.751	171884
594.822	179215
594.892	186470
594.963	189979
595.033	196129
595.103	199965
595.174	202298
595.244	208652
595.314	217750
595.384	220484
595.455	225326
595.525	233193
595.595	241738
595.665	241149
595.736	236869
595.806	241743
595.876	243502
595.946	247936
596.016	257106
596.087	262318
596.157	266284
596.227	267669
596.297	281311
596.367	298764
596.437	315466
596.507	316829
596.577	315674
596.647	324321
596.717	339607
596.787	345287
596.857	344853
596.927	346988
596.997	348780
597.067	352935
597.137	359420
597.207	361645
597.277	364684
597.347	348803
597.417	341829
597.487	339853
597.557	348745
597.626	359880
597.696	363402
597.766	360155
597.836	344627
597.906	325872
597.975	322717
598.045	327376
598.115	340768
598.185	364147
598.254	405960
598.324	440293
598.394	446648
598.464	434455
598.533	429135
598.603	402294
598.672	391004
598.742	401435
598.812	402217
598.881	414293
598.951	411986
599.020	419507
599.090	434212
599.159	440621
599.229	425415
599.299	418282
599.368	431955
599.437	427592
599.507	398064
599.576	386673
599.646	383682
599.715	379426
599.785	378968
599.854	367703
599.924	366063
599.993	365217
600.062	373932
600.132	385388
600.201	406627
600.270	461864
600.340	484153
600.409	478923
600.478	476543
600.547	490306
600.617	450461
600.686	377951
600.755	349482
600.824	336964
600.894	333258
600.963	336965
601.032	338068
601.101	330918
601.170	321772
601.239	316136
601.308	317691
601.378	322511
601.447	325245
601.516	330799
601.585	334479
601.654	342255
601.723	344438
601.792	353344
601.861	366841
601.930	381716
601.999	390911
602.068	388031
602.137	393378
602.206	396794
602.275	405318
602.343	406405
602.412	406663
602.481	415189
602.550	416462
602.619	428388
602.688	426993
602.756	435540
602.825	433671
602.894	448883
602.963	447163
603.032	455552
603.100	456646
603.169	452382
603.238	466081
603.307	454771
603.375	460256
603.444	474434
603.513	462187
603.581	475304
603.650	491438
603.719	446845
603.787	449221
603.856	459671
603.924	468217
603.993	484435
604.061	501413
604.130	518229
604.198	528722
604.267	534444
604.335	545173
604.404	551132
604.472	561533
604.541	564993
604.609	574045
604.678	578157
604.746	585951
604.815	608373
604.883	603918
604.951	594521
605.020	612394
605.088	602666
605.156	601106
605.225	610474
605.293	604311
605.361	608739
605.429	608138
605.498	620622
605.566	629616
605.634	660184
605.702	673321
605.771	688399
605.839	696180
605.907	671142
605.975	664639
606.043	644112
606.111	641743
606.180	656106
606.248	630484
606.316	623376
606.384	642037
606.452	604026
606.520	591149
606.588	609762
606.656	615205
606.724	600018
606.792	568379
606.860	519459
606.928	476342
606.996	456857
607.064	446059
607.132	458458
607.200	486655
607.267	504433
607.335	514908
607.403	523017
607.471	507612
607.539	494412
607.607	495957
607.674	441239
607.742	435376
607.810	436623
607.878	437587
607.946	445050
608.013	463043
608.081	470505
608.149	474955
608.216	494637
608.284	509043
608.352	508214
608.419	503766
608.487	489272
608.555	480466
608.622	497714
608.690	523742
608.757	573302
608.825	587052
608.893	573942
608.960	539109
609.028	517992
609.095	519794
609.163	515659
609.230	462020
609.298	421300
609.365	448380
609.432	477234
609.500	520150
609.567	594222
609.635	669549
609.702	703776
609.769	671438
609.837	527729
609.904	460173
609.971	473711
610.039	513616
610.106	624478
610.173	1000724
610.241	1821164
610.308	1274186
610.375	627224
610.442	514559
610.509	482106
610.577	481882
610.644	485128
610.711	501648
610.778	513686
610.845	533537
610.912	567388
610.980	583866
611.047	585180
611.114	575461
611.181	556338
611.248	558942
611.315	585930
611.382	599907
611.449	618825
611.516	629173
611.583	619289
611.650	627591
611.717	632496
611.784	646630
611.851	666694
611.918	693315
611.984	781428
612.051	978824
612.118	1496977
612.185	2429796
612.252	1986110
612.319	1026233
612.386	840608
612.452	758920
612.519	716673
612.586	696471
612.653	705894
612.719	728486
612.786	698881
612.853	654657
612.919	637965
612.986	647347
613.053	611952
613.120	576094
613.186	558115
613.253	563675
613.319	561639
613.386	567423
613.453	576758
613.519	577072
613.586	565014
613.652	577412
613.719	566448
613.785	579538
613.852	580888
613.918	577666
613.985	583878
614.051	608123
614.118	602794
614.184	582517
614.250	576162
614.317	591251
614.383	582127
614.449	593640
614.516	590201
614.582	590385
614.648	581720
614.715	577385
614.781	566923
614.847	565812
614.914	561325
614.980	549053
615.046	548397
615.112	562954
615.179	564808
615.245	574094
615.311	564162
615.377	572686
615.443	578524
615.509	587169
615.575	604288
615.642	601097
615.708	614647
615.774	640141
615.840	675832
615.906	706426
615.972	808684
616.038	1075434
616.104	1737624
616.170	2599677
616.236	2395135
616.302	1363168
616.368	1085830
616.434	831142
616.500	742715
616.565	803143
616.631	983089
616.697	852025
616.763	843242
616.829	1148104
616.895	1833984
616.961	1791595
617.026	966672
617.092	681525
617.158	623852
617.224	602327
617.289	553383
617.355	524635
617.421	518525
617.487	516718
617.552	489516
617.618	484580
617.684	485668
617.749	484820
617.815	466900
617.880	457298
617.946	456187
618.012	464211
618.077	475943
618.143	454336
618.208	457825
618.274	489499
618.339	490733
618.405	411565
618.470	408044
618.536	409679
618.601	400079
618.667	374771
618.732	355090
618.798	349299
618.863	347732
618.928	344749
618.994	351175
619.059	348419
619.124	351956
619.190	348276
619.255	344970
619.320	343408
619.386	345305
619.451	342501
619.516	330211
619.581	338377
619.647	346422
619.712	348004
619.777	331353
619.842	334444
619.907	337553
619.972	348122
620.038	344574
620.103	332203
620.168	336669
620.233	342308
620.298	340341
620.363	347579
620.428	356194
620.493	362873
620.558	369173
620.623	373495
620.688	372623
620.753	368886
620.818	378225
620.883	380609
620.948	380069
621.013	374104
621.078	367977
621.143	372705
621.207	377102
621.272	372486
621.337	359209
621.402	355689
621.467	353484
621.532	352512
621.596	357143
621.661	343382
621.726	340100
621.791	345548
621.855	346388
621.920	342780
621.985	348614
622.049	354491
622.114	355350
622.179	361249
622.243	368118
622.308	380692
622.373	391771
622.437	387147
622.502	366828
622.566	364202
622.631	364112
622.695	369257
622.760	365866
622.824	365881
622.889	368196
622.953	368471
623.018	390764
623.082	392218
623.147	389314
623.211	382081
623.276	380588
623.340	364266
623.404	354598
623.469	354829
623.533	360218
623.597	351291
623.662	347149
623.726	323496
623.790	303408
623.854	294577
623.919	301534
623.983	306769
624.047	309481
624.111	314421
624.176	320914
624.240	320829
624.304	333233
624.368	318019
624.432	319755
624.496	327352
624.560	342881
624.625	350063
624.689	347426
624.753	361556
624.817	341543
624.881	334555
624.945	304126
625.009	294593
625.073	297976
625.137	308416
625.201	323791
625.265	322286
625.329	309642
625.393	313977
625.456	315694
625.520	324471
625.584	331777
625.648	339190
625.712	351732
625.776	357479
625.839	338018
625.903	281139
625.967	260460
626.031	279042
626.095	334778
626.158	306201
626.222	239194
626.286	222485
626.349	214632
626.413	202136
626.477	201535
626.540	204782
626.604	204692
626.668	198192
626.731	196486
626.795	196074
626.858	196690
626.922	193915
626.986	190788
627.049	191734
627.113	200713
627.176	196246
627.240	189746
627.303	188753
627.366	188339
627.430	191696
627.493	190119
627.557	185269
627.620	190696
627.684	196777
627.747	200493
627.810	182854
627.874	165676
627.937	158854
628.000	165992
628.064	159707
628.127	142462
628.190	139880
628.253	136880
628.317	132829
628.380	126852
628.443	121734
628.506	122314
628.569	117778
628.632	112896
628.696	112028
628.759	111091
628.822	106270
628.885	105042
628.948	101320
629.011	101304
629.074	99108
629.137	95114
629.200	92782
629.263	92831
629.326	91521
629.389	93220
629.452	92015
629.515	89016
629.578	88350
629.641	91533
629.704	90241
629.767	88788
629.830	85710
629.892	85869
629.955	84420
630.018	87360
630.081	87570
630.144	87481
630.207	83206
630.269	86150
630.332	83067
630.395	82434
630.458	79690
630.520	76768
630.583	79200
630.646	79461
630.708	82189
630.771	81442
630.834	86722
630.896	85705
630.959	85780
631.021	82302
631.084	83411
631.146	84078
631.209	84785
631.272	84614
631.334	87446
631.397	88806
631.459	87899
631.522	92107
631.584	95448
631.646	100716
631.709	104724
631.771	105266
631.834	100382
631.896	96233
631.958	90238
632.021	87787
632.083	82619
632.145	82912
632.208	80721
632.270	81338
632.332	80012
632.395	78588
632.457	81336
632.519	77964
632.581	79155
632.643	76819
632.706	77436
632.768	75481
632.830	77575
632.892	80375
632.954	80982
633.016	82313
633.078	79687
633.141	80700
633.203	79816
633.265	78751
633.327	78968
633.389	79971
633.451	80558
633.513	80840
633.575	83004
633.637	82341
633.698	84772
633.760	87325
633.822	91890
633.884	93876
633.946	95555
634.008	97849
634.070	101346
634.132	108042
634.193	116572
634.255	126371
634.317	128057
634.379	125236
634.441	112630
634.502	103684
634.564	94881
634.626	88170
634.687	84226
634.749	80623
634.811	79139
634.873	77986
634.934	77803
634.996	79143
635.057	79390
635.119	80211
635.181	82683
635.242	83744
635.304	81038
635.365	84965
635.427	80714
635.488	82161
635.550	81113
635.611	81979
635.673	82891
635.734	89682
635.796	94507
635.857	102577
635.918	111407
635.980	120056
636.041	128846
636.102	137186
636.164	137637
636.225	130886
636.286	114898
636.348	103204
636.409	92894
636.470	87012
636.531	84718
636.593	81416
636.654	77211
636.715	73966
636.776	73068
636.838	72527
636.899	69784
636.960	68877
637.021	67870
637.082	65685
637.143	65820
637.204	63446
637.265	63959
637.326	65669
637.387	66927
637.448	65673
637.509	66025
637.570	65432
637.631	64922
637.692	61761
637.753	60496
637.814	61506
637.875	61196
637.936	61698
637.997	60703
638.058	59356
638.119	60542
638.179	60736
638.240	59374
638.301	60425
638.362	57287
638.423	57191
638.483	57785
638.544	54258
638.605	56352
638.666	55849
638.726	56795
638.787	56430
638.848	56656
638.908	54727
638.969	53095
639.030	50826
639.090	51858
639.151	52976
639.211	54357
639.272	54560
639.332	55369
639.393	57666
639.453	59016
639.514	62055
639.574	54650
639.635	49551
639.695	50421
639.756	48873
639.816	48532
639.877	48679
639.937	51267
639.997	50686
640.058	48427
640.118	47464
640.178	49411
640.239	49008
640.299	48649
640.359	49412
640.420	53769
640.480	59615
640.540	68581
640.600	69632
640.661	62267
640.721	59245
640.781	61012
640.841	56046
640.901	50254
640.961	50421
641.021	53496
641.082	57501
641.142	51537
641.202	49364
641.262	44358
641.322	46992
641.382	45566
641.442	46705
641.502	45707
641.562	46915
641.622	48805
641.682	52095
641.742	58495
641.802	57174
641.861	48341
641.921	44959
641.981	43306
642.041	42090
642.101	42412
642.161	40737
642.221	41123
642.280	42821
642.340	42738
642.400	42781
642.460	43560
642.519	44422
642.579	44681
642.639	45503
642.698	43114
642.758	48539
642.818	46095
642.877	44875
642.937	46396
642.997	45212
643.056	46582
643.116	43961
643.175	47618
643.235	46328
643.294	49158
643.354	50569
643.414	55837
643.473	62089
643.532	74167
643.592	94829
643.651	137233
643.711	221344
643.770	400709
643.830	854550
643.889	1397270
643.948	548745
644.008	158936
644.067	95234
644.126	71356
644.186	61453
644.245	55797
644.304	48227
644.363	50209
644.423	46189
644.482	47596
644.541	49838
644.600	51547
644.659	63483
644.719	76701
644.778	110417
644.837	180328
644.896	347542
644.955	720944
645.014	274771
645.073	82492
645.132	60753
645.191	55336
645.250	52624
645.309	55970
645.368	60206
645.427	81159
645.486	140549
645.545	238295
645.604	76955
645.663	48666
645.722	47080
645.781	51071
645.840	55705
645.898	66052
645.957	86263
646.016	125711
646.075	210040
646.134	379143
646.192	868737
646.251	1118491
646.310	308177
646.369	111102
646.427	88577
646.486	67643
646.545	50910
646.603	48433
646.662	44954
646.721	43181
646.779	42649
646.838	45337
646.896	55308
646.955	73105
647.014	110395
647.072	209580
647.131	524181
647.189	266502
647.248	56840
647.306	42128
647.365	38268
647.423	33354
647.481	36068
647.540	31941
647.598	34414
647.657	32669
647.715	33536
647.773	30070
647.832	30456
647.890	28318
647.948	28715
648.007	28723
648.065	27284
648.123	26373
648.181	28279
648.240	27580
648.298	26120
648.356	26584
648.414	26776
648.472	26401
648.531	26354
648.589	25209
648.647	25722
648.705	26112
648.763	26754
648.821	27351
648.879	28538
648.937	32191
648.995	37735
649.053	45828
649.111	64337
649.169	101084
649.227	173631
649.285	351255
649.343	841288
649.401	452510
649.459	90960
649.516	51298
649.574	41039
649.632	43637
649.690	48952
649.748	56465
649.806	82822
649.863	147775
649.921	392351
649.979	267088
650.037	46289
650.094	28597
650.152	26528
650.210	24153
650.268	23550
650.325	23370
650.383	23848
650.440	20123
650.498	20437
650.556	19002
650.613	19106
650.671	20253
650.728	21041
650.786	22328
650.843	32123
650.901	24001
650.958	18422
651.016	17516
651.073	17957
651.131	17321
651.188	16080
651.246	16550
651.303	16164
651.360	17202
651.418	16466
651.475	16970
651.532	15561
651.590	16246
651.647	15311
651.704	15297
651.762	15805
651.819	15186
651.876	14513
651.933	15688
651.990	15695
652.048	13996
652.105	13918
652.162	14398
652.219	14688
652.276	14535
652.333	15160
652.390	13109
652.448	14426
652.505	14337
652.562	13365
652.619	14300
652.676	15254
652.733	15488
652.790	13431
652.847	11750
652.904	13791
652.961	12218
653.017	13367
653.074	13773
653.131	13026
653.188	11603
653.245	13515
653.302	13557
653.359	12930
653.415	13497
653.472	12464
653.529	13093
653.586	12400
653.642	12315
653.699	13625
653.756	13247
653.813	12826
653.869	13960
653.926	13297
653.983	13011
654.039	13331
654.096	12586
654.152	13631
654.209	11293
654.266	11991
654.322	10804
654.379	13090
654.435	12374
654.492	12026
654.548	12691
654.605	12853
654.661	13604
654.717	12421
654.774	11645
654.830	11723
654.887	11849
654.943	12792
655.000	12989
655.056	12397
655.112	12757
655.168	11526
655.225	12759
655.281	13157
655.337	13221
655.394	13364
655.450	12046
655.506	11547
655.562	12517
655.618	12995
655.675	11189
655.731	11324
655.787	10763
655.843	11399
655.899	11026
655.955	12432
656.011	12558
656.067	11183
656.123	12586
656.179	12111
656.235	12420
656.291	10964
656.347	14033
656.403	11007
656.459	10946
656.515	12180
656.571	11361
656.627	11885
656.683	11573
656.739	11264
656.795	11007
656.850	11203
656.906	11116
656.962	13165
657.018	13064
657.074	16098
657.129	21182
657.185	34125
657.241	76933
657.297	42735
657.352	14282
657.408	11289
657.464	11387
657.519	11022
657.575	9612
657.630	10663
657.686	10806
657.742	9799
657.797	10084
657.853	10047
657.908	11247
657.964	10395
658.019	10818
658.075	10188
658.130	10260
658.186	9878
658.241	10957
658.297	9398
658.352	9567
658.407	10429
658.463	8735
658.518	10145
658.573	9875
658.629	8448
658.684	9266
658.739	9794
658.795	9199
658.850	9292
658.905	8234
658.960	9071
659.016	8799
659.071	9681
659.126	10112
659.181	9087
659.236	9757
659.291	10575
659.346	8791
659.401	9496
659.457	9991
659.512	8744
659.567	10717
659.622	9478
659.677	9189
659.732	8254
659.787	8476
659.842	8941
659.897	9913
659.952	9341
660.007	8987
660.061	8990
660.116	8330
660.171	8346
660.226	8391
660.281	9959
660.336	7691
660.391	8930
660.445	7962
660.500	7583
660.555	7940
660.610	8599
660.664	8676
660.719	8017
660.774	9439
660.828	8149
660.883	7947
660.938	8245
660.992	7998
661.047	9004
661.101	8327
661.156	8481
661.211	7978
661.265	8581
661.320	8037
661.374	8473
661.429	8039
661.483	8585
661.538	8119
661.592	8463
661.647	9349
661.701	10510
661.755	8400
661.810	7977
661.864	7009
661.919	7427
661.973	8852
662.027	7947
662.081	7130
662.136	8258
662.190	8609
662.244	8513
662.299	8208
662.353	8469
662.407	7732
662.461	7198
662.515	7582
662.569	7475
662.624	8282
662.678	6770
662.732	7050
662.786	7694
662.840	8108
662.894	8323
662.948	7475
663.002	7674
663.056	7973
663.110	7229
663.164	7399
663.218	7108
663.272	8077
663.326	8406
663.380	8282
663.434	8453
663.488	7052
663.542	7038
663.595	8943
663.649	8644
663.703	8369
663.757	8241
663.811	7448
663.864	7136
663.918	8053
663.972	7856
664.026	7646
664.079	7887
664.133	7773
664.187	8364
664.240	8008
664.294	8038
664.348	7773
664.401	8719
664.455	7732
664.508	7479
664.562	8008
664.615	7096
664.669	7986
664.722	7524
664.776	7112
664.829	7512
664.883	7801
664.936	7694
664.990	7916
665.043	8831
665.097	7608
665.150	9188
665.203	7732
665.257	7328
665.310	8889
665.363	9026
665.417	8979
665.470	9029
665.523	8367
665.576	8361
665.630	9240
665.683	8678
665.736	8521
665.789	8438
665.842	7789
665.895	8290
665.949	8264
666.002	8324
666.055	8787
666.108	8666
666.161	8570
666.214	8536
666.267	8682
666.320	9444
666.373	9309
666.426	9966
666.479	8545
666.532	8936
666.585	9187
666.638	9982
666.691	9481
666.744	9268
666.796	8705
666.849	10161
666.902	8696
666.955	7926
667.008	8261
667.060	8163
667.113	9054
667.166	9179
667.219	9465
667.271	9892
667.324	9026
667.377	8987
667.430	8852
667.482	9058
667.535	8589
667.587	8970
667.640	9027
667.693	9307
667.745	10159
667.798	9987
667.850	8793
667.903	9663
667.955	9281
668.008	8806
668.060	7990
668.113	8609
668.165	8442
668.218	8163
668.270	8416
668.322	8994
668.375	8212
668.427	9038
668.479	7377
668.532	8586
668.584	7988
668.636	8700
668.689	8042
668.741	8470
668.793	8283
668.845	8044
668.898	7841
668.950	8614
669.002	8464
669.054	7696
669.106	8678
669.158	8477
669.211	8051
669.263	7950
669.315	9336
669.367	8717
669.419	7113
669.471	9736
669.523	8443
669.575	8264
669.627	8321
669.679	8532
669.731	8478
669.783	8853
669.835	8160
669.886	8538
669.938	8161
669.990	8440
670.042	7873
670.094	7993
670.146	8326
670.197	8769
670.249	9726
670.301	9959
670.353	12125
670.404	14692
670.456	18959
670.508	27642
670.560	42581
670.611	71886
670.663	119692
670.715	274301
670.766	409283
670.818	123573
670.869	27540
670.921	18616
670.972	15816
671.024	12960
671.075	11022
671.127	10228
671.178	10997
671.230	11286
671.281	12368
671.333	14056
671.384	15681
671.436	20481
671.487	29162
671.538	41278
671.590	63884
671.641	102263
671.692	177501
671.744	317197
671.795	244648
671.846	95070
671.897	46143
671.949	28777
672.000	21877
672.051	16071
672.102	13645
672.153	11814
672.204	9878
672.256	10556
672.307	9653
672.358	8804
672.409	8170
672.460	8193
672.511	7785
672.562	6165
672.613	7020
672.664	7255
672.715	7247
672.766	6281
672.817	6145
672.868	6279
672.919	5973
672.970	4065
673.021	6152
673.071	5819
673.122	6653
673.173	6082
673.224	5970
673.275	6095
673.326	5779
673.376	5871
673.427	5959
673.478	6040
673.528	7310
673.579	5848
673.630	6591
673.680	6361
673.731	5701
673.782	5688
673.832	5592
673.883	6015
673.934	5838
673.984	5706
674.035	5974
674.085	5902
674.136	6719
674.186	6716
674.237	6156
674.287	6904
674.338	6699
674.388	6580
674.438	6819
674.489	7231
674.539	7522
674.589	8135
674.640	7457
674.690	7207
674.740	6519
674.791	7205
674.841	5837
674.891	5613
674.942	4937
674.992	5408
675.042	5058
675.092	4982
675.142	4309
675.193	4434
675.243	4629
675.293	6080
675.343	5162
675.393	5597
675.443	6019
675.493	5674
675.543	5343
675.593	5762
675.643	6008
675.693	6050
675.743	5530
675.793	5235
675.843	4282
675.893	5160
675.943	4224
675.993	4104
676.043	4842
676.093	4751
676.142	4993
676.192	5041
676.242	4889
676.292	4206
676.341	4225
676.391	4431
676.441	3736
676.491	3490
676.540	3725
676.590	4394
676.640	4944
676.689	3619
676.739	3552
676.789	3389
676.838	3904
676.888	3453
676.937	3636
676.987	3618
677.037	3605
677.086	3968
677.136	4016
677.185	3757
677.235	3387
677.284	4197
677.333	4798
677.383	3497
677.432	3442
677.482	3358
677.531	3672
677.580	3233
677.630	4554
677.679	4012
677.728	3504
677.778	4508
677.827	3548
677.876	3897
677.925	3861
677.975	4605
678.024	4555
678.073	4162
678.122	5408
678.171	4964
678.220	5500
678.269	6050
678.319	6845
678.368	6341
678.417	6035
678.466	5478
678.515	4633
678.564	3844
678.613	3569
678.662	3049
678.711	3334
678.760	3740
678.809	3619
678.857	4498
678.906	4700
678.955	4177
679.004	3851
679.053	4137
679.102	4236
679.151	3581
679.199	3339
679.248	4093
679.297	3232
679.346	3654
679.394	3213
679.443	3125
679.492	3971
679.540	3859
679.589	3922
679.638	3659
679.686	3913
679.735	4668
679.784	5780
679.832	6993
679.881	4548
679.929	4048
679.978	3658
680.026	3748
680.075	3375
680.123	3323
680.172	2499
680.220	3084
680.268	3546
680.317	2295
680.365	2933
680.414	1987
680.462	3002
680.510	3715
680.559	2703
680.607	3516
680.655	3265
680.703	3720
680.752	3430
680.800	2914
680.848	2397
680.896	2810
680.945	3278
680.993	2586
681.041	3075
681.089	3164
681.137	2671
681.185	2461
681.233	2447
681.258	2648
681.281	2806
681.329	2654
681.377	2279
681.380	2348
681.425	3055
681.473	3373
681.502	3174
681.521	2970
681.569	4197
681.617	3757
681.624	3701
681.665	3085
681.713	3571
681.745	3713
681.761	3731
681.809	2657
681.857	4629
681.867	4467
681.904	3768
681.952	3705
681.989	4351
682.000	4509
682.048	3527
682.096	4024
682.111	3859
682.143	3386
682.191	4155
682.233	4669
682.239	4717
682.286	4156
682.334	4330
682.354	4134
682.382	3783
682.430	4619
682.476	4954
682.477	4933
682.525	4313
682.572	4632
682.598	4826
682.620	4945
682.667	4782
682.715	4514
682.720	4579
682.763	4833
682.810	4936
682.841	4927
682.857	4911
682.905	4027
682.952	4875
682.963	5038
683.000	5404
683.047	4949
683.085	5433
683.095	5561
683.142	5285
683.190	5420
683.206	5097
683.237	4368
683.284	5185
683.328	5474
683.332	5478
683.379	5729
683.426	4775
683.449	5395
683.473	5996
683.521	5521
683.568	5820
683.571	5873
683.615	6098
683.662	6164
683.693	6177
683.709	6169
683.757	5466
683.804	5627
683.814	5658
683.851	5685
683.898	5884
683.936	5477
683.945	5371
683.992	5885
684.039	6432
684.057	6398
684.086	6213
684.133	6051
684.179	6175
684.180	6163
684.227	5582
684.274	6183
684.300	6670
684.321	6988
684.368	6245
684.415	6660
684.422	6672
684.462	6728
684.509	6814
684.543	6887
684.556	6888
684.603	7411
684.649	6657
684.665	6676
684.696	6674
684.743	7364
684.786	7912
684.790	7933
684.837	6546
684.883	7087
684.908	7519
684.930	7996
684.977	7736
685.023	8183
685.029	8181
685.070	7827
685.117	8528
685.150	8151
685.164	8016
685.210	8549
685.257	8437
685.272	8552
685.303	8652
685.350	8852
685.393	8748
685.396	8716
685.443	7803
685.490	8273
685.514	7753
685.536	7442
685.583	7371
685.629	8149
685.636	8210
685.675	8439
685.722	8531
685.757	8395
685.768	8304
685.815	8923
685.861	8269
685.878	8250
685.908	8340
685.954	8088
686.000	8681
686.000	8682
686.047	8839
686.093	9229
686.121	9091
686.139	8962
686.185	9162
686.232	8652
686.242	8893
686.278	9651
686.324	9297
686.363	8727
686.370	8626
686.416	8961
686.463	9276
686.484	9299
686.509	9328
686.555	9796
686.601	9311
686.606	9310
686.647	9170
686.693	9175
686.727	8867
686.739	8785
686.785	9067
686.831	8661
686.848	8810
686.877	9119
686.923	9846
686.969	9694
686.969	9692
687.015	9963
687.061	10464
687.090	10922
687.107	11022
687.153	11080
687.199	10671
687.211	10565
687.245	10314
687.291	10521
687.332	10181
687.336	10178
687.382	10102
687.428	10299
687.453	10569
687.474	10672
687.520	11060
687.565	10905
687.574	11058
687.611	11934
687.657	11622
687.695	12154
687.702	12317
687.748	13020
687.794	14211
687.816	14429
687.839	13938
687.885	12780
687.931	12008
687.937	11900
687.976	11784
688.022	11448
688.058	11344
688.067	11339
688.113	11445
688.158	11350
688.179	11217
688.204	11162
688.249	10827
688.295	11302
688.300	11339
688.340	11734
688.386	11810
688.421	11778
688.431	11733
688.477	11998
688.522	11840
688.542	11818
688.567	11942
688.613	11812
688.658	12583
688.663	12552
688.703	12145
688.749	12040
688.784	12141
688.794	12210
688.839	12247
688.884	12689
688.905	12534
688.930	12306
688.975	12254
689.020	12183
689.026	12171
689.065	12302
689.110	12260
689.146	12499
689.155	12587
689.201	12650
689.246	12542
689.267	12636
689.291	12601
689.336	12795
689.381	12550
689.388	12468
689.426	12377
689.471	13048
689.509	13164
689.516	13183
689.561	13020
689.606	12991
689.630	12925
689.651	12752
689.696	12711
689.741	12509
689.750	12408
689.785	12702
689.830	13387
689.871	13707
689.875	13678
689.920	13357
689.965	13138
689.992	12755
690.010	12687
690.054	12992
690.099	13061
690.112	13047
690.144	13040
690.189	12884
690.233	12755
690.233	12772
690.278	13157
690.323	13442
690.354	13631
690.367	13709
690.412	13664
690.457	13664
690.474	13798
690.501	13904
690.546	13670
690.590	13585
690.595	13547
690.635	13734
690.680	13952
690.716	13985
690.724	14134
690.769	14966
690.813	16502
690.836	16823
690.857	17917
690.902	20666
690.946	23496
690.957	24165
690.991	29678
691.035	37514
691.077	45276
691.080	45263
691.124	40582
691.168	36492
691.198	33936
691.213	31888
691.257	26538
691.301	20775
691.318	18512
691.346	17724
691.390	16536
691.434	15340
691.439	15185
691.478	15193
691.522	15217
691.559	15160
691.567	15206
691.611	15385
691.655	15832
691.680	15643
691.699	15379
691.743	15273
691.787	15187
691.800	15065
691.831	15100
691.875	14921
691.919	15463
691.921	15433
691.964	15220
692.008	15385
692.041	15324
692.052	15397
692.096	15573
692.139	15985
692.162	15952
692.183	15634
692.227	15374
692.271	14743
692.282	14575
692.315	14677
692.359	15031
692.402	15468
692.403	15496
692.447	15016
692.490	14755
692.523	14236
692.534	14127
692.578	14411
692.622	14117
692.643	13980
692.666	14134
692.709	14442
692.753	15049
692.763	15097
692.797	15050
692.840	15038
692.884	14743
692.884	14771
692.928	14815
692.971	14819
693.004	14943
693.015	15077
693.059	15179
693.102	15758
693.124	15833
693.146	15878
693.189	15827
693.233	15873
693.245	15829
693.276	16136
693.320	16877
693.363	17263
693.365	17253
693.407	18018
693.450	18440
693.485	18883
693.493	19246
693.537	21073
693.580	22611
693.605	23607
693.624	26014
693.667	31863
693.710	37725
693.725	39748
693.753	50598
693.797	68101
693.840	86043
693.845	87686
693.883	79016
693.926	69329
693.966	61100
693.970	59929
694.013	46639
694.056	33590
694.086	24605
694.099	24057
694.142	22055
694.185	19939
694.206	19094
694.229	19092
694.272	18707
694.315	18584
694.326	18328
694.358	17693
694.401	17644
694.444	17200
694.446	17123
694.487	16509
694.530	16461
694.566	16262
694.573	16358
694.616	16472
694.659	16848
694.686	16981
694.702	16973
694.745	16957
694.787	16808
694.806	16637
694.830	16632
694.873	16870
694.916	16957
694.926	16930
694.959	17053
695.002	17374
695.044	17433
695.046	17404
695.087	17767
695.130	18059
695.166	18163
695.172	18210
695.215	18318
695.258	18259
695.286	18436
695.301	18708
695.343	19057
695.386	19601
695.406	19792
695.428	20343
695.471	21235
695.514	22208
695.526	22460
695.556	23912
695.599	25825
695.641	27570
695.646	27713
695.684	26585
695.726	25295
695.766	23866
695.769	23885
695.811	23568
695.854	23140
695.886	22858
695.896	22990
695.938	22978
695.981	23231
696.005	23390
696.023	23886
696.065	24721
696.108	25817
696.125	26131
696.150	26753
696.192	27734
696.235	28667
696.245	28841
696.277	28597
696.319	28227
696.361	27786
696.365	27682
696.404	27667
696.446	27639
696.485	27530
696.488	27579
696.530	27381
696.572	27138
696.604	26925
696.614	26932
696.656	26637
696.698	26407
696.724	26073
696.740	26185
696.783	26555
696.825	26857
696.844	26911
696.867	27172
696.909	27584
696.951	27941
696.964	28012
696.992	28343
697.034	28570
697.076	28937
697.083	28938
697.118	29637
697.160	30347
697.202	30915
697.203	30857
697.244	30157
697.286	29580
697.323	28650
697.327	28712
697.369	28842
697.411	28924
697.442	28992
697.453	29187
697.494	29528
697.536	29962
697.562	30169
697.578	30162
697.620	29961
697.661	29733
697.682	29506
697.703	30182
697.744	31477
697.786	32803
697.801	33181
697.828	32984
697.869	32556
697.911	32083
697.921	31900
697.952	31841
697.994	31660
698.035	31438
698.040	31339
698.077	31545
698.118	31652
698.160	31736
698.160	31656
698.201	32702
698.243	33620
698.279	34409
698.284	34546
698.325	35003
698.367	35453
698.399	35681
698.408	35919
698.449	36659
698.491	37390
698.518	37755
698.532	37756
698.573	37501
698.614	37264
698.638	37004
698.656	37052
698.697	36999
698.738	36904
698.757	36780
698.779	36992
698.820	37202
698.862	37412
698.877	37401
698.903	37332
698.944	37057
698.985	36794
698.996	36626
699.026	36711
699.067	36708
699.116	36611
699.235	37095
699.354	36398
699.474	34442
699.593	34777
699.713	35425
699.832	32817
699.951	36154
700.070	35024
700.190	32853
700.309	32255
700.428	30673
700.547	31382
700.667	31756
700.786	31674
700.905	29518
701.024	30803
701.143	29550
701.262	31640
701.381	31873
701.500	32458
701.619	31468
701.738	31551
701.857	31283
701.976	28315
702.095	29900
702.214	32178
702.333	30784
702.452	32697
702.571	31718
702.690	31423
702.809	30881
702.928	29565
703.047	28288
703.165	29271
703.284	29392
703.403	27755
703.522	28685
703.640	26867
703.759	27897
703.878	26696
703.997	28019
704.115	28306
704.234	27647
704.353	28844
704.471	24784
704.590	26079
704.708	25324
704.827	24883
704.946	24924
705.064	25733
705.183	24877
705.301	26095
705.420	26321
705.538	25091
705.656	23192
705.775	23380
705.893	27662
706.012	29265
706.130	23747
706.249	24995
706.367	23333
706.485	22765
706.604	21651
706.722	23053
706.840	24542
706.958	29745
707.077	25053
707.195	22470
707.313	22325
707.431	20955
707.549	20986
707.668	20537
707.786	22497
707.904	20597
708.022	21885
708.140	20466
708.258	19596
708.376	22869
708.494	20472
708.612	22291
708.730	23710
708.848	21811
708.966	23127
709.084	22214
709.202	20969
709.320	20642
709.438	21210
709.556	20840
709.674	18923
709.791	19764
709.909	18033
710.027	18780
710.145	19599
710.263	19014
710.380	18927
710.498	17517
710.616	17949
710.733	16719
710.851	18610
710.969	18270
711.086	16953
711.204	18161
711.322	18598
711.439	18087
711.557	16933
711.674	17074
711.792	16671
711.909	17033
712.027	17117
712.144	17403
712.262	16920
712.379	18160
712.497	18792
712.614	18495
712.732	18082
712.849	17257
712.966	17838
713.084	18130
713.201	16440
713.318	17520
713.436	19300
713.553	18709
713.670	19721
713.787	19921
713.905	17915
714.022	19332
714.139	20945
714.256	25288
714.373	36559
714.490	68544
714.608	177316
714.725	690454
714.842	640820
714.959	78279
715.076	32442
715.193	25311
715.310	21843
715.427	17103
715.544	18738
715.661	17960
715.778	16320
715.895	17220
716.011	16973
716.128	16677
716.245	15688
716.362	15151
716.479	14337
716.596	14055
716.713	14353
716.829	14525
716.946	13502
717.063	14573
717.180	13025
717.296	14193
717.413	13743
717.530	12973
717.646	12887
717.763	12945
717.880	13883
717.996	11569
718.113	11662
718.229	12807
718.346	12044
718.462	12744
718.579	13014
718.695	13255
718.812	13157
718.928	14176
719.045	12797
719.161	12255
719.277	12655
719.394	12522
719.510	13772
719.626	15382
719.743	19349
719.859	30801
719.975	65639
720.092	257132
720.208	526715
720.324	71934
720.440	20495
720.557	16384
720.673	15026
720.789	14190
720.905	18120
721.021	12916
721.137	10806
721.253	10613
721.369	11212
721.486	12756
721.602	11319
721.718	11312
721.834	11008
721.950	11343
722.066	10016
722.181	9599
722.297	11294
722.413	10751
722.529	10594
722.645	11247
722.761	10453
722.877	10765
722.993	11840
723.108	16541
723.224	13455
723.340	10101
723.456	10169
723.571	9250
723.687	9145
723.803	10405
723.918	9957
724.034	8182
724.150	9207
724.265	9668
724.381	9897
724.497	11058
724.612	8743
724.728	8631
724.843	8736
724.959	8967
725.074	11206
725.190	10935
725.305	9201
725.421	8875
725.536	9240
725.651	9658
725.767	8781
725.882	9017
725.997	8505
726.113	9025
726.228	9287
726.343	8530
726.459	8324
726.574	8095
726.689	8205
726.804	8837
726.920	7868
727.035	9231
727.150	7874
727.265	8642
727.380	8283
727.495	9318
727.610	9002
727.725	7915
727.841	8255
727.956	10721
728.071	9766
728.186	7945
728.301	7509
728.416	8147
728.531	8188
728.645	7484
728.760	8831
728.875	8857
728.990	7684
729.105	7896
729.220	7734
729.335	7839
729.449	7926
729.564	7994
729.679	8592
729.794	8622
729.908	8365
730.023	8754
730.138	8731
730.253	8796
730.367	7784
730.482	7601
730.596	8520
730.711	9922
730.826	13811
730.940	13379
731.055	10430
731.169	11389
731.284	10935
731.398	11175
731.513	12089
731.627	13109
731.742	17070
731.856	20773
731.970	21941
732.085	27140
732.199	39480
732.313	71956
732.428	189122
732.542	522180
732.656	293732
732.771	62161
732.885	33675
732.999	28534
733.113	28851
733.227	27948
733.342	25141
733.456	24503
733.570	23749
733.684	22086
733.798	21549
733.912	22219
734.026	21957
734.140	21864
734.254	20898
734.368	22502
734.482	22093
734.596	20364
734.710	19670
734.824	19949
734.938	19211
735.052	18982
735.166	19099
735.280	19543
735.393	19300
735.507	19832
735.621	18701
735.735	18319
735.849	19194
735.962	17466
736.076	18384
736.190	18137
736.303	18025
736.417	18646
736.531	17044
736.644	17353
736.758	16716
736.872	16801
736.985	17102
737.099	16290
737.212	15191
737.326	16128
737.439	17822
737.553	15460
737.666	16719
737.780	14812
737.893	16223
738.007	15099
738.120	17407
738.233	14095
738.347	15645
738.460	14383
738.573	17542
738.687	14711
738.800	14996
738.913	16364
739.026	15118
739.140	14476
739.253	14447
739.366	13557
739.479	14314
739.592	14448
739.705	13059
739.818	15916
739.932	12863
740.045	15281
740.158	13898
740.271	14914
740.384	13496
740.497	12524
740.610	13738
740.723	12208
740.836	13583
740.949	13928
741.062	15008
741.174	12912
741.287	12856
741.400	14228
741.513	12208
741.626	13974
741.739	12900
741.851	12169
741.964	13505
742.077	12613
742.189	11537
742.302	12532
742.415	11330
742.527	12422
742.640	12645
742.753	11725
742.865	12610
742.978	11868
743.090	11293
743.203	12204
743.316	11298
743.428	11854
743.541	11543
743.653	10171
743.766	11437
743.878	11378
743.990	10739
744.103	12368
744.215	12419
744.327	10989
744.440	13340
744.552	11211
744.664	9823
744.777	12531
744.889	11566
745.001	10531
745.113	12594
745.226	10753
745.338	10367
745.450	12215
745.562	10169
745.674	9596
745.786	11137
745.898	10679
746.010	10056
746.122	10335
746.234	11410
746.347	11711
746.459	10905
746.570	8077
746.682	10514
746.794	11704
746.906	9917
747.018	10302
747.130	10941
747.242	9309
747.354	9576
747.466	11358
747.577	9438
747.689	10271
747.801	10363
747.913	9229
748.024	9727
748.136	9063
748.248	9377
748.359	9620
748.471	10537
748.583	7906
748.694	9068
748.806	10293
748.918	9239
749.029	7927
749.141	8720
749.252	9369
749.364	8241
749.475	8458
749.587	7608
749.698	8066
749.809	9291
749.921	8373
750.032	8552
750.144	8101
750.255	7544
750.366	8281
750.478	7911
750.589	7934
750.700	6671
750.811	8401
750.923	7447
751.034	7165
751.145	9497
751.256	7656
751.367	6600
751.479	7639
751.590	7132
751.701	7792
751.812	6627
751.923	7380
752.034	8720
752.145	8495
752.256	8390
752.367	7573
752.478	7471
752.589	8146
752.700	7942
752.811	7029
752.922	7287
753.032	8748
753.143	8159
753.254	7546
753.365	9934
753.476	9228
753.586	8227
753.697	7437
753.808	7110
753.919	7028
754.029	7563
754.140	7258
754.251	7567
754.361	7826
754.472	8809
754.582	6396
754.693	7585
754.804	8495
754.914	6935
755.025	6718
755.135	7320
755.246	8116
755.356	7142
755.466	6578
755.577	6389
755.687	7063
755.798	7045
755.908	7135
756.018	7180
756.129	7969
756.239	7977
756.349	8953
756.460	8603
756.570	8508
756.680	7862
756.790	7119
756.900	7578
757.011	6597
757.121	6412
757.231	7408
757.341	7234
757.451	7303
757.561	6372
757.671	7703
757.781	7413
757.891	7130
758.001	6186
758.111	8125
758.221	8470
758.331	7948
758.441	8318
758.551	7884
758.661	8641
758.771	9817
758.880	8073
758.990	7825
759.100	8226
759.210	8046
759.320	9115
759.429	8547
759.539	9806
759.649	8806
759.758	11480
759.868	10877
759.978	12265
760.087	13433
760.197	12821
760.307	12108
760.416	10526
760.526	10714
760.635	11855
760.745	12504
760.854	12544
760.964	15312
761.073	14498
761.182	14115
761.292	12500
761.401	11086
761.511	10072
761.620	10169
761.729	9595
761.839	9555
761.948	9083
762.057	9619
762.166	9800
762.276	9025
762.385	10720
762.494	9673
762.603	9973
762.712	10647
762.822	9794
762.931	10543
763.040	10226
763.149	11088
763.258	10749
763.367	11689
763.476	11695
763.585	12367
763.694	12397
763.803	13752
763.912	14238
764.021	14409
764.130	14090
764.238	15793
764.347	17331
764.456	16862
764.565	18604
764.674	18842
764.783	21072
764.891	22731
765.000	24983
765.109	27959
765.217	31944
765.326	36344
765.435	43246
765.543	51466
765.652	66141
765.761	85045
765.869	114024
765.978	164408
766.086	252915
766.195	408299
766.303	625854
766.412	600634
766.520	550333
766.629	534295
766.737	351427
766.846	222874
766.954	151498
767.062	112127
767.171	84593
767.279	66873
767.387	53624
767.496	45057
767.604	39442
767.712	35537
767.820	32392
767.928	30088
768.037	27246
768.145	25927
768.253	24283
768.361	22855
768.469	23309
768.577	24217
768.685	25651
768.793	26909
768.901	28729
769.009	34837
769.117	38786
769.225	51225
769.333	69708
769.441	106552
769.549	176766
769.657	329007
769.765	569794
769.873	522650
769.981	462688
770.088	279875
770.196	156424
770.304	102558
770.412	72216
770.519	55893
770.627	44126
770.735	36709
770.842	31773
770.950	27984
771.058	25493
771.165	25396
771.273	24079
771.380	22122
771.488	24312
771.595	25382
771.703	22508
771.810	20552
771.918	20576
772.025	22421
772.133	24303
772.240	22534
772.348	25332
772.455	23129
772.562	21625
772.670	20846
772.777	20544
772.884	19739
772.991	19529
773.099	20571
773.206	18845
773.313	19864
773.420	18819
773.528	17893
773.635	17984
773.742	19907
773.849	16949
773.956	18215
774.063	16613
774.170	17348
774.277	17787
774.384	16261
774.491	16280
774.598	16804
774.705	15978
774.812	16330
774.919	15876
775.026	15286
775.133	16012
775.239	14850
775.346	14412
775.453	14899
775.560	13989
775.667	16161
775.773	14333
775.880	15226
775.987	14111
776.093	15030
776.200	15075
776.307	12103
776.413	13295
776.520	15785
776.627	13387
776.733	12134
776.840	11151
776.946	16295
777.053	12494
777.159	13430
777.266	12213
777.372	12924
777.478	13349
777.585	13868
777.691	11093
777.798	13443
777.904	11658
778.010	12525
778.117	13347
778.223	12103
778.329	11795
778.435	11017
778.542	13082
778.648	11786
778.754	9798
778.860	11894
778.966	11419
779.072	10503
779.178	11511
779.284	9766
779.391	10163
779.497	11743
779.603	13601
779.708	13494
779.815	19818
779.920	58281
780.026	94458
780.132	20856
780.238	11365
780.344	10398
780.450	13577
780.556	9595
780.661	9789
780.767	10882
780.873	7172
780.979	9011
781.085	10510
781.190	8428
781.296	8240
781.402	8837
781.507	9196
781.613	7043
781.719	8735
781.824	10460
781.930	9000
782.035	8901
782.141	10458
782.246	7230
782.352	7953
782.457	8302
782.563	8967
782.668	8922
782.773	7246
782.879	8090
782.984	8358
783.090	8311
783.195	8300
783.300	9570
783.405	7829
783.511	6218
783.616	7954
783.721	8111
783.826	7589
783.932	7025
784.037	8061
784.142	7572
784.247	7734
784.352	7804
784.457	5439
784.562	7024
784.667	7757
784.772	6020
784.877	5598
784.982	8299
785.087	7301
785.192	6279
785.297	6231
785.402	6789
785.507	6961
785.611	7412
785.716	4937
785.821	6356
785.926	6945
786.031	6296
786.135	6672
786.240	7501
786.345	5589
786.450	5535
786.554	6732
786.659	6711
786.763	5988
786.868	7080
786.973	6958
787.077	4887
787.182	4953
787.286	6438
787.391	7506
787.495	4323
787.600	5151
787.704	5790
787.809	6935
787.913	5395
788.017	6127
788.122	7387
788.226	4948
788.330	3947
788.435	6175
788.539	7856
788.643	4966
788.747	3495
788.852	5298
788.956	5198
789.060	6156
789.164	5762
789.268	5038
789.372	5715
789.476	4566
789.580	3938
789.684	4462
789.788	6222
789.892	5240
789.996	4172
790.100	4277
790.204	5050
790.308	6918
790.412	3410
790.516	3344
790.620	4942
790.724	6251
790.828	4254
790.931	2562
791.035	5102
791.139	4623
791.242	4466
791.346	4700
791.450	4206
791.554	4693
791.657	2117
791.761	5359
791.864	5564
791.968	5650
792.072	4648
792.175	3651
792.279	3438
792.382	4138
792.486	3970
792.589	4003
792.693	5005
792.796	3889
792.899	5540
793.003	4528
793.106	3580
793.209	3929
793.313	4519
793.416	1850
793.519	4538
793.623	5243
793.726	4725
793.829	3222
793.932	3617
794.035	2770
794.138	5595
794.242	6656
794.345	4135
794.448	4734
794.551	8666
794.654	28391
794.757	52905
794.860	10844
794.963	5729
795.066	2890
795.169	5035
795.272	4162
795.375	4997
795.477	2650
795.580	3317
795.683	1865
795.786	4571
795.889	2497
795.991	4503
796.094	4119
796.197	2936
796.300	5010
796.402	3969
796.505	3074
796.608	2467
796.710	3046
796.813	3840
796.915	3839
797.018	4695
797.120	3953
797.223	2546
797.326	4688
797.428	3365
797.530	2392
797.633	2989
797.735	4140
797.838	3595
797.940	4479
798.042	3379
798.145	3401
798.247	3048
798.349	1757
798.452	3757
798.554	3370
798.656	3516
798.758	5007
798.860	3957
798.962	3238
799.065	2302
799.167	2593
799.269	4525
799.371	4376
799.473	5823
799.575	3386
799.677	3104
799.779	4445
799.881	2625
799.983	4312
800.085	3753
800.187	2481
800.289	1539
800.390	2335
800.492	4193
800.594	3475
800.696	2920
800.798	1959
800.899	2955
801.001	2819
801.103	3443
801.205	2921
801.306	3425
801.408	2279
801.509	2839
801.611	3109
801.713	3156
801.814	1290
801.916	2082
802.017	1967
802.119	1497
802.220	2297
802.322	1604
802.423	3885
802.525	1109
802.626	2171
802.727	3352
802.829	3303
802.930	163
803.031	3405
803.133	2352
803.234	2678
803.335	3650
803.436	1947
803.538	2522
803.639	1045
803.740	3792
803.841	2169
803.942	2963
804.043	2848
804.144	2119
804.245	2252
804.346	2319
804.447	1622
804.548	1935
804.649	3537
804.750	2244
804.851	1822
804.952	2789
805.053	1625
805.154	1270
805.255	2346
805.355	2625
805.456	1856
805.557	1191
805.658	1050
805.758	2674
805.859	2228
805.960	2363
806.061	1402
806.161	1796
806.262	2173
806.362	1708
806.463	1884
806.564	4163
806.664	2308
806.765	1535
806.865	1975
806.966	1768
807.066	1060
807.166	2632
807.267	2740
807.367	1770
807.468	2950
807.568	428
807.668	1839
807.769	3513
807.869	1912
807.969	1836
808.069	1788
808.170	2169
808.270	1581
808.370	2092
808.470	1933
808.570	1536
808.670	1387
808.770	1986
808.870	1235
808.970	2499
809.070	479
809.170	1312
809.271	2184
809.370	2019
809.470	2329
809.570	1054
809.670	1067
809.770	1316
809.870	2774
809.970	1651
810.070	1625
810.169	2417
810.269	1272
810.369	2847
810.469	2214
810.568	1622
810.668	1743
810.768	957
810.867	1692
810.967	941
811.066	1312
811.166	1606
811.265	1968
811.365	1381
811.464	1162
811.564	1540
811.663	2270
811.763	1120
811.862	2459
811.962	2537
812.061	1437
812.160	1524
812.260	1254
812.359	2047
812.458	1320
812.557	4116
812.657	2798
812.756	2580
812.855	1789
812.954	789
813.053	2319
813.153	2018
813.252	80
813.351	1494
813.450	2842
813.549	1699
813.648	1473
813.747	1468
813.846	2262
813.945	1784
814.044	1778
814.143	2147
814.242	2404
814.341	1169
814.439	2870
814.538	2402
814.637	2287
814.736	2722
814.835	2972
814.933	2458
815.032	3312
815.131	4667
815.229	9500
815.328	14329
815.427	10134
815.525	8833
815.624	8669
815.722	8069
815.821	8470
815.919	8756
816.018	8080
816.116	8125
816.215	8647
816.313	9525
816.412	10403
816.510	10719
816.609	13120
816.707	13266
816.805	11039
816.904	11500
817.002	12507
817.100	12211
817.198	12559
817.296	10533
817.395	11411
817.493	11323
817.591	9468
817.689	10627
817.787	9873
817.885	10233
817.983	9820
818.081	9967
818.179	11658
818.277	14719
818.375	12346
818.473	9845
818.571	8497
818.669	9698
818.767	10810
818.865	9447
818.963	7595
819.061	10210
819.158	9766
819.256	12236
819.354	11740
819.452	16862
819.549	12377
819.647	11566
819.745	8074
819.842	8990
819.940	8675
820.038	8791
820.135	8984
820.233	9166
820.330	7982
820.428	7191
820.525	9944
820.623	8061
820.720	7431
820.818	8688
820.915	8626
821.012	7502
821.110	7128
821.207	8794
821.304	7110
821.402	7873
821.499	8987
821.596	7520
821.693	8156
821.791	7904
821.888	8021
821.985	8701
822.082	6634
822.179	8139
822.276	7949
822.373	6793
822.470	6554
822.567	7631
822.664	5957
822.761	7039
822.858	6959
822.955	6932
823.052	5790
823.149	7327
823.246	7139
823.343	5568
823.440	5565
823.536	6711
823.633	6592
823.730	5976
823.827	7156
823.923	6085
824.020	7050
824.117	6949
824.213	6753
824.310	5888
824.407	4459
824.503	6913
824.600	6780
824.696	5298
824.793	7271
824.889	7143
824.986	5271
825.082	4429
825.179	5464
825.275	7702
825.371	7652
825.468	4858
825.564	3215
825.660	6684
825.757	8491
825.853	5843
825.949	4432
826.045	5479
826.142	6301
826.238	5971
826.334	6473
826.430	5382
826.526	4329
826.622	3212
826.718	6691
826.814	6945
826.910	5283
827.006	2731
827.102	2932
827.198	5194
827.294	6318
827.390	6267
827.486	4256
827.582	2688
827.678	3760
827.774	6370
827.869	4424
827.965	4424
828.061	3209
828.157	5388
828.252	5875
828.348	3859
828.444	3917
828.539	4557
828.635	4957
828.731	5303
828.826	3184
828.922	5560
829.017	5120
829.113	6732
829.208	3730
829.304	4663
829.399	7736
829.495	4993
829.590	3629
829.685	3838
829.781	5774
829.876	4844
829.971	2101
830.066	2616
830.162	4310
830.257	6534
830.352	4362
830.447	2994
830.543	3526
830.638	4662
830.733	6121
830.828	3202
830.923	4788
831.018	5205
831.113	4710
831.208	3582
831.303	1863
831.398	2915
831.493	4883
831.588	7093
831.683	3363
831.778	2396
831.873	2838
831.967	5525
832.062	4610
832.157	3574
832.252	4335
832.346	3115
832.441	4585
832.536	4380
832.631	5079
832.725	2802
832.820	2882
832.914	3634
833.009	2621
833.104	2598
833.198	2881
833.293	2914
833.387	4445
833.482	3717
833.576	2920
833.670	3336
833.765	4629
833.859	4921
833.954	4270
834.048	3354
834.142	2709
834.237	2278
834.331	3063
834.425	3887
834.519	2986
834.613	2727
834.708	2391
834.802	2277
834.896	2925
834.990	2625
835.084	2326
835.178	3052
835.272	2292
835.366	3949
835.460	4072
835.554	2370
835.648	2275
835.742	2171
835.836	1613
835.930	2117
836.024	3101
836.117	3717
836.211	2265
836.305	2290
836.399	2596
836.493	1102
836.586	3507
836.680	2420
836.774	1429
836.867	2009
836.961	1833
837.055	1574
837.148	2286
837.242	2323
837.335	2588
837.429	2407
837.522	1101
837.616	2104
837.709	2973
837.803	2871
837.896	4018
837.989	2682
838.083	1771
838.176	666
838.269	841
838.363	2325
838.456	1502
838.549	3265
838.642	2102
838.735	3002
838.829	2994
838.922	1930
839.015	1942
839.108	1867
839.201	2514
839.294	2462
839.387	2157
839.480	357
839.573	2471
839.666	1994
839.759	2485
839.852	1884
839.945	2401
840.038	2029
840.131	1155
840.223	1410
840.316	2470
840.409	2010
840.502	2591
840.594	3112
840.687	828
840.780	1126
840.873	652
840.965	1896
841.058	2259
841.150	2693
841.243	479
841.336	2268
841.428	1573
841.521	1453
841.613	1042
841.706	2433
841.798	2111
841.890	2435
841.983	1246
842.075	1864
842.167	1226
842.260	1651
842.352	2592
842.444	2365
842.537	1738
842.629	1766
842.721	247
842.813	1167
842.905	1701
842.997	1576
843.090	1600
843.182	977
843.274	22
843.366	2857
843.458	3691
843.550	4994
843.642	1843
843.734	1554
843.826	953
843.918	1771
844.009	1942
844.101	1203
844.193	2110
844.285	1541
844.377	2599
844.469	1767
844.560	300
844.652	392
844.744	1163
844.835	1535
844.927	1140
845.019	2137
845.110	992
845.202	2004
845.293	1329
845.385	643
845.476	1419
845.568	2170
845.659	539
845.751	1269
845.842	346
845.934	558
846.025	1359
846.116	584
846.208	1388
846.299	699
846.390	1161
846.482	613
846.573	712
846.664	2003
846.755	1505
846.846	2439
846.937	-33
847.029	-242
847.120	636
847.211	636
847.302	2931
847.393	455
847.484	942
847.575	283
847.666	-413
847.757	204
847.847	1561
847.938	1495
848.029	1919
848.120	952
848.211	565
848.302	422
848.392	428
848.483	1273
848.574	884
848.664	1118
848.755	1561
848.846	1803
848.936	653
849.027	1611
849.118	1564
849.208	1899
849.299	2844
849.389	5619
849.480	10369
849.570	21218
849.661	41863
849.751	64994
849.841	23119
849.932	4854
850.022	2466
850.112	1849
850.203	1887
850.293	429
850.383	1033
850.474	668
850.564	1087
850.654	988
850.744	1075
850.834	931
850.924	1564
851.014	2578
851.104	1252
851.194	856
851.284	802
851.374	1533
851.464	851
851.554	856
851.644	1387
851.734	2139
851.824	1582
851.914	1787
852.004	2803
852.094	1812
852.183	388
852.273	1125
852.363	625
852.452	1249
852.542	1033
852.632	843
852.721	678
852.811	1212
852.901	2751
852.990	2189
853.080	1916
853.169	1810
853.259	1503
853.348	2889
853.438	2918
853.527	4672
853.617	7471
853.706	12912
853.795	22839
853.885	48194
853.974	82705
854.063	142794
854.152	187066
854.242	82286
854.331	23242
854.420	10903
854.509	8065
854.598	6008
854.687	3828
854.777	3959
854.866	1759
854.955	2645
855.044	1441
855.133	1737
855.222	1605
855.311	1023
855.400	1797
855.488	1021
855.577	1255
855.666	988
855.755	1310
855.844	559
855.933	1948
856.021	1565
856.110	389
856.199	-75
856.288	573
856.376	1399
856.465	114
856.554	1280
856.642	1154
856.731	1044
856.819	1196
856.908	639
856.996	815
857.085	-124
857.173	151
857.262	844
857.350	441
857.438	930
857.527	951
857.615	285
857.703	782
857.792	2096
857.880	493
857.968	1067
858.056	1665
858.145	733
858.233	565
858.321	700
858.409	730
858.497	987
858.585	-100
858.673	1246
858.761	253
858.849	-31
858.937	1118
859.025	798
859.113	1043
859.201	1149
859.289	2086
859.377	811
859.465	804
859.552	562
859.640	217
859.728	1061
859.816	331
859.903	1731
859.991	788
860.079	1016
860.166	769
860.254	1347
860.342	1422
860.429	236
860.517	639
860.604	916
860.692	541
860.779	-195
860.867	315
860.954	1235
861.042	1491
861.129	1215
861.216	1079
861.304	1862
861.391	994
861.478	1406
861.565	1017
861.653	1353
861.740	304
861.827	1034
861.914	1196
862.001	-337
862.089	681
862.176	377
862.263	697
862.350	1053
862.437	323
862.524	432
862.611	738
862.698	1642
862.785	1508
862.871	2416
862.958	2209
863.045	1178
863.132	1401
863.219	1251
863.306	34
863.392	1185
863.479	620
863.566	315
863.652	1277
863.739	1945
863.826	1942
863.912	1489
863.999	1046
864.086	2167
864.172	2075
864.259	1738
864.345	1735
864.432	1953
864.518	1844
864.604	2085
864.691	1717
864.777	1426
864.863	4216
864.950	5012
865.036	6926
865.122	12478
865.209	12967
865.295	11446
865.381	11044
865.467	10825
865.553	11773
865.639	13535
865.726	19440
865.812	30908
865.898	50792
865.984	73389
866.070	122949
866.156	120246
866.242	45609
866.328	18404
866.414	12737
866.499	12304
866.585	10369
866.671	9920
866.757	9536
866.843	8691
866.928	7701
867.014	8504
867.100	9250
867.186	8378
867.271	8075
867.357	8550
867.442	7930
867.528	8495
867.614	8448
867.699	7947
867.785	8242
867.870	7169
867.956	7570
868.041	8490
868.127	6731
868.212	7261
868.297	7440
868.383	7973
868.468	6886
868.553	7337
868.639	7447
868.724	8284
868.809	7222
868.894	6944
868.979	7288
869.065	7605
869.150	5956
869.235	7522
869.320	6959
869.405	5382
869.490	7077
869.575	6635
869.660	5218
869.745	7765
869.830	7934
869.915	6436
870.000	6197
870.085	6751
870.169	7693
870.254	7710
870.339	5118
870.424	4405
870.509	6417
870.593	7188
870.678	7712
870.763	6121
870.847	4575
870.932	6789
871.016	7753
871.101	4526
871.186	6679
871.270	7778
871.355	5210
871.439	5258
871.523	6261
871.608	5524
871.692	3934
871.777	7370
871.861	6379
871.945	5437
872.030	5754
872.114	5779
872.198	4554
872.282	5516
872.367	4684
872.451	5538
872.535	4742
872.619	5506
872.703	4958
872.787	5879
872.871	5929
872.955	5101
873.039	3375
873.123	5803
873.207	6387
873.291	3461
873.375	5346
873.459	5860
873.543	5253
873.627	4731
873.711	3830
873.794	5471
873.878	4705
873.962	4192
874.045	3638
874.129	4462
874.137	4418
874.213	3979
874.245	4429
874.296	5163
874.352	3887
874.380	3261
874.460	4305
874.464	4348
874.547	3647
874.568	3961
874.631	4888
874.676	4641
874.714	4435
874.784	4950
874.798	5051
874.881	4723
874.892	4480
874.965	2833
874.999	3217
875.048	3735
875.107	4527
875.131	4853
875.215	2999
875.215	2999
875.298	2915
875.323	3097
875.381	3560
875.430	4875
875.465	5803
875.538	5159
875.548	5066
875.631	2487
875.646	2528
875.714	2713
875.753	2849
875.798	3081
875.861	4505
875.881	4912
875.964	3595
875.968	3583
876.047	3511
876.076	3736
876.130	4109
876.183	4214
876.213	4259
876.291	4192
876.296	4185
876.379	3463
876.398	3422
876.462	3421
876.506	2728
876.545	2043
876.613	2584
876.628	2721
876.711	3282
876.721	3289
876.794	3262
876.828	3294
876.877	3253
876.935	2684
876.960	2537
877.043	3228
877.043	3232
877.125	3678
877.150	3855
877.208	4225
877.258	3462
877.291	2977
877.365	2551
877.374	2493
877.456	2263
877.472	2204
877.539	2152
877.579	3006
877.622	3739
877.687	3141
877.704	3018
877.787	3255
877.794	3247
877.869	3094
877.901	3202
877.952	3288
878.008	2650
878.034	2349
878.115	2062
878.117	2062
878.199	2667
878.222	2642
878.282	2586
878.329	3362
878.364	3723
878.437	2845
878.447	2737
878.529	1685
878.544	1712
878.611	1994
878.651	2052
878.694	2215
878.758	3203
878.776	3419
878.858	3165
878.865	3163
878.941	2770
878.972	2223
879.023	1711
879.078	2101
879.105	2274
879.185	2834
879.187	2842
879.269	3248
879.292	3232
879.351	3239
879.399	2619
879.433	2082
879.506	2410
879.516	2445
879.598	2071
879.613	1941
879.680	1747
879.720	2254
879.762	2643
879.827	2598
879.844	2580
879.926	2234
879.933	2236
880.007	2317
880.040	2057
880.089	1725
880.147	2334
880.171	2512
880.253	3090
880.254	3085
880.335	1717
880.360	1985
880.417	3174
880.467	3656
880.499	3767
880.574	4188
880.580	4160
880.662	3385
880.680	3105
880.744	2346
880.787	1789
880.825	1471
880.893	2147
880.907	2248
880.989	1870
881.000	1911
881.070	2389
881.106	2269
881.152	1946
881.213	1984
881.233	2035
881.315	1959
881.319	1980
881.396	2596
881.426	2535
881.478	2082
881.532	2440
881.559	2739
881.639	2190
881.641	2170
881.722	2133
881.745	2077
881.803	2185
881.852	2326
881.885	2171
881.958	1780
881.966	1785
882.047	2026
882.064	1921
882.129	1252
882.171	1271
882.210	1390
882.277	1295
882.291	1326
882.372	1576
882.383	1717
882.454	2644
882.489	2726
882.535	2537
882.596	2071
882.616	1983
882.697	1982
882.702	1961
882.778	1395
882.808	1254
882.859	1260
882.914	1735
882.940	1786
883.020	1364
883.021	1366
883.102	2026
883.127	2176
883.183	2292
883.233	2019
883.264	1764
883.339	1144
883.345	1070
883.426	570
883.445	505
883.507	1106
883.551	1514
883.587	1664
883.657	2209
883.668	2343
883.749	2615
883.763	2648
883.830	1506
883.869	801
883.910	787
883.975	1302
883.991	1406
884.072	1577
884.081	1635
884.152	2314
884.187	2588
884.233	2769
884.292	2435
884.314	2114
884.394	926
884.398	887
884.475	882
884.504	975
884.555	1198
884.610	1354
884.636	1263
884.716	1135
884.716	1138
884.797	1811
884.821	1924
884.877	1794
884.927	1545
884.958	1291
885.033	1161
885.038	1167
885.118	976
885.139	1034
885.199	1074
885.244	833
885.279	1039
885.350	1925
885.359	2033
885.439	2787
885.456	2842
885.520	1975
885.561	1566
885.600	1428
885.667	1379
885.680	1443
885.760	1495
885.773	1484
885.840	781
885.878	583
885.920	907
885.984	1289
886.000	1280
886.080	1549
886.089	1547
886.160	1926
886.195	2006
886.240	1875
886.300	1884
886.320	1822
886.400	1647
886.406	1613
886.480	1065
886.511	1023
886.560	1561
886.616	1990
886.640	1746
886.720	729
886.722	712
886.800	1060
886.827	1154
886.879	1330
886.932	1582
886.959	1746
887.038	2028
887.039	2025
887.119	1728
887.143	1650
887.198	1364
887.248	1186
887.278	1159
887.354	942
887.358	970
887.437	1524
887.459	1781
887.517	2011
887.564	1983
887.596	1702
887.669	875
887.676	801
887.755	346
887.774	153
887.835	379
887.880	714
887.914	1159
887.985	1943
887.994	1908
888.073	1677
888.090	1583
888.153	1840
888.195	2083
888.232	1811
888.300	1302
888.311	1297
888.391	1226
888.405	1223
888.470	1136
888.510	1043
888.549	1421
888.615	2218
888.628	2198
888.708	1965
888.720	1924
888.787	1462
888.825	1164
888.866	931
888.930	688
888.945	841
889.024	1673
889.035	1782
889.103	2060
889.140	2170
889.182	1802
889.245	1339
889.261	1399
889.340	1679
889.349	1710
889.419	1335
889.454	1163
889.498	1240
889.559	1340
889.577	1178
889.656	489
889.664	428
889.735	1195
889.768	1563
889.814	1749
889.873	1992
889.978	957
890.083	722
890.187	1363
890.292	1651
890.397	1344
890.501	408
890.606	636
890.710	750
890.815	1760
890.919	1645
891.024	1493
891.128	1679
891.233	872
891.337	1771
891.442	839
891.546	257
891.650	1256
891.755	894
891.859	2535
891.963	1440
892.068	1465
892.172	1231
892.276	-342
892.380	866
892.484	1810
892.589	1717
892.693	213
892.797	338
892.901	760
893.005	719
893.109	1653
893.213	2692
893.317	982
893.421	1120
893.525	-172
893.629	205
893.733	1525
893.837	622
893.941	886
894.045	1096
894.148	-281
894.252	1045
894.356	918
894.460	1731
894.564	1015
894.667	1068
894.771	658
894.875	294
894.978	646
895.082	1401
895.186	1950
895.289	1169
895.393	588
895.496	1613
895.600	328
895.703	672
895.807	727
895.910	222
896.014	1022
896.117	807
896.221	622
896.324	640
896.427	970
896.531	964
896.634	81
896.737	323
896.840	1245
896.944	1097
897.047	1162
897.150	1034
897.253	11
897.356	1022
897.460	413
897.563	770
897.666	928
897.769	1882
897.872	1042
897.975	53
898.078	441
898.181	-853
898.284	547
898.387	1117
898.490	1673
898.593	73
898.695	606
898.798	309
898.901	1016
899.004	1000
899.107	324
899.209	47
899.312	2086
899.415	118
899.518	275
899.620	-181
899.723	-308
899.826	1130
899.928	605
900.031	308
900.133	967
900.236	600
900.338	274
900.441	596
900.543	269
900.646	1107
900.748	1223
900.851	1517
900.953	-462
901.055	539
901.158	316
901.260	177
901.362	708
901.465	492
901.567	401
901.669	1777
901.771	663
901.873	630
901.976	829
902.078	1330
902.180	-179
902.282	505
902.384	228
902.486	988
902.588	329
902.690	286
902.792	330
902.894	176
902.996	370
903.098	1081
903.200	68
903.302	-23
903.404	714
903.505	210
903.607	556
903.709	1529
903.811	1695
903.913	442
904.014	-428
904.116	-90
904.218	-623
904.319	1008
904.421	1408
904.523	1291
904.624	705
904.726	750
904.827	45
904.929	-207
905.030	-71
905.132	1314
905.233	827
905.335	240
905.436	451
905.537	52
905.639	462
905.740	35
905.841	386
905.943	1320
906.044	1044
906.145	325
906.247	-570
906.348	938
906.449	-314
906.550	763
906.651	327
906.752	153
906.854	330
906.955	-385
907.056	435
907.157	1067
907.258	1136
907.359	-30
907.460	377
907.561	36
907.662	184
907.762	812
907.863	491
907.964	623
908.065	951
908.166	-239
908.267	-120
908.367	-256
908.468	367
908.569	477
908.670	602
908.770	-10
908.871	436
908.971	362
909.072	114
909.173	33
909.273	-1093
909.374	-66
909.474	-440
909.575	850
909.675	-99
909.776	799
909.876	747
909.977	520
910.077	970
910.177	506
910.278	696
910.378	129
910.478	258
910.579	466
910.679	425
910.779	938
910.879	861
910.980	1064
911.080	782
911.180	479
911.280	71
911.380	240
911.480	-146
911.580	-205
911.680	624
911.780	600
911.880	1476
911.980	-402
912.080	-136
912.180	376
912.280	578
912.380	298
912.480	215
912.580	-522
912.679	15
912.779	125
912.879	-3
912.979	-17
913.078	-346
913.178	48
913.278	-39
913.377	-123
913.477	134
913.577	407
913.676	920
913.776	355
913.875	85
913.975	363
914.074	1274
914.174	-87
914.273	-581
914.373	1689
914.472	583
914.572	-321
914.671	-342
914.770	305
914.870	-512
914.969	-229
915.068	176
915.167	313
915.267	138
915.366	638
915.465	151
915.564	-410
915.663	-45
915.763	77
915.862	466
915.961	418
916.060	-443
916.159	-28
916.258	-928
916.357	187
916.456	1001
916.555	-616
916.654	385
916.752	1303
916.851	918
916.950	-223
917.049	892
917.148	512
917.247	72
917.345	-262
917.444	-828
917.543	-51
917.642	439
917.740	617
917.839	1732
917.937	931
918.036	279
918.135	648
918.233	35
918.332	-277
918.430	107
918.529	-63
918.627	-234
918.726	417
918.824	-395
918.923	183
919.021	-127
919.119	-409
919.218	362
919.316	-125
919.414	1422
919.512	1295
919.611	1051
919.709	544
919.807	1078
919.905	1022
920.003	938
920.102	555
920.200	337
920.298	1161
920.396	673
920.494	493
920.592	336
920.690	1195
920.788	708
920.886	703
920.984	547
921.082	544
921.180	1113
921.277	601
921.375	1436
921.473	905
921.571	1726
921.669	2216
921.766	871
921.864	1295
921.962	1416
922.060	1292
922.157	1863
922.255	1722
922.352	1944
922.450	2546
922.548	2447
922.645	2941
922.743	3386
922.840	6091
922.938	7196
923.035	5720
923.133	5883
923.230	6793
923.327	8897
923.425	7709
923.522	8105
923.619	7255
923.717	6818
923.814	5921
923.911	5735
924.008	7146
924.106	6069
924.203	5348
924.300	6209
924.397	6129
924.494	6317
924.591	6510
924.688	5710
924.786	6462
924.883	5835
924.979	6687
925.077	5736
925.173	6065
925.270	5521
925.367	6084
925.464	6310
925.561	5901
925.658	6077
925.755	5865
925.852	6348
925.948	6225
926.045	6199
926.142	6319
926.239	6631
926.335	4814
926.432	5892
926.529	6111
926.625	6684
926.722	5568
926.818	5438
926.915	6552
927.011	5286
927.108	5582
927.204	5863
927.301	4649
927.397	5529
927.494	5803
927.590	4390
927.687	4559
927.783	6416
927.879	5296
927.976	4538
928.072	4805
928.168	5585
928.264	4714
928.361	4987
928.457	5110
928.553	4494
928.649	4259
928.745	4867
928.841	4837
928.937	4830
929.033	4671
929.129	4381
929.225	5559
929.321	3938
929.417	3734
929.513	4976
929.609	4111
929.705	4232
929.801	4893
929.897	3944
929.993	4107
930.089	4438
930.184	4546
930.280	3986
930.376	5689
930.471	3887
930.567	3886
930.663	4387
930.758	3331
930.854	3816
930.950	4188
931.045	2948
931.141	4013
931.236	5885
931.332	3332
931.427	3664
931.523	4454
931.618	4774
931.714	3290
931.809	3647
931.905	4522
932.000	3210
932.095	2762
932.191	4898
932.286	4479
932.381	4114
932.476	2856
932.572	2970
932.667	2843
932.762	3147
932.857	3583
932.952	4731
933.047	4240
933.142	3268
933.237	3488
933.332	4034
933.427	4297
933.522	3390
933.617	3266
933.712	3633
933.807	4551
933.902	4952
933.997	4519
934.092	2979
934.187	3582
934.282	3961
934.376	3976
934.471	3551
934.566	2843
934.661	3476
934.755	3902
934.850	3314
934.945	3516
935.039	3063
935.134	2124
935.228	3234
935.323	6030
935.417	3495
935.512	2264
935.606	2305
935.701	3873
935.795	3935
935.890	3584
935.984	2075
936.079	2247
936.173	2527
936.267	3231
936.362	2103
936.456	3116
936.550	4592
936.644	3117
936.738	2371
936.833	2532
936.927	1970
937.021	1593
937.115	2492
937.209	2135
937.303	2903
937.397	1964
937.491	2098
937.585	2933
937.679	3262
937.773	2129
937.867	1454
937.961	2592
938.055	3545
938.149	3229
938.243	1380
938.337	1315
938.430	2375
938.524	4030
938.618	2748
938.712	2337
938.805	2818
938.899	2575
938.993	3694
939.086	2089
939.180	1681
939.274	2042
939.367	2963
939.461	2883
939.554	1444
939.648	2093
939.741	2049
939.835	3288
939.928	3282
940.022	2853
940.115	2873
940.208	3360
940.302	2957
940.395	3397
940.488	1791
940.582	2611
940.675	1626
940.768	1213
940.861	2337
940.954	3042
941.048	1834
941.141	994
941.234	2611
941.327	2351
941.420	2783
941.513	3387
941.606	2657
941.699	2885
941.792	4273
941.885	1973
941.978	3030
942.071	2321
942.164	1682
942.257	1393
942.349	1455
942.442	2097
942.535	1056
942.628	1655
942.721	1766
942.813	1921
942.906	2775
942.999	2271
943.091	1882
943.184	772
943.277	1018
943.369	1476
943.462	856
943.554	1739
943.647	1351
943.739	3849
943.832	2537
943.924	439
944.017	1584
944.109	545
944.201	1478
944.294	1202
944.386	1457
944.478	1776
944.571	1230
944.663	829
944.755	1660
944.847	2254
944.940	1695
945.032	512
945.124	688
945.216	2450
945.308	1564
945.400	1231
945.492	1407
945.584	1846
945.676	2736
945.768	3002
945.860	2123
945.952	1887
946.044	1618
946.136	899
946.228	1850
946.320	1559
946.412	2057
946.503	1871
946.595	1773
946.687	1569
946.779	-427
946.870	1435
946.962	1233
947.054	1029
947.145	1523
947.237	1388
947.329	1073
947.420	1606
947.512	1652
947.603	845
947.695	940
947.786	532
947.878	1248
947.969	1438
948.061	1685
948.152	1593
948.243	1146
948.335	1048
948.426	655
948.517	1254
948.609	1441
948.700	1481
948.791	1487
948.882	865
948.973	77
949.065	1035
949.156	787
949.247	636
949.338	687
949.429	192
949.520	303
949.611	363
949.702	1937
949.793	841
949.884	1196
949.975	799
950.066	-2
950.157	400
950.247	1201
950.338	904
950.429	757
950.520	1305
950.611	1318
950.701	649
950.792	2002
950.883	2079
950.973	777
951.064	993
951.155	973
951.245	1694
951.336	969
951.427	1004
951.517	2606
951.608	1509
951.698	940
951.788	423
951.879	668
951.969	441
952.060	974
952.150	759
952.240	1921
952.331	691
952.421	2128
952.511	131
952.602	579
952.692	387
952.782	260
952.872	-432
952.962	1093
953.052	224
953.143	55
953.233	1184
953.323	1333
953.413	1314
953.503	1025
953.593	805
953.683	277
953.773	-1094
953.863	-76
953.953	590
954.042	230
954.132	1170
954.222	2153
954.312	282
954.402	432
954.492	517
954.581	789
954.671	432
954.761	-42
954.850	1288
954.940	441
955.030	5
955.119	-408
955.209	520
955.298	58
955.388	1748
955.477	1242
955.567	281
955.656	196
955.746	-178
955.835	574
955.925	-142
956.014	601
956.103	1023
956.193	1450
956.282	607
956.371	715
956.461	1189
956.550	-334
956.639	63
956.728	-22
956.817	224
956.906	1042
956.995	998
957.085	111
957.174	74
957.263	182
957.352	467
957.441	1025
957.530	-300
957.619	103
957.708	433
957.796	-416
957.885	535
957.974	296
958.063	196
958.152	-659
958.241	-333
958.329	69
958.418	700
958.507	344
958.596	2205
958.684	124
958.773	723
958.861	-94
958.950	-15
959.039	310
959.127	-7
959.216	903
959.304	-159
959.393	-112
959.481	1249
959.570	219
959.658	281
959.746	667
959.835	823
959.923	-176
960.011	569
960.100	177
960.188	484
960.276	144
960.365	250
960.453	-346
960.541	-329
960.629	-253
960.717	56
960.805	-1278
960.893	-2
960.981	828
961.069	1732
961.158	971
961.245	1186
961.333	550
961.421	173
961.509	613
961.597	304
961.685	11
961.773	-389
961.861	526
961.949	793
962.036	395
962.124	701
962.212	-690
962.299	-842
962.387	-227
962.475	-430
962.562	-692
962.650	637
962.738	-526
962.825	-400
962.913	159
963.000	-605
963.088	-48
963.175	-91
963.263	-493
963.350	795
963.438	-138
963.525	59
963.612	339
963.700	319
963.787	1851
963.874	-389
963.962	-235
964.049	-12
964.136	-476
964.223	-250
964.310	-215
964.398	381
964.485	79
964.572	341
964.659	203
964.746	319
964.833	123
964.920	270
965.007	-561
965.094	27
965.181	-173
965.268	-336
965.355	182
965.441	-297
965.528	59
965.615	888
965.702	-45
965.789	-719
965.875	-1
965.962	734
966.049	-766
966.136	306
966.222	-716
966.309	566
966.395	948
966.482	305
966.569	265
966.655	153
966.742	239
966.828	-624
966.915	-163
967.001	203
967.087	-188
967.174	-234
967.260	184
967.347	879
967.433	192
967.519	1477
967.605	383
967.692	145
967.778	72
967.864	-374
967.950	-262
968.036	-984
968.123	-303
968.209	-565
968.295	-1275
968.381	130
968.467	-132
968.553	-1322
968.639	-145
968.725	290
968.811	787
968.897	383
968.983	-141
969.069	-930
969.154	130
969.240	-28
969.326	-623
969.412	-270
969.497	-949
969.583	-1150
969.669	450
969.755	206
969.840	618
969.926	1217
970.012	992
970.097	3688
970.183	2342
970.268	1072
970.354	914
970.439	-932
970.525	470
970.610	-945
970.696	96
970.781	449
970.866	-1320
970.952	-22
971.037	-150
971.122	244
971.208	-604
971.293	-57
971.378	-1686
971.463	-158
971.549	249
971.634	-614
971.719	-113
971.804	-204
971.889	155
971.974	-1079
972.059	-450
972.144	-445
972.229	-423
972.314	-1019
972.399	99
972.484	-314
972.569	243
972.654	-644
972.739	520
972.824	-569
972.908	82
972.993	-231
973.078	-893
973.163	540
973.247	109
973.332	-1273
973.417	859
973.501	-1021
973.586	368
973.671	240
973.755	-1038
973.840	263
973.924	1291
974.009	1323
974.093	-233
974.178	1582
974.262	439
974.346	594
974.431	-455
974.515	14
974.600	297
974.684	9
974.768	-809
974.852	450
974.937	-697
975.021	461
975.105	615
975.189	43
975.273	504
975.358	-575
975.442	-1116
975.526	502
975.610	-1170
975.694	-896
975.778	102
975.862	234
975.946	-1911
976.030	866
976.114	-487
976.198	-248
976.281	-1358
976.365	376
976.449	-698
976.533	-505
976.617	-536
976.700	-522
976.784	-1103
976.868	-513
976.951	-96
977.035	-453
977.119	-530
977.202	-655
977.286	654
977.369	57
977.453	1134
977.536	129
977.620	-665
977.703	403
977.787	-688
977.870	1023
977.953	534
978.037	-1288
978.120	-345
978.203	-626
978.287	95
978.370	252
978.453	87
978.536	-1363
978.620	587
978.703	202
978.786	381
978.869	-1417
978.952	-1110
979.035	824
979.118	802
979.201	-1130
979.284	320
979.367	-1002
979.450	37
979.533	-670
979.616	170
979.699	-345
979.782	-688
979.865	-755
979.948	-1419
980.030	-405
980.113	-548
980.196	-946
980.279	-724
980.361	-301
980.444	-336
980.526	938
980.609	33
980.692	1233
980.774	657
980.857	-806
980.939	440
981.022	-207
981.104	-493
981.187	25
981.269	-476
981.352	623
981.434	-427
981.516	-613
981.599	693
981.681	108
981.763	-427
981.846	-548
981.928	-218
982.010	-442
982.092	-976
982.174	338
982.256	-977
982.339	-181
982.421	-691
982.503	418
982.585	-418
982.667	164
982.749	122
982.831	-67
982.913	-1052
982.995	592
983.077	-328
983.158	561
983.240	-889
983.322	964
983.404	1375
983.486	-188
983.568	1007
983.649	-42
983.731	957
983.813	770
983.894	233
983.976	-241
984.058	-352
984.139	1110
984.221	-48
984.302	538
984.384	-312
984.465	108
984.547	359
984.628	-964
984.710	997
984.791	83
984.872	202
984.954	-800
985.035	660
985.116	-575
985.198	67
985.279	1094
985.360	-332
985.441	176
985.522	404
985.604	-488
985.685	-758
985.766	911
985.847	1725
985.928	-320
986.009	-986
986.090	81
986.171	1027
986.252	-417
986.333	488
986.414	-327
986.495	356
986.576	549
986.656	857
986.737	620
986.818	870
986.899	472
986.980	-166
987.060	797
987.141	654
987.222	1054
987.302	813
987.383	1075
987.464	243
987.544	1262
987.625	776
987.705	1871
987.786	1250
987.866	603
987.947	302
988.027	868
988.108	848
988.188	767
988.268	970
988.349	300
988.429	-217
988.509	1087
988.589	-242
988.670	-1066
988.750	1851
988.830	64
988.910	23
988.990	1115
989.070	-201
989.151	330
989.231	-300
989.311	644
989.391	134
989.471	433
989.551	595
989.631	452
989.711	1224
989.791	-577
989.870	-560
989.950	2064
990.030	-31
990.110	-423
990.190	-435
990.269	-34
990.349	237
990.429	1218
990.509	377
990.588	-433
990.668	-4
990.747	375
990.827	-776
990.907	718
990.986	142
991.066	256
991.145	-311
991.225	316
991.304	-374
991.383	607
991.463	24
991.542	529
991.622	-1329
991.701	-491
991.780	-7
991.859	-962
991.939	-694
992.018	210
992.097	-265
992.176	-292
992.256	-90
992.335	-781
992.414	349
992.493	-399
992.572	-436
992.651	435
992.730	-1086
992.809	-441
992.888	-610
992.967	-951
993.046	193
993.125	-1283
993.203	-461
993.282	716
993.361	-1295
993.440	104
993.519	-761
993.597	-434
993.676	-898
993.755	28
993.834	104
993.912	-1685
993.991	401
994.069	-923
994.148	18
994.226	-968
994.305	28
994.384	-161
994.462	732
994.540	-972
994.619	-378
994.697	42
994.776	-391
994.854	284
994.932	-945
995.011	-2
995.089	-629
995.167	-774
995.245	-136
995.324	-822
995.402	197
995.480	-876
995.558	-1171
995.636	-690
995.714	-138
995.792	388
995.870	-826
995.948	-670
996.026	-1042
996.104	-1980
996.182	367
996.260	-1243
996.338	22
996.416	-2183
996.494	-1284
996.572	99
996.649	-694
996.727	-1026
996.805	-192
996.883	-1514
996.960	-1485
997.038	-220
997.116	-504
997.193	-1381
997.271	-1434
997.348	-1400
997.426	-1437
997.504	-1228
997.581	-185
997.658	-479
997.736	-2129
997.813	-1565
997.891	-500
997.968	-572
998.046	-1129
998.123	-999
998.200	-216
998.277	-880
998.355	-270
998.432	-2011
998.509	-882
998.586	-295
998.663	-186
998.741	-1149
998.818	-357
998.895	-1147
998.972	-489
999.049	-637
999.126	-1353
999.203	-405
999.280	-1110
999.357	-1781
999.434	-524
999.511	-449
999.587	-1086
999.664	-1260
999.741	-983
999.818	-712
999.895	-879
999.971	-1600
1000.048	-1132
1000.125	-298
1000.202	-1567
1000.278	-780
1000.355	-1394
1000.431	-1516
1000.508	-1729
1000.584	-912
1000.661	-833
1000.738	-1365
1000.814	-1571
1000.890	-1011
1000.967	-824
1001.043	-555
1001.120	-1936
1001.196	-1078
1001.272	-2098
1001.349	-605
1001.425	-1113
1001.501	-1177
1001.577	-608
1001.654	-572
1001.730	-1459
1001.806	-1262
1001.882	-1514
1001.958	-533
1002.034	-667
1002.110	-1496
1002.186	-2256
1002.262	-897
1002.338	-1602
1002.414	-407
1002.490	-276
1002.566	-633
1002.642	-2012
1002.718	-1235
1002.794	-1706
1002.870	-1813
1002.945	-1388
1003.021	-1700
1003.097	-1440
1003.173	-674
1003.248	-1492
1003.324	-670
1003.400	-1079
1003.475	-1261
1003.551	-603
1003.626	-701
1003.702	-1786
1003.777	-691
1003.853	-1584
1003.928	-2399
1004.004	-975
1004.079	-944
1004.155	-1404
1004.230	-2286
1004.305	-1228
1004.381	-1274
1004.456	-1350
1004.531	-1888
1004.607	-1512
1004.682	-411
1004.757	-990
1004.832	-1813
1004.907	-1671
1004.982	-519
1005.057	-1350
1005.133	-1644
1005.208	-1090
1005.283	-2137
1005.358	-1298
1005.433	-1601
1005.508	-800
1005.583	-2058
1005.657	-1283
1005.732	-545
1005.807	-1638
1005.882	-2544
1005.957	-1173
1006.032	-1183
1006.106	-1643
1006.181	-1739
1006.256	-1133
1006.331	-2074
1006.405	-1505
1006.480	-1582
1006.554	-1795
1006.629	-846
1006.704	-1722
1006.778	-1264
1006.853	-958
1006.927	-2446
1007.002	-1611
1007.076	-1480
1007.150	-1310
1007.225	-835
1007.299	-1051
1007.373	-2260
1007.448	-1539
1007.522	-1420
1007.596	-1441
1007.671	-1348
1007.745	-1164
1007.819	-2535
1007.893	-1205
1007.967	-774
1008.041	-2559
1008.115	-996
1008.190	-2358
1008.264	-1770
1008.338	-2567
1008.412	-1606
1008.486	-797
1008.560	-1825
1008.633	-2002
1008.707	-1429
1008.781	-1039
1008.855	-1665
1008.929	-1242
1009.003	-2075
1009.076	-1897
1009.150	-1176
1009.224	-1722
1009.298	-1792
1009.371	-2541
1009.445	-831
1009.519	-762
1009.592	-2033
1009.666	-1825
1009.739	-1086
1009.813	-2573
1009.886	-262
1009.960	-3126
1010.033	-1053
1010.107	-1298
1010.180	-2361
1010.253	-1515
1010.327	-2039
1010.400	-1761
1010.473	-1428
1010.547	-468
1010.620	-1953
1010.693	-1221
1010.766	-1609
1010.840	-1628
1010.913	-802
1010.986	-1624
1011.059	-1662
1011.132	-2043
1011.205	-1267
1011.278	-1741
1011.351	-2139
1011.424	-1241
1011.497	-1924
1011.570	-1815
1011.643	-1339
1011.716	-1945
1011.789	-1142
1011.862	-1213
1011.934	-1632
1012.007	-2605
1012.080	-2264
1012.153	-2050
1012.225	-1381
1012.298	-1606
1012.371	-2086
1012.443	-1718
1012.516	-1954
1012.588	-1350
1012.661	-1473
1012.733	-1786
1012.806	-850
1012.879	-2040
1012.951	-1367
1013.023	-2147
1013.096	-1456
1013.168	-2289
1013.241	-811
1013.313	-2224
1013.385	-1674
1013.458	-1445
1013.530	-1222
1013.602	-1388
1013.674	-1284
1013.746	-2123
1013.819	-2785
1013.891	-1401
1013.963	-2371
1014.035	-1482
1014.107	-919
1014.179	-1375
1014.251	-1946
1014.323	-1535
1014.395	-979
1014.467	-1234
1014.539	-1814
1014.611	-2290
1014.683	-1747
1014.754	-943
1014.826	-1247
1014.898	-607
1014.970	-1996
1015.042	-733
1015.113	-1631
1015.185	-1511
1015.257	-1576
1015.328	-1320
1015.400	-1700
1015.471	-1518
1015.543	-2567
1015.615	-1260
1015.686	-1803
1015.757	-1485
1015.829	-1883
1015.901	-1959
1015.972	-1579
1016.043	-1859
1016.115	-1568
1016.186	-976
1016.257	-1960
1016.328	-1466
1016.400	-478
1016.471	-2427
1016.542	-1574
1016.613	-1003
1016.685	-1715
1016.756	-1402
1016.827	-1958
1016.898	-2170
1016.969	-1730
1017.040	-1833
1017.111	-1288
1017.182	-2291
1017.253	-1728
1017.324	-2163
1017.395	-1586
1017.466	-509
1017.537	-1115
1017.608	-1689
1017.678	-1948
1017.749	-2156
1017.820	-1930
1017.891	-2393
1017.961	-1533
1018.032	-1958
1018.103	-1539
1018.173	-1886
1018.244	-2195
1018.315	-2125
1018.385	-1906
1018.456	-2160
1018.526	-1681
1018.597	-1894
1018.667	-2103
1018.738	-1550
1018.808	-1970
1018.878	-1844
1018.949	-1662
1019.019	-1590
1019.089	-2005
1019.160	-1614
1019.230	-2130
1019.300	-2102
1019.371	-2098
1019.441	-1316
1019.511	-2594
1019.581	-2173
1019.651	-969
1019.721	-1702
1019.791	-2212
1019.861	-1447
1019.931	-1331
1020.001	-1486
1020.071	-2029
1020.141	-1877
1020.211	-1154
1020.281	-1844
1020.351	-2217
1020.421	-1692
1020.491	-2265
1020.560	-1913
1020.630	-1068
1020.700	-1763
1020.770	-1997
1020.839	-1858
1020.909	-2145
1020.979	-1383
1021.048	-1261
1021.118	-2196
1021.187	-1630
1021.257	-1769
1021.326	-1360
1021.396	-2001
1021.465	-1826
1021.535	-1787
1021.604	-2883
1021.674	-2175
1021.743	-1129
1021.812	-2232
1021.882	-2531
1021.951	-2049
1022.020	-1662
1022.089	-1341
1022.159	-1999
1022.228	-1573
1022.297	-1781
1022.366	-1449
1022.435	-1213
1022.504	-1605
1022.573	-1520
1022.642	-2332
1022.711	-2516
1022.781	-1357
1022.849	-1739
1022.918	-2352
1022.987	-1898
1023.056	-1888
1023.125	-1805
1023.194	-1348
1023.263	-1775
1023.331	-1226
1023.400	-2855
1023.469	-2231
1023.538	-2157
1023.606	-1885
1023.675	-2255
1023.744	-1680
1023.812	-2193
1023.881	-1943
1023.949	-1147
1024.018	-2099
1024.086	-2224
1024.155	-2420
1024.223	-2416
1024.292	-2486
1024.360	-2262
1024.429	-2721
1024.497	-2222
1024.565	-1850
1024.634	-2026
1024.702	-1307
1024.770	-1642
1024.838	-1736
1024.907	-1920
1024.975	-1639
1025.043	-1986
1025.111	-2289
1025.179	-2099
1025.247	-2380
1025.315	-2245
1025.383	-2009
1025.451	-1776
1025.519	-2313
1025.587	-2102
1025.655	-2146
1025.723	-1910
1025.791	-1635
1025.859	-2117
1025.927	-1580
1025.995	-1793
1026.062	-2107
1026.130	-2076
1026.198	-2174
1026.266	-2803
1026.333	-1043
1026.401	-1552
1026.469	-2086
1026.536	-1375
1026.604	-2048
1026.671	-2131
1026.739	-1935
1026.806	-1271
1026.874	-2021
1026.941	-1809
1027.009	-3175
1027.076	-2030
1027.144	-1351
1027.211	-2516
1027.278	-2016
1027.345	-2236
1027.413	-1889
1027.480	-2139
1027.547	-2681
1027.614	-1781
1027.682	-1472
1027.749	-1693
1027.816	-2288
1027.883	-1481
1027.950	-2024
1028.017	-1865
1028.084	-1883
1028.151	-1388
1028.218	-1945
1028.285	-2008
1028.352	-2649
1028.419	-2341
1028.486	-1979
1028.553	-1976
1028.619	-2905
1028.686	-1944
1028.753	-2251
1028.820	-1850
1028.886	-2504
1028.953	-1294
1029.020	-2754
1029.086	-2027
1029.153	-1870
1029.220	-2131
1029.286	-1790
1029.353	-1848
1029.419	-2286
1029.486	-1876
1029.552	-1953
1029.619	-1833
1029.685	-2065
1029.751	-1490
1029.818	-1210
1029.884	-1719
1029.951	-1068
1030.017	-2190
1030.083	-2381
1030.149	-1488
1030.216	-2470
1030.282	-1210
1030.348	-2343
1030.414	-1960
1030.480	-2033
1030.546	-2660
1030.612	-1599
1030.678	-2938
1030.744	-2354
1030.810	-2159
1030.876	-1522
1030.942	-2347
1031.008	-1698
1031.074	-2480
1031.140	-2088
1031.206	-1004
1031.272	-2334
1031.337	-1813
1031.403	-1517
1031.469	-2135
1031.534	-1923
1031.600	-1627
1031.666	-2059
1031.731	-2334
1031.797	-2364
1031.863	-2115
1031.928	-2636
1031.994	-1780
1032.059	-2210
1032.125	-1960
1032.190	-2091
1032.256	-3115
1032.321	-2291
1032.386	-2652
1032.452	-2224
1032.517	-1399
1032.582	-2762
1032.647	-2695
1032.713	-1937
1032.778	-1852
1032.843	-2368
1032.908	-2670
1032.974	-1905
1033.039	-2365
1033.104	-1875
1033.169	-1450
1033.234	-1688
1033.299	-2043
1033.364	-1241
1033.429	-2327
1033.494	-1676
1033.559	-2513
1033.624	-2900
1033.688	-2014
1033.753	-2204
1033.818	-1842
1033.883	-1532
1033.948	-1063
1034.013	-1593
1034.077	-962
1034.142	225
1034.207	127
1034.271	2082
1034.336	1918
1034.400	380
1034.465	-710
1034.530	-2316
1034.594	-2432
1034.658	-2452
1034.723	-1607
1034.787	-2320
1034.852	-2236
1034.916	-1924
1034.981	-2715
1035.045	-2220
1035.109	-1581
1035.173	-1750
1035.238	-2035
1035.302	-1945
1035.366	-2476
1035.430	-2242
1035.495	-2545
1035.559	-2171
1035.623	-1739
1035.687	-2683
1035.751	-2528
1035.815	-1902
1035.879	-2701
1035.943	-2079
1036.007	-1895
1036.071	-2151
1036.135	-2136
1036.198	-1473
1036.262	-2543
1036.326	-2218
1036.390	-1512
1036.454	-2567
1036.517	-1864
1036.581	-2234
1036.645	-2222
1036.709	-1615
1036.772	-2233
1036.836	-1994
1036.900	-1905
1036.963	-2452
1037.026	-1992
1037.090	-1911
1037.154	-2110
1037.217	-1714
1037.280	-2689
1037.344	-1838
1037.407	-2960
1037.471	-1625
1037.534	-3012
1037.597	-2777
1037.661	-2139
1037.724	-1879
1037.787	-2628
1037.850	-2283
1037.913	-1993
1037.977	-2115
1038.040	-2552
1038.103	-2312
1038.166	-2574
1038.229	-3023
1038.292	-2377
1038.355	-2234
1038.418	-2495
1038.481	-1307
1038.544	-2471
1038.607	-1775
1038.670	-1505
1038.732	-3149
1038.795	-2961
1038.858	-2503
1038.921	-2387
1038.984	-1992
1039.046	-2039
1039.109	-2708
1039.172	-2178
1039.234	-2289
1039.297	-3059
1039.360	-2238
1039.422	-2122
1039.485	-1820
1039.547	-2770
1039.610	-1418
1039.672	-2662
1039.734	-2185
1039.797	-2331
1039.859	-1997
1039.922	-1896
1039.984	-2147
1040.046	-2187
1040.109	-1931
1040.171	-3109
1040.233	-1921
1040.295	-2399
1040.358	-2858
1040.420	-2337
1040.482	-2462
1040.544	-2251
1040.606	-1463
1040.668	-2278
1040.730	-2785
1040.792	-2084
1040.854	-2776
1040.916	-2155
1040.978	-2203
1041.040	-2075
1041.102	-2488
1041.164	-3164
1041.225	-2402
1041.287	-2584
1041.349	-2397
1041.411	-2259
1041.472	-2364
1041.534	-1953
1041.596	-2597
1041.657	-2139
1041.719	-2842
1041.781	-2147
1041.842	-2320
1041.904	-2404
1041.965	-1707
1042.027	-2665
1042.088	-2147
1042.150	-2312
1042.211	-2033
1042.272	-1855
1042.334	-1948
1042.395	-2438
1042.456	-2812
1042.518	-2338
1042.579	-2476
1042.640	-1659
1042.701	-1890
1042.763	-2438
1042.824	-2555
1042.885	-2465
1042.946	-2523
1043.007	-2134
1043.068	-2398
1043.129	-2141
1043.190	-2772
1043.251	-1697
1043.312	-2809
1043.373	-1780
1043.434	-2012
1043.495	-2536
1043.556	-1951
1043.616	-1687
1043.677	-2289
1043.738	-1674
1043.799	-2154
1043.859	-2137
1043.920	-2851
1043.981	-1868
1044.041	-2073
1044.102	-2599
1044.162	-2251
1044.223	-2388
1044.284	-2060
1044.344	-1596
1044.405	-2232
1044.465	-1463
1044.525	-2739
1044.586	-2082
1044.646	-2471
1044.707	-1411
1044.767	-2170
1044.827	-2116
1044.887	-1812
1044.948	-1476
1045.008	-2328
1045.068	-2594
1045.128	-1758
1045.188	-2693
1045.249	-2466
1045.309	-2639
1045.369	-1807
1045.429	-1741
1045.489	-2144
1045.549	-2124
1045.609	-2230
1045.669	-2546
1045.729	-2429
1045.789	-1520
1045.848	-2454
1045.908	-1293
1045.968	-2113
1046.028	-1707
1046.088	-1895
1046.147	-1018
1046.207	-1476
1046.267	-1255
1046.326	-2085
1046.386	-1905
1046.446	-1509
1046.505	-1498
1046.565	-1009
1046.624	-1538
1046.684	-1977
1046.743	-1422
1046.803	-646
1046.862	-352
1046.922	0
