'Start Wavelength	183.907
'End Wavelength	1046.922
'Gate Delay	5.000
'Gate Width (ms)	1.050
'Laser Output Level	0.000
'X Position	0.000
'Y Position	0.000
'Z Position	0.000
'Grid Point Number	1.000
'Shot Number	100.000
183.907	-498.000
183.977	276.000
184.047	-174
184.116	-220
184.186	-406
184.256	-426
184.325	-227
184.395	-1008
184.465	-392
184.534	-139
184.604	-1098
184.674	342
184.743	-474
184.813	269
184.883	-276
184.952	-93
185.022	176
185.092	-48
185.161	158
185.231	153
185.301	-36
185.370	-76
185.440	-770
185.509	161
185.579	504
185.649	-56
185.718	-6
185.788	180
185.857	-351
185.927	-20
185.996	-454
186.066	60
186.136	-1012
186.205	130
186.275	-535
186.344	-377
186.414	-770
186.483	-701
186.553	911
186.622	1176
186.692	-119
186.761	241
186.831	140
186.900	-550
186.970	-257
187.039	-463
187.109	1680
187.178	142
187.248	-389
187.317	638
187.387	-1057
187.456	430
187.526	320
187.595	791
187.664	-520
187.734	-164
187.803	-365
187.873	-139
187.942	968
188.012	506
188.081	-148
188.150	504
188.220	292
188.289	1664
188.358	162
188.428	687
188.497	-1466
188.567	541
188.636	-502
188.705	39
188.775	-526
188.844	-594
188.913	101
188.983	-321
189.052	-232
189.121	486
189.191	-280
189.260	1298
189.329	1436
189.399	899
189.468	674
189.537	-89
189.606	-393
189.676	432
189.745	748
189.814	-372
189.883	-108
189.953	521
190.022	1102
190.091	4289
190.161	6087
190.230	2211
190.299	247
190.368	388
190.437	286
190.507	-13
190.576	180
190.645	183
190.714	647
190.783	188
190.853	204
190.922	59
190.991	244
191.060	851
191.129	174
191.198	484
191.268	19
191.337	527
191.406	248
191.475	199
191.544	322
191.613	775
191.682	-220
191.752	15
191.821	372
191.890	-205
191.959	1195
192.028	-288
192.097	314
192.166	527
192.235	48
192.304	1148
192.373	637
192.442	598
192.511	458
192.580	1033
192.650	1085
192.719	-132
192.788	528
192.857	843
192.926	334
192.995	1186
193.064	1169
193.133	2877
193.202	4015
193.271	3673
193.340	2831
193.409	3105
193.478	2996
193.547	3906
193.615	6479
193.684	5652
193.753	3604
193.822	2128
193.891	890
193.960	1570
194.029	862
194.098	900
194.167	827
194.236	1306
194.305	599
194.374	574
194.443	-206
194.512	1476
194.580	816
194.649	847
194.718	815
194.787	472
194.856	194
194.925	1030
194.994	219
195.062	461
195.131	612
195.200	486
195.269	176
195.338	729
195.407	260
195.475	1100
195.544	914
195.613	154
195.682	1117
195.751	1418
195.819	635
195.888	1327
195.957	668
196.026	925
196.094	1282
196.163	521
196.232	481
196.301	536
196.369	461
196.438	1491
196.507	2065
196.576	45
196.644	818
196.713	1383
196.782	-1
196.850	1485
196.919	1324
196.988	742
197.056	151
197.125	1722
197.194	517
197.262	1058
197.331	1045
197.400	1114
197.468	972
197.537	770
197.606	1083
197.674	3067
197.743	5372
197.812	2894
197.880	5806
197.949	4354
198.017	5009
198.086	3526
198.155	2169
198.223	2790
198.292	6358
198.360	2871
198.429	1929
198.497	1467
198.566	3912
198.635	6232
198.703	2869
198.772	3279
198.840	5911
198.909	7243
198.977	2210
199.046	2135
199.114	905
199.183	2459
199.251	1478
199.320	1327
199.388	1155
199.457	660
199.525	1079
199.594	1162
199.662	529
199.731	1171
199.799	1162
199.867	2416
199.936	1185
200.004	2297
200.073	1339
200.141	841
200.210	462
200.278	1077
200.346	985
200.415	2396
200.483	1779
200.552	1340
200.620	1486
200.688	1551
200.757	1113
200.825	2430
200.893	1516
200.962	2134
201.030	950
201.098	1059
201.167	1757
201.235	1308
201.303	1170
201.372	2403
201.440	1454
201.508	1735
201.577	1913
201.645	1782
201.713	1639
201.781	1322
201.850	1170
201.918	1832
201.986	1234
202.055	1543
202.123	1374
202.191	1848
202.259	1167
202.327	2260
202.396	2311
202.464	1801
202.532	1602
202.600	2313
202.669	1891
202.737	1414
202.805	1203
202.873	2120
202.941	2326
203.009	1185
203.078	1500
203.146	1878
203.214	724
203.282	1341
203.350	1484
203.418	1659
203.487	2052
203.555	1785
203.623	2460
203.691	1586
203.759	1346
203.827	1914
203.895	1937
203.963	1534
204.031	1600
204.099	2314
204.168	1238
204.236	2462
204.304	1766
204.372	2229
204.440	1838
204.508	2274
204.576	2206
204.644	1558
204.712	1135
204.780	1897
204.848	2404
204.916	1893
204.984	2431
205.052	1721
205.120	1959
205.188	1404
205.256	1081
205.324	1934
205.392	1841
205.460	3072
205.528	2628
205.596	2511
205.664	2342
205.732	3492
205.799	8376
205.867	13383
205.935	3896
206.003	4042
206.071	2719
206.139	3270
206.207	1655
206.275	2615
206.343	1612
206.411	2368
206.478	1968
206.546	2269
206.614	1926
206.682	1455
206.750	1740
206.818	2907
206.885	3843
206.953	1405
207.021	3478
207.089	2514
207.157	1882
207.225	3448
207.292	1811
207.360	3121
207.428	3402
207.496	3052
207.563	1790
207.631	2258
207.699	3329
207.767	2350
207.834	2232
207.902	2163
207.970	2707
208.038	3087
208.105	3010
208.173	3211
208.241	4751
208.309	5477
208.376	3792
208.444	5479
208.512	4451
208.579	2553
208.647	3769
208.715	4186
208.782	2069
208.850	2741
208.918	3152
208.985	3195
209.053	2395
209.120	3216
209.188	2467
209.256	3990
209.323	2622
209.391	2980
209.459	3899
209.526	3661
209.594	3143
209.661	3344
209.729	3064
209.796	3403
209.864	2927
209.932	2132
209.999	4718
210.067	3705
210.134	3222
210.202	4109
210.269	3022
210.337	3822
210.404	3580
210.472	3986
210.539	3574
210.607	3928
210.674	3018
210.742	3643
210.809	2992
210.877	3719
210.944	3097
211.012	2197
211.079	3961
211.146	3161
211.214	3389
211.281	3714
211.349	3875
211.416	4850
211.484	3937
211.551	3710
211.618	4042
211.686	4697
211.753	3127
211.821	3854
211.888	3769
211.955	4546
212.023	4820
212.090	4452
212.157	3860
212.225	5477
212.292	8910
212.359	16503
212.427	35042
212.494	19657
212.561	7726
212.629	5718
212.696	5336
212.763	4537
212.831	3936
212.898	4667
212.965	4019
213.032	3343
213.100	4026
213.167	3976
213.234	5225
213.301	3382
213.369	3610
213.436	4159
213.503	4388
213.570	4797
213.638	5050
213.705	3063
213.772	3576
213.839	4147
213.906	3883
213.973	2633
214.041	2381
214.108	4212
214.175	2997
214.242	4339
214.309	3830
214.376	4687
214.444	4574
214.511	4667
214.578	4871
214.645	5213
214.712	5448
214.779	5902
214.846	4898
214.913	5278
214.980	5636
215.048	5541
215.115	6075
215.182	4615
215.249	4437
215.316	5357
215.383	4952
215.450	4183
215.517	3476
215.584	3085
215.651	3158
215.718	3946
215.785	3890
215.852	3400
215.919	3355
215.986	2971
216.053	3170
216.120	2877
216.187	3765
216.254	3285
216.321	3865
216.388	4070
216.455	3372
216.522	4151
216.589	4415
216.656	5473
216.722	5738
216.789	7182
216.856	7491
216.923	7124
216.990	5883
217.057	6539
217.124	6655
217.191	7342
217.258	8401
217.324	11328
217.391	12297
217.458	10225
217.525	7408
217.592	6710
217.659	4786
217.725	5793
217.792	5522
217.859	4607
217.926	3941
217.993	4128
218.059	3975
218.126	3563
218.193	2827
218.260	3303
218.327	2300
218.393	2884
218.460	2181
218.527	1946
218.594	3047
218.660	3471
218.727	2886
218.794	2531
218.860	3101
218.927	1806
218.994	2172
219.061	2077
219.127	1901
219.194	2741
219.261	3106
219.327	2021
219.394	2968
219.461	1278
219.527	1894
219.594	2440
219.661	1963
219.727	2150
219.794	3305
219.860	2005
219.927	3364
219.994	5002
220.060	4005
220.127	6460
220.193	5210
220.260	6866
220.326	10436
220.393	16672
220.460	20875
220.526	14540
220.593	9815
220.659	10223
220.726	9979
220.792	21066
220.859	20953
220.925	26894
220.992	33655
221.058	31662
221.125	28585
221.191	21516
221.258	10455
221.324	8104
221.391	6122
221.457	5195
221.524	4750
221.590	6692
221.657	21464
221.723	15905
221.789	13340
221.856	13010
221.922	6957
221.989	4848
222.055	3565
222.121	1928
222.188	4419
222.254	3745
222.321	2238
222.387	2509
222.453	1891
222.520	3137
222.586	1941
222.652	2093
222.719	1157
222.785	2995
222.851	1576
222.918	1708
222.984	1210
223.050	1708
223.116	987
223.183	2527
223.249	1084
223.315	1630
223.382	1940
223.448	2014
223.514	1605
223.580	2025
223.647	749
223.713	1130
223.779	1238
223.845	1848
223.911	2100
223.978	669
224.044	1312
224.110	1446
224.176	1630
224.242	1566
224.309	833
224.375	2143
224.441	667
224.507	1300
224.573	645
224.639	1271
224.705	480
224.772	1791
224.838	667
224.904	1860
224.970	1399
225.036	1481
225.102	547
225.168	2323
225.234	1799
225.300	1391
225.366	1464
225.432	1599
225.499	1724
225.565	1992
225.631	2895
225.697	2226
225.763	3635
225.829	4343
225.895	5023
225.961	5629
226.027	5824
226.093	5208
226.159	8466
226.225	14752
226.291	33580
226.357	51704
226.423	27498
226.489	14816
226.554	10549
226.620	9482
226.686	10094
226.752	15984
226.818	31901
226.884	64888
226.950	59073
227.016	27538
227.082	14968
227.148	9298
227.214	7055
227.279	5222
227.345	3591
227.411	3724
227.477	4599
227.543	8819
227.609	6897
227.674	4300
227.740	3228
227.806	3366
227.872	3226
227.938	3014
228.003	1751
228.069	2002
228.135	1812
228.201	2995
228.267	1731
228.332	2540
228.398	1079
228.464	2867
228.530	1530
228.595	2547
228.661	1547
228.727	2272
228.792	2787
228.858	1861
228.924	1345
228.990	4048
229.055	1783
229.121	3399
229.187	2135
229.252	785
229.318	856
229.384	852
229.449	943
229.515	346
229.581	614
229.646	2054
229.712	795
229.777	612
229.843	932
229.909	2314
229.974	2154
230.040	2688
230.105	2528
230.171	2918
230.236	5580
230.302	9984
230.368	4909
230.433	2731
230.499	3212
230.564	2954
230.630	1833
230.695	1852
230.761	2175
230.826	703
230.892	2784
230.957	1048
231.023	1266
231.088	1697
231.154	1407
231.219	2472
231.284	2056
231.350	2503
231.415	1788
231.481	2260
231.546	1498
231.612	1214
231.677	1584
231.742	872
231.808	1699
231.873	761
231.939	-44
232.004	2235
232.069	2228
232.135	1668
232.200	2239
232.265	1960
232.331	756
232.396	991
232.461	219
232.527	765
232.592	-399
232.657	764
232.723	1123
232.788	1110
232.853	472
232.918	1620
232.984	-287
233.049	738
233.114	-200
233.179	1654
233.245	1393
233.310	1511
233.375	-96
233.440	1456
233.506	1059
233.571	586
233.636	1580
233.701	770
233.766	762
233.832	1196
233.897	475
233.962	-37
234.027	1468
234.092	1269
234.157	1290
234.222	801
234.288	1458
234.353	1613
234.418	2787
234.483	2942
234.548	1420
234.613	2169
234.678	1609
234.743	1057
234.808	3514
234.873	2105
234.938	2706
235.004	2550
235.069	2174
235.134	1999
235.199	2028
235.264	2098
235.329	1003
235.394	2745
235.459	2548
235.524	1486
235.589	2337
235.654	2473
235.719	547
235.784	3357
235.849	1770
235.913	2826
235.978	2145
236.043	2686
236.108	2397
236.173	2375
236.238	3235
236.303	3314
236.368	2935
236.433	4004
236.498	5091
236.563	9275
236.627	23584
236.692	77788
236.757	73798
236.822	27855
236.887	14836
236.952	13969
237.017	10418
237.081	12105
237.146	14479
237.211	40990
237.276	81001
237.341	119145
237.405	61816
237.470	25154
237.535	14079
237.600	9906
237.664	7825
237.729	5963
237.794	8740
237.859	23213
237.923	12427
237.988	5424
238.053	4560
238.118	4107
238.182	5567
238.247	5665
238.312	2210
238.376	3017
238.441	739
238.506	3399
238.570	1272
238.635	3600
238.700	2486
238.764	1610
238.829	2358
238.893	1527
238.958	2678
239.023	2616
239.087	1499
239.152	3126
239.216	1136
239.281	2722
239.346	1740
239.410	2040
239.475	1455
239.539	3164
239.604	2043
239.668	3107
239.733	1853
239.797	3926
239.862	11086
239.926	6409
239.991	2135
240.055	1555
240.120	1337
240.184	1772
240.249	-144
240.313	1029
240.378	198
240.442	1926
240.507	2582
240.571	1276
240.635	244
240.700	1451
240.764	-210
240.829	914
240.893	-1155
240.957	1548
241.022	1941
241.086	2042
241.151	333
241.215	-347
241.279	1965
241.344	2020
241.408	2091
241.472	1887
241.537	3412
241.601	3231
241.665	1247
241.730	1816
241.794	2492
241.858	1808
241.922	2051
241.987	2784
242.051	2030
242.115	1483
242.179	1694
242.244	1684
242.308	2712
242.372	2786
242.436	1111
242.501	2065
242.565	1391
242.629	3064
242.693	2009
242.757	1407
242.822	1190
242.886	1886
242.950	2828
243.014	2166
243.078	2410
243.142	2358
243.206	2141
243.271	2825
243.335	3707
243.399	10168
243.463	40438
243.527	111386
243.591	36272
243.655	10556
243.719	5507
243.783	6184
243.847	10925
243.911	15661
243.975	5267
244.040	2423
244.104	3552
244.168	2676
244.232	2038
244.296	5669
244.360	12149
244.424	2358
244.488	2918
244.552	2276
244.615	631
244.679	1891
244.743	607
244.807	367
244.871	1747
244.935	2075
244.999	128
245.063	1392
245.127	2647
245.191	7572
245.255	7471
245.319	2558
245.383	-487
245.446	2842
245.510	7
245.574	1457
245.638	1407
245.702	-77
245.766	2061
245.829	1992
245.893	683
245.957	1295
246.021	2637
246.085	1889
246.149	789
246.212	2668
246.276	2560
246.340	1270
246.404	1857
246.467	2297
246.531	-472
246.595	3186
246.659	1661
246.722	755
246.786	775
246.850	1997
246.913	845
246.977	924
247.041	1289
247.104	1466
247.168	1054
247.232	1955
247.295	4488
247.359	2698
247.423	487
247.486	2078
247.550	1418
247.614	1187
247.677	1605
247.741	1013
247.804	503
247.868	2445
247.932	1256
247.995	5481
248.059	1986
248.122	731
248.186	3015
248.249	3156
248.313	9884
248.376	10565
248.440	4084
248.503	1093
248.567	3486
248.630	1536
248.694	3398
248.757	5998
248.821	13012
248.884	7914
248.948	4796
249.011	8040
249.075	12463
249.138	11053
249.202	4096
249.265	3202
249.328	4809
249.392	2846
249.455	3997
249.519	3933
249.582	3224
249.645	4378
249.709	3979
249.772	4044
249.835	4674
249.899	4419
249.962	4501
250.025	3966
250.089	5527
250.152	6998
250.215	4904
250.279	4970
250.342	5030
250.405	5918
250.468	5579
250.532	9951
250.595	20070
250.658	90507
250.721	160418
250.785	49318
250.848	21915
250.911	13520
250.974	12604
251.038	10451
251.101	12564
251.164	9490
251.227	10496
251.290	13898
251.354	29085
251.417	128244
251.480	139514
251.543	95343
251.606	234856
251.669	191387
251.732	67696
251.795	40868
251.859	49747
251.922	147579
251.985	88044
252.048	28502
252.111	17625
252.174	13524
252.237	16458
252.300	28542
252.363	59898
252.426	173626
252.489	71216
252.552	25116
252.615	15725
252.678	16050
252.741	24447
252.804	67374
252.867	187936
252.930	80266
252.993	25804
253.056	16841
253.119	10697
253.182	11846
253.245	32652
253.308	19947
253.371	6616
253.434	6283
253.497	4626
253.559	5870
253.622	4224
253.685	3855
253.748	2326
253.811	2788
253.874	3418
253.937	1708
254.000	2431
254.062	3440
254.125	4061
254.188	4715
254.251	2150
254.314	1931
254.376	1692
254.439	3005
254.502	2083
254.565	1932
254.628	4667
254.690	2840
254.753	1032
254.816	1351
254.878	1283
254.941	3364
255.004	2229
255.067	1799
255.129	360
255.192	1324
255.255	-533
255.317	1458
255.380	1249
255.443	1084
255.505	473
255.568	1262
255.631	744
255.693	1338
255.756	429
255.819	2033
255.881	852
255.944	2146
256.006	594
256.069	791
256.132	1382
256.194	1932
256.257	2063
256.319	2968
256.382	2748
256.444	4286
256.507	3492
256.569	3647
256.632	3950
256.694	9150
256.757	37951
256.819	128147
256.882	54453
256.944	17873
257.007	11112
257.069	6641
257.132	5009
257.194	5885
257.257	4582
257.319	5109
257.381	8733
257.444	28841
257.506	138242
257.569	153318
257.631	43708
257.693	19496
257.756	12440
257.818	8041
257.880	5726
257.943	4887
258.005	2252
258.067	3196
258.130	3308
258.192	2361
258.254	2137
258.317	2720
258.379	1867
258.441	2894
258.503	2936
258.566	2639
258.628	4571
258.690	1806
258.753	2994
258.815	2781
258.877	2129
258.939	1919
259.001	2863
259.064	1692
259.126	1374
259.188	2311
259.250	2364
259.312	2171
259.375	1993
259.437	2416
259.499	2545
259.561	1265
259.623	1569
259.685	994
259.747	796
259.809	2669
259.872	3718
259.934	7906
259.996	6263
260.058	1658
260.120	679
260.182	2202
260.244	1161
260.306	431
260.368	1242
260.430	-325
260.492	1401
260.554	2112
260.616	874
260.678	1571
260.740	2802
260.802	192
260.864	926
260.926	572
260.988	1833
261.050	407
261.112	581
261.174	4316
261.236	3444
261.298	1246
261.359	1634
261.421	3392
261.483	289
261.545	1893
261.607	-843
261.669	1864
261.731	866
261.793	2472
261.854	-416
261.916	1120
261.978	187
262.040	752
262.102	1352
262.164	1134
262.225	245
262.287	870
262.349	31
262.411	1319
262.472	1655
262.534	1139
262.596	1565
262.658	1659
262.719	112
262.781	1816
262.843	621
262.904	1895
262.966	2731
263.028	6465
263.090	39569
263.151	129073
263.213	35052
263.275	9602
263.336	5893
263.398	4306
263.459	1984
263.521	2453
263.583	1723
263.644	656
263.706	521
263.767	198
263.829	1051
263.891	1344
263.952	256
264.014	420
264.075	43
264.137	1479
264.198	524
264.260	245
264.321	217
264.383	618
264.444	1110
264.506	1066
264.567	977
264.629	1583
264.690	-376
264.752	872
264.813	1840
264.875	530
264.936	1221
264.998	842
265.059	2298
265.120	2763
265.182	9155
265.243	64245
265.305	71392
265.366	15349
265.427	6823
265.489	5267
265.550	2392
265.611	2028
265.673	1488
265.734	1414
265.795	2067
265.857	2287
265.918	4337
265.979	16223
266.040	104634
266.102	96347
266.163	21325
266.224	9926
266.286	6281
266.347	2894
266.408	2274
266.469	2402
266.530	981
266.592	1441
266.653	979
266.714	1202
266.775	306
266.836	209
266.898	535
266.959	755
267.020	537
267.081	2414
267.142	1229
267.203	285
267.264	771
267.326	1488
267.387	-85
267.448	336
267.509	816
267.570	4
267.631	316
267.692	269
267.753	994
267.814	193
267.875	493
267.936	1593
267.997	1341
268.058	2153
268.119	1291
268.180	952
268.241	-193
268.302	827
268.363	-54
268.424	817
268.485	260
268.546	700
268.607	-103
268.668	549
268.729	-122
268.790	-115
268.851	-168
268.912	365
268.972	888
269.033	377
269.094	-686
269.155	691
269.216	212
269.277	-299
269.338	196
269.398	734
269.459	-276
269.520	745
269.581	782
269.642	744
269.702	32
269.763	950
269.824	755
269.885	464
269.945	280
270.006	213
270.067	-74
270.128	1076
270.188	-279
270.249	-139
270.310	-543
270.370	683
270.431	73
270.492	293
270.553	183
270.613	375
270.674	755
270.734	-220
270.795	85
270.856	707
270.916	-672
270.977	-58
271.038	-201
271.098	212
271.159	-119
271.219	0
271.280	350
271.340	-160
271.401	-734
271.462	638
271.522	686
271.583	949
271.643	-113
271.704	-296
271.764	110
271.825	1008
271.885	6246
271.946	11466
272.006	2016
272.066	3613
272.127	6600
272.187	3212
272.248	1180
272.308	707
272.369	2258
272.429	2222
272.489	221
272.550	437
272.610	488
272.671	205
272.731	-378
272.791	682
272.852	-1242
272.912	571
272.972	-273
273.033	1206
273.093	-405
273.153	483
273.214	-476
273.274	310
273.334	792
273.394	2493
273.455	342
273.515	-302
273.575	871
273.635	171
273.696	938
273.756	3616
273.816	1030
273.876	9
273.936	108
273.997	2512
274.057	-767
274.117	26
274.177	711
274.237	3993
274.297	3491
274.358	1858
274.418	1614
274.478	1866
274.538	16
274.598	-291
274.658	1993
274.718	1983
274.778	164
274.838	412
274.898	-46
274.958	3041
275.018	3434
275.078	1709
275.138	-43
275.198	-305
275.258	-802
275.318	180
275.378	-244
275.438	-210
275.498	363
275.558	1126
275.618	3425
275.678	1515
275.738	761
275.798	905
275.858	-2
275.918	-1167
275.978	-229
276.038	-191
276.098	-381
276.157	-389
276.217	713
276.277	139
276.337	-558
276.397	123
276.457	-284
276.517	-489
276.576	93
276.636	-477
276.696	-639
276.756	-222
276.815	-311
276.875	280
276.935	-429
276.995	-136
277.055	111
277.114	36
277.174	399
277.234	522
277.293	-832
277.353	-3
277.413	-578
277.472	-784
277.532	-280
277.592	428
277.651	477
277.711	764
277.771	-377
277.830	1385
277.890	612
277.950	675
278.009	3848
278.069	1663
278.128	276
278.188	1897
278.248	915
278.307	827
278.367	815
278.426	559
278.486	-517
278.545	-543
278.605	-10
278.664	-544
278.724	852
278.783	1146
278.843	3415
278.902	732
278.962	233
279.021	-152
279.081	287
279.140	824
279.199	1466
279.259	1852
279.318	2429
279.378	2623
279.437	2943
279.496	9585
279.556	40898
279.615	34221
279.675	6852
279.734	3822
279.793	3480
279.853	5754
279.912	1887
279.971	641
280.031	365
280.090	1524
280.149	2927
280.208	3268
280.268	20857
280.327	25269
280.386	4211
280.445	1237
280.505	762
280.564	119
280.623	-947
280.682	181
280.742	661
280.801	-354
280.860	-481
280.919	108
280.978	-1087
281.037	-142
281.097	-395
281.156	504
281.215	-361
281.274	493
281.333	859
281.392	321
281.451	-222
281.510	1
281.569	-511
281.628	268
281.688	135
281.747	-10
281.806	-979
281.865	-260
281.924	-326
281.983	-125
282.042	-446
282.101	-297
282.160	-402
282.219	61
282.278	-51
282.337	535
282.396	-539
282.454	57
282.513	-1139
282.572	466
282.631	-965
282.690	-304
282.749	-619
282.808	-308
282.867	182
282.926	-484
282.985	-628
283.043	-335
283.102	-429
283.161	15
283.220	256
283.279	196
283.338	-434
283.396	365
283.455	-123
283.514	59
283.573	-200
283.631	-355
283.690	-638
283.749	54
283.808	-436
283.866	119
283.925	-1390
283.984	339
284.043	197
284.101	-391
284.160	-744
284.219	513
284.277	380
284.336	-225
284.395	645
284.453	1127
284.512	345
284.570	351
284.629	119
284.688	135
284.746	17
284.805	-1
284.863	669
284.922	1220
284.981	565
285.039	1206
285.098	3033
285.156	10567
285.215	56424
285.273	64997
285.332	23604
285.390	9631
285.449	4683
285.507	2488
285.566	1177
285.624	985
285.683	1676
285.741	747
285.799	162
285.858	570
285.916	62
285.975	-246
286.033	-50
286.091	490
286.150	-154
286.208	633
286.267	156
286.325	51
286.383	153
286.442	-80
286.500	-104
286.558	746
286.616	65
286.675	491
286.733	692
286.791	338
286.850	1050
286.908	766
286.966	244
287.024	66
287.083	1045
287.141	1048
287.199	1279
287.257	910
287.315	1324
287.374	1526
287.432	1480
287.490	1727
287.548	1272
287.606	1949
287.664	1668
287.723	3082
287.781	2969
287.839	4093
287.897	5291
287.955	10105
288.013	20324
288.071	52271
288.129	183313
288.187	469442
288.245	239574
288.303	77646
288.361	41575
288.419	28306
288.477	19561
288.535	14161
288.593	9806
288.651	6561
288.709	3436
288.767	3511
288.825	1790
288.883	2573
288.941	2529
288.999	1302
289.057	1230
289.115	1087
289.173	1425
289.231	1868
289.289	661
289.346	1002
289.404	1022
289.462	1392
289.520	-99
289.578	923
289.636	73
289.694	780
289.751	639
289.809	656
289.867	760
289.925	876
289.983	167
290.040	1349
290.098	615
290.156	475
290.214	356
290.271	-254
290.329	491
290.387	286
290.444	-217
290.502	112
290.560	194
290.617	149
290.675	-86
290.733	-157
290.790	-251
290.848	-391
290.906	-177
290.963	-21
291.021	-146
291.078	-541
291.136	-708
291.194	-337
291.251	-347
291.309	-153
291.366	111
291.424	-848
291.481	-201
291.539	-241
291.596	-166
291.654	-118
291.711	-129
291.769	-71
291.826	-616
291.884	-86
291.941	-42
291.999	-407
292.056	-1682
292.114	-145
292.171	-494
292.228	-44
292.286	-407
292.343	-944
292.401	-387
292.458	-511
292.515	-1118
292.573	113
292.630	-116
292.687	-119
292.745	-122
292.802	222
292.859	-226
292.917	1241
292.974	-224
293.031	-193
293.089	-1160
293.146	-467
293.203	13
293.260	-113
293.318	-1172
293.375	63
293.432	-549
293.489	-406
293.546	-320
293.604	-592
293.661	521
293.718	3150
293.775	666
293.832	-200
293.889	3
293.947	15
294.004	117
294.061	-916
294.118	103
294.175	703
294.232	-842
294.289	-447
294.346	-51
294.403	1903
294.460	-482
294.517	-215
294.574	-797
294.631	106
294.688	-390
294.745	184
294.802	2643
294.859	2003
294.916	127
294.973	150
295.030	-468
295.087	191
295.144	-345
295.201	-589
295.258	-243
295.315	-747
295.372	880
295.429	2464
295.486	-578
295.542	-178
295.599	-986
295.656	91
295.713	245
295.770	1474
295.827	192
295.883	-264
295.940	-809
295.997	-499
296.054	-991
296.111	359
296.167	47
296.224	-717
296.281	-1099
296.338	-186
296.394	-393
296.451	-831
296.508	-648
296.564	796
296.621	867
296.678	4359
296.734	6337
296.791	1068
296.848	590
296.904	-17
296.961	419
297.018	2852
297.074	2403
297.131	661
297.187	21
297.244	731
297.301	2485
297.357	6826
297.414	582
297.470	822
297.527	-500
297.583	469
297.640	82
297.696	-390
297.753	-966
297.809	-737
297.866	-1198
297.922	-223
297.979	-1001
298.035	31
298.092	-831
298.148	276
298.204	425
298.261	584
298.317	1606
298.374	4942
298.430	1527
298.486	1416
298.543	-584
298.599	1029
298.656	2313
298.712	8995
298.768	42902
298.824	40303
298.881	9462
298.937	4988
298.993	2943
299.050	2265
299.106	1894
299.162	1297
299.218	502
299.275	629
299.331	146
299.387	1463
299.443	4654
299.500	9109
299.556	5638
299.612	2147
299.668	1391
299.724	5166
299.780	6254
299.837	1892
299.893	685
299.949	3705
300.005	7291
300.061	4366
300.117	10945
300.173	4286
300.229	1302
300.285	729
300.341	-152
300.397	832
300.453	-167
300.510	281
300.566	429
300.622	2467
300.678	12759
300.734	17583
300.790	5763
300.845	5303
300.901	4770
300.957	8642
301.013	2403
301.069	975
301.125	779
301.181	-389
301.237	603
301.293	309
301.349	-602
301.405	-783
301.461	-1138
301.516	-264
301.572	-80
301.628	-820
301.684	-1154
301.740	-119
301.796	-193
301.851	108
301.907	18
301.963	1438
302.019	4938
302.074	19076
302.130	19095
302.186	6959
302.242	2564
302.297	1349
302.353	1031
302.409	536
302.464	486
302.520	1310
302.576	2097
302.631	2750
302.687	135
302.743	926
302.798	647
302.854	732
302.910	-12
302.965	1023
303.021	1027
303.076	1064
303.132	755
303.187	643
303.243	78
303.299	326
303.354	927
303.410	541
303.465	126
303.521	856
303.576	-152
303.632	756
303.687	1115
303.743	4255
303.798	2831
303.853	678
303.909	293
303.964	95
304.020	165
304.075	1333
304.130	-14
304.186	1180
304.241	1979
304.297	2306
304.352	806
304.358	808
304.407	822
304.449	283
304.463	100
304.518	180
304.539	42
304.573	-187
304.629	645
304.630	662
304.684	1353
304.720	2444
304.739	2983
304.794	5340
304.811	4550
304.850	2601
304.902	2109
304.905	2101
304.960	2467
304.992	4725
305.015	6105
305.071	5262
305.083	4437
305.126	1536
305.173	945
305.181	880
305.236	1179
305.264	907
305.292	612
305.347	1160
305.354	1337
305.402	2987
305.445	4638
305.457	4922
305.512	6383
305.535	5031
305.567	3251
305.622	2925
305.626	3106
305.678	8321
305.716	15991
305.733	17915
305.788	11423
305.807	9147
305.843	6396
305.897	7754
305.898	7764
305.953	7474
305.988	5971
306.008	5143
306.063	3290
306.078	2723
306.118	1647
306.168	1458
306.173	1430
306.228	1321
306.259	1465
306.283	1777
306.338	2576
306.349	2853
306.393	4952
306.440	8589
306.448	8800
306.503	6587
306.530	5364
306.558	5751
306.613	9831
306.620	10038
306.668	8562
306.711	6025
306.723	5474
306.778	3994
306.801	3467
306.833	3296
306.888	3025
306.892	3054
306.943	3228
306.982	2660
306.997	2508
307.052	2643
307.072	2668
307.107	2809
307.162	2934
307.163	2934
307.217	3497
307.253	3567
307.272	3561
307.327	3460
307.343	3744
307.381	4628
307.434	4050
307.436	4054
307.491	5218
307.524	6179
307.546	6600
307.600	7277
307.614	7252
307.655	7350
307.704	7732
307.710	7875
307.765	9503
307.795	10314
307.819	11470
307.874	14973
307.885	15675
307.929	21115
307.975	28299
307.984	31742
308.038	57451
308.065	74898
308.093	139374
308.148	287673
308.156	316203
308.202	456749
308.246	559318
308.257	535104
308.312	287165
308.336	182599
308.366	129477
308.421	65742
308.426	60624
308.475	43963
308.517	33284
308.530	31554
308.585	26617
308.607	24340
308.639	21952
308.694	19824
308.697	19699
308.748	19706
308.787	20307
308.803	20977
308.857	23014
308.877	23897
308.912	27418
308.967	34023
308.967	34067
309.021	52211
309.058	66528
309.076	89194
309.130	166447
309.148	195393
309.185	372366
309.238	661396
309.239	663805
309.293	694679
309.328	655842
309.348	566213
309.402	281299
309.418	206683
309.457	143516
309.508	77232
309.511	75621
309.566	53266
309.598	41486
309.620	37794
309.674	28903
309.688	26888
309.729	22981
309.778	18824
309.783	18546
309.837	15781
309.868	14449
309.892	13881
309.946	12673
309.959	12577
310.001	12768
310.049	12335
310.055	12060
310.109	9702
310.139	8221
310.163	7703
310.218	7085
310.229	6945
310.272	6764
310.319	6511
310.326	6431
310.381	5634
310.409	5341
310.435	5359
310.489	5283
310.499	5256
310.543	5061
310.589	4912
310.598	4903
310.652	4847
310.679	4689
310.706	4503
310.760	4227
310.769	4171
310.814	4114
310.859	4031
310.868	4081
310.923	4256
310.948	4329
310.977	4272
311.031	4239
311.038	4213
311.085	4076
311.128	3791
311.139	3761
311.193	3812
311.218	3717
311.247	3780
311.301	3934
311.308	3936
311.356	3897
311.398	3880
311.410	3942
311.464	4125
311.488	4183
311.518	3959
311.572	3507
311.578	3437
311.626	3480
311.668	3609
311.680	3760
311.734	4298
311.758	4487
311.788	4169
311.842	3637
311.847	3562
311.896	4184
311.937	4736
311.950	4641
312.004	4113
312.027	3876
312.058	3980
312.112	4129
312.117	4131
312.165	4156
312.207	4155
312.297	4525
312.386	3852
312.476	3854
312.566	4750
312.656	2844
312.745	3929
312.835	3886
312.925	4374
313.015	4610
313.104	3850
313.194	4529
313.284	4065
313.374	4010
313.463	4455
313.553	3434
313.643	3386
313.732	4278
313.822	4822
313.912	4601
314.001	4846
314.091	4868
314.180	4463
314.270	5549
314.360	4949
314.449	4206
314.539	4491
314.628	3695
314.718	4445
314.808	4771
314.897	4384
314.987	5442
315.076	4968
315.166	4706
315.255	5055
315.345	5321
315.434	5030
315.524	5576
315.613	6556
315.703	9290
315.792	24822
315.881	111924
315.971	35156
316.060	8957
316.150	6398
316.239	4796
316.328	4159
316.418	4858
316.507	4622
316.597	5627
316.686	5139
316.775	4975
316.865	4795
316.954	4408
317.043	4245
317.133	4455
317.222	4039
317.311	4558
317.400	3534
317.490	6674
317.579	6165
317.668	9545
317.757	16000
317.847	49615
317.936	195046
318.025	51322
318.114	31758
318.203	14469
318.293	5514
318.382	5759
318.471	5158
318.560	5885
318.649	5079
318.738	3458
318.828	3306
318.917	3058
319.006	2194
319.095	3183
319.184	5783
319.273	4188
319.362	3183
319.451	2316
319.540	2881
319.629	2996
319.718	4278
319.807	3005
319.896	3175
319.985	5591
320.074	4071
320.163	2872
320.252	2068
320.341	2450
320.430	2077
320.519	3680
320.608	3518
320.697	4043
320.786	3555
320.875	4248
320.964	3888
321.053	4678
321.142	6099
321.230	6443
321.319	6368
321.408	7194
321.497	5977
321.586	5716
321.675	5046
321.764	4607
321.852	4625
321.941	5550
322.030	4308
322.119	5202
322.207	7875
322.296	7532
322.385	7407
322.474	7909
322.562	9698
322.651	6665
322.740	5747
322.829	5163
322.917	4351
323.006	4072
323.095	4413
323.183	3480
323.272	3800
323.361	4030
323.449	7558
323.538	4513
323.626	5214
323.715	4673
323.804	3023
323.892	4895
323.981	3233
324.069	3502
324.158	4243
324.246	3485
324.335	3159
324.424	3159
324.512	3292
324.601	3459
324.689	2998
324.778	4350
324.866	3410
324.954	2638
325.043	2702
325.131	3140
325.220	4498
325.308	2752
325.397	3416
325.485	3224
325.574	2242
325.662	2230
325.750	2732
325.839	2600
325.927	2058
326.015	2690
326.104	3176
326.192	3387
326.280	2521
326.369	2479
326.457	2313
326.545	2911
326.634	2543
326.722	2685
326.810	2777
326.898	3505
326.987	3180
327.075	2609
327.163	4444
327.251	2797
327.340	2932
327.428	4383
327.516	3496
327.604	2919
327.692	3550
327.781	3027
327.869	2464
327.957	2661
328.045	2570
328.133	2656
328.221	2363
328.309	3268
328.397	2830
328.485	3507
328.574	3812
328.662	5869
328.750	4156
328.838	2701
328.926	2807
329.014	2631
329.102	2335
329.190	3402
329.278	3429
329.366	2840
329.454	2679
329.542	3910
329.630	3011
329.718	4312
329.806	3967
329.893	7132
329.981	10669
330.069	29765
330.157	116704
330.245	336781
330.333	169492
330.421	25187
330.509	9316
330.597	6670
330.684	5269
330.772	3688
330.860	3174
330.948	3580
331.036	2964
331.123	2536
331.211	3004
331.299	2516
331.387	2465
331.475	2814
331.562	2363
331.650	2078
331.738	2035
331.825	2628
331.913	1811
332.001	2363
332.089	2284
332.176	2349
332.264	2791
332.352	2460
332.439	2087
332.527	2601
332.614	2136
332.702	2217
332.790	2118
332.877	1680
332.965	3096
333.052	1901
333.140	1040
333.228	2875
333.315	2051
333.403	2381
333.490	2737
333.578	2416
333.665	3009
333.753	3180
333.840	2963
333.928	3291
334.015	3798
334.103	4241
334.190	7412
334.278	6393
334.365	8854
334.452	8951
334.540	4806
334.627	4937
334.715	6993
334.802	9797
334.889	17873
334.977	22504
335.064	13480
335.151	6948
335.239	5370
335.326	3942
335.413	5176
335.501	6134
335.588	4948
335.675	5206
335.762	5865
335.850	7729
335.937	12178
336.024	18829
336.111	30217
336.199	25908
336.286	11995
336.373	6790
336.460	5197
336.547	3470
336.635	3676
336.722	3290
336.809	2464
336.896	2372
336.983	2803
337.070	5392
337.157	5368
337.245	4891
337.332	4092
337.419	2515
337.506	1968
337.593	2589
337.680	2689
337.767	4290
337.854	1994
337.941	2829
338.028	3750
338.115	4001
338.202	3084
338.289	2416
338.376	4807
338.463	3096
338.550	2458
338.637	2470
338.724	2480
338.811	2427
338.898	2043
338.984	2137
339.071	1192
339.158	2061
339.245	2476
339.332	2428
339.419	2569
339.506	2718
339.593	1312
339.679	2321
339.766	1637
339.853	1443
339.940	1702
340.027	2152
340.113	1637
340.200	1785
340.287	1158
340.374	1803
340.460	1868
340.547	1538
340.634	2802
340.720	4386
340.807	1959
340.894	1792
340.980	2513
341.067	1663
341.154	2043
341.240	1221
341.327	2776
341.414	2329
341.500	1258
341.587	2157
341.674	2271
341.760	1954
341.847	2009
341.933	1716
342.020	678
342.106	1616
342.193	2040
342.279	2223
342.366	1785
342.452	2099
342.539	1447
342.625	2107
342.712	2837
342.798	2705
342.885	1461
342.971	1411
343.058	1695
343.144	1609
343.230	2093
343.317	2711
343.403	1357
343.490	1608
343.576	1058
343.662	1507
343.749	1854
343.835	2752
343.921	3240
344.008	14196
344.094	28836
344.180	5680
344.267	2533
344.353	4796
344.439	3926
344.525	1987
344.612	2844
344.698	2525
344.784	1206
344.870	1617
344.957	1714
345.043	2385
345.129	1142
345.215	1863
345.301	2084
345.387	2074
345.474	2097
345.560	1727
345.646	1192
345.732	1939
345.818	1491
345.904	1639
345.990	1984
346.076	1315
346.162	1581
346.249	2633
346.335	1692
346.421	4687
346.507	4742
346.593	7100
346.679	1537
346.765	2658
346.851	2143
346.937	2376
347.023	2311
347.108	1580
347.194	1565
347.280	1651
347.366	2128
347.452	6766
347.538	12074
347.624	8603
347.710	4674
347.796	1992
347.882	2167
347.967	1855
348.053	1480
348.139	1986
348.225	1197
348.311	1465
348.397	1065
348.482	1831
348.568	1546
348.654	2869
348.740	6355
348.825	7448
348.911	4343
348.997	5188
349.083	9071
349.168	1697
349.254	1790
349.340	2114
349.425	1817
349.511	1646
349.597	2006
349.682	2087
349.768	4210
349.854	2402
349.939	1788
350.025	1548
350.110	2088
350.196	1876
350.282	761
350.367	2573
350.453	1409
350.538	1833
350.624	1570
350.709	1705
350.795	1176
350.880	1886
350.966	2949
351.051	1871
351.137	1202
351.222	2356
351.308	2142
351.393	3391
351.479	1468
351.564	907
351.649	1866
351.735	1099
351.820	769
351.906	839
351.991	1192
352.076	2397
352.162	3235
352.247	1658
352.332	1213
352.418	1345
352.503	1815
352.588	4597
352.673	2701
352.759	1729
352.844	714
352.929	2574
353.014	1358
353.100	2536
353.185	2147
353.270	1580
353.355	2562
353.441	1750
353.526	909
353.611	2100
353.696	1530
353.781	1756
353.866	629
353.952	1865
354.037	836
354.122	3053
354.207	1792
354.292	1989
354.377	1049
354.462	2631
354.547	1506
354.632	2419
354.717	2809
354.802	2124
354.887	955
354.972	1307
355.057	831
355.142	1037
355.227	1490
355.312	1336
355.397	2075
355.482	3513
355.567	2286
355.652	2210
355.737	2233
355.822	4430
355.907	3004
355.991	2419
356.076	1037
356.161	2052
356.246	1398
356.331	1766
356.416	849
356.501	11485
356.585	10678
356.670	1367
356.755	3260
356.840	2011
356.924	8695
357.009	32483
357.094	11701
357.179	2476
357.263	2908
357.348	2762
357.433	1526
357.517	2524
357.602	1692
357.687	1859
357.771	2192
357.856	1717
357.941	3051
358.025	10109
358.110	51211
358.195	21622
358.279	3219
358.364	2386
358.448	3914
358.533	6617
358.617	5347
358.702	5648
358.787	2964
358.871	2052
358.956	1602
359.040	894
359.125	1925
359.209	2698
359.294	1958
359.378	2265
359.462	2404
359.547	2676
359.631	1136
359.716	498
359.800	1024
359.885	1938
359.969	842
360.053	2050
360.138	1600
360.222	1606
360.306	2220
360.391	2177
360.475	2591
360.559	2519
360.644	2969
360.728	2550
360.812	7028
360.896	16587
360.981	4937
361.065	3053
361.149	2458
361.233	2647
361.318	948
361.402	1693
361.486	2675
361.570	1901
361.654	1954
361.739	2725
361.823	11120
361.907	19735
361.991	4870
362.075	3633
362.159	4522
362.243	9508
362.327	19325
362.411	30632
362.495	12524
362.580	5606
362.664	5453
362.748	5289
362.832	9203
362.916	18804
363.000	56747
363.084	87647
363.168	44635
363.252	11632
363.336	6412
363.420	5508
363.503	5551
363.587	5885
363.671	3057
363.755	3136
363.839	5145
363.923	3532
364.007	6091
364.091	7027
364.175	10634
364.258	28845
364.342	65906
364.426	132112
364.510	66043
364.594	18942
364.677	9317
364.761	17178
364.845	13050
364.929	4217
365.013	3607
365.096	3210
365.180	3077
365.264	2886
365.347	5739
365.431	2494
365.515	1331
365.598	1666
365.682	2750
365.766	1100
365.849	1999
365.933	2273
366.017	2520
366.100	1811
366.184	1355
366.267	2551
366.351	2178
366.435	1109
366.518	1441
366.602	1464
366.685	1652
366.769	1675
366.852	1499
366.936	2015
367.019	1776
367.103	1232
367.186	3131
367.270	2058
367.353	1433
367.436	3008
367.520	728
367.603	2214
367.687	865
367.770	2280
367.853	2244
367.937	3905
368.020	5962
368.104	1312
368.187	2397
368.270	2753
368.353	1576
368.437	2725
368.520	2885
368.603	2391
368.687	3237
368.770	5664
368.853	2079
368.936	2314
369.020	1982
369.103	1875
369.186	987
369.269	1082
369.352	1462
369.436	2002
369.519	2259
369.602	531
369.685	2662
369.768	1303
369.851	2486
369.934	573
370.018	1400
370.101	1322
370.184	3338
370.267	2927
370.350	1316
370.433	3242
370.516	13194
370.599	41484
370.682	17948
370.765	6064
370.848	5320
370.931	6651
371.014	4173
371.097	-361
371.180	2085
371.263	1408
371.346	155
371.429	2154
371.511	1536
371.594	1487
371.677	1993
371.760	2724
371.843	2313
371.926	17201
372.009	43569
372.091	12734
372.174	2812
372.257	8519
372.340	2675
372.423	2183
372.505	2820
372.588	1583
372.671	3146
372.754	6750
372.836	3875
372.919	3456
373.002	3202
373.085	1238
373.167	1970
373.250	4032
373.332	8316
373.415	21499
373.498	50521
373.580	25071
373.663	72392
373.746	79897
373.828	12739
373.911	4816
373.993	2897
374.076	3937
374.159	3405
374.241	3268
374.324	6743
374.406	6033
374.489	10051
374.571	26689
374.654	8412
374.736	5721
374.819	13746
374.901	27972
374.983	30986
375.066	6249
375.148	2664
375.231	3986
375.313	4981
375.395	2986
375.478	2215
375.560	3047
375.643	2572
375.725	5489
375.807	19602
375.890	15471
375.972	2667
376.054	2558
376.136	2842
376.219	2215
376.301	5635
376.383	13097
376.465	5489
376.548	3397
376.630	3983
376.712	10159
376.794	4979
376.877	2132
376.959	1064
377.041	1869
377.123	1074
377.205	1149
377.287	1289
377.369	1617
377.452	1598
377.534	873
377.616	1387
377.698	614
377.780	494
377.862	1175
377.944	2545
378.026	1403
378.108	1995
378.190	1574
378.272	1606
378.354	1491
378.436	334
378.518	435
378.600	1342
378.682	2126
378.764	3619
378.846	3689
378.928	1452
379.010	1424
379.091	2534
379.173	1808
379.255	775
379.337	1423
379.419	2690
379.501	5657
379.583	1899
379.664	2127
379.746	1065
379.828	3842
379.910	3536
379.991	4602
380.073	1621
380.155	1297
380.237	1308
380.318	1192
380.400	847
380.482	2079
380.564	1944
380.645	2134
380.727	1688
380.809	2252
380.890	1397
380.972	409
381.053	877
381.135	1146
381.217	1052
381.298	4083
381.380	2102
381.461	3158
381.543	10748
381.624	12192
381.706	2169
381.787	2522
381.869	2461
381.951	7048
382.032	31458
382.113	19760
382.195	2218
382.276	3580
382.358	3476
382.439	8142
382.521	13277
382.602	23323
382.684	9083
382.765	11226
382.846	7475
382.928	8898
383.009	4239
383.090	4743
383.172	11704
383.253	14729
383.334	8167
383.416	14387
383.497	6837
383.578	3165
383.659	3897
383.741	10470
383.822	25380
383.903	12266
383.984	7518
384.066	14279
384.147	8458
384.228	4097
384.309	3629
384.390	2908
384.471	2397
384.553	3094
384.634	3000
384.715	3292
384.796	2049
384.877	2767
384.958	4650
385.039	3825
385.120	2448
385.201	3152
385.282	2406
385.363	3571
385.444	1612
385.525	4224
385.606	8687
385.687	8336
385.768	4132
385.849	3052
385.930	16144
386.011	28536
386.092	7582
386.173	3495
386.254	3194
386.335	4754
386.416	3070
386.496	4124
386.577	5217
386.658	3230
386.739	2626
386.820	3351
386.901	2213
386.981	3559
387.062	3003
387.143	5216
387.224	6570
387.304	8175
387.385	5574
387.466	3957
387.547	5964
387.627	5064
387.708	6196
387.789	10897
387.869	10562
387.950	7358
388.031	3620
388.111	1525
388.192	4169
388.273	5097
388.353	3335
388.434	3215
388.514	4932
388.595	11615
388.676	12371
388.756	5886
388.837	5100
388.917	4252
388.998	2041
389.078	4095
389.159	3788
389.239	2680
389.320	5033
389.400	2139
389.480	4267
389.561	5950
389.641	5512
389.722	3835
389.802	3383
389.883	4590
389.963	7641
390.043	6260
390.124	3332
390.204	5539
390.284	8345
390.365	11105
390.445	51922
390.525	282743
390.605	249875
390.686	34084
390.766	9983
390.846	7712
390.927	4080
391.007	4470
391.087	5886
391.167	4686
391.247	3745
391.328	5576
391.408	6701
391.488	6409
391.568	4783
391.648	7505
391.728	8162
391.808	8490
391.888	7184
391.969	9045
392.049	9691
392.129	10312
392.209	9969
392.289	14709
392.369	12788
392.449	12913
392.529	13624
392.609	17434
392.689	19246
392.769	24976
392.849	27644
392.929	34299
393.009	48403
393.089	71491
393.169	145409
393.248	475177
393.328	1502433
393.408	1527649
393.488	469789
393.568	139952
393.648	70747
393.728	44530
393.807	34083
393.887	32201
393.967	30818
394.047	33737
394.127	43244
394.206	80259
394.286	287327
394.366	1085571
394.446	1137811
394.525	317033
394.605	87868
394.685	44544
394.764	31389
394.844	29222
394.924	27854
395.003	20327
395.083	16814
395.163	17935
395.242	17518
395.322	17862
395.402	17188
395.481	20196
395.561	22167
395.640	35307
395.720	52326
395.799	51027
395.879	65533
395.958	126322
396.038	443558
396.117	1389052
396.197	1474680
396.276	502595
396.356	154167
396.435	83194
396.515	66016
396.594	70417
396.673	128474
396.753	481773
396.832	1343766
396.912	884090
396.991	190789
397.070	65625
397.150	35365
397.229	28355
397.308	35213
397.388	53220
397.467	29090
397.546	15029
397.625	9686
397.705	11695
397.784	8741
397.863	7034
397.942	6860
398.022	6602
398.101	5655
398.180	7335
398.259	5241
398.338	5581
398.417	4354
398.497	4480
398.576	4701
398.655	2861
398.734	4236
398.813	3376
398.892	3615
398.971	4899
399.050	3100
399.129	2450
399.208	3299
399.287	3747
399.366	2716
399.445	2438
399.524	3438
399.603	1099
399.682	2209
399.761	2408
399.840	5181
399.919	3968
399.998	1499
400.077	1273
400.156	771
400.235	4020
400.313	1164
400.392	506
400.471	3586
400.550	3476
400.629	976
400.708	2994
400.786	936
400.865	1210
400.944	824
401.023	3410
401.102	706
401.180	1514
401.259	1009
401.338	902
401.416	1891
401.495	1353
401.574	1394
401.652	24
401.731	2543
401.810	1079
401.888	1357
401.967	436
402.046	877
402.124	1660
402.203	54
402.281	905
402.360	314
402.438	1981
402.517	200
402.596	1349
402.674	1242
402.753	459
402.831	1116
402.910	1929
402.988	1873
403.066	4803
403.145	4199
403.223	4729
403.302	6134
403.380	4316
403.459	3238
403.537	1836
403.615	1693
403.694	234
403.772	2142
403.850	1432
403.929	1398
404.007	949
404.085	2294
404.164	1556
404.242	1299
404.320	4682
404.398	11529
404.477	9676
404.555	15299
404.633	13580
404.711	6834
404.789	4876
404.868	1588
404.946	545
405.024	1343
405.102	1144
405.180	455
405.258	55
405.336	1351
405.415	521
405.493	1580
405.571	2288
405.649	296
405.727	258
405.805	2012
405.883	1715
405.961	1758
406.039	1037
406.117	-23
406.195	1218
406.273	1893
406.351	9272
406.429	6218
406.507	1124
406.585	146
406.663	1846
406.740	681
406.818	1115
406.896	1288
406.974	1883
407.052	85
407.130	5631
407.208	7913
407.285	3350
407.363	983
407.441	2437
407.519	2782
407.596	7728
407.674	51196
407.752	238970
407.830	166484
407.907	19831
407.985	3974
408.063	2478
408.141	1866
408.218	1968
408.296	222
408.373	507
408.451	1777
408.529	1842
408.606	532
408.684	1029
408.762	1084
408.839	1718
408.917	1748
408.994	1810
409.072	930
409.149	2455
409.227	3888
409.304	6114
409.382	6951
409.459	7777
409.537	10664
409.614	10006
409.692	6876
409.769	6715
409.846	10465
409.924	13805
410.001	7788
410.079	6384
410.156	5151
410.233	4735
410.311	6199
410.388	3831
410.465	2216
410.543	1611
410.620	2157
410.697	2243
410.775	1514
410.852	646
410.929	1960
411.006	2705
411.083	1820
411.161	1364
411.238	1974
411.315	1262
411.392	957
411.469	1262
411.547	1121
411.624	340
411.701	1355
411.778	2352
411.855	1012
411.932	1426
412.009	267
412.086	1285
412.163	855
412.240	999
412.317	1482
412.394	480
412.471	329
412.548	382
412.625	311
412.702	1396
412.779	1320
412.856	785
412.933	65
413.010	1131
413.087	1055
413.164	1343
413.241	3189
413.318	-660
413.395	843
413.471	-184
413.548	-50
413.625	916
413.702	-711
413.779	586
413.855	395
413.932	609
414.009	-735
414.086	442
414.162	428
414.239	947
414.316	2037
414.393	3288
414.469	56
414.546	-1
414.623	151
414.699	372
414.776	134
414.853	41
414.929	96
415.006	4
415.082	270
415.159	404
415.236	94
415.312	1570
415.389	267
415.465	155
415.542	903
415.618	55
415.695	405
415.771	74
415.848	591
415.924	711
416.000	209
416.077	1717
416.153	361
416.230	453
416.306	-303
416.383	73
416.459	965
416.535	129
416.612	68
416.688	751
416.764	-105
416.841	-263
416.917	624
416.993	441
417.069	593
417.146	2210
417.222	4021
417.298	1727
417.374	-422
417.451	502
417.527	46
417.603	59
417.679	747
417.755	-91
417.831	-284
417.908	767
417.984	-44
418.060	-169
418.136	622
418.212	739
418.288	673
418.364	699
418.440	-784
418.516	1072
418.592	-145
418.668	739
418.744	724
418.820	1209
418.896	586
418.972	227
419.048	-144
419.124	1374
419.200	-615
419.276	736
419.352	-597
419.428	846
419.504	-351
419.579	627
419.655	101
419.731	910
419.807	261
419.883	1592
419.959	1538
420.034	1114
420.110	1687
420.186	1946
420.262	2576
420.337	540
420.413	916
420.489	969
420.565	2201
420.640	970
420.716	1177
420.792	401
420.867	2164
420.943	1359
421.019	2001
421.094	1538
421.170	2889
421.245	2451
421.321	3673
421.397	6804
421.472	41858
421.548	142816
421.623	71794
421.699	10560
421.774	6247
421.850	4695
421.925	6028
422.001	6680
422.076	7190
422.152	9336
422.227	13471
422.302	18517
422.378	29344
422.453	55497
422.529	150296
422.604	498377
422.679	850848
422.755	510079
422.830	156316
422.905	58575
422.981	31235
423.056	20370
423.131	14617
423.207	11254
423.282	8650
423.357	7955
423.432	6367
423.508	5430
423.583	4802
423.658	4574
423.733	4125
423.808	4139
423.883	3425
423.959	4518
424.034	4462
424.109	4983
424.184	3015
424.259	3124
424.334	1849
424.409	1632
424.484	1477
424.559	1816
424.634	814
424.709	1671
424.784	1546
424.859	2540
424.934	584
425.009	1899
425.084	2489
425.159	1407
425.234	1423
425.309	248
425.384	555
425.459	-50
425.534	241
425.609	562
425.683	673
425.758	435
425.833	-45
425.908	803
425.983	678
426.058	2802
426.132	1481
426.207	1116
426.282	3252
426.357	321
426.431	1358
426.506	879
426.581	817
426.655	410
426.730	353
426.805	-28
426.879	1806
426.954	446
427.029	126
427.103	2490
427.178	6057
427.253	2588
427.327	361
427.402	839
427.476	483
427.551	839
427.625	457
427.700	1126
427.774	-396
427.849	1611
427.923	362
427.998	1329
428.072	1588
428.147	6140
428.221	40950
428.296	157563
428.370	81470
428.444	8054
428.519	1970
428.593	1356
428.667	1706
428.742	2719
428.816	11555
428.890	82785
428.965	134021
429.039	29073
429.113	3619
429.188	1479
429.262	1150
429.336	1506
429.410	1221
429.485	1463
429.559	1666
429.633	2154
429.707	2401
429.781	9781
429.855	71555
429.930	110116
430.004	24498
430.078	11587
430.152	43859
430.226	228823
430.300	226314
430.374	31608
430.448	6561
430.522	4874
430.596	5356
430.670	19811
430.744	109162
430.818	121033
430.892	17515
430.966	2702
431.040	1714
431.114	312
431.188	418
431.262	176
431.336	736
431.410	1690
431.484	-275
431.557	2102
431.631	1507
431.705	4441
431.779	31397
431.853	147236
431.927	96323
432.000	10310
432.074	1858
432.148	795
432.222	268
432.295	187
432.369	264
432.443	138
432.516	2514
432.590	7143
432.664	1245
432.737	682
432.811	-18
432.885	-169
432.958	206
433.032	3
433.106	-69
433.179	261
433.253	45
433.326	975
433.400	89
433.473	706
433.547	88
433.620	264
433.694	28
433.767	-175
433.841	-874
433.914	-252
433.988	-175
434.061	633
434.134	255
434.208	676
434.281	-67
434.355	-175
434.428	661
434.501	219
434.575	-748
434.648	62
434.721	-288
434.795	248
434.868	58
434.941	637
435.014	90
435.088	-616
435.161	255
435.234	742
435.307	1046
435.381	2368
435.454	2732
435.527	4091
435.600	5166
435.673	4262
435.746	3063
435.819	2172
435.892	1412
435.966	1163
436.039	243
436.112	1041
436.185	951
436.258	254
436.331	67
436.404	459
436.477	-84
436.550	-306
436.623	600
436.696	-469
436.769	420
436.842	-27
436.915	-556
436.987	-244
437.060	512
437.133	464
437.206	-330
437.279	-409
437.352	10
437.425	-301
437.498	-26
437.570	-61
437.643	-627
437.716	830
437.789	-558
437.861	-562
437.934	-524
438.007	39
438.080	-516
438.152	316
438.225	483
438.298	4858
438.370	11704
438.443	4126
438.516	-401
438.588	-125
438.661	-597
438.734	49
438.806	-896
438.879	466
438.951	-626
439.024	-108
439.096	19
439.169	306
439.241	418
439.314	109
439.386	931
439.459	802
439.531	172
439.604	18
439.676	504
439.749	-559
439.821	-484
439.893	645
439.966	-194
440.038	206
440.110	-341
440.183	76
440.255	-209
440.327	1235
440.400	1643
440.472	4908
440.544	3875
440.617	105
440.689	759
440.761	695
440.833	-58
440.905	-351
440.978	-537
441.050	-525
441.122	675
441.194	-682
441.266	-80
441.338	-474
441.411	-268
441.483	1954
441.555	1823
441.627	1247
441.699	156
441.771	181
441.843	591
441.915	107
441.987	683
442.059	992
442.131	862
442.203	1947
442.275	1183
442.347	3823
442.419	9945
442.491	62353
442.563	150256
442.635	53256
442.706	7790
442.778	3306
442.850	1871
442.922	1758
442.994	1344
443.066	1611
443.137	3113
443.209	3514
443.281	6622
443.353	16397
443.425	80996
443.496	296780
443.568	262588
443.640	83700
443.711	14375
443.783	5253
443.855	3355
443.926	1676
443.998	1148
444.070	1393
444.141	1247
444.213	1226
444.285	1699
444.356	1223
444.428	131
444.499	1203
444.571	574
444.642	955
444.714	1361
444.785	1511
444.857	1307
444.928	1831
445.000	1870
445.071	2791
445.143	4025
445.214	6347
445.285	12099
445.357	36502
445.428	195285
445.500	440976
445.571	235009
445.642	114733
445.714	28819
445.785	8761
445.856	3438
445.928	2557
445.999	2729
446.070	1055
446.141	1337
446.213	1257
446.284	264
446.355	846
446.426	-442
446.497	681
446.569	-287
446.640	135
446.711	400
446.782	110
446.853	14
446.924	-208
446.995	-512
447.066	466
447.138	727
447.209	1117
447.280	-885
447.351	783
447.422	-413
447.493	421
447.564	-406
447.635	-268
447.706	52
447.777	-441
447.847	-241
447.918	-390
447.989	479
448.060	358
448.131	363
448.202	-352
448.273	27
448.344	386
448.414	735
448.485	-109
448.556	572
448.627	-75
448.698	1127
448.768	-426
448.839	-335
448.910	651
448.981	-46
449.051	31
449.122	173
449.193	10
449.263	65
449.334	946
449.405	2177
449.475	1921
449.546	2014
449.616	1114
449.687	1709
449.758	1460
449.828	1227
449.899	1350
449.969	1605
450.040	1205
450.110	718
450.181	1413
450.251	1342
450.322	961
450.392	956
450.463	1887
450.533	406
450.604	345
450.674	634
450.744	1399
450.815	924
450.885	838
450.955	1111
451.026	931
451.096	458
451.166	822
451.237	950
451.307	1217
451.377	969
451.447	12
451.518	39
451.588	699
451.658	1256
451.728	1463
451.799	581
451.869	1028
451.939	963
452.009	696
452.079	645
452.149	1074
452.219	775
452.289	1060
452.360	861
452.430	1337
452.500	886
452.570	2108
452.640	5228
452.710	10598
452.780	11353
452.850	5688
452.920	2307
452.990	2413
453.060	1778
453.129	939
453.199	516
453.269	1077
453.339	930
453.409	799
453.479	1418
453.549	1416
453.619	1037
453.688	1018
453.758	1073
453.828	1172
453.898	1023
453.968	781
454.037	1086
454.087	665
454.107	487
454.168	738
454.177	767
454.247	563
454.249	565
454.316	414
454.330	480
454.386	714
454.411	603
454.456	359
454.492	618
454.525	845
454.574	741
454.595	683
454.655	654
454.665	644
454.734	31
454.736	65
454.804	1148
454.817	977
454.873	188
454.898	458
454.943	924
454.979	572
455.013	224
455.060	411
455.082	504
455.141	721
455.152	832
455.221	2470
455.222	2526
455.291	6869
455.303	10377
455.360	24483
455.384	40119
455.430	66651
455.465	46315
455.499	27683
455.546	10897
455.569	3305
455.627	1893
455.638	1610
455.707	532
455.708	542
455.777	507
455.789	615
455.846	1252
455.869	1240
455.916	1059
455.950	805
455.985	593
456.031	598
456.054	613
456.112	518
456.124	512
456.193	393
456.193	380
456.262	703
456.274	765
456.332	1122
456.355	916
456.401	504
456.436	524
456.470	388
456.516	277
456.540	258
456.597	637
456.609	749
456.678	497
456.678	487
456.747	570
456.759	420
456.817	40
456.840	323
456.886	716
456.920	710
456.955	684
457.001	185
457.024	-45
457.082	532
457.093	628
457.162	605
457.163	614
457.232	527
457.243	527
457.301	701
457.324	835
457.370	851
457.405	1067
457.439	1487
457.485	1618
457.508	1535
457.566	1505
457.577	1597
457.646	2359
457.647	2371
457.715	3696
457.727	4190
457.784	7360
457.808	10774
457.853	15791
457.889	19346
457.922	20855
457.969	13226
457.991	11661
458.050	12684
458.060	12933
458.129	24863
458.130	25178
458.198	31158
458.211	28178
458.267	14915
458.292	10568
458.336	5959
458.372	5454
458.405	6522
458.453	9391
458.474	11735
458.533	22193
458.543	23256
458.611	45088
458.614	45160
458.680	31541
458.694	25819
458.749	10327
458.775	7386
458.818	4081
458.855	2905
458.887	2260
458.936	2153
458.955	1942
459.016	1395
459.024	1402
459.093	2118
459.097	2105
459.162	1306
459.177	1264
459.230	1334
459.257	1364
459.299	1520
459.338	1515
459.368	1518
459.418	2405
459.437	2486
459.499	1544
459.505	1524
459.574	2115
459.579	2110
459.643	1741
459.659	1649
459.711	1497
459.740	1759
459.780	1879
459.820	1503
459.849	1392
459.900	1532
459.917	1589
459.981	1752
459.986	1730
460.054	1428
460.061	1480
460.123	2391
460.141	2346
460.191	1935
460.222	1778
460.260	1662
460.302	2107
460.328	2555
460.382	2987
460.397	3171
460.462	3718
460.465	3934
460.534	9786
460.543	10602
460.602	37799
460.623	48984
460.671	76288
460.703	109984
460.739	115997
460.783	99281
460.808	84354
460.864	18034
460.876	10972
460.944	3187
460.945	3107
461.013	2824
461.024	2828
461.081	2648
461.104	2555
461.150	2234
461.184	2017
461.218	2099
461.264	2394
461.286	2336
461.345	1502
461.355	1450
461.423	2121
461.425	2118
461.491	1257
461.505	1297
461.559	2127
461.585	2128
461.628	1873
461.665	1924
461.696	1933
461.745	1830
461.764	1900
461.825	1848
461.832	1828
461.901	2087
461.905	2112
461.969	1637
461.985	1453
462.037	2156
462.065	2582
462.105	2009
462.145	1417
462.173	1759
462.225	2431
462.241	2256
462.305	1357
462.310	1366
462.378	2014
462.385	2021
462.446	1978
462.465	2058
462.514	2263
462.545	2407
462.582	2606
462.625	2762
462.650	2549
462.705	1930
462.718	1834
462.785	1725
462.786	1730
462.854	1388
462.865	1414
462.922	1398
462.945	1414
462.990	1838
463.025	1959
463.058	1956
463.104	2337
463.126	2155
463.184	1464
463.194	1653
463.262	2400
463.264	2446
463.330	2370
463.344	2354
463.398	2898
463.424	2962
463.466	1914
463.504	1187
463.533	1561
463.583	2138
463.601	2097
463.663	1835
463.669	1824
463.737	1757
463.743	1741
463.805	2008
463.823	2114
463.873	2442
463.903	2699
463.940	2552
463.982	2318
464.008	2221
464.062	1813
464.076	1875
464.142	2351
464.144	2355
464.211	2267
464.221	2298
464.279	2759
464.301	2772
464.347	2312
464.381	2094
464.414	2229
464.461	2527
464.482	2505
464.540	2335
464.550	2364
464.617	2417
464.620	2420
464.685	4110
464.699	4456
464.753	5296
464.779	5886
464.820	7752
464.859	9399
464.888	8494
464.938	6699
464.956	6832
465.018	7162
465.023	7102
465.091	6241
465.098	6171
465.158	6197
465.177	6158
465.226	6081
465.257	6047
465.293	6202
465.336	6315
465.361	6414
465.416	6691
465.428	6698
465.495	6612
465.496	6618
465.563	6217
465.575	6209
465.631	7031
465.654	7273
465.698	6822
465.734	6484
465.765	6836
465.813	7311
465.833	7259
465.893	7095
465.900	7132
465.968	7314
465.972	7324
466.035	7136
466.052	7048
466.102	7504
466.131	7784
466.170	7930
466.210	8061
466.237	8383
466.290	8992
466.304	8917
466.369	8474
466.372	8524
466.439	9805
466.449	9958
466.506	10603
466.528	10859
466.573	10703
466.607	10544
466.641	10643
466.687	10795
466.708	11380
466.766	12898
466.775	12881
466.842	12629
466.845	12601
466.909	12342
466.925	12264
466.977	12371
467.004	12409
467.044	12517
467.083	12570
467.111	13567
467.163	15414
467.178	15735
467.242	16987
467.245	16859
467.312	13786
467.321	13362
467.379	12806
467.400	12581
467.446	11894
467.480	11368
467.559	11027
467.638	11258
467.717	10150
467.796	10170
467.875	9912
467.955	9343
468.034	9661
468.113	9332
468.192	10287
468.271	9137
468.350	10436
468.429	12059
468.508	12600
468.588	9800
468.667	8804
468.746	9024
468.825	8115
468.904	6752
468.983	7546
469.062	7045
469.141	7597
469.220	7409
469.299	6828
469.378	7873
469.456	12936
469.535	11366
469.614	8846
469.693	8564
469.772	8569
469.851	8381
469.930	8504
470.009	7853
470.088	7544
470.166	7951
470.245	8303
470.324	7575
470.403	8419
470.482	7281
470.560	7041
470.639	6117
470.718	7080
470.797	7133
470.875	7319
470.954	6676
471.033	7627
471.111	6651
471.190	7071
471.269	6331
471.347	5969
471.426	6495
471.505	7233
471.583	9008
471.662	9188
471.740	8399
471.819	7297
471.898	7140
471.976	8898
472.055	6538
472.133	8646
472.212	9469
472.290	7102
472.369	6029
472.447	7113
472.526	5163
472.604	7564
472.683	6487
472.761	6988
472.839	6353
472.918	6733
472.996	5513
473.075	6710
473.153	6647
473.231	5534
473.310	6092
473.388	6365
473.466	6845
473.545	7315
473.623	8277
473.701	7429
473.780	6236
473.858	5808
473.936	8178
474.014	7110
474.093	6636
474.171	8052
474.249	6780
474.327	5477
474.405	5313
474.484	5863
474.562	6110
474.640	6076
474.718	6192
474.796	8383
474.874	7931
474.952	7157
475.030	6243
475.108	7392
475.187	9162
475.265	8303
475.343	8151
475.421	8124
475.499	6730
475.577	6259
475.655	6056
475.733	5706
475.811	5419
475.889	5024
475.966	4787
476.044	4683
476.122	4866
476.200	5167
476.278	5168
476.356	5123
476.434	4420
476.512	4633
476.590	4936
476.667	5687
476.745	3617
476.823	4753
476.901	3872
476.979	4464
477.056	3882
477.134	5656
477.212	5002
477.290	4980
477.367	3837
477.445	4582
477.523	3283
477.601	4004
477.678	3598
477.756	3956
477.834	3869
477.911	3970
477.989	4310
478.066	4459
478.144	4262
478.222	3631
478.299	3932
478.377	5149
478.454	4833
478.532	3777
478.609	2778
478.687	4719
478.764	4232
478.842	3634
478.919	3263
478.997	4160
479.074	3022
479.152	2712
479.229	2982
479.307	3379
479.384	2993
479.461	3927
479.539	2580
479.616	4722
479.694	2349
479.771	3452
479.848	2895
479.926	2303
480.003	3218
480.080	4303
480.157	3633
480.235	3203
480.312	2490
480.389	3116
480.467	2226
480.544	3716
480.621	3039
480.698	3314
480.775	2939
480.853	3361
480.930	3031
481.007	3891
481.084	6116
481.161	11129
481.238	8488
481.315	2925
481.392	2313
481.470	3720
481.547	3738
481.624	3256
481.701	2615
481.778	2170
481.855	2615
481.932	3257
482.009	2892
482.086	2625
482.163	3560
482.240	3408
482.317	4680
482.393	4558
482.470	3650
482.547	2588
482.624	2832
482.701	2778
482.778	3620
482.855	3036
482.932	2364
483.009	2885
483.085	4719
483.162	8078
483.239	7716
483.316	4287
483.393	4226
483.469	3390
483.546	2700
483.623	2898
483.699	3391
483.776	3130
483.853	3548
483.930	3774
484.006	3948
484.083	7872
484.160	20549
484.236	42220
484.313	31835
484.389	22830
484.466	19999
484.543	18748
484.619	18961
484.696	19783
484.772	18192
484.849	18840
484.925	17112
485.002	17222
485.078	16787
485.155	17228
485.231	14840
485.308	14620
485.384	15646
485.461	16306
485.537	14841
485.614	16643
485.690	13849
485.766	15412
485.843	14742
485.919	14696
485.995	14288
486.072	14097
486.148	13874
486.224	14233
486.301	13958
486.377	13392
486.453	12741
486.530	15961
486.606	22466
486.682	25308
486.758	21166
486.835	18912
486.911	17543
486.987	19037
487.063	18903
487.139	19496
487.215	22500
487.292	21385
487.368	17588
487.444	18345
487.520	20806
487.596	25887
487.672	36167
487.748	79167
487.824	122237
487.900	56429
487.976	21844
488.052	15968
488.128	15951
488.204	13705
488.280	13931
488.356	13625
488.432	13436
488.508	14114
488.584	11014
488.660	10903
488.736	12384
488.812	12685
488.888	15076
488.964	15532
489.039	12543
489.115	16007
489.191	15114
489.267	12693
489.343	12271
489.418	11489
489.494	11619
489.570	10988
489.646	11702
489.722	10737
489.797	10119
489.873	10983
489.949	11592
490.024	12632
490.100	10390
490.176	9623
490.251	10086
490.327	10517
490.403	8471
490.478	10419
490.554	8252
490.629	8876
490.705	8147
490.781	10413
490.856	8415
490.932	9974
491.007	8291
491.083	10359
491.158	8701
491.234	9085
491.309	8428
491.385	9048
491.460	8260
491.536	8801
491.611	8718
491.686	7901
491.762	7664
491.837	7167
491.913	10093
491.988	7923
492.063	9151
492.139	7439
492.214	7428
492.289	7615
492.365	6235
492.440	8571
492.515	5198
492.590	7093
492.666	5595
492.741	7498
492.816	6414
492.891	6418
492.967	7916
493.042	6557
493.117	8662
493.192	10199
493.267	17937
493.342	70607
493.418	110312
493.493	20921
493.568	6157
493.643	5835
493.718	7015
493.793	4326
493.868	6228
493.943	3944
494.018	5573
494.093	5257
494.168	4854
494.243	4784
494.318	5015
494.393	4934
494.468	5438
494.543	5157
494.618	4235
494.693	4825
494.768	4053
494.842	5807
494.917	3903
494.992	4997
495.067	3708
495.142	4520
495.217	5053
495.292	4245
495.366	4977
495.441	4059
495.516	5342
495.591	5409
495.665	6282
495.740	9019
495.815	7285
495.890	5375
495.964	2597
496.039	7504
496.114	7099
496.188	12816
496.263	12578
496.338	5543
496.412	5343
496.487	6580
496.561	5083
496.636	6928
496.710	7192
496.785	7325
496.860	7169
496.934	8039
497.009	8316
497.083	8960
497.158	8394
497.232	9626
497.307	10736
497.381	12653
497.455	12623
497.530	15693
497.604	15337
497.679	17375
497.753	22283
497.827	28895
497.902	33943
497.976	33306
498.050	30696
498.125	34180
498.199	40627
498.273	43511
498.348	44229
498.422	36962
498.496	31776
498.570	27127
498.645	22248
498.719	19611
498.793	16786
498.867	15970
498.941	13673
499.016	13357
499.090	15416
499.164	13051
499.238	10249
499.312	7634
499.386	8947
499.460	7316
499.534	6815
499.609	5631
499.683	6348
499.757	5409
499.831	6150
499.905	8243
499.979	7652
500.053	4371
500.127	5124
500.201	3424
500.275	2953
500.349	3775
500.422	3378
500.496	4310
500.570	4523
500.644	6203
500.718	6315
500.792	4584
500.866	4469
500.940	3702
501.013	3379
501.087	2011
501.161	2280
501.235	3058
501.309	4551
501.382	5342
501.456	6326
501.530	3393
501.603	1790
501.677	3725
501.751	1448
501.825	3770
501.898	3165
501.972	3367
502.046	2355
502.119	1541
502.193	3123
502.266	2903
502.340	2422
502.413	3145
502.487	3737
502.561	2499
502.634	2600
502.708	3026
502.781	1639
502.855	3213
502.928	1105
503.002	2640
503.075	1021
503.149	2570
503.222	2051
503.295	1357
503.369	1800
503.442	1620
503.516	3613
503.589	4631
503.662	2568
503.736	3286
503.809	4575
503.882	4586
503.956	7272
504.029	13344
504.102	34651
504.175	61005
504.249	26204
504.322	9141
504.395	4485
504.468	2749
504.542	1636
504.615	1735
504.688	2789
504.761	1337
504.834	3048
504.907	2804
504.980	2009
505.053	1735
505.127	-615
505.200	3827
505.273	917
505.346	1205
505.419	285
505.492	2724
505.565	1005
505.638	1715
505.711	484
505.784	1007
505.857	1365
505.930	3602
506.003	-339
506.076	3143
506.149	222
506.221	-416
506.294	2263
506.367	499
506.440	2020
506.513	2911
506.586	865
506.659	905
506.731	1558
506.804	1276
506.877	497
506.950	1158
507.022	1909
507.095	5
507.168	1995
507.241	2334
507.313	1327
507.386	812
507.459	1775
507.531	1134
507.604	311
507.677	1188
507.749	543
507.822	3105
507.894	6851
507.967	14337
508.040	8807
508.112	7702
508.185	5363
508.257	4045
508.330	6070
508.402	3993
508.475	4185
508.547	4878
508.620	4298
508.692	4410
508.765	4170
508.837	4053
508.909	4215
508.982	4087
509.054	4782
509.127	3933
509.199	3030
509.271	2765
509.344	3144
509.416	4144
509.488	3948
509.560	3626
509.633	3579
509.705	4099
509.777	3021
509.849	3508
509.922	1895
509.994	3570
510.066	4743
510.138	4664
510.210	16108
510.283	14863
510.355	10479
510.427	9221
510.499	7892
510.571	7887
510.643	5350
510.715	8054
510.787	5138
510.859	8775
510.931	6130
511.003	7510
511.076	6484
511.148	5798
511.219	5774
511.291	6853
511.363	6538
511.435	6193
511.507	4439
511.579	5993
511.651	6320
511.723	5627
511.795	4837
511.867	4834
511.939	5430
512.010	4921
512.082	4888
512.154	5064
512.226	5150
512.298	10498
512.369	14400
512.441	12275
512.513	9827
512.585	7440
512.656	7992
512.728	7634
512.800	7069
512.871	8061
512.943	7879
513.015	6199
513.086	6579
513.158	7443
513.230	6358
513.301	6768
513.373	6435
513.444	6218
513.516	5934
513.588	6270
513.659	5461
513.731	6610
513.802	4938
513.874	7128
513.945	6437
514.016	5507
514.088	5908
514.159	5642
514.231	7540
514.302	11857
514.374	12198
514.445	9065
514.516	10248
514.588	6484
514.659	7331
514.730	7822
514.802	10024
514.873	13649
514.944	18423
515.016	12540
515.087	8701
515.158	9477
515.229	10916
515.301	16256
515.372	27917
515.443	17025
515.514	12264
515.585	9141
515.656	8391
515.728	7391
515.799	6006
515.870	6799
515.941	6043
516.012	5497
516.083	9874
516.154	10166
516.225	7845
516.296	8268
516.367	6857
516.438	6306
516.509	5604
516.580	5560
516.651	8387
516.722	12140
516.793	10253
516.864	6095
516.935	5879
517.006	6489
517.077	5585
517.148	7852
517.219	12681
517.289	19931
517.360	7142
517.431	7452
517.502	4779
517.573	5605
517.643	5928
517.714	7183
517.785	8293
517.856	5666
517.926	6682
517.997	7121
518.068	6109
518.138	8579
518.209	5402
518.280	10704
518.350	30092
518.421	17626
518.492	8906
518.562	8740
518.633	10187
518.703	13311
518.774	28549
518.845	74254
518.915	85607
518.986	26997
519.056	13765
519.127	10713
519.197	9385
519.268	8706
519.338	6609
519.408	5520
519.479	5436
519.549	4028
519.620	5702
519.690	4475
519.760	4490
519.831	3811
519.901	2678
519.971	4256
520.042	3583
520.112	2564
520.182	4472
520.253	4081
520.323	4270
520.393	3527
520.463	4813
520.534	342
520.604	5778
520.674	4808
520.744	2409
520.814	2889
520.885	4407
520.955	3877
521.025	4613
521.095	3789
521.165	4155
521.235	2863
521.305	2485
521.375	3985
521.445	3472
521.515	2800
521.585	4355
521.655	1550
521.725	4247
521.795	4806
521.865	1061
521.935	5213
522.005	2505
522.075	3034
522.145	4562
522.215	2843
522.285	3346
522.355	2857
522.424	2316
522.494	3174
522.564	4457
522.634	3894
522.704	5881
522.774	2676
522.843	2741
522.913	3562
522.983	3302
523.053	2037
523.122	2701
523.192	2380
523.262	2260
523.331	2537
523.401	3964
523.471	2726
523.540	3050
523.610	2013
523.680	2220
523.749	3270
523.819	3585
523.888	3383
523.958	2072
524.027	2460
524.097	1857
524.166	2342
524.236	1340
524.305	3597
524.375	1286
524.444	859
524.514	3257
524.583	2244
524.653	1992
524.722	3532
524.791	406
524.861	3614
524.930	1679
524.999	1634
525.069	2694
525.138	1881
525.207	1839
525.277	2726
525.346	2613
525.415	3033
525.484	2793
525.554	2981
525.623	6227
525.692	8448
525.761	7045
525.830	8068
525.900	8573
525.969	14431
526.038	25275
526.107	50544
526.176	170196
526.245	165833
526.314	44989
526.383	77884
526.452	127868
526.522	192622
526.591	235509
526.660	35548
526.729	18636
526.797	21186
526.867	25079
526.935	76992
527.004	368026
527.073	316300
527.142	30281
527.211	9187
527.280	5825
527.349	4417
527.418	1152
527.487	3296
527.555	1158
527.624	2467
527.693	528
527.762	2164
527.831	542
527.899	2132
527.968	2024
528.037	391
528.106	1772
528.174	2018
528.243	1795
528.312	1111
528.380	1676
528.449	246
528.518	1449
528.586	151
528.655	2236
528.723	1657
528.792	500
528.861	432
528.929	-288
528.998	2109
529.066	994
529.135	1545
529.203	45
529.272	-392
529.340	1334
529.409	1964
529.477	-657
529.545	-513
529.614	2239
529.682	-814
529.751	83
529.819	3091
529.887	303
529.956	139
530.024	1033
530.092	-45
530.161	841
530.229	1458
530.297	-30
530.365	1594
530.434	1048
530.502	565
530.570	609
530.638	-1263
530.707	427
530.775	2160
530.843	-224
530.911	657
530.979	254
531.047	583
531.115	812
531.183	837
531.252	1573
531.320	272
531.388	-300
531.456	1046
531.524	-1559
531.592	624
531.660	1533
531.728	-229
531.796	-12
531.864	245
531.932	285
532.000	-267
532.067	586
532.135	375
532.203	529
532.271	-7
532.339	1428
532.407	158
532.475	889
532.542	1387
532.610	1132
532.678	-977
532.746	2297
532.814	5154
532.881	1876
532.949	917
533.017	986
533.084	1092
533.152	-296
533.220	1126
533.287	-609
533.355	1222
533.423	921
533.490	435
533.558	-128
533.625	1178
533.693	877
533.761	1959
533.828	1406
533.896	-83
533.963	1615
534.031	1199
534.098	2175
534.166	1612
534.233	1029
534.300	3490
534.368	1380
534.435	1602
534.503	2999
534.570	3208
534.637	3022
534.705	4504
534.772	5108
534.840	12030
534.907	70394
534.974	121932
535.041	14939
535.109	2563
535.176	769
535.243	1959
535.310	1465
535.378	976
535.445	1909
535.512	1559
535.579	1183
535.646	943
535.714	1963
535.781	4861
535.848	3531
535.915	3135
535.982	1496
536.049	1748
536.116	2809
536.183	1533
536.250	1477
536.317	1190
536.384	1851
536.451	1804
536.518	2312
536.585	19
536.652	2594
536.719	2810
536.786	25
536.853	1819
536.920	3043
536.987	2442
537.053	662
537.120	3960
537.187	4719
537.254	480
537.321	1053
537.388	3348
537.454	1222
537.521	1743
537.588	813
537.654	3759
537.721	3620
537.788	5159
537.855	2737
537.921	2571
537.988	2199
538.055	3556
538.121	1651
538.188	2420
538.254	2393
538.321	2039
538.388	2634
538.454	2547
538.521	2518
538.587	1531
538.654	2260
538.720	2314
538.787	1854
538.853	2245
538.920	1729
538.986	2268
539.053	1732
539.119	2255
539.185	1350
539.252	3514
539.318	1625
539.385	4731
539.451	3241
539.517	4589
539.583	3833
539.650	3167
539.716	3474
539.782	2378
539.849	1939
539.915	2808
539.981	1118
540.047	2061
540.114	2864
540.180	3668
540.246	1258
540.312	2151
540.378	2262
540.444	3878
540.510	2240
540.576	4174
540.643	2389
540.709	1374
540.775	2605
540.841	1871
540.907	3512
540.973	5262
541.039	3677
541.105	3938
541.171	2860
541.237	3323
541.303	4035
541.369	4756
541.435	3331
541.500	3256
541.566	1037
541.632	1996
541.698	1488
541.764	3325
541.830	2159
541.896	1210
541.961	2192
542.027	890
542.093	2526
542.159	3192
542.224	2334
542.290	5848
542.356	3283
542.421	4247
542.487	4523
542.553	3402
542.618	3209
542.684	2470
542.750	2276
542.815	3202
542.881	1875
542.947	3209
543.012	3840
543.078	2047
543.143	1641
543.209	3334
543.274	1898
543.340	3314
543.405	3420
543.471	3413
543.536	3027
543.602	2660
543.667	1893
543.732	3850
543.798	2418
543.863	3105
543.928	2508
543.994	2729
544.059	2659
544.124	3035
544.190	2519
544.255	4011
544.320	2694
544.386	1613
544.451	3687
544.516	3048
544.581	1881
544.646	4146
544.712	5900
544.777	4695
544.842	3611
544.907	3117
544.972	2560
545.037	4228
545.102	3449
545.168	3463
545.233	3873
545.298	4144
545.363	3051
545.428	5301
545.493	5529
545.558	3757
545.623	3651
545.688	3232
545.753	4164
545.818	3330
545.883	4287
545.947	4206
546.012	4517
546.077	3297
546.142	4537
546.207	3668
546.272	4868
546.337	4263
546.401	5366
546.466	6337
546.531	4759
546.596	5499
546.661	5488
546.725	5887
546.790	4927
546.855	6164
546.919	4854
546.984	7362
547.049	6351
547.113	8969
547.178	7268
547.243	10095
547.307	12032
547.372	12156
547.436	12034
547.501	12028
547.565	13584
547.630	13889
547.695	12436
547.759	12130
547.823	12055
547.888	13453
547.952	13383
548.017	16353
548.081	21606
548.146	17382
548.210	13953
548.274	15386
548.339	15656
548.403	14215
548.468	12086
548.532	12413
548.596	12893
548.660	13438
548.725	13898
548.789	14790
548.853	15936
548.917	15446
548.982	13857
549.046	13047
549.110	10971
549.174	11410
549.238	13437
549.303	14195
549.367	17410
549.431	13978
549.495	14310
549.559	12895
549.623	15809
549.687	18450
549.751	16961
549.815	19054
549.879	21687
549.943	17779
550.007	21163
550.071	20626
550.135	18514
550.199	16761
550.263	17015
550.327	16674
550.391	18594
550.455	22151
550.519	18116
550.582	21125
550.646	22903
550.710	23872
550.774	24677
550.838	24553
550.901	25402
550.965	27571
551.029	27694
551.093	32220
551.156	36853
551.220	46195
551.284	58112
551.347	42640
551.411	28094
551.475	26721
551.538	26356
551.602	24066
551.666	21698
551.729	19748
551.793	21066
551.856	19478
551.920	18885
551.983	19495
552.047	17803
552.110	19418
552.174	22387
552.237	21146
552.301	17769
552.364	16442
552.428	16804
552.491	17156
552.554	17883
552.618	17347
552.681	17451
552.745	16555
552.808	17612
552.871	19065
552.934	19293
552.998	17462
553.061	17000
553.124	18432
553.187	16537
553.251	18226
553.314	20040
553.377	19423
553.440	24818
553.503	49053
553.567	85461
553.630	29589
553.693	19562
553.756	19103
553.819	16789
553.882	16761
553.945	16664
554.008	18115
554.071	16574
554.134	18096
554.197	15638
554.260	15480
554.323	16375
554.386	16218
554.449	16680
554.512	17635
554.575	14700
554.638	15886
554.701	14697
554.764	15966
554.827	15415
554.889	15101
554.952	12793
555.015	12687
555.078	13034
555.141	14228
555.203	13185
555.266	13329
555.329	12512
555.391	12086
555.454	11676
555.517	12282
555.580	12894
555.642	12272
555.705	12040
555.768	12718
555.830	12265
555.893	11328
555.955	9861
556.018	10274
556.080	8721
556.143	10782
556.206	9022
556.268	10264
556.330	8982
556.393	9498
556.455	9146
556.518	9433
556.580	8867
556.643	8649
556.705	8913
556.767	7105
556.830	7950
556.892	8046
556.955	8391
557.017	8132
557.079	7887
557.142	7814
557.204	6814
557.266	9088
557.328	7596
557.391	6783
557.453	5890
557.515	6803
557.577	7983
557.639	8305
557.701	8007
557.764	8540
557.826	8819
557.888	9653
557.950	11108
558.012	12885
558.074	17775
558.136	43900
558.198	143044
558.260	60969
558.322	16065
558.384	16342
558.446	19672
558.508	24377
558.570	29865
558.632	36247
558.694	46921
558.756	77887
558.818	256685
558.880	782101
558.942	288847
559.003	159655
559.065	91447
559.127	29875
559.189	27905
559.251	30378
559.312	43881
559.374	112646
559.436	453759
559.498	277800
559.559	37242
559.621	28106
559.683	29586
559.744	48754
559.806	176074
559.868	341814
559.929	68838
559.991	27689
560.052	38693
560.114	130008
560.176	98881
560.237	67036
560.299	135403
560.360	31894
560.422	6899
560.483	5876
560.545	4311
560.606	3427
560.667	3141
560.729	3333
560.790	2926
560.852	3043
560.913	2509
560.974	2641
561.036	1875
561.097	2598
561.158	3215
561.220	3224
561.281	2211
561.342	2675
561.403	2414
561.465	2264
561.526	2337
561.587	3821
561.648	1464
561.709	2143
561.771	2654
561.832	1839
561.893	1372
561.954	2668
562.015	2050
562.076	2714
562.137	1822
562.198	1998
562.259	3287
562.320	2513
562.381	2107
562.442	2347
562.503	1927
562.564	1251
562.625	1018
562.686	2490
562.747	1227
562.808	2121
562.869	2295
562.930	2689
562.991	1163
563.051	1638
563.112	1978
563.173	1927
563.234	1778
563.294	1934
563.355	1088
563.416	3186
563.477	1705
563.537	1590
563.598	2260
563.659	3531
563.720	1836
563.780	2448
563.841	1747
563.901	2126
563.962	2224
564.023	2213
564.083	2295
564.144	1659
564.204	1910
564.265	1686
564.325	1931
564.386	2161
564.446	2402
564.507	2010
564.567	1891
564.628	2564
564.688	2448
564.749	1882
564.809	1824
564.869	2452
564.930	1899
564.990	2390
565.050	2107
565.111	2594
565.171	2819
565.231	3338
565.292	3729
565.352	2326
565.412	3424
565.472	2809
565.532	3120
565.593	2971
565.653	2495
565.713	3473
565.773	4167
565.833	3867
565.893	4983
565.953	4348
566.013	3559
566.074	5113
566.134	5687
566.194	5522
566.254	4850
566.314	5996
566.374	6260
566.434	7367
566.494	7154
566.554	8047
566.614	8764
566.673	8627
566.733	10959
566.793	10724
566.853	10803
566.913	13177
566.973	13969
567.033	13075
567.092	12025
567.152	12980
567.212	12535
567.272	13633
567.331	14299
567.391	15608
567.451	18550
567.511	18863
567.570	18166
567.630	15965
567.690	14861
567.749	17393
567.809	18755
567.868	22563
567.928	24972
567.988	31493
568.047	39327
568.107	50504
568.166	74233
568.226	122766
568.285	176736
568.345	159340
568.404	126181
568.464	105979
568.523	95627
568.582	93124
568.642	102740
568.701	128905
568.761	187746
568.820	304218
568.879	314323
568.939	231601
568.998	169667
569.057	127101
569.116	97171
569.176	76108
569.235	61366
569.294	49278
569.353	40889
569.413	34938
569.472	29205
569.531	26591
569.590	22119
569.649	19649
569.708	18168
569.767	15983
569.827	14346
569.886	13809
569.945	11546
570.004	11894
570.063	9605
570.122	10136
570.181	9103
570.240	8361
570.299	8364
570.358	7058
570.417	6451
570.475	7721
570.534	7434
570.593	6401
570.652	5438
570.711	5198
570.770	5420
570.829	7428
570.887	6362
570.946	5030
571.005	4702
571.064	4358
571.122	4282
571.181	4921
571.240	3522
571.299	3690
571.357	4529
571.416	3262
571.475	2970
571.533	3554
571.592	3789
571.650	3343
571.709	3547
571.768	3575
571.826	4061
571.885	3618
571.943	3440
572.002	2548
572.060	2122
572.119	3626
572.177	2975
572.236	3022
572.294	1397
572.352	3490
572.411	2653
572.469	3273
572.528	2659
572.586	2906
572.644	1751
572.703	1864
572.761	2447
572.819	2171
572.877	1876
572.936	1999
572.994	2066
573.052	2840
573.110	1479
573.169	2201
573.227	2278
573.285	1967
573.343	2075
573.401	2868
573.459	3084
573.517	1620
573.576	2518
573.634	3393
573.692	2068
573.750	2312
573.808	2164
573.866	2713
573.924	2227
573.982	2101
574.040	1538
574.098	2264
574.155	1773
574.213	1832
574.271	1986
574.329	2800
574.387	2441
574.445	1269
574.503	1401
574.560	2222
574.618	2111
574.676	2494
574.734	1342
574.792	2995
574.849	1367
574.907	2039
574.965	1431
575.022	490
575.080	1266
575.138	1801
575.195	1966
575.253	1753
575.311	1782
575.368	1789
575.426	1305
575.483	2646
575.541	1429
575.598	2471
575.656	1428
575.713	2169
575.771	1318
575.828	2211
575.886	1881
575.943	2651
576.001	653
576.058	1422
576.115	1688
576.173	1223
576.230	1269
576.287	1911
576.345	1620
576.402	1020
576.459	1621
576.517	1151
576.574	1164
576.631	1575
576.688	639
576.746	1490
576.803	1615
576.860	968
576.917	2001
576.974	2024
577.031	1272
577.089	1929
577.146	1705
577.203	2067
577.260	2533
577.317	1807
577.374	2150
577.431	1462
577.488	1538
577.545	2215
577.602	3264
577.659	1379
577.716	2665
577.773	3409
577.830	3151
577.886	2570
577.943	2503
578.000	2064
578.057	1487
578.114	2241
578.171	3060
578.227	1615
578.284	2287
578.341	2268
578.398	1536
578.454	2533
578.511	1779
578.568	2632
578.625	1540
578.681	2191
578.738	1478
578.794	1999
578.851	2391
578.908	2071
578.964	1607
579.021	2731
579.077	2097
579.134	2501
579.190	2405
579.247	2487
579.303	1460
579.360	1782
579.416	2117
579.473	1994
579.529	1339
579.586	2172
579.642	2280
579.698	1862
579.755	2886
579.811	3994
579.867	1974
579.924	2362
579.980	2129
580.036	3551
580.093	2257
580.149	3993
580.205	3279
580.261	3692
580.317	3371
580.374	2678
580.430	2759
580.486	2822
580.542	2444
580.598	3299
580.619	2910
580.654	2231
580.692	2224
580.710	2221
580.765	3366
580.767	3402
580.823	3030
580.838	2994
580.879	2893
580.911	2914
580.935	2933
580.984	3066
580.991	3084
581.047	3109
581.057	3082
581.103	2964
581.130	2937
581.159	2879
581.203	3264
581.215	3379
581.270	3776
581.276	3679
581.326	2662
581.349	2690
581.382	2729
581.422	2882
581.438	2951
581.494	2971
581.494	2976
581.550	3320
581.567	3512
581.606	3872
581.640	2813
581.661	2202
581.713	4268
581.717	4424
581.773	3204
581.786	3321
581.829	3708
581.859	3410
581.885	3163
581.932	3474
581.940	3544
581.996	3494
582.004	3386
582.052	2633
582.077	3053
582.107	3601
582.150	3891
582.163	3939
582.219	3629
582.223	3646
582.274	3967
582.296	3911
582.330	3860
582.368	3591
582.386	3473
582.441	3903
582.441	3900
582.497	4558
582.514	4465
582.552	4396
582.587	4923
582.608	5132
582.659	4673
582.663	4647
582.719	4989
582.732	4973
582.774	4867
582.805	4995
582.830	5168
582.877	4797
582.885	4713
582.941	5084
582.950	5050
582.996	4855
583.023	4848
583.052	5040
583.095	5666
583.107	5770
583.162	6210
583.168	6208
583.218	6154
583.240	6076
583.273	6062
583.313	6221
583.328	6237
583.384	6586
583.385	6556
583.439	5663
583.458	5787
583.494	6013
583.531	5948
583.549	5985
583.603	6421
583.605	6429
583.660	6137
583.676	6261
583.715	6769
583.748	6983
583.770	7101
583.820	7231
583.825	7223
583.881	6692
583.893	6738
583.936	7200
583.965	7015
583.991	6796
584.038	7388
584.046	7477
584.101	7620
584.110	7569
584.156	7252
584.183	7281
584.211	7414
584.255	7963
584.266	8170
584.321	8222
584.328	8318
584.376	8906
584.400	9181
584.431	9543
584.472	9332
584.486	9223
584.541	9773
584.545	9765
584.596	9893
584.617	10151
584.651	10704
584.689	10466
584.706	10258
584.761	10533
584.762	10528
584.816	11344
584.834	11689
584.871	12158
584.906	12068
584.926	12085
584.978	12580
584.980	12613
585.035	13655
585.051	14008
585.090	15260
585.123	16023
585.145	16440
585.195	17530
585.200	17738
585.254	20556
585.267	21632
585.309	26123
585.340	29111
585.364	30548
585.412	30398
585.419	30407
585.473	33877
585.484	34463
585.528	40209
585.556	46305
585.583	62127
585.628	98116
585.637	112925
585.692	229800
585.700	251889
585.747	332401
585.772	304043
585.801	204308
585.845	77262
585.856	62912
585.910	35809
585.917	32984
585.965	27920
585.989	25972
586.019	25050
586.061	23817
586.074	23514
586.128	23514
586.133	23464
586.183	24038
586.205	24153
586.237	24134
586.277	24328
586.292	24620
586.346	25588
586.349	25591
586.401	26571
586.421	27118
586.455	27521
586.493	27612
586.509	28070
586.564	29161
586.565	29156
586.618	31212
586.637	31984
586.672	33602
586.709	34830
586.727	35654
586.781	38786
586.781	38849
586.835	37177
586.853	37175
586.889	38098
586.925	38544
586.944	38911
586.996	39974
586.998	40101
587.052	42155
587.068	42844
587.106	44371
587.140	45273
587.161	46164
587.212	48673
587.215	48892
587.269	51380
587.284	52106
587.323	55033
587.356	56955
587.377	58329
587.427	62342
587.431	62787
587.485	66360
587.499	67378
587.539	71530
587.571	74491
587.593	76820
587.643	82386
587.648	83166
587.702	89506
587.715	91041
587.755	97238
587.786	102110
587.810	106460
587.858	115027
587.864	116529
587.917	129531
587.930	132394
587.971	144330
588.001	152787
588.025	161173
588.073	178422
588.079	181467
588.133	206772
588.145	212092
588.187	235953
588.217	252966
588.241	271083
588.288	307680
588.295	314153
588.348	364735
588.360	375730
588.402	428768
588.431	465297
588.456	505848
588.503	585547
588.510	601935
588.564	731280
588.575	758856
588.617	916741
588.646	1027851
588.671	1176499
588.718	1470720
588.725	1540900
588.778	2093914
588.789	2207596
588.832	2698214
588.861	3024509
588.886	3007143
588.932	2829676
588.939	2790317
588.993	2341530
589.004	2299436
589.047	2891152
589.075	3194714
589.100	2970257
589.147	2433346
589.154	2363160
589.207	1816766
589.218	1708236
589.261	1557616
589.290	1464973
589.314	1508918
589.361	1609020
589.368	1663040
589.421	2112502
589.433	2210302
589.475	2635058
589.504	2915453
589.528	2844094
589.576	2543688
589.582	2562124
589.635	2781685
589.647	2800532
589.689	2327614
589.718	1955529
589.742	1660261
589.790	1095594
589.795	1065140
589.849	779712
589.861	714282
589.902	597630
589.932	512075
589.955	473594
590.004	393064
590.009	388571
590.062	330856
590.075	316372
590.115	286574
590.146	262554
590.168	251109
590.218	224300
590.222	223040
590.275	199230
590.289	192738
590.328	182381
590.360	172687
590.381	166708
590.431	151986
590.435	151737
590.488	140055
590.503	136561
590.541	129858
590.574	123403
590.594	121029
590.645	114057
590.647	114163
590.700	108153
590.716	105986
590.753	101840
590.787	97516
590.806	95831
590.859	90362
590.859	90568
590.912	86372
590.930	84767
590.965	82953
591.001	80639
591.018	79627
591.071	76112
591.072	75838
591.124	73345
591.143	72339
591.177	70704
591.214	68252
591.230	67943
591.283	66467
591.285	66188
591.336	63525
591.356	62199
591.389	61773
591.427	60795
591.442	60158
591.495	57057
591.498	56637
591.547	55168
591.569	54346
591.600	54293
591.640	53686
591.653	53372
591.706	51321
591.711	50929
591.759	50617
591.782	50213
591.811	49883
591.853	49004
591.864	49051
591.917	48354
591.924	48101
591.969	46751
591.995	45685
592.022	45434
592.066	44669
592.075	44817
592.127	44765
592.137	44590
592.180	44169
592.208	43679
592.233	43334
592.279	42212
592.285	42335
592.338	42177
592.350	41983
592.390	41469
592.421	40864
592.443	41167
592.491	41353
592.495	41460
592.548	40924
592.562	40634
592.600	39482
592.633	38237
592.653	38407
592.704	38303
592.705	38522
592.775	38404
592.846	37488
592.916	36642
592.987	36328
593.058	36438
593.128	35789
593.199	35490
593.270	34652
593.341	34327
593.411	33571
593.482	34336
593.553	34881
593.623	34204
593.694	33789
593.764	33908
593.835	32624
593.906	32581
593.976	31630
594.047	32399
594.117	33160
594.188	33834
594.258	32710
594.329	33093
594.399	33027
594.470	33449
594.540	33961
594.611	34011
594.681	33820
594.751	34275
594.822	36545
594.892	37635
594.963	36292
595.033	35191
595.103	34827
595.174	35058
595.244	36882
595.314	35174
595.384	35433
595.455	35721
595.525	36101
595.595	37800
595.665	36990
595.736	36555
595.806	36646
595.876	37004
595.946	36582
596.016	37742
596.087	38103
596.157	38189
596.227	38228
596.297	39571
596.367	41711
596.437	43898
596.507	43938
596.577	43321
596.647	44121
596.717	45393
596.787	46624
596.857	47400
596.927	46820
596.997	47410
597.067	48634
597.137	50098
597.207	47928
597.277	47615
597.347	46469
597.417	44059
597.487	44556
597.557	45969
597.626	46064
597.696	46982
597.766	46873
597.836	44489
597.906	40087
597.975	40853
598.045	41936
598.115	42937
598.185	45460
598.254	51334
598.324	53510
598.394	54158
598.464	53484
598.533	50573
598.603	49233
598.672	47397
598.742	48659
598.812	47270
598.881	50262
598.951	49232
599.020	49740
599.090	51153
599.159	52642
599.229	50759
599.299	48545
599.368	50120
599.437	50234
599.507	46153
599.576	43906
599.646	46095
599.715	46136
599.785	42341
599.854	40748
599.924	40883
599.993	40099
600.062	40712
600.132	41666
600.201	43902
600.270	50953
600.340	52822
600.409	52288
600.478	52552
600.547	53579
600.617	49684
600.686	38331
600.755	35372
600.824	32915
600.894	32899
600.963	33028
601.032	32849
601.101	31317
601.170	29568
601.239	28390
601.308	28544
601.378	27386
601.447	28038
601.516	28417
601.585	28879
601.654	30208
601.723	29750
601.792	30432
601.861	32407
601.930	35123
601.999	33064
602.068	31680
602.137	31247
602.206	33012
602.275	32876
602.343	33458
602.412	33121
602.481	33995
602.550	33407
602.619	34921
602.688	34853
602.756	35686
602.825	35686
602.894	37393
602.963	37787
603.032	38504
603.100	37202
603.169	38453
603.238	38536
603.307	38332
603.375	40228
603.444	39410
603.513	40253
603.581	39582
603.650	42149
603.719	41243
603.787	42603
603.856	43938
603.924	43238
603.993	46418
604.061	46998
604.130	50065
604.198	51981
604.267	52394
604.335	52838
604.404	53427
604.472	53468
604.541	54603
604.609	54174
604.678	53849
604.746	55169
604.815	56171
604.883	57864
604.951	57795
605.020	58422
605.088	60173
605.156	60966
605.225	62139
605.293	62286
605.361	62062
605.429	62358
605.498	64582
605.566	66585
605.634	70172
605.702	72742
605.771	74541
605.839	74646
605.907	72779
605.975	69405
606.043	68242
606.111	69352
606.180	68600
606.248	72439
606.316	73644
606.384	67898
606.452	68457
606.520	69430
606.588	72900
606.656	73232
606.724	72474
606.792	67436
606.860	61467
606.928	55452
606.996	52751
607.064	52558
607.132	53247
607.200	57055
607.267	59207
607.335	60497
607.403	62148
607.471	58815
607.539	57147
607.607	58638
607.674	50512
607.742	52178
607.810	50879
607.878	50327
607.946	51551
608.013	54349
608.081	56187
608.149	55206
608.216	57197
608.284	60521
608.352	60244
608.419	58857
608.487	58484
608.555	56130
608.622	57662
608.690	62073
608.757	67894
608.825	70209
608.893	69346
608.960	63527
609.028	60547
609.095	61625
609.163	61040
609.230	54564
609.298	50710
609.365	52686
609.432	57158
609.500	62489
609.567	71677
609.635	81020
609.702	84849
609.769	83255
609.837	65865
609.904	57335
609.971	61284
610.039	76789
610.106	111178
610.173	243468
610.241	608351
610.308	331532
610.375	87486
610.442	64646
610.509	58687
610.577	58840
610.644	59336
610.711	60164
610.778	61886
610.845	64113
610.912	69497
610.980	75548
611.047	82046
611.114	74041
611.181	66793
611.248	66881
611.315	71696
611.382	71709
611.449	74186
611.516	77789
611.583	75564
611.650	77395
611.717	78945
611.784	81463
611.851	89943
611.918	102876
611.984	133214
612.051	224835
612.118	528071
612.185	1373050
612.252	865681
612.319	173892
612.386	116322
612.452	99807
612.519	91282
612.586	86643
612.653	88580
612.719	90898
612.786	86414
612.853	78721
612.919	78616
612.986	78888
613.053	73364
613.120	69458
613.186	67049
613.253	67706
613.319	67881
613.386	67800
613.453	68878
613.519	68475
613.586	67408
613.652	69125
613.719	67183
613.785	70526
613.852	70069
613.918	71543
613.985	77369
614.051	94658
614.118	134540
614.184	129527
614.250	75062
614.317	71644
614.383	70737
614.449	71895
614.516	70652
614.582	70771
614.648	68448
614.715	68627
614.781	67248
614.847	67390
614.914	67215
614.980	65835
615.046	66571
615.112	71386
615.179	72717
615.245	82477
615.311	101671
615.377	156113
615.443	174394
615.509	110732
615.575	90814
615.642	84355
615.708	85669
615.774	93857
615.840	110087
615.906	145764
615.972	234113
616.038	464383
616.104	854060
616.170	1770832
616.236	1499404
616.302	306611
616.368	184063
616.434	125254
616.500	106720
616.565	117960
616.631	154709
616.697	124053
616.763	126990
616.829	207049
616.895	393858
616.961	383906
617.026	151474
617.092	88168
617.158	76768
617.224	71318
617.289	65109
617.355	60958
617.421	59369
617.487	60299
617.552	55919
617.618	55136
617.684	54442
617.749	55792
617.815	51362
617.880	51011
617.946	49860
618.012	52050
618.077	53442
618.143	51606
618.208	50377
618.274	54467
618.339	54544
618.405	44293
618.470	44316
618.536	44079
618.601	43351
618.667	40675
618.732	38940
618.798	37333
618.863	37398
618.928	36923
618.994	37306
619.059	37336
619.124	38368
619.190	36672
619.255	36581
619.320	35808
619.386	36401
619.451	35851
619.516	35974
619.581	35425
619.647	37028
619.712	37934
619.777	34973
619.842	35277
619.907	34254
619.972	36690
620.038	35797
620.103	35738
620.168	33798
620.233	34943
620.298	34780
620.363	35702
620.428	37386
620.493	37729
620.558	37996
620.623	39173
620.688	39154
620.753	38307
620.818	39606
620.883	38655
620.948	39433
621.013	37313
621.078	36866
621.143	37183
621.207	39927
621.272	37740
621.337	36155
621.402	36484
621.467	35863
621.532	34309
621.596	35079
621.661	35075
621.726	34135
621.791	34587
621.855	35538
621.920	33772
621.985	34067
622.049	36500
622.114	34884
622.179	36072
622.243	37454
622.308	38004
622.373	41513
622.437	38356
622.502	36248
622.566	36205
622.631	35519
622.695	37707
622.760	36131
622.824	36642
622.889	35878
622.953	35671
623.018	39422
623.082	40749
623.147	39349
623.211	38543
623.276	38012
623.340	35680
623.404	34831
623.469	35177
623.533	36607
623.597	34218
623.662	34305
623.726	31715
623.790	28808
623.854	28109
623.919	29159
623.983	29973
624.047	29570
624.111	30546
624.176	30367
624.240	31012
624.304	32164
624.368	30623
624.432	31853
624.496	32318
624.560	34909
624.625	36044
624.689	35600
624.753	36608
624.817	34395
624.881	33864
624.945	29864
625.009	29038
625.073	29279
625.137	30033
625.201	32585
625.265	32681
625.329	30947
625.393	31052
625.456	31474
625.520	31778
625.584	32815
625.648	33673
625.712	35463
625.776	35653
625.839	33992
625.903	26753
625.967	24529
626.031	28360
626.095	33605
626.158	31524
626.222	22048
626.286	22789
626.349	19535
626.413	19116
626.477	19808
626.540	18890
626.604	18970
626.668	20921
626.731	18999
626.795	19210
626.858	19246
626.922	18298
626.986	18972
627.049	17980
627.113	20282
627.176	19201
627.240	18904
627.303	18299
627.366	18997
627.430	19287
627.493	18545
627.557	17762
627.620	20143
627.684	19937
627.747	21016
627.810	16865
627.874	17608
627.937	15506
628.000	18571
628.064	16996
628.127	13752
628.190	15493
628.253	14124
628.317	13190
628.380	12755
628.443	12255
628.506	12643
628.569	11852
628.632	11067
628.696	11794
628.759	11485
628.822	11418
628.885	10619
628.948	11066
629.011	10701
629.074	11377
629.137	9825
629.200	8605
629.263	11250
629.326	9399
629.389	8623
629.452	9227
629.515	9817
629.578	9997
629.641	10501
629.704	10141
629.767	9979
629.830	8920
629.892	8978
629.955	8832
630.018	11451
630.081	9356
630.144	9880
630.207	8840
630.269	10088
630.332	9148
630.395	9070
630.458	9249
630.520	8280
630.583	10603
630.646	10636
630.708	8615
630.771	8951
630.834	10284
630.896	10119
630.959	10349
631.021	9079
631.084	9783
631.146	9625
631.209	10480
631.272	9430
631.334	10364
631.397	10842
631.459	10573
631.522	11821
631.584	12032
631.646	13031
631.709	14527
631.771	13813
631.834	13374
631.896	12815
631.958	10856
632.021	12484
632.083	10576
632.145	10437
632.208	9421
632.270	10397
632.332	8491
632.395	9268
632.457	9375
632.519	9171
632.581	9988
632.643	9172
632.706	9690
632.768	8041
632.830	10782
632.892	9004
632.954	7951
633.016	9795
633.078	8545
633.141	9288
633.203	8664
633.265	9407
633.327	9246
633.389	9217
633.451	10646
633.513	9366
633.575	9632
633.637	9216
633.698	10599
633.760	10812
633.822	12293
633.884	11831
633.946	12759
634.008	12528
634.070	14856
634.132	18672
634.193	18031
634.255	19447
634.317	20469
634.379	20458
634.441	17220
634.502	14344
634.564	14428
634.626	12679
634.687	12563
634.749	11592
634.811	9986
634.873	9477
634.934	9384
634.996	11543
635.057	9050
635.119	9259
635.181	9766
635.242	11157
635.304	8916
635.365	12412
635.427	9772
635.488	10186
635.550	9896
635.611	10618
635.673	8900
635.734	12842
635.796	12960
635.857	15216
635.918	15517
635.980	19338
636.041	19454
636.102	22673
636.164	22294
636.225	21439
636.286	16639
636.348	16122
636.409	13304
636.470	11702
636.531	11088
636.593	10006
636.654	11066
636.715	9109
636.776	8296
636.838	8749
636.899	9245
636.960	7681
637.021	8161
637.082	7971
637.143	8649
637.204	7067
637.265	7286
637.326	8447
637.387	8281
637.448	6791
637.509	7695
637.570	7308
637.631	8317
637.692	6437
637.753	6176
637.814	6904
637.875	7189
637.936	6751
637.997	7255
638.058	7226
638.119	7707
638.179	6494
638.240	6847
638.301	6756
638.362	5597
638.423	6347
638.483	6833
638.544	5017
638.605	7510
638.666	6043
638.726	7565
638.787	7096
638.848	7329
638.908	6370
638.969	5627
639.030	5773
639.090	4719
639.151	4682
639.211	6535
639.272	6830
639.332	6374
639.393	7252
639.453	6857
639.514	8334
639.574	6504
639.635	5130
639.695	6302
639.756	4745
639.816	5368
639.877	5027
639.937	6840
639.997	6321
640.058	4767
640.118	5015
640.178	6813
640.239	5264
640.299	5514
640.359	4815
640.420	6482
640.480	8626
640.540	10571
640.600	9552
640.661	9725
640.721	10170
640.781	17302
640.841	20423
640.901	8425
640.961	6030
641.021	7395
641.082	7284
641.142	6797
641.202	6658
641.262	4506
641.322	6126
641.382	4633
641.442	5996
641.502	5043
641.562	6288
641.622	5630
641.682	6339
641.742	8763
641.802	7005
641.861	5593
641.921	4611
641.981	5824
642.041	5862
642.101	5061
642.161	3495
642.221	4856
642.280	5637
642.340	5021
642.400	4220
642.460	6266
642.519	5180
642.579	5283
642.639	5896
642.698	4104
642.758	7687
642.818	5526
642.877	4612
642.937	5395
642.997	6239
643.056	6146
643.116	4602
643.175	7327
643.235	6911
643.294	6732
643.354	8544
643.414	9923
643.473	13536
643.532	19547
643.592	30195
643.651	53997
643.711	102723
643.770	212666
643.830	524290
643.889	1110772
643.948	257041
644.008	37381
644.067	21311
644.126	14841
644.186	12253
644.245	10527
644.304	7622
644.363	10351
644.423	6296
644.482	7887
644.541	8608
644.600	7381
644.659	11882
644.719	16245
644.778	26539
644.837	50074
644.896	109611
644.955	258412
645.014	81895
645.073	17772
645.132	9788
645.191	8696
645.250	8232
645.309	9470
645.368	9888
645.427	14911
645.486	24087
645.545	46333
645.604	12832
645.663	8593
645.722	7812
645.781	10226
645.840	12658
645.898	17376
645.957	29398
646.016	48686
646.075	94545
646.134	193715
646.192	532839
646.251	783884
646.310	108536
646.369	25420
646.427	19207
646.486	12530
646.545	9843
646.603	8935
646.662	6903
646.721	7760
646.779	7096
646.838	6448
646.896	11344
646.955	16333
647.014	28106
647.072	57167
647.131	161006
647.189	74809
647.248	9775
647.306	6729
647.365	6212
647.423	4334
647.481	5864
647.540	3028
647.598	3724
647.657	4080
647.715	4548
647.773	2617
647.832	4160
647.890	3521
647.948	2878
648.007	4376
648.065	3018
648.123	3272
648.181	5007
648.240	6024
648.298	4723
648.356	3380
648.414	3608
648.472	3418
648.531	3277
648.589	3432
648.647	3286
648.705	2676
648.763	3268
648.821	4259
648.879	3945
648.937	5859
648.995	8235
649.053	12408
649.111	20879
649.169	38388
649.227	72054
649.285	157771
649.343	462244
649.401	212089
649.459	24524
649.516	16145
649.574	16580
649.632	36156
649.690	41889
649.748	19886
649.806	25406
649.863	49179
649.921	111721
649.979	71248
650.037	9361
650.094	3812
650.152	4650
650.210	3824
650.268	6321
650.325	7566
650.383	11685
650.440	3042
650.498	2589
650.556	3333
650.613	1691
650.671	3148
650.728	2650
650.786	3248
650.843	5142
650.901	2037
650.958	2445
651.016	2307
651.073	2271
651.131	1475
651.188	1722
651.246	2381
651.303	663
651.360	2196
651.418	1831
651.475	2090
651.532	1472
651.590	2577
651.647	1570
651.704	1660
651.762	1674
651.819	1371
651.876	1064
651.933	2056
651.990	2326
652.048	1776
652.105	1607
652.162	1924
652.219	1102
652.276	2852
652.333	775
652.390	1657
652.448	1582
652.505	2009
652.562	1993
652.619	2905
652.676	6945
652.733	6358
652.790	2055
652.847	307
652.904	2385
652.961	177
653.017	806
653.074	1462
653.131	875
653.188	-3
653.245	1662
653.302	1099
653.359	1032
653.415	1143
653.472	1399
653.529	1610
653.586	142
653.642	1442
653.699	2241
653.756	1085
653.813	1175
653.869	2650
653.926	671
653.983	774
654.039	1685
654.096	1535
654.152	2530
654.209	177
654.266	1718
654.322	1154
654.379	1355
654.435	2240
654.492	1025
654.548	1841
654.605	954
654.661	3902
654.717	1479
654.774	1909
654.830	1896
654.887	1910
654.943	3452
655.000	6006
655.056	2790
655.112	2088
655.168	531
655.225	1132
655.281	1704
655.337	1473
655.394	795
655.450	1605
655.506	1594
655.562	715
655.618	2129
655.675	237
655.731	1740
655.787	633
655.843	1875
655.899	1078
655.955	2045
656.011	2052
656.067	159
656.123	1858
656.179	2286
656.235	3519
656.291	1753
656.347	3501
656.403	1114
656.459	1345
656.515	1579
656.571	1697
656.627	2198
656.683	1558
656.739	1884
656.795	1195
656.850	1263
656.906	1552
656.962	2512
657.018	1711
657.074	1417
657.129	2323
657.185	4381
657.241	10632
657.297	4796
657.352	2056
657.408	1079
657.464	1281
657.519	30
657.575	286
657.630	480
657.686	967
657.742	-195
657.797	720
657.853	340
657.908	886
657.964	-122
658.019	478
658.075	942
658.130	2407
658.186	-512
658.241	933
658.297	62
658.352	640
658.407	2189
658.463	962
658.518	936
658.573	1130
658.629	-180
658.684	394
658.739	1383
658.795	114
658.850	2268
658.905	294
658.960	1226
659.016	-387
659.071	922
659.126	872
659.181	209
659.236	2085
659.291	2085
659.346	1050
659.401	1629
659.457	3232
659.512	4520
659.567	2679
659.622	1097
659.677	905
659.732	119
659.787	550
659.842	1147
659.897	787
659.952	402
660.007	1053
660.061	1075
660.116	-198
660.171	781
660.226	1342
660.281	1475
660.336	-507
660.391	1247
660.445	706
660.500	268
660.555	606
660.610	355
660.664	1744
660.719	671
660.774	929
660.828	478
660.883	798
660.938	1359
660.992	2
661.047	1007
661.101	489
661.156	473
661.211	139
661.265	415
661.320	797
661.374	489
661.429	332
661.483	880
661.538	215
661.592	1384
661.647	2730
661.701	4908
661.755	1862
661.810	1082
661.864	-55
661.919	460
661.973	1305
662.027	579
662.081	724
662.136	379
662.190	-437
662.244	-660
662.299	63
662.353	240
662.407	959
662.461	-63
662.515	1301
662.569	613
662.624	830
662.678	552
662.732	67
662.786	219
662.840	681
662.894	302
662.948	513
663.002	727
663.056	484
663.110	317
663.164	90
663.218	295
663.272	751
663.326	-39
663.380	865
663.434	1155
663.488	13
663.542	480
663.595	662
663.649	335
663.703	1016
663.757	267
663.811	376
663.864	14
663.918	817
663.972	234
664.026	1110
664.079	-294
664.133	1331
664.187	719
664.240	1239
664.294	1053
664.348	1394
664.401	526
664.455	751
664.508	210
664.562	333
664.615	681
664.669	489
664.722	896
664.776	206
664.829	597
664.883	-349
664.936	60
664.990	378
665.043	1135
665.097	391
665.150	1325
665.203	131
665.257	104
665.310	558
665.363	628
665.417	1714
665.470	-123
665.523	-12
665.576	588
665.630	509
665.683	117
665.736	506
665.789	999
665.842	-88
665.895	1000
665.949	764
666.002	741
666.055	72
666.108	949
666.161	1046
666.214	1159
666.267	564
666.320	422
666.373	1747
666.426	920
666.479	-154
666.532	30
666.585	385
666.638	808
666.691	309
666.744	1161
666.796	391
666.849	-198
666.902	1145
666.955	1131
667.008	86
667.060	167
667.113	1184
667.166	640
667.219	455
667.271	328
667.324	470
667.377	772
667.430	870
667.482	1347
667.535	1711
667.587	645
667.640	573
667.693	-244
667.745	14
667.798	493
667.850	1050
667.903	131
667.955	586
668.008	246
668.060	-5
668.113	629
668.165	639
668.218	463
668.270	836
668.322	835
668.375	-43
668.427	425
668.479	929
668.532	428
668.584	-55
668.636	426
668.689	838
668.741	288
668.793	129
668.845	-562
668.898	492
668.950	241
669.002	1133
669.054	-310
669.106	582
669.158	511
669.211	701
669.263	982
669.315	2202
669.367	2831
669.419	2500
669.471	4185
669.523	5945
669.575	9238
669.627	6385
669.679	3418
669.731	3393
669.783	2924
669.835	4529
669.886	3676
669.938	1682
669.990	1593
670.042	355
670.094	-95
670.146	892
670.197	-41
670.249	1246
670.301	847
670.353	932
670.404	759
670.456	1508
670.508	1573
670.560	2509
670.611	4750
670.663	8009
670.715	22199
670.766	34193
670.818	9170
670.869	766
670.921	1736
670.972	968
671.024	308
671.075	845
671.127	-43
671.178	630
671.230	768
671.281	1046
671.333	1013
671.384	1374
671.436	2216
671.487	3710
671.538	5934
671.590	10868
671.641	17428
671.692	33559
671.744	62779
671.795	44321
671.846	14891
671.897	6842
671.949	3270
672.000	2810
672.051	980
672.102	1219
672.153	457
672.204	934
672.256	372
672.307	977
672.358	374
672.409	278
672.460	-86
672.511	235
672.562	-527
672.613	-56
672.664	-351
672.715	361
672.766	-701
672.817	-102
672.868	-88
672.919	-726
672.970	-155
673.021	-452
673.071	-614
673.122	238
673.173	37
673.224	-54
673.275	-96
673.326	-259
673.376	234
673.427	-685
673.478	-109
673.528	265
673.579	-134
673.630	-350
673.680	304
673.731	-543
673.782	-361
673.832	229
673.883	-418
673.934	448
673.984	-694
674.035	216
674.085	112
674.136	-257
674.186	93
674.237	-370
674.287	-1002
674.338	-729
674.388	-751
674.438	-971
674.489	-729
674.539	-842
674.589	651
674.640	434
674.690	408
674.740	-632
674.791	-758
674.841	-406
674.891	-808
674.942	-94
674.992	-328
675.042	-464
675.092	-968
675.142	-559
675.193	-1123
675.243	-638
675.293	574
675.343	-935
675.393	-582
675.443	-211
675.493	-346
675.543	-974
675.593	-937
675.643	-390
675.693	-489
675.743	-404
675.793	-127
675.843	-864
675.893	-279
675.943	461
675.993	-573
676.043	121
676.093	-567
676.142	-1159
676.192	-461
676.242	-356
676.292	-446
676.341	-403
676.391	-700
676.441	-207
676.491	-481
676.540	-1218
676.590	-942
676.640	-597
676.689	-895
676.739	-927
676.789	-538
676.838	-426
676.888	108
676.937	-280
676.987	-352
677.037	-371
677.086	-576
677.136	-221
677.185	-293
677.235	-1215
677.284	-1137
677.333	-884
677.383	-1084
677.432	-495
677.482	-451
677.531	-42
677.580	-483
677.630	-507
677.679	-1068
677.728	-467
677.778	-110
677.827	-550
677.876	-806
677.925	-164
677.975	-724
678.024	-797
678.073	-363
678.122	-672
678.171	-597
678.220	-46
678.269	175
678.319	-188
678.368	195
678.417	-856
678.466	-586
678.515	101
678.564	-848
678.613	-1173
678.662	-495
678.711	-237
678.760	-477
678.809	-489
678.857	-102
678.906	-111
678.955	-546
679.004	119
679.053	819
679.102	310
679.151	-842
679.199	-603
679.248	-1293
679.297	-458
679.346	-982
679.394	-384
679.443	-1348
679.492	-1320
679.540	-477
679.589	-709
679.638	-239
679.686	-420
679.735	-331
679.784	366
679.832	287
679.881	-769
679.929	-948
679.978	-1137
680.026	-978
680.075	-740
680.123	-1185
680.172	-1187
680.220	-1202
680.268	-539
680.317	-612
680.365	-1393
680.414	-1254
680.462	-1000
680.510	-479
680.559	-669
680.607	-1000
680.655	-402
680.703	-1268
680.752	-296
680.800	-525
680.848	-286
680.896	-894
680.945	-377
680.993	-643
681.041	-641
681.089	-1246
681.137	-1015
681.185	-1211
681.233	-768
681.258	-1012
681.281	-1254
681.329	-1473
681.377	-928
681.380	-889
681.425	-387
681.473	-1041
681.502	-702
681.521	-495
681.569	-611
681.617	-365
681.624	-333
681.665	-200
681.713	-859
681.745	-609
681.761	-500
681.809	-655
681.857	-178
681.867	-192
681.904	-314
681.952	-506
681.989	-378
682.000	-351
682.048	-193
682.096	-1309
682.111	-988
682.143	-364
682.191	-832
682.233	-566
682.239	-529
682.286	-218
682.334	-1137
682.354	-606
682.382	50
682.430	-562
682.476	-623
682.477	-634
682.525	-406
682.572	-438
682.598	-488
682.620	-549
682.667	-229
682.715	206
682.720	269
682.763	746
682.810	-288
682.841	-566
682.857	-728
682.905	-260
682.952	189
682.963	221
683.000	288
683.047	-119
683.085	365
683.095	488
683.142	-367
683.190	-290
683.206	-177
683.237	20
683.284	200
683.328	252
683.332	236
683.379	504
683.426	95
683.449	-69
683.473	-155
683.521	251
683.568	563
683.571	597
683.615	832
683.662	156
683.693	-30
683.709	-134
683.757	-105
683.804	542
683.814	459
683.851	87
683.898	195
683.936	111
683.945	95
683.992	582
684.039	649
684.057	610
684.086	523
684.133	624
684.179	346
684.180	328
684.227	971
684.274	880
684.300	1148
684.321	1347
684.368	434
684.415	745
684.422	712
684.462	546
684.509	393
684.543	876
684.556	1036
684.603	725
684.649	1059
684.665	1085
684.696	1134
684.743	873
684.786	668
684.790	642
684.837	648
684.883	757
684.908	869
684.930	973
684.977	733
685.023	1021
685.029	1037
685.070	1036
685.117	920
685.150	909
685.164	937
685.210	918
685.257	1760
685.272	1701
685.303	1413
685.350	903
685.393	1056
685.396	1072
685.443	834
685.490	1306
685.514	1197
685.536	1153
685.583	1044
685.629	1257
685.636	1278
685.675	1265
685.722	1288
685.757	1094
685.768	1014
685.815	1064
685.861	952
685.878	1111
685.908	1475
685.954	1647
686.000	1602
686.000	1597
686.047	1424
686.093	1768
686.121	1650
686.139	1551
686.185	1585
686.232	1525
686.242	1478
686.278	1440
686.324	1909
686.363	1707
686.370	1658
686.416	1977
686.463	1898
686.484	1719
686.509	1463
686.555	1927
686.601	2026
686.606	1969
686.647	1570
686.693	2016
686.727	2182
686.739	2205
686.785	1841
686.831	2194
686.848	2108
686.877	1981
686.923	2109
686.969	1796
686.969	1794
687.015	1502
687.061	2074
687.090	2189
687.107	2206
687.153	1862
687.199	2071
687.211	2171
687.245	2568
687.291	2215
687.332	2549
687.336	2573
687.382	2402
687.428	2777
687.453	2960
687.474	3136
687.520	3022
687.565	2705
687.574	2730
687.611	3244
687.657	4244
687.695	4979
687.702	5235
687.748	7240
687.794	10065
687.816	9891
687.839	8260
687.885	6091
687.931	4676
687.937	4476
687.976	4155
688.022	2906
688.058	2305
688.067	2267
688.113	2660
688.158	2908
688.179	2719
688.204	2480
688.249	2297
688.295	3012
688.300	2954
688.340	2626
688.386	2851
688.421	2935
688.431	2950
688.477	2240
688.522	2548
688.542	2647
688.567	2943
688.613	2835
688.658	3325
688.663	3370
688.703	3515
688.749	3052
688.784	3259
688.794	3301
688.839	3463
688.884	2968
688.905	2918
688.930	2912
688.975	3104
689.020	2691
689.026	2703
689.065	3048
689.110	3380
689.146	3634
689.155	3677
689.201	3630
689.246	3995
689.267	4174
689.291	4229
689.336	3350
689.381	3295
689.388	3355
689.426	3668
689.471	3068
689.509	3383
689.516	3518
689.561	3476
689.606	3391
689.630	3449
689.651	3314
689.696	3258
689.741	3428
689.750	3351
689.785	3299
689.830	3202
689.871	3185
689.875	3190
689.920	3718
689.965	3775
689.992	3585
690.010	3405
690.054	3615
690.099	3793
690.112	3652
690.144	3443
690.189	3698
690.233	3396
690.233	3402
690.278	3604
690.323	3819
690.354	3867
690.367	3906
690.412	3974
690.457	3759
690.474	3839
690.501	4017
690.546	4374
690.590	4171
690.595	4258
690.635	5134
690.680	4400
690.716	4801
690.724	4851
690.769	4927
690.813	4925
690.836	4537
690.857	4572
690.902	5585
690.946	6201
690.957	6412
690.991	7947
691.035	10125
691.077	11904
691.080	11902
691.124	11243
691.168	10095
691.198	9826
691.213	9432
691.257	7670
691.301	6538
691.318	5732
691.346	5170
691.390	5090
691.434	4834
691.439	4782
691.478	4668
691.522	4446
691.559	4246
691.567	4249
691.611	4742
691.655	4543
691.680	4538
691.699	4469
691.743	4796
691.787	4625
691.800	4489
691.831	4345
691.875	4353
691.919	4557
691.921	4544
691.964	4611
692.008	5075
692.041	5254
692.052	5241
692.096	5060
692.139	4924
692.162	4916
692.183	4908
692.227	4786
692.271	4584
692.282	4464
692.315	4374
692.359	4702
692.402	4898
692.403	4911
692.447	5025
692.490	5164
692.523	5323
692.534	5296
692.578	4833
692.622	4707
692.643	4600
692.666	4680
692.709	4735
692.753	4739
692.763	4786
692.797	4940
692.840	4669
692.884	5355
692.884	5373
692.928	5101
692.971	4972
693.004	5526
693.015	5654
693.059	4992
693.102	4618
693.124	4758
693.146	5162
693.189	5141
693.233	5518
693.245	5577
693.276	5515
693.320	5588
693.363	5373
693.365	5357
693.407	5612
693.450	5567
693.485	6110
693.493	6302
693.537	6499
693.580	6906
693.605	7244
693.624	7981
693.667	9387
693.710	11030
693.725	11746
693.753	14590
693.797	18269
693.840	22595
693.845	22969
693.883	21682
693.926	20538
693.966	19345
693.970	19059
694.013	15592
694.056	12474
694.086	10059
694.099	9606
694.142	8502
694.185	6954
694.206	6308
694.229	6381
694.272	6569
694.315	6714
694.326	6716
694.358	6521
694.401	6023
694.444	5852
694.446	5825
694.487	5810
694.530	5593
694.566	5511
694.573	5507
694.616	5334
694.659	5281
694.686	5223
694.702	5350
694.745	5429
694.787	5768
694.806	5814
694.830	5821
694.873	5872
694.916	6025
694.926	6038
694.959	5990
695.002	5802
695.044	5550
695.046	5526
695.087	5769
695.130	5986
695.166	6244
695.172	6293
695.215	6440
695.258	6533
695.286	6551
695.301	6533
695.343	6713
695.386	6633
695.406	6557
695.428	6547
695.471	6627
695.514	6640
695.526	6647
695.556	6907
695.599	7022
695.641	7511
695.646	7508
695.684	6805
695.726	6180
695.766	5396
695.769	5421
695.811	5533
695.854	5866
695.886	6149
695.896	6266
695.938	6411
695.981	6554
696.005	6710
696.023	6839
696.065	7021
696.108	7193
696.125	7275
696.150	7460
696.192	7665
696.235	7947
696.245	7959
696.277	7735
696.319	7601
696.361	7293
696.365	7252
696.404	7599
696.446	7793
696.485	8225
696.488	8262
696.530	8265
696.572	8246
696.604	8278
696.614	8252
696.656	7958
696.698	7710
696.724	7529
696.740	7641
696.783	7793
696.825	8206
696.844	8222
696.867	8049
696.909	7888
696.951	7545
696.964	7496
696.992	7705
697.034	7664
697.076	7897
697.083	7894
697.118	8074
697.160	8206
697.202	8382
697.203	8365
697.244	8524
697.286	8355
697.323	8342
697.327	8368
697.369	8258
697.411	8266
697.442	8227
697.453	8264
697.494	8237
697.536	8291
697.562	8324
697.578	8466
697.620	8649
697.661	8881
697.682	8995
697.703	9008
697.744	8907
697.786	8952
697.801	8884
697.828	9054
697.869	9288
697.911	9527
697.921	9587
697.952	9468
697.994	9151
698.035	8888
698.040	8829
698.077	8639
698.118	8340
698.160	8074
698.160	8047
698.201	8378
698.243	8636
698.279	8843
698.284	8859
698.325	8793
698.367	8670
698.399	8559
698.408	8633
698.449	8850
698.491	9088
698.518	9214
698.532	9270
698.573	9328
698.614	9425
698.638	9437
698.656	9501
698.697	9612
698.738	9704
698.757	9725
698.779	9709
698.820	9605
698.862	9516
698.877	9457
698.903	9623
698.944	9831
698.985	10049
698.996	10081
699.026	10076
699.067	10035
699.116	9959
699.235	9113
699.354	8941
699.474	9587
699.593	9353
699.713	9430
699.832	9367
699.951	9996
700.070	9048
700.190	9833
700.309	9626
700.428	9340
700.547	8777
700.667	8619
700.786	9568
700.905	9309
701.024	9315
701.143	8040
701.262	8407
701.381	8831
701.500	9564
701.619	8894
701.738	9014
701.857	9923
701.976	9835
702.095	8811
702.214	8843
702.333	8882
702.452	8007
702.571	9414
702.690	9953
702.809	8293
702.928	8375
703.047	8761
703.165	8679
703.284	9208
703.403	8349
703.522	9113
703.640	9787
703.759	9347
703.878	8325
703.997	8609
704.115	8633
704.234	8028
704.353	8564
704.471	7948
704.590	7634
704.708	7864
704.827	7995
704.946	8382
705.064	7141
705.183	8824
705.301	8324
705.420	7525
705.538	8222
705.656	8077
705.775	9273
705.893	19822
706.012	22199
706.130	7971
706.249	8144
706.367	7795
706.485	7303
706.604	7097
706.722	8647
706.840	12302
706.958	25234
707.077	14196
707.195	7697
707.313	8261
707.431	7552
707.549	6625
707.668	7418
707.786	8254
707.904	6825
708.022	6861
708.140	7479
708.258	7486
708.376	6837
708.494	7519
708.612	7567
708.730	7859
708.848	7167
708.966	7297
709.084	7021
709.202	7550
709.320	6605
709.438	6602
709.556	6522
709.674	7358
709.791	8138
709.909	6356
710.027	7137
710.145	7147
710.263	7722
710.380	7055
710.498	6097
710.616	7050
710.733	6182
710.851	7138
710.969	6101
711.086	6751
711.204	6280
711.322	7043
711.439	5239
711.557	6173
711.674	6383
711.792	6520
711.909	8495
712.027	8958
712.144	6961
712.262	6914
712.379	6037
712.497	6545
712.614	6138
712.732	6408
712.849	6099
712.966	6221
713.084	6351
713.201	6511
713.318	6560
713.436	6892
713.553	7468
713.670	8026
713.787	7331
713.905	7841
714.022	7321
714.139	7264
714.256	10925
714.373	17650
714.490	34511
714.608	109948
714.725	487848
714.842	413074
714.959	25746
715.076	11167
715.193	9369
715.310	9486
715.427	6801
715.544	7262
715.661	6982
715.778	6863
715.895	6670
716.011	6792
716.128	5610
716.245	6661
716.362	6468
716.479	7064
716.596	6298
716.713	7102
716.829	6529
716.946	7092
717.063	5904
717.180	5870
717.296	5637
717.413	5678
717.530	5823
717.646	5542
717.763	6072
717.880	6057
717.996	4429
718.113	6112
718.229	5883
718.346	5017
718.462	5191
718.579	6177
718.695	5464
718.812	5436
718.928	5289
719.045	4643
719.161	5418
719.277	6767
719.394	6526
719.510	6723
719.626	6165
719.743	7958
719.859	13842
719.975	29743
720.092	131090
720.208	262912
720.324	25119
720.440	7541
720.557	7504
720.673	7003
720.789	5281
720.905	6661
721.021	5400
721.137	5521
721.253	5594
721.369	4656
721.486	5025
721.602	5242
721.718	5345
721.834	4975
721.950	5046
722.066	5216
722.181	4439
722.297	6063
722.413	5338
722.529	6237
722.645	5179
722.761	5421
722.877	5451
722.993	5722
723.108	6507
723.224	6093
723.340	5905
723.456	6522
723.571	5330
723.687	5469
723.803	5084
723.918	4403
724.034	4739
724.150	5155
724.265	4978
724.381	5345
724.497	4323
724.612	4760
724.728	5447
724.843	4614
724.959	5389
725.074	5445
725.190	5167
725.305	5288
725.421	4595
725.536	4626
725.651	4985
725.767	5403
725.882	5920
725.997	4676
726.113	4336
726.228	4835
726.343	5199
726.459	4742
726.574	4221
726.689	5138
726.804	4354
726.920	4063
727.035	5285
727.150	4457
727.265	5333
727.380	5324
727.495	6690
727.610	5595
727.725	5086
727.841	6802
727.956	12955
728.071	8866
728.186	5132
728.301	4405
728.416	4843
728.531	5124
728.645	4936
728.760	6208
728.875	5952
728.990	7683
729.105	6179
729.220	5840
729.335	5837
729.449	5365
729.564	4660
729.679	4110
729.794	4517
729.908	4604
730.023	4862
730.138	4935
730.253	4369
730.367	4539
730.482	4999
730.596	5047
730.711	5355
730.826	8631
730.940	9506
731.055	4421
731.169	3668
731.284	4994
731.398	4611
731.513	5720
731.627	5408
731.742	5631
731.856	5307
731.970	6405
732.085	7509
732.199	10740
732.313	19171
732.428	51485
732.542	150045
732.656	71127
732.771	13266
732.885	8370
732.999	7589
733.113	6753
733.227	6477
733.342	5515
733.456	5028
733.570	5187
733.684	4966
733.798	6097
733.912	6203
734.026	5553
734.140	5521
734.254	5437
734.368	5522
734.482	5806
734.596	5295
734.710	5564
734.824	4673
734.938	5109
735.052	5252
735.166	6123
735.280	5676
735.393	4880
735.507	5373
735.621	5462
735.735	5290
735.849	4865
735.962	4796
736.076	5771
736.190	4906
736.303	5724
736.417	6081
736.531	5194
736.644	5667
736.758	5487
736.872	4350
736.985	5570
737.099	4189
737.212	5127
737.326	5178
737.439	5725
737.553	5143
737.666	5521
737.780	5410
737.893	5241
738.007	5887
738.120	4959
738.233	4753
738.347	4859
738.460	4563
738.573	4704
738.687	4080
738.800	5061
738.913	5151
739.026	5101
739.140	5498
739.253	5565
739.366	4805
739.479	5140
739.592	4425
739.705	4734
739.818	3733
739.932	4205
740.045	5097
740.158	4410
740.271	4944
740.384	5097
740.497	6539
740.610	6798
740.723	6595
740.836	6213
740.949	5333
741.062	5970
741.174	4834
741.287	5437
741.400	5266
741.513	5740
741.626	7088
741.739	6689
741.851	4847
741.964	5079
742.077	5205
742.189	5630
742.302	8234
742.415	7749
742.527	5678
742.640	4920
742.753	4690
742.865	4537
742.978	4294
743.090	4279
743.203	3709
743.316	3219
743.428	3984
743.541	4436
743.653	3508
743.766	3509
743.878	3813
743.990	3247
744.103	5202
744.215	4404
744.327	3930
744.440	4618
744.552	3787
744.664	3104
744.777	2906
744.889	3271
745.001	3867
745.113	3959
745.226	3964
745.338	4302
745.450	3943
745.562	3294
745.674	3025
745.786	3672
745.898	3622
746.010	4128
746.122	3492
746.234	2766
746.347	3620
746.459	4048
746.570	3184
746.682	5456
746.794	6006
746.906	4355
747.018	3124
747.130	3271
747.242	2583
747.354	2719
747.466	4128
747.577	3582
747.689	3486
747.801	3692
747.913	3443
748.024	3701
748.136	2894
748.248	2698
748.359	3765
748.471	4080
748.583	3035
748.694	4075
748.806	4149
748.918	3459
749.029	3501
749.141	3147
749.252	2929
749.364	3002
749.475	3015
749.587	3568
749.698	3095
749.809	3818
749.921	2924
750.032	3222
750.144	3100
750.255	2929
750.366	1870
750.478	3418
750.589	3743
750.700	3108
750.811	4303
750.923	3675
751.034	3012
751.145	3857
751.256	3304
751.367	3213
751.479	3025
751.590	2945
751.701	3797
751.812	2520
751.923	3369
752.034	3460
752.145	2774
752.256	2410
752.367	2607
752.478	3512
752.589	3663
752.700	2780
752.811	3041
752.922	2639
753.032	2501
753.143	2563
753.254	2518
753.365	3865
753.476	3811
753.586	3041
753.697	3304
753.808	2852
753.919	2293
754.029	3578
754.140	3459
754.251	2638
754.361	2887
754.472	3378
754.582	2045
754.693	2866
754.804	2880
754.914	2567
755.025	1976
755.135	3774
755.246	2852
755.356	1885
755.466	3162
755.577	3845
755.687	3076
755.798	2141
755.908	2767
756.018	2992
756.129	3082
756.239	3490
756.349	3041
756.460	3287
756.570	3574
756.680	2470
756.790	2470
756.900	3026
757.011	2978
757.121	2514
757.231	2473
757.341	2955
757.451	2873
757.561	2061
757.671	3376
757.781	2548
757.891	3183
758.001	1968
758.111	3304
758.221	3362
758.331	2409
758.441	3597
758.551	2708
758.661	3300
758.771	3850
758.880	3804
758.990	3193
759.100	3710
759.210	3486
759.320	3897
759.429	3577
759.539	4045
759.649	3872
759.758	3740
759.868	4328
759.978	4175
760.087	3888
760.197	4390
760.307	3535
760.416	3693
760.526	2703
760.635	3824
760.745	2980
760.854	5412
760.964	4579
761.073	5168
761.182	4312
761.292	4481
761.401	3452
761.511	2927
761.620	2893
761.729	3483
761.839	2962
761.948	4118
762.057	4098
762.166	3462
762.276	2312
762.385	4236
762.494	2569
762.603	4343
762.712	3357
762.822	3144
762.931	3528
763.040	3276
763.149	2986
763.258	3704
763.367	3252
763.476	3467
763.585	3675
763.694	4035
763.803	2721
763.912	3896
764.021	4087
764.130	3938
764.238	3796
764.347	3906
764.456	4136
764.565	4125
764.674	4455
764.783	4551
764.891	4434
765.000	6264
765.109	5642
765.217	5608
765.326	7378
765.435	8632
765.543	9747
765.652	11521
765.761	14859
765.869	22804
765.978	36170
766.086	64658
766.195	136209
766.303	359734
766.412	840101
766.520	653654
766.629	202985
766.737	74374
766.846	41233
766.954	28332
767.062	21544
767.171	17920
767.279	13276
767.387	9626
767.496	8684
767.604	8405
767.712	7309
767.820	6773
767.928	6074
768.037	5886
768.145	6170
768.253	6854
768.361	4826
768.469	5516
768.577	4846
768.685	6457
768.793	6264
768.901	6034
769.009	6766
769.117	7688
769.225	10868
769.333	16080
769.441	24621
769.549	51182
769.657	122743
769.765	399265
769.873	666219
769.981	240910
770.088	56414
770.196	27644
770.304	18280
770.412	13780
770.519	9790
770.627	7817
770.735	6779
770.842	6381
770.950	5401
771.058	5076
771.165	5547
771.273	5069
771.380	4766
771.488	4493
771.595	3957
771.703	4281
771.810	3484
771.918	2839
772.025	3968
772.133	3667
772.240	3950
772.348	4306
772.455	4538
772.562	3244
772.670	3537
772.777	4387
772.884	4049
772.991	4040
773.099	3832
773.206	2298
773.313	4171
773.420	3720
773.528	3003
773.635	2839
773.742	3129
773.849	3531
773.956	2595
774.063	2884
774.170	3316
774.277	3709
774.384	2302
774.491	2822
774.598	3140
774.705	2301
774.812	3014
774.919	3603
775.026	3198
775.133	2264
775.239	2756
775.346	2498
775.453	2758
775.560	2840
775.667	2060
775.773	2269
775.880	2208
775.987	1679
776.093	2524
776.200	2541
776.307	1777
776.413	3274
776.520	2284
776.627	3065
776.733	2619
776.840	1679
776.946	4870
777.053	5506
777.159	10121
777.266	5172
777.372	8790
777.478	7139
777.585	4724
777.691	2747
777.798	2665
777.904	3001
778.010	3859
778.117	2700
778.223	2321
778.329	2582
778.435	1892
778.542	2770
778.648	2123
778.754	1827
778.860	1884
778.966	2355
779.072	1988
779.178	2314
779.284	2204
779.391	1578
779.497	245
779.603	3897
779.708	1699
779.815	4133
779.920	10517
780.026	15654
780.132	3507
780.238	2206
780.344	1915
780.450	3966
780.556	1805
780.661	2198
780.767	1653
780.873	1970
780.979	2792
781.085	1994
781.190	2443
781.296	1945
781.402	2078
781.507	1885
781.613	2122
781.719	1635
781.824	2218
781.930	2576
782.035	2538
782.141	1827
782.246	2383
782.352	2430
782.457	2805
782.563	2016
782.668	2346
782.773	2256
782.879	1382
782.984	2116
783.090	3068
783.195	2920
783.300	3203
783.405	2326
783.511	1856
783.616	2538
783.721	2747
783.826	2891
783.932	3288
784.037	3202
784.142	2486
784.247	3423
784.352	2920
784.457	2416
784.562	2486
784.667	3451
784.772	2525
784.877	1790
784.982	2833
785.087	2272
785.192	3067
785.297	2913
785.402	2917
785.507	2251
785.611	2366
785.716	1333
785.821	1911
785.926	1658
786.031	2464
786.135	1662
786.240	2087
786.345	1120
786.450	1786
786.554	2106
786.659	1429
786.763	1069
786.868	2438
786.973	2518
787.077	1132
787.182	1759
787.286	2619
787.391	2040
787.495	1298
787.600	1653
787.704	1490
787.809	2147
787.913	1218
788.017	1243
788.122	2137
788.226	1661
788.330	1328
788.435	1658
788.539	1416
788.643	1319
788.747	1107
788.852	1516
788.956	692
789.060	1474
789.164	1847
789.268	1146
789.372	1618
789.476	1370
789.580	1112
789.684	1119
789.788	1636
789.892	1125
789.996	1901
790.100	980
790.204	1066
790.308	1726
790.412	651
790.516	2530
790.620	1632
790.724	2250
790.828	1104
790.931	1412
791.035	3130
791.139	1119
791.242	940
791.346	2300
791.450	712
791.554	2361
791.657	209
791.761	2552
791.864	2569
791.968	1818
792.072	1931
792.175	1066
792.279	1809
792.382	1805
792.486	1684
792.589	858
792.693	1484
792.796	973
792.899	1627
793.003	2308
793.106	45
793.209	1325
793.313	2527
793.416	810
793.519	2675
793.623	1413
793.726	970
793.829	2024
793.932	1934
794.035	803
794.138	2291
794.242	2516
794.345	1230
794.448	1452
794.551	1346
794.654	5329
794.757	8101
794.860	2464
794.963	1040
795.066	744
795.169	2196
795.272	529
795.375	1797
795.477	497
795.580	1340
795.683	132
795.786	1123
795.889	15
795.991	1645
796.094	1850
796.197	-104
796.300	1868
796.402	1082
796.505	481
796.608	1006
796.710	1430
796.813	543
796.915	876
797.018	1056
797.120	903
797.223	-542
797.326	1482
797.428	467
797.530	460
797.633	-50
797.735	2026
797.838	712
797.940	1568
798.042	355
798.145	382
798.247	1596
798.349	-868
798.452	1048
798.554	24
798.656	275
798.758	924
798.860	943
798.962	465
799.065	281
799.167	-573
799.269	2177
799.371	1829
799.473	1815
799.575	623
799.677	763
799.779	1503
799.881	-501
799.983	1554
800.085	1181
800.187	513
800.289	-76
800.390	695
800.492	1135
800.594	2094
800.696	439
800.798	607
800.899	982
801.001	441
801.103	606
801.205	687
801.306	1360
801.408	983
801.509	701
801.611	1489
801.713	869
801.814	289
801.916	643
802.017	687
802.119	-219
802.220	46
802.322	-1091
802.423	2215
802.525	-815
802.626	1081
802.727	987
802.829	1351
802.930	-1107
803.031	1675
803.133	495
803.234	909
803.335	878
803.436	96
803.538	412
803.639	-130
803.740	1469
803.841	424
803.942	779
804.043	1301
804.144	133
804.245	389
804.346	-307
804.447	-404
804.548	-269
804.649	1555
804.750	-18
804.851	687
804.952	645
805.053	697
805.154	-735
805.255	1327
805.355	607
805.456	771
805.557	218
805.658	-518
805.758	288
805.859	5
805.960	48
806.061	815
806.161	676
806.262	947
806.362	258
806.463	-187
806.564	1473
806.664	150
806.765	821
806.865	1283
806.966	769
807.066	125
807.166	1235
807.267	1314
807.367	165
807.468	765
807.568	-635
807.668	1293
807.769	1074
807.869	418
807.969	1136
808.069	24
808.170	715
808.270	614
808.370	792
808.470	1052
808.570	-558
808.670	1358
808.770	799
808.870	759
808.970	757
809.070	367
809.170	174
809.271	975
809.370	171
809.470	1936
809.570	363
809.670	-67
809.770	510
809.870	1355
809.970	372
810.070	994
810.169	1016
810.269	-475
810.369	1374
810.469	503
810.568	213
810.668	438
810.768	443
810.867	1033
810.967	100
811.066	910
811.166	816
811.265	1355
811.365	228
811.464	841
811.564	1437
811.663	617
811.763	-633
811.862	957
811.962	1855
812.061	1345
812.160	208
812.260	951
812.359	648
812.458	588
812.557	1243
812.657	978
812.756	1245
812.855	955
812.954	1073
813.053	1279
813.153	409
813.252	738
813.351	1660
813.450	1516
813.549	735
813.648	1892
813.747	981
813.846	1084
813.945	547
814.044	785
814.143	1827
814.242	1377
814.341	910
814.439	1183
814.538	2266
814.637	1345
814.736	1643
814.835	2609
814.933	896
815.032	2331
815.131	2392
815.229	2507
815.328	3053
815.427	2792
815.525	2894
815.624	2756
815.722	1830
815.821	2595
815.919	2888
816.018	3028
816.116	3814
816.215	3983
816.313	3622
816.412	4241
816.510	4472
816.609	6163
816.707	5326
816.805	5590
816.904	5501
817.002	6714
817.100	7816
817.198	9587
817.296	9676
817.395	11616
817.493	14393
817.591	16061
817.689	22968
817.787	30874
817.885	50417
817.983	90374
818.081	187069
818.179	424421
818.277	884960
818.375	707148
818.473	258081
818.571	111706
818.669	73796
818.767	61178
818.865	61392
818.963	72577
819.061	102091
819.158	173129
819.256	340627
819.354	722875
819.452	1174655
819.549	805041
819.647	330639
819.745	155910
819.842	92843
819.940	62478
820.038	44683
820.135	33947
820.233	29082
820.330	22167
820.428	16873
820.525	16136
820.623	13895
820.720	10519
820.818	11669
820.915	10514
821.012	8725
821.110	7410
821.207	7474
821.304	5478
821.402	6313
821.499	7223
821.596	7959
821.693	5751
821.791	4999
821.888	4634
821.985	4593
822.082	3542
822.179	4436
822.276	3995
822.373	2619
822.470	3399
822.567	2843
822.664	2497
822.761	3243
822.858	1389
822.955	2638
823.052	2022
823.149	2223
823.246	2148
823.343	1753
823.440	2328
823.536	1942
823.633	1496
823.730	1460
823.827	2123
823.923	2081
824.020	2146
824.117	1357
824.213	1462
824.310	1951
824.407	1677
824.503	732
824.600	1884
824.696	1049
824.793	2097
824.889	583
824.986	1421
825.082	786
825.179	1064
825.275	663
825.371	309
825.468	1212
825.564	182
825.660	563
825.757	868
825.853	2103
825.949	462
826.045	794
826.142	-43
826.238	555
826.334	1164
826.430	-50
826.526	965
826.622	337
826.718	-630
826.814	475
826.910	1430
827.006	310
827.102	-149
827.198	872
827.294	278
827.390	165
827.486	952
827.582	-545
827.678	20
827.774	633
827.869	17
827.965	1432
828.061	-1074
828.157	1143
828.252	1015
828.348	-606
828.444	707
828.539	-1142
828.635	-119
828.731	1396
828.826	-497
828.922	955
829.017	-30
829.113	849
829.208	-213
829.304	-171
829.399	1391
829.495	-123
829.590	973
829.685	-1146
829.781	522
829.876	-270
829.971	63
830.066	-319
830.162	454
830.257	155
830.352	-268
830.447	713
830.543	-627
830.638	-844
830.733	1146
830.828	-348
830.923	636
831.018	387
831.113	613
831.208	-1037
831.303	285
831.398	-178
831.493	-177
831.588	-57
831.683	-449
831.778	986
831.873	572
831.967	1182
832.062	-262
832.157	-710
832.252	757
832.346	361
832.441	638
832.536	16
832.631	181
832.725	-161
832.820	-458
832.914	-372
833.009	111
833.104	-26
833.198	-312
833.293	66
833.387	175
833.482	-418
833.576	-97
833.670	1023
833.765	268
833.859	-748
833.954	170
834.048	498
834.142	175
834.237	-803
834.331	436
834.425	-254
834.519	-673
834.613	954
834.708	-1325
834.802	182
834.896	-325
834.990	-310
835.084	149
835.178	-685
835.272	-269
835.366	-524
835.460	482
835.554	-343
835.648	326
835.742	239
835.836	663
835.930	-2154
836.024	590
836.117	-1
836.211	-502
836.305	-314
836.399	-21
836.493	-2182
836.586	623
836.680	-543
836.774	-24
836.867	556
836.961	-500
837.055	-290
837.148	62
837.242	-93
837.335	-858
837.429	-160
837.522	-106
837.616	21
837.709	403
837.803	-352
837.896	-453
837.989	101
838.083	-614
838.176	-243
838.269	-775
838.363	-91
838.456	-221
838.549	-343
838.642	-534
838.735	-9
838.829	-149
838.922	-1042
839.015	-236
839.108	-885
839.201	9
839.294	-180
839.387	-315
839.480	-575
839.573	-692
839.666	-556
839.759	-106
839.852	-979
839.945	-265
840.038	-741
840.131	-85
840.223	-335
840.316	329
840.409	-398
840.502	-1189
840.594	967
840.687	-308
840.780	-619
840.873	423
840.965	93
841.058	-242
841.150	-377
841.243	-532
841.336	759
841.428	-921
841.521	-541
841.613	-599
841.706	-1150
841.798	-200
841.890	-406
841.983	-1302
842.075	-68
842.167	-285
842.260	-745
842.352	343
842.444	-468
842.537	-561
842.629	265
842.721	-369
842.813	109
842.905	-1155
842.997	-218
843.090	-462
843.182	-195
843.274	-582
843.366	920
843.458	-639
843.550	152
843.642	323
843.734	8
843.826	-808
843.918	72
844.009	151
844.101	-269
844.193	-290
844.285	-960
844.377	142
844.469	1088
844.560	727
844.652	1271
844.744	400
844.835	-301
844.927	-35
845.019	-710
845.110	-532
845.202	119
845.293	-593
845.385	-827
845.476	-57
845.568	539
845.659	-514
845.751	880
845.842	-509
845.934	-1026
846.025	-776
846.116	-396
846.208	-777
846.299	-748
846.390	-968
846.482	-465
846.573	98
846.664	-758
846.755	-981
846.846	67
846.937	-1179
847.029	-463
847.120	-638
847.211	-621
847.302	222
847.393	-1546
847.484	-51
847.575	-383
847.666	-1040
847.757	-184
847.847	-587
847.938	951
848.029	141
848.120	-1356
848.211	-1174
848.302	-1087
848.392	-527
848.483	-23
848.574	-279
848.664	-769
848.755	-461
848.846	-1144
848.936	-386
849.027	-389
849.118	-144
849.208	-109
849.299	294
849.389	2375
849.480	5347
849.570	11844
849.661	22925
849.751	38274
849.841	11607
849.932	930
850.022	-138
850.112	-46
850.203	-318
850.293	-221
850.383	396
850.474	-730
850.564	-77
850.654	-95
850.744	-403
850.834	-634
850.924	-346
851.014	-223
851.104	-519
851.194	-1310
851.284	-960
851.374	-644
851.464	-1645
851.554	-183
851.644	41
851.734	-354
851.824	-924
851.914	-194
852.004	37
852.094	-1048
852.183	-935
852.273	-178
852.363	-929
852.452	-785
852.542	-21
852.632	-630
852.721	284
852.811	-224
852.901	-320
852.990	-191
853.080	6
853.169	-835
853.259	-284
853.348	-162
853.438	1864
853.527	2888
853.617	2936
853.706	8790
853.795	17124
853.885	41400
853.974	80416
854.063	148677
854.152	223196
854.242	76488
854.331	11574
854.420	4063
854.509	2336
854.598	2628
854.687	2282
854.777	1862
854.866	343
854.955	1378
855.044	-423
855.133	130
855.222	54
855.311	-203
855.400	-62
855.488	385
855.577	-1091
855.666	-403
855.755	1235
855.844	589
855.933	-245
856.021	128
856.110	-265
856.199	-1027
856.288	-1420
856.376	-438
856.465	-1217
856.554	-579
856.642	324
856.731	-269
856.819	-78
856.908	-671
856.996	-1148
857.085	-1348
857.173	-567
857.262	-83
857.350	-185
857.438	-524
857.527	-697
857.615	-672
857.703	-311
857.792	-1083
857.880	-1549
857.968	-1748
858.056	-101
858.145	-807
858.233	-625
858.321	-734
858.409	305
858.497	-622
858.585	-1243
858.673	-37
858.761	-722
858.849	-1004
858.937	-812
859.025	-897
859.113	-995
859.201	-734
859.289	-290
859.377	-246
859.465	-1155
859.552	-766
859.640	-646
859.728	-465
859.816	-344
859.903	-106
859.991	-1071
860.079	-495
860.166	-652
860.254	-1420
860.342	-203
860.429	-614
860.517	-890
860.604	-667
860.692	-1001
860.779	-700
860.867	-1534
860.954	-1178
861.042	-476
861.129	-863
861.216	-938
861.304	-514
861.391	72
861.478	-963
861.565	-611
861.653	-633
861.740	-1005
861.827	-1565
861.914	-175
862.001	-1038
862.089	-623
862.176	-50
862.263	-963
862.350	-273
862.437	-453
862.524	-1019
862.611	-758
862.698	-753
862.785	-80
862.871	556
862.958	-869
863.045	-572
863.132	-909
863.219	-1455
863.306	-658
863.392	252
863.479	-592
863.566	-194
863.652	-587
863.739	-715
863.826	-33
863.912	-722
863.999	-659
864.086	-370
864.172	662
864.259	-113
864.345	-662
864.432	-57
864.518	-314
864.604	-99
864.691	-636
864.777	-47
864.863	869
864.950	29
865.036	288
865.122	309
865.209	1183
865.295	1050
865.381	1278
865.467	1199
865.553	2746
865.639	4082
865.726	8654
865.812	19384
865.898	37499
865.984	54420
866.070	106761
866.156	111201
866.242	26023
866.328	5412
866.414	1378
866.499	1790
866.585	1542
866.671	642
866.757	949
866.843	438
866.928	656
867.014	595
867.100	-133
867.186	-41
867.271	-66
867.357	-551
867.442	-201
867.528	149
867.614	94
867.699	259
867.785	1944
867.870	995
867.956	1712
868.041	1321
868.127	62
868.212	516
868.297	914
868.383	1034
868.468	469
868.553	931
868.639	62
868.724	-543
868.809	497
868.894	-367
868.979	218
869.065	142
869.150	-776
869.235	199
869.320	-851
869.405	-76
869.490	-414
869.575	-233
869.660	-12
869.745	268
869.830	-44
869.915	-710
870.000	590
870.085	25
870.169	-410
870.254	57
870.339	-170
870.424	-904
870.509	633
870.593	-491
870.678	459
870.763	-402
870.847	-26
870.932	-460
871.016	814
871.101	-896
871.186	-556
871.270	-461
871.355	-558
871.439	323
871.523	-1045
871.608	-1095
871.692	-578
871.777	671
871.861	713
871.945	-582
872.030	-443
872.114	20
872.198	-398
872.282	-541
872.367	-669
872.451	-644
872.535	-374
872.619	-442
872.703	-998
872.787	-434
872.871	207
872.955	-233
873.039	-709
873.123	-794
873.207	811
873.291	-630
873.375	-441
873.459	-376
873.543	-516
873.627	-231
873.711	-607
873.794	-479
873.878	-311
873.962	-1042
874.045	33
874.129	81
874.137	81
874.213	84
874.245	-164
874.296	-560
874.352	-810
874.380	-939
874.460	-1054
874.464	-1059
874.547	-593
874.568	-422
874.631	93
874.676	-225
874.714	-499
874.784	-66
874.798	21
874.881	418
874.892	351
874.965	-118
874.999	-83
875.048	-66
875.107	106
875.131	198
875.215	-235
875.215	-236
875.298	-689
875.323	-477
875.381	40
875.430	-219
875.465	-380
875.538	-691
875.548	-750
875.631	-492
875.646	-505
875.714	-501
875.753	-150
875.798	259
875.861	-32
875.881	-145
875.964	-218
875.968	-223
876.047	-177
876.076	-185
876.130	-240
876.183	-243
876.213	-242
876.291	-171
876.296	-170
876.379	-485
876.398	-495
876.462	-524
876.506	-463
876.545	-368
876.613	-44
876.628	23
876.711	-97
876.721	-87
876.794	-12
876.828	279
876.877	677
876.935	461
876.960	395
877.043	698
877.043	698
877.125	649
877.150	973
877.208	1687
877.258	1429
877.291	1292
877.365	910
877.374	856
877.456	1219
877.472	1216
877.539	1180
877.579	1275
877.622	1478
877.687	1740
877.704	1742
877.787	992
877.794	917
877.869	366
877.901	601
877.952	887
878.008	754
878.034	721
878.115	304
878.117	297
878.199	85
878.222	155
878.282	210
878.329	370
878.364	518
878.437	83
878.447	21
878.529	152
878.544	79
878.611	-179
878.651	-17
878.694	166
878.758	374
878.776	392
878.858	84
878.865	63
878.941	-67
878.972	81
879.023	335
879.078	-338
879.105	-697
879.185	-396
879.187	-388
879.269	-502
879.292	-516
879.351	-304
879.399	70
879.433	124
879.506	6
879.516	20
879.598	-619
879.613	-599
879.680	-320
879.720	85
879.762	198
879.827	-464
879.844	-534
879.926	-536
879.933	-461
880.007	18
880.040	-207
880.089	-458
880.147	-518
880.171	-588
880.253	-516
880.254	-518
880.335	-437
880.360	-227
880.417	-71
880.467	-332
880.499	-462
880.574	-494
880.580	-479
880.662	-478
880.680	-540
880.744	-693
880.787	-473
880.825	-285
880.893	31
880.907	39
880.989	-422
881.000	-402
881.070	-236
881.106	-360
881.152	-409
881.213	-497
881.233	-475
881.315	-367
881.319	-350
881.396	-242
881.426	-388
881.478	-774
881.532	-768
881.559	-604
881.639	148
881.641	156
881.722	-255
881.745	-267
881.803	278
881.852	286
881.885	-153
881.958	-341
881.966	-311
882.047	-314
882.064	-343
882.129	-344
882.171	-454
882.210	-688
882.277	-182
882.291	-25
882.372	-783
882.383	-738
882.454	-535
882.489	-523
882.535	-342
882.596	-4
882.616	-17
882.697	-212
882.702	-231
882.778	36
882.808	151
882.859	97
882.914	28
882.940	14
883.020	24
883.021	25
883.102	146
883.127	-50
883.183	-369
883.233	-294
883.264	-168
883.339	-56
883.345	-72
883.426	-353
883.445	-244
883.507	124
883.551	-351
883.587	-615
883.657	-224
883.668	-159
883.749	-22
883.763	-10
883.830	-113
883.869	-64
883.910	-105
883.975	-448
883.991	-412
884.072	-134
884.081	-85
884.152	201
884.187	179
884.233	-110
884.292	-276
884.314	-306
884.394	-458
884.398	-482
884.475	-643
884.504	-629
884.555	-357
884.610	-52
884.636	-181
884.716	-326
884.716	-318
884.797	-56
884.821	271
884.877	353
884.927	49
884.958	-3
885.033	14
885.038	5
885.118	-538
885.139	-544
885.199	-418
885.244	-458
885.279	-434
885.350	-203
885.359	-134
885.439	95
885.456	191
885.520	146
885.561	52
885.600	-126
885.667	-249
885.680	-250
885.760	-451
885.773	-495
885.840	-393
885.878	-282
885.920	-104
885.984	166
886.000	104
886.080	-469
886.089	-514
886.160	-250
886.195	-84
886.240	96
886.300	312
886.320	254
886.400	-18
886.406	-36
886.480	-247
886.511	-387
886.560	-65
886.616	370
886.640	486
886.720	766
886.722	769
886.800	409
886.827	292
886.879	308
886.932	290
886.959	239
887.038	88
887.039	90
887.119	-85
887.143	-75
887.198	108
887.248	264
887.278	191
887.354	-226
887.358	-212
887.437	185
887.459	276
887.517	256
887.564	226
887.596	-15
887.669	-486
887.676	-476
887.755	-519
887.774	-481
887.835	-335
887.880	-268
887.914	-51
887.985	381
887.994	369
888.073	122
888.090	84
888.153	116
888.195	131
888.232	125
888.300	174
888.311	214
888.391	370
888.405	403
888.470	101
888.510	-99
888.549	-140
888.615	-247
888.628	-212
888.708	48
888.720	85
888.787	-195
888.825	-396
888.866	-257
888.930	43
888.945	41
889.024	-69
889.035	-78
889.103	143
889.140	246
889.182	193
889.245	139
889.261	159
889.340	213
889.349	220
889.419	496
889.454	641
889.498	303
889.559	-176
889.577	-266
889.656	-647
889.664	-678
889.735	44
889.768	391
889.814	287
889.873	153
889.978	-419
890.083	699
890.187	-112
890.292	438
890.397	327
890.501	313
890.606	511
890.710	719
890.815	677
890.919	303
891.024	214
891.128	207
891.233	472
891.337	47
891.442	48
891.546	618
891.650	-234
891.755	-27
891.859	1040
891.963	726
892.068	-14
892.172	396
892.276	483
892.380	-59
892.484	278
892.589	222
892.693	515
892.797	94
892.901	-6
893.005	849
893.109	-105
893.213	-91
893.317	-60
893.421	339
893.525	414
893.629	-24
893.733	614
893.837	-329
893.941	-246
894.045	822
894.148	93
894.252	-91
894.356	-2
894.460	9
894.564	-314
894.667	374
894.771	-269
894.875	-466
894.978	-23
895.082	311
895.186	253
895.289	85
895.393	302
895.496	70
895.600	-912
895.703	175
895.807	-40
895.910	-419
896.014	-188
896.117	-424
896.221	205
896.324	-369
896.427	295
896.531	-392
896.634	163
896.737	-497
896.840	-262
896.944	-377
897.047	-971
897.150	-951
897.253	-664
897.356	-473
897.460	-602
897.563	-201
897.666	-408
897.769	262
897.872	-758
897.975	-90
898.078	-917
898.181	78
898.284	-842
898.387	233
898.490	637
898.593	-358
898.695	-214
898.798	128
898.901	65
899.004	-57
899.107	981
899.209	-423
899.312	-175
899.415	-186
899.518	-50
899.620	-361
899.723	-752
899.826	386
899.928	78
900.031	-769
900.133	-214
900.236	-9
900.338	-566
900.441	157
900.543	45
900.646	61
900.748	-388
900.851	343
900.953	-248
901.055	-454
901.158	-104
901.260	-1810
901.362	-490
901.465	347
901.567	73
901.669	-454
901.771	-364
901.873	469
901.976	-299
902.078	-255
902.180	-346
902.282	434
902.384	-71
902.486	226
902.588	-248
902.690	-150
902.792	103
902.894	-4
902.996	-236
903.098	-769
903.200	-334
903.302	71
903.404	-732
903.505	369
903.607	103
903.709	32
903.811	-176
903.913	455
904.014	40
904.116	-497
904.218	174
904.319	118
904.421	728
904.523	574
904.624	41
904.726	525
904.827	923
904.929	378
905.030	554
905.132	163
905.233	477
905.335	-201
905.436	-459
905.537	28
905.639	332
905.740	6
905.841	-303
905.943	335
906.044	24
906.145	27
906.247	-373
906.348	162
906.449	264
906.550	-463
906.651	100
906.752	41
906.854	-1004
906.955	104
907.056	-152
907.157	-118
907.258	-850
907.359	-553
907.460	-506
907.561	-234
907.662	-609
907.762	-66
907.863	-298
907.964	-832
908.065	-448
908.166	630
908.267	185
908.367	-411
908.468	-679
908.569	-561
908.670	528
908.770	-249
908.871	-529
908.971	28
909.072	-146
909.173	-1253
909.273	-704
909.374	-309
909.474	-1007
909.575	20
909.675	-375
909.776	-149
909.876	-233
909.977	-209
910.077	245
910.177	508
910.278	-469
910.378	-839
910.478	-208
910.579	530
910.679	12
910.779	-17
910.879	-370
910.980	-189
911.080	237
911.180	-415
911.280	-316
911.380	-261
911.480	-407
911.580	-268
911.680	-429
911.780	-185
911.880	-783
911.980	361
912.080	194
912.180	-197
912.280	-767
912.380	328
912.480	-201
912.580	-601
912.679	-1211
912.779	-108
912.879	-166
912.979	-90
913.078	-857
913.178	-260
913.278	-609
913.377	420
913.477	-90
913.577	-229
913.676	713
913.776	-59
913.875	-455
913.975	407
914.074	64
914.174	79
914.273	-1006
914.373	699
914.472	149
914.572	-747
914.671	-393
914.770	-363
914.870	-414
914.969	266
915.068	-458
915.167	-602
915.267	-276
915.366	-263
915.465	-310
915.564	28
915.663	-449
915.763	-293
915.862	-932
915.961	22
916.060	49
916.159	-191
916.258	-584
916.357	-77
916.456	-286
916.555	-316
916.654	-189
916.752	-132
916.851	-549
916.950	-5
917.049	242
917.148	-442
917.247	-118
917.345	-223
917.444	-1083
917.543	20
917.642	157
917.740	-1135
917.839	-357
917.937	140
918.036	-179
918.135	-420
918.233	277
918.332	-294
918.430	-623
918.529	479
918.627	-138
918.726	-199
918.824	-321
918.923	-337
919.021	236
919.119	-1113
919.218	-265
919.316	-486
919.414	-88
919.512	-492
919.611	-296
919.709	-513
919.807	-487
919.905	-393
920.003	-446
920.102	-1332
920.200	-623
920.298	-38
920.396	264
920.494	446
920.592	-944
920.690	-655
920.788	-377
920.886	-131
920.984	-133
921.082	-280
921.180	-248
921.277	-255
921.375	-215
921.473	-391
921.571	-710
921.669	-222
921.766	-311
921.864	338
921.962	674
922.060	152
922.157	482
922.255	168
922.352	-767
922.450	735
922.548	-381
922.645	-194
922.743	-1189
922.840	484
922.938	-68
923.035	266
923.133	23
923.230	666
923.327	1066
923.425	963
923.522	244
923.619	-318
923.717	584
923.814	90
923.911	-715
924.008	1139
924.106	-87
924.203	504
924.300	865
924.397	-359
924.494	36
924.591	132
924.688	-344
924.786	460
924.883	-3
924.979	420
925.077	579
925.173	180
925.270	560
925.367	201
925.464	-303
925.561	353
925.658	279
925.755	-483
925.852	380
925.948	899
926.045	1278
926.142	1500
926.239	864
926.335	716
926.432	829
926.529	1595
926.625	1777
926.722	1304
926.818	624
926.915	23
927.011	120
927.108	91
927.204	592
927.301	-170
927.397	781
927.494	523
927.590	-794
927.687	312
927.783	581
927.879	-7
927.976	-332
928.072	73
928.168	420
928.264	389
928.361	-468
928.457	285
928.553	-872
928.649	300
928.745	38
928.841	494
928.937	-438
929.033	-375
929.129	123
929.225	-138
929.321	-216
929.417	-523
929.513	-377
929.609	-102
929.705	-463
929.801	380
929.897	371
929.993	-502
930.089	-335
930.184	-527
930.280	-562
930.376	-316
930.471	-196
930.567	96
930.663	1034
930.758	-269
930.854	-556
930.950	63
931.045	-499
931.141	110
931.236	88
931.332	-417
931.427	-744
931.523	-277
931.618	446
931.714	-693
931.809	351
931.905	416
932.000	-1018
932.095	-872
932.191	-586
932.286	-117
932.381	-129
932.476	420
932.572	-184
932.667	-45
932.762	-779
932.857	-786
932.952	-67
933.047	156
933.142	-657
933.237	-399
933.332	-108
933.427	675
933.522	-289
933.617	-60
933.712	-92
933.807	126
933.902	-171
933.997	-483
934.092	-132
934.187	-572
934.282	-27
934.376	-380
934.471	-394
934.566	-469
934.661	-570
934.755	223
934.850	-566
934.945	357
935.039	497
935.134	-140
935.228	668
935.323	-483
935.417	-389
935.512	-399
935.606	-153
935.701	163
935.795	-230
935.890	-42
935.984	-126
936.079	-332
936.173	477
936.267	-38
936.362	-689
936.456	-281
936.550	145
936.644	-519
936.738	-149
936.833	-406
936.927	-784
937.021	-174
937.115	-649
937.209	-585
937.303	-92
937.397	191
937.491	-890
937.585	8
937.679	613
937.773	-89
937.867	-656
937.961	-140
938.055	248
938.149	557
938.243	-346
938.337	-255
938.430	-686
938.524	833
938.618	1676
938.712	1085
938.805	-301
938.899	56
938.993	572
939.086	80
939.180	2352
939.274	1996
939.367	191
939.461	359
939.554	-166
939.648	-375
939.741	-471
939.835	-778
939.928	-127
940.022	-96
940.115	-164
940.208	-218
940.302	-19
940.395	-32
940.488	-794
940.582	-756
940.675	-822
940.768	202
940.861	-701
940.954	-369
941.048	-450
941.141	322
941.234	-65
941.327	651
941.420	860
941.513	-386
941.606	-617
941.699	-899
941.792	-951
941.885	-133
941.978	291
942.071	158
942.164	-161
942.257	-232
942.349	-130
942.442	-603
942.535	-273
942.628	-610
942.721	-79
942.813	-489
942.906	-598
942.999	-204
943.091	-699
943.184	-956
943.277	-1817
943.369	148
943.462	-437
943.554	-32
943.647	-1015
943.739	254
943.832	-862
943.924	-1519
944.017	-697
944.109	-864
944.201	-405
944.294	-304
944.386	-949
944.478	-351
944.571	-712
944.663	-449
944.755	-1051
944.847	-463
944.940	-375
945.032	-664
945.124	-905
945.216	-117
945.308	14
945.400	286
945.492	52
945.584	-414
945.676	-624
945.768	-444
945.860	279
945.952	-279
946.044	630
946.136	-205
946.228	283
946.320	-1118
946.412	-1204
946.503	-551
946.595	-591
946.687	-615
946.779	-789
946.870	-1222
946.962	-947
947.054	-790
947.145	-247
947.237	-523
947.329	-369
947.420	-360
947.512	686
947.603	-901
947.695	-851
947.786	-1831
947.878	-764
947.969	-894
948.061	-1753
948.152	-841
948.243	-663
948.335	-623
948.426	-970
948.517	-559
948.609	-984
948.700	-1190
948.791	-899
948.882	204
948.973	-401
949.065	-1656
949.156	-1210
949.247	-635
949.338	-546
949.429	-1226
949.520	-1000
949.611	-1201
949.702	-1252
949.793	-240
949.884	-1156
949.975	-254
950.066	-995
950.157	-968
950.247	-618
950.338	-897
950.429	-1508
950.520	-1251
950.611	-1482
950.701	-189
950.792	-87
950.883	-859
950.973	-654
951.064	-586
951.155	-717
951.245	-839
951.336	-1107
951.427	-1007
951.517	140
951.608	-778
951.698	-591
951.788	-1545
951.879	-506
951.969	-1131
952.060	-534
952.150	-189
952.240	-531
952.331	-857
952.421	-565
952.511	-1106
952.602	-378
952.692	-928
952.782	-201
952.872	-790
952.962	-734
953.052	-778
953.143	-1215
953.233	-788
953.323	-752
953.413	-761
953.503	-536
953.593	-626
953.683	-1059
953.773	-1160
953.863	-901
953.953	-909
954.042	-154
954.132	-1004
954.222	-121
954.312	-432
954.402	-905
954.492	-708
954.581	-850
954.671	-700
954.761	-1704
954.850	423
954.940	-615
955.030	-302
955.119	-1460
955.209	-1135
955.298	-1027
955.388	-963
955.477	913
955.567	-1961
955.656	-451
955.746	-277
955.835	-972
955.925	-1337
956.014	-623
956.103	-1538
956.193	-481
956.282	-405
956.371	-700
956.461	-1222
956.550	-1321
956.639	-786
956.728	-1265
956.817	-8
956.906	-706
956.995	-421
957.085	-936
957.174	-1045
957.263	-1436
957.352	-560
957.441	-831
957.530	-467
957.619	-377
957.708	-1197
957.796	-1448
957.885	-1019
957.974	-1061
958.063	-921
958.152	-2369
958.241	-1037
958.329	-1617
958.418	-1178
958.507	-1657
958.596	-141
958.684	-1406
958.773	-510
958.861	-1011
958.950	-793
959.039	-981
959.127	-1210
959.216	-1216
959.304	-1037
959.393	-985
959.481	-846
959.570	-836
959.658	-947
959.746	-1292
959.835	-1035
959.923	-1301
960.011	-1304
960.100	-679
960.188	-1129
960.276	-733
960.365	-1144
960.453	-775
960.541	-1313
960.629	-1681
960.717	-1256
960.805	-2085
960.893	-1180
960.981	-1488
961.069	-610
961.158	-572
961.245	-517
961.333	-1628
961.421	-1185
961.509	-996
961.597	-1435
961.685	-1217
961.773	-700
961.861	-941
961.949	-413
962.036	-1861
962.124	-965
962.212	-1670
962.299	-1124
962.387	-1651
962.475	-1229
962.562	-1470
962.650	-822
962.738	-1429
962.825	-1200
962.913	-1003
963.000	-1022
963.088	-1699
963.175	-904
963.263	-1277
963.350	-1320
963.438	-1764
963.525	-856
963.612	-1107
963.700	-1253
963.787	-865
963.874	-541
963.962	-778
964.049	-1135
964.136	-1762
964.223	-1852
964.310	-2167
964.398	-982
964.485	-1327
964.572	-1168
964.659	-1957
964.746	-1283
964.833	-1600
964.920	-1858
965.007	-1604
965.094	-1232
965.181	-1908
965.268	-470
965.355	-1429
965.441	-1900
965.528	-838
965.615	-1546
965.702	-1844
965.789	-1877
965.875	-1220
965.962	-899
966.049	-2436
966.136	-869
966.222	-1499
966.309	-1367
966.395	-1468
966.482	-1274
966.569	-1566
966.655	-1297
966.742	-1197
966.828	-1530
966.915	-1668
967.001	-1757
967.087	-1363
967.174	-959
967.260	-730
967.347	-713
967.433	-1895
967.519	-1348
967.605	-2003
967.692	-1188
967.778	-591
967.864	-1352
967.950	-1348
968.036	-2214
968.123	-1365
968.209	-1924
968.295	-1652
968.381	-618
968.467	-1054
968.553	-2856
968.639	-354
968.725	-1781
968.811	-1692
968.897	-1485
968.983	-1210
969.069	-1346
969.154	-1492
969.240	-1433
969.326	-1439
969.412	-1907
969.497	-2757
969.583	-1866
969.669	-986
969.755	-574
969.840	-1119
969.926	-1204
970.012	-1962
970.097	-501
970.183	-861
970.268	-1762
970.354	-1053
970.439	-1897
970.525	-251
970.610	-2388
970.696	-329
970.781	-1508
970.866	-1374
970.952	-1191
971.037	-2266
971.122	-1534
971.208	-1570
971.293	-1500
971.378	-2369
971.463	-1566
971.549	-1202
971.634	-1252
971.719	-1636
971.804	-1485
971.889	-687
971.974	-1345
972.059	-1326
972.144	-1885
972.229	-743
972.314	-1775
972.399	-1454
972.484	-2412
972.569	-685
972.654	-2034
972.739	-1139
972.824	-1945
972.908	-2035
972.993	-2165
973.078	-1368
973.163	-1915
973.247	-2270
973.332	-2825
973.417	185
973.501	-1730
973.586	-1065
973.671	-1314
973.755	-1464
973.840	-642
973.924	-994
974.009	-1233
974.093	-2477
974.178	-810
974.262	-1330
974.346	-1510
974.431	-1379
974.515	-1709
974.600	-2062
974.684	-1355
974.768	-1726
974.852	-231
974.937	-2840
975.021	-1639
975.105	-1184
975.189	-1752
975.273	-1899
975.358	-1487
975.442	-1939
975.526	-1098
975.610	-2015
975.694	-2148
975.778	-1297
975.862	-1148
975.946	-2930
976.030	55
976.114	-2018
976.198	-894
976.281	-1942
976.365	-674
976.449	-2183
976.533	-659
976.617	-2072
976.700	-840
976.784	-1432
976.868	-1476
976.951	-1330
977.035	-1399
977.119	-1417
977.202	-1828
977.286	-924
977.369	-508
977.453	-749
977.536	-1406
977.620	-1930
977.703	-624
977.787	-1703
977.870	-507
977.953	-613
978.037	-1939
978.120	-378
978.203	-1803
978.287	-2350
978.370	-1640
978.453	-1935
978.536	-1594
978.620	-848
978.703	-897
978.786	-1767
978.869	-2506
978.952	-2310
979.035	-693
979.118	-468
979.201	-1550
979.284	-1344
979.367	-1793
979.450	-1127
979.533	-2566
979.616	-2172
979.699	-1646
979.782	-1140
979.865	-1759
979.948	-2188
980.030	-1673
980.113	-1024
980.196	-2125
980.279	-503
980.361	-1639
980.444	-1577
980.526	-1593
980.609	-2316
980.692	-1871
980.774	-1650
980.857	-2489
980.939	-1441
981.022	-1621
981.104	-1648
981.187	-1826
981.269	-1402
981.352	-1191
981.434	-1760
981.516	-1862
981.599	-185
981.681	-1126
981.763	-1151
981.846	-998
981.928	-1478
982.010	-1786
982.092	-1691
982.174	-1036
982.256	-2217
982.339	-1791
982.421	-1198
982.503	-1767
982.585	-2408
982.667	-2174
982.749	-1493
982.831	-1434
982.913	-2524
982.995	-998
983.077	-1896
983.158	-552
983.240	-2615
983.322	-641
983.404	-1741
983.486	-1929
983.568	-416
983.649	-1440
983.731	-1217
983.813	-1514
983.894	-1202
983.976	-2199
984.058	-1646
984.139	-483
984.221	-2123
984.302	-991
984.384	-640
984.465	-1737
984.547	-735
984.628	-2261
984.710	-1789
984.791	-1748
984.872	-1147
984.954	-1631
985.035	-1240
985.116	-1696
985.198	-1388
985.279	-477
985.360	-1772
985.441	-1140
985.522	-1283
985.604	-2321
985.685	-2543
985.766	-931
985.847	-407
985.928	-2468
986.009	-2181
986.090	-2186
986.171	-1664
986.252	-2033
986.333	-1239
986.414	-1324
986.495	-1361
986.576	-954
986.656	-1619
986.737	-2079
986.818	-553
986.899	-2362
986.980	-1740
987.060	-1168
987.141	-2091
987.222	-1179
987.302	-1013
987.383	-1648
987.464	-2084
987.544	-859
987.625	-2407
987.705	-1556
987.786	-1619
987.866	-1562
987.947	-1025
988.027	-861
988.108	-792
988.188	-1433
988.268	-839
988.349	-1572
988.429	-1916
988.509	-1181
988.589	-1218
988.670	-2908
988.750	-736
988.830	-1372
988.910	-922
988.990	-1418
989.070	-1736
989.151	-1594
989.231	-2138
989.311	-1003
989.391	-1440
989.471	-1205
989.551	-2303
989.631	-844
989.711	-1158
989.791	-1799
989.870	-1981
989.950	-1423
990.030	-1697
990.110	-1605
990.190	-1830
990.269	-2153
990.349	-1515
990.429	-1897
990.509	-1006
990.588	-2255
990.668	-1525
990.747	-1413
990.827	-1889
990.907	-279
990.986	-2347
991.066	-978
991.145	-1955
991.225	-628
991.304	-1215
991.383	-1563
991.463	-2130
991.542	-1153
991.622	-960
991.701	-1562
991.780	-2061
991.859	-1345
991.939	-1504
992.018	-1121
992.097	-1859
992.176	-1184
992.256	-1470
992.335	-2551
992.414	-1353
992.493	-1224
992.572	-1539
992.651	-569
992.730	-2327
992.809	-1714
992.888	-1823
992.967	-2034
993.046	-1286
993.125	-2189
993.203	-2181
993.282	-1479
993.361	-1468
993.440	-1937
993.519	-1455
993.597	-2062
993.676	-2423
993.755	-1397
993.834	-1975
993.912	-2881
993.991	-2106
994.069	-2387
994.148	-1572
994.226	-1109
994.305	-1803
994.384	-1953
994.462	-1070
994.540	-2334
994.619	-2631
994.697	-1058
994.776	-1831
994.854	-1831
994.932	-1892
995.011	-1974
995.089	-2026
995.167	-1311
995.245	-2205
995.324	-2253
995.402	-1315
995.480	-2317
995.558	-978
995.636	-1913
995.714	-2114
995.792	-91
995.870	-2272
995.948	-1762
996.026	-1915
996.104	-2326
996.182	-1238
996.260	-2326
996.338	-1345
996.416	-2211
996.494	-1968
996.572	-1273
996.649	-2925
996.727	-2308
996.805	-2116
996.883	-1866
996.960	-2724
997.038	-938
997.116	-2007
997.193	-1849
997.271	-1848
997.348	-2927
997.426	-1902
997.504	-2396
997.581	-1420
997.658	-1073
997.736	-2285
997.813	-2321
997.891	-1091
997.968	-2024
998.046	-2654
998.123	-2130
998.200	-1305
998.277	-1877
998.355	-1477
998.432	-2335
998.509	-1400
998.586	-2144
998.663	-2317
998.741	-917
998.818	-1932
998.895	-2216
998.972	-2245
999.049	-2319
999.126	-2748
999.203	-1609
999.280	-2338
999.357	-1982
999.434	-3382
999.511	-1800
999.587	-1271
999.664	-2328
999.741	-2144
999.818	-1598
999.895	-2042
999.971	-2166
1000.048	-2464
1000.125	-1511
1000.202	-2684
1000.278	-2862
1000.355	-2383
1000.431	-3330
1000.508	-2257
1000.584	-1670
1000.661	-1963
1000.738	-3108
1000.814	-2213
1000.890	-2685
1000.967	-1976
1001.043	-2121
1001.120	-3208
1001.196	-1961
1001.272	-2964
1001.349	-1829
1001.425	-2593
1001.501	-1326
1001.577	-2715
1001.654	-1677
1001.730	-1653
1001.806	-2686
1001.882	-3361
1001.958	-1537
1002.034	-2139
1002.110	-2035
1002.186	-2440
1002.262	-1778
1002.338	-3114
1002.414	-1826
1002.490	-2282
1002.566	-1969
1002.642	-3169
1002.718	-1625
1002.794	-1480
1002.870	-2592
1002.945	-2536
1003.021	-2486
1003.097	-2735
1003.173	-2453
1003.248	-2203
1003.324	-2207
1003.400	-2386
1003.475	-2732
1003.551	-2045
1003.626	-1759
1003.702	-2350
1003.777	-2351
1003.853	-2244
1003.928	-2978
1004.004	-2302
1004.079	-1459
1004.155	-1969
1004.230	-2396
1004.305	-1090
1004.381	-2676
1004.456	-1930
1004.531	-2136
1004.607	-2848
1004.682	-2717
1004.757	-2420
1004.832	-2478
1004.907	-2452
1004.982	-2591
1005.057	-2186
1005.133	-2632
1005.208	-2143
1005.283	-2774
1005.358	-1857
1005.433	-3001
1005.508	-1330
1005.583	-2697
1005.657	-2848
1005.732	-1854
1005.807	-2932
1005.882	-1875
1005.957	-2612
1006.032	-2488
1006.106	-2861
1006.181	-2833
1006.256	-2241
1006.331	-3022
1006.405	-2913
1006.480	-2055
1006.554	-2546
1006.629	-2076
1006.704	-2269
1006.778	-1797
1006.853	-2233
1006.927	-2299
1007.002	-3088
1007.076	-2287
1007.150	-3059
1007.225	-2059
1007.299	-2688
1007.373	-3005
1007.448	-1868
1007.522	-1900
1007.596	-2993
1007.671	-2447
1007.745	-2131
1007.819	-2608
1007.893	-2856
1007.967	-2458
1008.041	-3259
1008.115	-2391
1008.190	-2895
1008.264	-1884
1008.338	-3381
1008.412	-2112
1008.486	-2666
1008.560	-1611
1008.633	-3404
1008.707	-2793
1008.781	-2095
1008.855	-3020
1008.929	-3094
1009.003	-3055
1009.076	-2674
1009.150	-2251
1009.224	-2513
1009.298	-2430
1009.371	-3118
1009.445	-1930
1009.519	-2452
1009.592	-2638
1009.666	-1984
1009.739	-2956
1009.813	-3416
1009.886	-1254
1009.960	-3405
1010.033	-2002
1010.107	-2785
1010.180	-2839
1010.253	-2265
1010.327	-2382
1010.400	-2843
1010.473	-2687
1010.547	-2666
1010.620	-2435
1010.693	-2703
1010.766	-2666
1010.840	-2161
1010.913	-1997
1010.986	-2606
1011.059	-1876
1011.132	-2585
1011.205	-1511
1011.278	-2465
1011.351	-2521
1011.424	-2677
1011.497	-2989
1011.570	-2562
1011.643	-2771
1011.716	-2900
1011.789	-3101
1011.862	-2386
1011.934	-1684
1012.007	-3141
1012.080	-2611
1012.153	-2373
1012.225	-1865
1012.298	-3011
1012.371	-2495
1012.443	-2511
1012.516	-2895
1012.588	-2549
1012.661	-2064
1012.733	-2937
1012.806	-2018
1012.879	-3292
1012.951	-2231
1013.023	-2825
1013.096	-2733
1013.168	-2298
1013.241	-2315
1013.313	-3030
1013.385	-3666
1013.458	-3498
1013.530	-1589
1013.602	-3471
1013.674	-1402
1013.746	-3270
1013.819	-2717
1013.891	-2079
1013.963	-2863
1014.035	-2913
1014.107	-2437
1014.179	-2255
1014.251	-2748
1014.323	-1583
1014.395	-2364
1014.467	-2575
1014.539	-2441
1014.611	-3052
1014.683	-2796
1014.754	-2344
1014.826	-2601
1014.898	-2312
1014.970	-2671
1015.042	-1602
1015.113	-2482
1015.185	-2408
1015.257	-2889
1015.328	-2588
1015.400	-2903
1015.471	-2934
1015.543	-2850
1015.615	-2711
1015.686	-3217
1015.757	-2877
1015.829	-2190
1015.901	-2475
1015.972	-2778
1016.043	-2538
1016.115	-2627
1016.186	-1979
1016.257	-3048
1016.328	-2012
1016.400	-1628
1016.471	-3325
1016.542	-2182
1016.613	-2760
1016.685	-2033
1016.756	-1858
1016.827	-2024
1016.898	-2877
1016.969	-2262
1017.040	-2344
1017.111	-2509
1017.182	-3021
1017.253	-2404
1017.324	-2644
1017.395	-3726
1017.466	-2927
1017.537	-1900
1017.608	-1949
1017.678	-2555
1017.749	-2026
1017.820	-2283
1017.891	-3082
1017.961	-2814
1018.032	-2498
1018.103	-2421
1018.173	-2355
1018.244	-2587
1018.315	-2281
1018.385	-2005
1018.456	-2477
1018.526	-2303
1018.597	-2111
1018.667	-2637
1018.738	-2922
1018.808	-2113
1018.878	-3176
1018.949	-2902
1019.019	-2930
1019.089	-2689
1019.160	-2850
1019.230	-2999
1019.300	-2419
1019.371	-3433
1019.441	-2202
1019.511	-2585
1019.581	-2450
1019.651	-2408
1019.721	-1558
1019.791	-2314
1019.861	-2783
1019.931	-2211
1020.001	-2555
1020.071	-2575
1020.141	-2457
1020.211	-2319
1020.281	-2976
1020.351	-2523
1020.421	-2298
1020.491	-2585
1020.560	-2650
1020.630	-2614
1020.700	-2239
1020.770	-3216
1020.839	-2433
1020.909	-2410
1020.979	-1986
1021.048	-1979
1021.118	-2504
1021.187	-2815
1021.257	-2470
1021.326	-2263
1021.396	-2714
1021.465	-1886
1021.535	-2356
1021.604	-2907
1021.674	-2723
1021.743	-2221
1021.812	-2506
1021.882	-3309
1021.951	-2976
1022.020	-2332
1022.089	-1710
1022.159	-2177
1022.228	-2013
1022.297	-1957
1022.366	-2572
1022.435	-1902
1022.504	-3189
1022.573	-2895
1022.642	-2233
1022.711	-3048
1022.781	-2642
1022.849	-2060
1022.918	-3124
1022.987	-1773
1023.056	-2400
1023.125	-2342
1023.194	-2172
1023.263	-3112
1023.331	-2600
1023.400	-2401
1023.469	-2742
1023.538	-2207
1023.606	-3542
1023.675	-2626
1023.744	-3830
1023.812	-2652
1023.881	-2550
1023.949	-2394
1024.018	-2915
1024.086	-2978
1024.155	-3000
1024.223	-2532
1024.292	-2612
1024.360	-2060
1024.429	-2731
1024.497	-2916
1024.565	-2347
1024.634	-1663
1024.702	-2770
1024.770	-2361
1024.838	-2727
1024.907	-2522
1024.975	-2651
1025.043	-2024
1025.111	-2394
1025.179	-2613
1025.247	-2734
1025.315	-2827
1025.383	-2747
1025.451	-2745
1025.519	-2612
1025.587	-3119
1025.655	-2749
1025.723	-2812
1025.791	-2947
1025.859	-1983
1025.927	-1868
1025.995	-3617
1026.062	-1342
1026.130	-2381
1026.198	-2595
1026.266	-2389
1026.333	-1681
1026.401	-2219
1026.469	-2915
1026.536	-2192
1026.604	-2385
1026.671	-2697
1026.739	-2827
1026.806	-2700
1026.874	-3073
1026.941	-3186
1027.009	-2352
1027.076	-2883
1027.144	-2433
1027.211	-2563
1027.278	-2353
1027.345	-2161
1027.413	-2479
1027.480	-2431
1027.547	-2546
1027.614	-2298
1027.682	-3017
1027.749	-2730
1027.816	-2161
1027.883	-2241
1027.950	-2659
1028.017	-2412
1028.084	-2355
1028.151	-2815
1028.218	-2338
1028.285	-2302
1028.352	-2589
1028.419	-2542
1028.486	-2319
1028.553	-2639
1028.619	-3404
1028.686	-2190
1028.753	-2135
1028.820	-2065
1028.886	-2413
1028.953	-2427
1029.020	-2286
1029.086	-2822
1029.153	-2085
1029.220	-2695
1029.286	-2682
1029.353	-2269
1029.419	-2750
1029.486	-2394
1029.552	-3341
1029.619	-2685
1029.685	-2605
1029.751	-3118
1029.818	-1595
1029.884	-1917
1029.951	-1772
1030.017	-2933
1030.083	-1993
1030.149	-2206
1030.216	-2847
1030.282	-2498
1030.348	-2832
1030.414	-3181
1030.480	-2556
1030.546	-2614
1030.612	-2641
1030.678	-2398
1030.744	-2705
1030.810	-2295
1030.876	-2354
1030.942	-3289
1031.008	-3015
1031.074	-2728
1031.140	-2140
1031.206	-2416
1031.272	-2931
1031.337	-2311
1031.403	-2053
1031.469	-2503
1031.534	-2599
1031.600	-2189
1031.666	-2671
1031.731	-2852
1031.797	-2213
1031.863	-2129
1031.928	-2743
1031.994	-2327
1032.059	-2649
1032.125	-2719
1032.190	-2868
1032.256	-2517
1032.321	-3031
1032.386	-3031
1032.452	-3091
1032.517	-2279
1032.582	-2552
1032.647	-2358
1032.713	-3166
1032.778	-2740
1032.843	-2532
1032.908	-2571
1032.974	-2797
1033.039	-3135
1033.104	-2927
1033.169	-2446
1033.234	-3105
1033.299	-2477
1033.364	-2276
1033.429	-2237
1033.494	-2261
1033.559	-2465
1033.624	-2644
1033.688	-2703
1033.753	-2657
1033.818	-2196
1033.883	-2543
1033.948	-2209
1034.013	-2612
1034.077	-3092
1034.142	-2692
1034.207	-1935
1034.271	-1573
1034.336	-1534
1034.400	-2272
1034.465	-3070
1034.530	-2663
1034.594	-2764
1034.658	-2823
1034.723	-3119
1034.787	-1619
1034.852	-2353
1034.916	-1947
1034.981	-2496
1035.045	-2140
1035.109	-2811
1035.173	-2081
1035.238	-3037
1035.302	-1957
1035.366	-1931
1035.430	-3003
1035.495	-2932
1035.559	-2084
1035.623	-2842
1035.687	-3060
1035.751	-2297
1035.815	-2978
1035.879	-2528
1035.943	-2816
1036.007	-2963
1036.071	-2638
1036.135	-2523
1036.198	-1854
1036.262	-2497
1036.326	-2899
1036.390	-2310
1036.454	-2364
1036.517	-2467
1036.581	-2724
1036.645	-2262
1036.709	-2517
1036.772	-3063
1036.836	-3029
1036.900	-2686
1036.963	-2716
1037.026	-2636
1037.090	-2499
1037.154	-3048
1037.217	-2943
1037.280	-2163
1037.344	-1894
1037.407	-2348
1037.471	-2097
1037.534	-2058
1037.597	-2314
1037.661	-2430
1037.724	-2129
1037.787	-2257
1037.850	-2502
1037.913	-2705
1037.977	-1521
1038.040	-2251
1038.103	-2457
1038.166	-3112
1038.229	-2198
1038.292	-2212
1038.355	-2086
1038.418	-2538
1038.481	-2082
1038.544	-1779
1038.607	-1894
1038.670	-2451
1038.732	-2055
1038.795	-2434
1038.858	-2053
1038.921	-1921
1038.984	-1865
1039.046	-2470
1039.109	-2730
1039.172	-2252
1039.234	-2413
1039.297	-2575
1039.360	-2563
1039.422	-2218
1039.485	-2203
1039.547	-2520
1039.610	-3366
1039.672	-2014
1039.734	-2597
1039.797	-2959
1039.859	-1563
1039.922	-2266
1039.984	-2527
1040.046	-2950
1040.109	-2255
1040.171	-2913
1040.233	-2779
1040.295	-2557
1040.358	-3260
1040.420	-3276
1040.482	-2472
1040.544	-1950
1040.606	-1784
1040.668	-1978
1040.730	-2184
1040.792	-2598
1040.854	-2929
1040.916	-1920
1040.978	-2511
1041.040	-2224
1041.102	-1946
1041.164	-2628
1041.225	-2692
1041.287	-2498
1041.349	-3109
1041.411	-1000
1041.472	-2014
1041.534	-2835
1041.596	-2028
1041.657	-2181
1041.719	-2446
1041.781	-2682
1041.842	-1964
1041.904	-2009
1041.965	-2609
1042.027	-2043
1042.088	-1981
1042.150	-1685
1042.211	-1964
1042.272	-1383
1042.334	-2060
1042.395	-2376
1042.456	-2277
1042.518	-1250
1042.579	-1881
1042.640	-2065
1042.701	-2270
1042.763	-1035
1042.824	-2501
1042.885	-2145
1042.946	-2661
1043.007	-2652
1043.068	-2190
1043.129	-1857
1043.190	-2348
1043.251	-1986
1043.312	-1958
1043.373	-1436
1043.434	-1993
1043.495	-2511
1043.556	-2084
1043.616	-1623
1043.677	-2110
1043.738	-2665
1043.799	-2009
1043.859	-1187
1043.920	-3246
1043.981	-2409
1044.041	-2215
1044.102	-1683
1044.162	-2595
1044.223	-2574
1044.284	-2387
1044.344	-2678
1044.405	-2034
1044.465	-2211
1044.525	-1591
1044.586	-1311
1044.646	-1668
1044.707	-1865
1044.767	-2104
1044.827	-1798
1044.887	-2013
1044.948	-2423
1045.008	-2456
1045.068	-2252
1045.128	-2213
1045.188	-2246
1045.249	-2126
1045.309	-2555
1045.369	-1979
1045.429	-1886
1045.489	-2201
1045.549	-1754
1045.609	-1925
1045.669	-2634
1045.729	-2215
1045.789	-2463
1045.848	-2226
1045.908	-1676
1045.968	-1402
1046.028	-1603
1046.088	-2190
1046.147	-1693
1046.207	-2249
1046.267	-1796
1046.326	-1613
1046.386	-1482
1046.446	-1543
1046.505	-1165
1046.565	-2095
1046.624	-535
1046.684	-1184
1046.743	-1079
1046.803	-1029
1046.862	-702
1046.922	0
