'Start Wavelength	183.907
'End Wavelength	1046.922
'Gate Delay	5.000
'Gate Width (ms)	1.050
'Laser Output Level	0.000
'X Position	0.000
'Y Position	0.000
'Z Position	0.000
'Grid Point Number	1.000
'Shot Number	100.000
183.907	877.000
183.977	-275.000
184.047	-113
184.116	733
184.186	361
184.256	-114
184.325	145
184.395	-439
184.465	1403
184.534	598
184.604	378
184.674	-288
184.743	-56
184.813	562
184.883	493
184.952	444
185.022	-18
185.092	132
185.161	527
185.231	179
185.301	525
185.370	1039
185.440	-135
185.509	-156
185.579	317
185.649	356
185.718	563
185.788	539
185.857	-331
185.927	270
185.996	38
186.066	511
186.136	422
186.205	253
186.275	79
186.344	444
186.414	402
186.483	-126
186.553	481
186.622	597
186.692	560
186.761	-21
186.831	1116
186.900	252
186.970	643
187.039	711
187.109	1685
187.178	669
187.248	216
187.317	430
187.387	830
187.456	1181
187.526	1304
187.595	1118
187.664	311
187.734	729
187.803	115
187.873	598
187.942	1432
188.012	279
188.081	416
188.150	565
188.220	873
188.289	1454
188.358	512
188.428	416
188.497	63
188.567	929
188.636	942
188.705	956
188.775	854
188.844	335
188.913	794
188.983	831
189.052	1153
189.121	134
189.191	749
189.260	1247
189.329	1376
189.399	1589
189.468	710
189.537	148
189.606	605
189.676	1199
189.745	497
189.814	1212
189.883	246
189.953	1469
190.022	1772
190.091	3685
190.161	4435
190.230	2017
190.299	740
190.368	1051
190.437	1085
190.507	967
190.576	615
190.645	1348
190.714	361
190.783	866
190.853	1029
190.922	912
190.991	680
191.060	1132
191.129	-291
191.198	445
191.268	1206
191.337	1149
191.406	1620
191.475	174
191.544	1043
191.613	525
191.682	817
191.752	641
191.821	1206
191.890	922
191.959	1643
192.028	1011
192.097	1737
192.166	697
192.235	695
192.304	189
192.373	364
192.442	271
192.511	429
192.580	947
192.650	648
192.719	635
192.788	1465
192.857	1310
192.926	1038
192.995	1264
193.064	3815
193.133	2791
193.202	3034
193.271	2826
193.340	3052
193.409	2743
193.478	2751
193.547	3383
193.615	4292
193.684	4224
193.753	3483
193.822	2346
193.891	1690
193.960	2152
194.029	1393
194.098	1937
194.167	1544
194.236	1670
194.305	1007
194.374	1336
194.443	1288
194.512	1163
194.580	2102
194.649	2067
194.718	1381
194.787	2189
194.856	962
194.925	1861
194.994	1784
195.062	2261
195.131	1108
195.200	1367
195.269	3149
195.338	1474
195.407	1265
195.475	1751
195.544	1612
195.613	2063
195.682	1379
195.751	2049
195.819	2223
195.888	1950
195.957	3319
196.026	2530
196.094	2321
196.163	2539
196.232	2199
196.301	2585
196.369	2094
196.438	2204
196.507	1504
196.576	1067
196.644	1936
196.713	2355
196.782	1421
196.850	1828
196.919	1775
196.988	1574
197.056	1355
197.125	1434
197.194	1265
197.262	1271
197.331	1357
197.400	1577
197.468	1725
197.537	1575
197.606	1686
197.674	2724
197.743	5408
197.812	2616
197.880	4642
197.949	4049
198.017	5028
198.086	3931
198.155	2289
198.223	3151
198.292	6609
198.360	2896
198.429	2639
198.497	2859
198.566	3790
198.635	6729
198.703	2852
198.772	3100
198.840	7206
198.909	7564
198.977	3183
199.046	2374
199.114	3158
199.183	2577
199.251	1596
199.320	1734
199.388	1305
199.457	1921
199.525	2033
199.594	2729
199.662	2085
199.731	2091
199.799	2673
199.867	1755
199.936	1471
200.004	1832
200.073	2105
200.141	1000
200.210	2010
200.278	1844
200.346	1950
200.415	2866
200.483	2384
200.552	2336
200.620	2587
200.688	2208
200.757	2129
200.825	2248
200.893	2025
200.962	1703
201.030	1888
201.098	808
201.167	2357
201.235	1872
201.303	1893
201.372	2064
201.440	2019
201.508	2863
201.577	1819
201.645	2849
201.713	2767
201.781	2129
201.850	2817
201.918	2494
201.986	2659
202.055	2788
202.123	2298
202.191	1978
202.259	3104
202.327	1723
202.396	2586
202.464	3224
202.532	3239
202.600	6235
202.669	4359
202.737	3152
202.805	2150
202.873	2589
202.941	2298
203.009	2318
203.078	1790
203.146	2786
203.214	2129
203.282	1716
203.350	2303
203.418	2553
203.487	2637
203.555	2599
203.623	2397
203.691	2869
203.759	2131
203.827	2643
203.895	3487
203.963	2834
204.031	3157
204.099	2087
204.168	2794
204.236	3099
204.304	2708
204.372	3382
204.440	2885
204.508	2232
204.576	2476
204.644	2812
204.712	2452
204.780	2672
204.848	2910
204.916	2124
204.984	2642
205.052	2800
205.120	2545
205.188	3198
205.256	3407
205.324	2640
205.392	2731
205.460	4205
205.528	3427
205.596	3830
205.664	2793
205.732	3436
205.799	7456
205.867	12058
205.935	4583
206.003	3994
206.071	3315
206.139	3199
206.207	4181
206.275	2648
206.343	2785
206.411	3110
206.478	3431
206.546	3328
206.614	2646
206.682	3132
206.750	2798
206.818	4109
206.885	3832
206.953	2386
207.021	3726
207.089	2879
207.157	2643
207.225	2931
207.292	2907
207.360	3829
207.428	3032
207.496	3776
207.563	3526
207.631	3286
207.699	2904
207.767	3673
207.834	2923
207.902	3641
207.970	3724
208.038	3069
208.105	3161
208.173	4219
208.241	5191
208.309	4819
208.376	5035
208.444	6622
208.512	4418
208.579	3339
208.647	4278
208.715	5511
208.782	3617
208.850	4124
208.918	3230
208.985	4123
209.053	4136
209.120	4046
209.188	3931
209.256	3789
209.323	3994
209.391	5231
209.459	5480
209.526	4158
209.594	3613
209.661	4537
209.729	4281
209.796	3760
209.864	4005
209.932	3395
209.999	5172
210.067	4084
210.134	4483
210.202	3821
210.269	6207
210.337	5752
210.404	4502
210.472	3928
210.539	4447
210.607	4846
210.674	5239
210.742	4499
210.809	4471
210.877	4916
210.944	5842
211.012	3958
211.079	6501
211.146	4319
211.214	4600
211.281	6003
211.349	5863
211.416	4606
211.484	5351
211.551	5465
211.618	4827
211.686	4907
211.753	4190
211.821	4927
211.888	4358
211.955	5443
212.023	5014
212.090	4614
212.157	5408
212.225	5970
212.292	10056
212.359	15229
212.427	35804
212.494	19111
212.561	8702
212.629	7021
212.696	6091
212.763	5244
212.831	5399
212.898	6232
212.965	4289
213.032	5116
213.100	5796
213.167	5028
213.234	5972
213.301	5174
213.369	5488
213.436	5807
213.503	4664
213.570	5352
213.638	5910
213.705	5012
213.772	4229
213.839	5309
213.906	7215
213.973	6121
214.041	4668
214.108	5457
214.175	6065
214.242	5062
214.309	5131
214.376	5433
214.444	5716
214.511	6187
214.578	5959
214.645	6085
214.712	6189
214.779	6246
214.846	5065
214.913	7821
214.980	6853
215.048	7446
215.115	7786
215.182	7776
215.249	6412
215.316	5313
215.383	6252
215.450	5838
215.517	5362
215.584	5736
215.651	5469
215.718	5402
215.785	5793
215.852	5424
215.919	7325
215.986	7024
216.053	5555
216.120	3911
216.187	6213
216.254	6633
216.321	6193
216.388	6942
216.455	7052
216.522	7331
216.589	8072
216.656	9769
216.722	11211
216.789	8703
216.856	8845
216.923	8064
216.990	7652
217.057	7256
217.124	8556
217.191	8972
217.258	10084
217.324	11257
217.391	12072
217.458	9811
217.525	7966
217.592	7826
217.659	6290
217.725	7766
217.792	8929
217.859	9547
217.926	6664
217.993	5896
218.059	5861
218.126	5923
218.193	4891
218.260	5573
218.327	4823
218.393	5035
218.460	5426
218.527	5677
218.594	4813
218.660	8216
218.727	8863
218.794	5803
218.860	4993
218.927	4047
218.994	4758
219.061	4694
219.127	5512
219.194	8234
219.261	6480
219.327	4465
219.394	4713
219.461	3281
219.527	4125
219.594	7445
219.661	5886
219.727	4434
219.794	5589
219.860	5158
219.927	5130
219.994	7348
220.060	10209
220.127	8630
220.193	8141
220.260	7902
220.326	11190
220.393	14670
220.460	18134
220.526	13375
220.593	10542
220.659	11174
220.726	11019
220.792	21451
220.859	20772
220.925	22913
220.992	28185
221.058	27268
221.125	28296
221.191	22715
221.258	11245
221.324	10208
221.391	9039
221.457	6925
221.524	7286
221.590	9156
221.657	24372
221.723	18103
221.789	15367
221.856	14315
221.922	9031
221.989	7267
222.055	6639
222.121	5702
222.188	8051
222.254	7021
222.321	5383
222.387	4042
222.453	4953
222.520	5156
222.586	4082
222.652	4760
222.719	4532
222.785	5040
222.851	4481
222.918	4274
222.984	4941
223.050	4867
223.116	3384
223.183	4895
223.249	3906
223.315	3859
223.382	4485
223.448	4234
223.514	3447
223.580	3517
223.647	3787
223.713	3498
223.779	4338
223.845	4557
223.911	3779
223.978	3401
224.044	4597
224.110	3251
224.176	4263
224.242	3916
224.309	3852
224.375	4300
224.441	4762
224.507	3820
224.573	4003
224.639	5260
224.705	3848
224.772	3813
224.838	3691
224.904	5842
224.970	4069
225.036	4212
225.102	4352
225.168	5129
225.234	4736
225.300	5214
225.366	4806
225.432	4265
225.499	4507
225.565	4944
225.631	6155
225.697	5741
225.763	6178
225.829	6967
225.895	7333
225.961	10058
226.027	10290
226.093	9008
226.159	12213
226.225	15536
226.291	28492
226.357	39572
226.423	24955
226.489	16451
226.554	12959
226.620	12394
226.686	15491
226.752	20518
226.818	28894
226.884	45397
226.950	43506
227.016	23282
227.082	15497
227.148	11838
227.214	11749
227.279	10360
227.345	8523
227.411	8096
227.477	7292
227.543	11511
227.609	12662
227.674	9402
227.740	7551
227.806	7263
227.872	6598
227.938	7157
228.003	10246
228.069	5851
228.135	5453
228.201	5411
228.267	5873
228.332	7070
228.398	8015
228.464	6834
228.530	4833
228.595	4776
228.661	4844
228.727	8465
228.792	7238
228.858	5853
228.924	6061
228.990	8270
229.055	7557
229.121	8678
229.187	5257
229.252	5289
229.318	4761
229.384	5306
229.449	6982
229.515	3267
229.581	3253
229.646	6237
229.712	5715
229.777	11165
229.843	11147
229.909	9335
229.974	9452
230.040	8909
230.105	7915
230.171	7966
230.236	9739
230.302	14383
230.368	11157
230.433	8956
230.499	8197
230.564	8297
230.630	6728
230.695	6476
230.761	6748
230.826	4903
230.892	9594
230.957	5870
231.023	5346
231.088	6269
231.154	6049
231.219	6212
231.284	7993
231.350	9918
231.415	6618
231.481	7036
231.546	4943
231.612	4954
231.677	4551
231.742	4966
231.808	6770
231.873	5337
231.939	3977
232.004	9302
232.069	9149
232.135	6929
232.200	6614
232.265	6075
232.331	4601
232.396	4058
232.461	4306
232.527	4935
232.592	5784
232.657	5146
232.723	11283
232.788	9329
232.853	6431
232.918	6209
232.984	5154
233.049	4944
233.114	10626
233.179	10817
233.245	14851
233.310	18176
233.375	6794
233.440	6360
233.506	5977
233.571	6022
233.636	5331
233.701	6106
233.766	12451
233.832	15736
233.897	7484
233.962	7318
234.027	9473
234.092	7930
234.157	7105
234.222	8367
234.288	12258
234.353	35374
234.418	31770
234.483	17053
234.548	13534
234.613	10115
234.678	11406
234.743	11992
234.808	37200
234.873	25671
234.938	12240
235.004	9702
235.069	8556
235.134	8643
235.199	9466
235.264	8259
235.329	6745
235.394	8635
235.459	11130
235.524	9674
235.589	8234
235.654	7010
235.719	6213
235.784	8207
235.849	9368
235.913	21669
235.978	22203
236.043	25899
236.108	11830
236.173	11050
236.238	11798
236.303	8741
236.368	9585
236.433	15918
236.498	26842
236.563	18037
236.627	28433
236.692	67435
236.757	57381
236.822	32173
236.887	27234
236.952	21677
237.017	17728
237.081	21212
237.146	23944
237.211	43285
237.276	68795
237.341	94934
237.405	61269
237.470	31097
237.535	25498
237.600	15707
237.664	13410
237.729	13573
237.794	16064
237.859	28936
237.923	23044
237.988	15640
238.053	19888
238.118	20189
238.182	48427
238.247	42926
238.312	23050
238.376	16578
238.441	13518
238.506	12384
238.570	8388
238.635	8765
238.700	9184
238.764	8762
238.829	21987
238.893	27938
238.958	12607
239.023	12182
239.087	8764
239.152	10589
239.216	8472
239.281	8172
239.346	8692
239.410	8772
239.475	11473
239.539	46099
239.604	37460
239.668	12902
239.733	9408
239.797	10599
239.862	20181
239.926	38474
239.991	17213
240.055	9479
240.120	8567
240.184	8946
240.249	7621
240.313	8514
240.378	9704
240.442	27403
240.507	45829
240.571	15500
240.635	22007
240.700	27426
240.764	10674
240.829	9352
240.893	7226
240.957	9395
241.022	27657
241.086	46473
241.151	22898
241.215	8937
241.279	12846
241.344	25618
241.408	14729
241.472	10592
241.537	12082
241.601	10435
241.665	8901
241.730	9561
241.794	11203
241.858	9122
241.922	9802
241.987	10136
242.051	8945
242.115	8577
242.179	8901
242.244	8547
242.308	10309
242.372	10809
242.436	13066
242.501	9939
242.565	8148
242.629	8136
242.693	8884
242.757	7412
242.822	9637
242.886	9732
242.950	10085
243.014	11604
243.078	11610
243.142	11795
243.206	10701
243.271	13233
243.335	12460
243.399	18291
243.463	47956
243.527	114045
243.591	40600
243.655	19728
243.719	12563
243.783	12880
243.847	20460
243.911	27052
243.975	29616
244.040	21646
244.104	13592
244.168	10846
244.232	15788
244.296	21746
244.360	22260
244.424	14795
244.488	13129
244.552	12402
244.615	9692
244.679	9761
244.743	10740
244.807	12324
244.871	8938
244.935	8623
244.999	7846
245.063	9820
245.127	11365
245.191	16478
245.255	16011
245.319	13245
245.383	12343
245.446	11936
245.510	8955
245.574	10312
245.638	11393
245.702	9554
245.766	20889
245.829	15269
245.893	13518
245.957	11076
246.021	12432
246.085	12606
246.149	16091
246.212	28810
246.276	38486
246.340	20483
246.404	17221
246.467	15454
246.531	22293
246.595	16022
246.659	16478
246.722	14186
246.786	17036
246.850	15981
246.913	20039
246.977	12479
247.041	13206
247.104	15075
247.168	12382
247.232	25336
247.295	49337
247.359	26613
247.423	14860
247.486	24716
247.550	16798
247.614	13940
247.677	18399
247.741	14272
247.804	12108
247.868	15324
247.932	25305
247.995	49957
248.059	22831
248.122	14753
248.186	19257
248.249	29393
248.313	72294
248.376	74199
248.440	54584
248.503	24344
248.567	21110
248.630	27656
248.694	36505
248.757	44271
248.821	80721
248.884	53221
248.948	50952
249.011	66252
249.075	89716
249.138	78416
249.202	37833
249.265	27551
249.328	40028
249.392	27533
249.455	21916
249.519	17982
249.582	21565
249.645	32362
249.709	27318
249.772	26278
249.835	21342
249.899	23864
249.962	18468
250.025	17616
250.089	35300
250.152	45907
250.215	26742
250.279	22292
250.342	22202
250.405	21959
250.468	20088
250.532	26816
250.595	37550
250.658	110751
250.721	173003
250.785	67620
250.848	36858
250.911	24888
250.974	23471
251.038	29840
251.101	53441
251.164	36787
251.227	35707
251.290	33886
251.354	47549
251.417	153440
251.480	152929
251.543	109951
251.606	258883
251.669	197384
251.732	87512
251.795	79821
251.859	80771
251.922	171472
251.985	103980
252.048	45635
252.111	37566
252.174	36152
252.237	55432
252.300	99223
252.363	114028
252.426	203298
252.489	94942
252.552	57742
252.615	42524
252.678	43245
252.741	80961
252.804	107291
252.867	218470
252.930	133334
252.993	73160
253.056	44825
253.119	34506
253.182	28086
253.245	48392
253.308	39490
253.371	40438
253.434	36974
253.497	32029
253.559	50214
253.622	39744
253.685	52813
253.748	52871
253.811	28732
253.874	37802
253.937	37026
254.000	25511
254.062	38991
254.125	54144
254.188	49023
254.251	44212
254.314	26129
254.376	42256
254.439	45635
254.502	40705
254.565	40378
254.628	63126
254.690	43814
254.753	26575
254.816	22666
254.878	26618
254.941	41940
255.004	42433
255.067	22678
255.129	23396
255.192	14572
255.255	13076
255.317	16625
255.380	11982
255.443	10591
255.505	10081
255.568	10666
255.631	10686
255.693	11223
255.756	10948
255.819	10601
255.881	9183
255.944	9880
256.006	10972
256.069	10803
256.132	11030
256.194	15888
256.257	44055
256.319	31499
256.382	28836
256.444	17358
256.507	14347
256.569	13005
256.632	16887
256.694	26037
256.757	48817
256.819	117287
256.882	58995
256.944	27918
257.007	21476
257.069	23196
257.132	17349
257.194	15513
257.257	15951
257.319	17408
257.381	20574
257.444	42280
257.506	132057
257.569	147772
257.631	89577
257.693	44379
257.756	25303
257.818	26549
257.880	16021
257.943	15951
258.005	15202
258.067	13844
258.130	13877
258.192	16566
258.254	34771
258.317	21695
258.379	15902
258.441	30771
258.503	28732
258.566	49225
258.628	60896
258.690	17469
258.753	17434
258.815	29491
258.877	20362
258.939	14738
259.001	12778
259.064	13024
259.126	18686
259.188	24826
259.250	16431
259.312	21010
259.375	43814
259.437	29311
259.499	15799
259.561	13928
259.623	15284
259.685	14402
259.747	17327
259.809	47700
259.872	83456
259.934	119297
259.996	95726
260.058	27989
260.120	15880
260.182	13023
260.244	12034
260.306	11010
260.368	13224
260.430	12044
260.492	21833
260.554	40930
260.616	33114
260.678	56322
260.740	80761
260.802	23560
260.864	17192
260.926	15108
260.988	16646
261.050	16671
261.112	29360
261.174	83120
261.236	65585
261.298	23004
261.359	40245
261.421	54665
261.483	18294
261.545	16069
261.607	11350
261.669	12482
261.731	25954
261.793	56312
261.854	24790
261.916	17868
261.978	14071
262.040	16361
262.102	13962
262.164	25518
262.225	20107
262.287	12943
262.349	27555
262.411	21419
262.472	13067
262.534	28122
262.596	55699
262.658	19332
262.719	13100
262.781	18040
262.843	54303
262.904	25340
262.966	20944
263.028	23632
263.090	92038
263.151	205488
263.213	66609
263.275	36606
263.336	17854
263.398	13767
263.459	10809
263.521	12095
263.583	24961
263.644	18273
263.706	10582
263.767	8864
263.829	8447
263.891	7843
263.952	7397
264.014	8069
264.075	12777
264.137	26245
264.198	16896
264.260	8580
264.321	8597
264.383	18507
264.444	40003
264.506	15274
264.567	11988
264.629	17186
264.690	32541
264.752	15948
264.813	11446
264.875	9401
264.936	10531
264.998	8504
265.059	9936
265.120	11581
265.182	16599
265.243	67645
265.305	70472
265.366	21834
265.427	12615
265.489	10338
265.550	7880
265.611	12009
265.673	12137
265.734	10763
265.795	9744
265.857	10481
265.918	11688
265.979	22533
266.040	100496
266.102	88114
266.163	30817
266.224	24070
266.286	14886
266.347	10398
266.408	10858
266.469	14376
266.530	11574
266.592	9135
266.653	18352
266.714	29271
266.775	12137
266.836	9712
266.898	8011
266.959	13804
267.020	11704
267.081	9339
267.142	8970
267.203	8452
267.264	8094
267.326	11493
267.387	8076
267.448	7244
267.509	8761
267.570	8684
267.631	7569
267.692	8103
267.753	9839
267.814	8246
267.875	15543
267.936	30581
267.997	19993
268.058	18893
268.119	12607
268.180	11526
268.241	9359
268.302	9491
268.363	8235
268.424	9398
268.485	11683
268.546	9024
268.607	7254
268.668	7235
268.729	7477
268.790	9688
268.851	9331
268.912	21458
268.972	25356
269.033	17242
269.094	9568
269.155	7839
269.216	8695
269.277	12010
269.338	9238
269.398	9054
269.459	11619
269.520	15271
269.581	18747
269.642	22442
269.702	16754
269.763	12979
269.824	9741
269.885	13393
269.945	19495
270.006	10606
270.067	7834
270.128	7946
270.188	7555
270.249	8379
270.310	8393
270.370	8457
270.431	10009
270.492	7449
270.553	9856
270.613	18884
270.674	32112
270.734	16295
270.795	10378
270.856	16185
270.916	13792
270.977	9697
271.038	12396
271.098	12892
271.159	18234
271.219	19343
271.280	9709
271.340	8663
271.401	12468
271.462	31001
271.522	18216
271.583	11613
271.643	12868
271.704	11734
271.764	14641
271.825	26712
271.885	74948
271.946	93799
272.006	38692
272.066	48467
272.127	72679
272.187	27861
272.248	16940
272.308	18023
272.369	49566
272.429	31864
272.489	27634
272.550	27891
272.610	27494
272.671	23719
272.731	23124
272.791	38372
272.852	21392
272.912	18433
272.972	11892
273.033	12080
273.093	20447
273.153	18166
273.214	13429
273.274	14144
273.334	39427
273.394	70751
273.455	35221
273.515	31949
273.575	62964
273.635	30088
273.696	41812
273.756	71824
273.816	33888
273.876	21889
273.936	51783
273.997	83095
274.057	24652
274.117	19684
274.177	26072
274.237	84911
274.297	78681
274.358	67972
274.418	58383
274.478	46988
274.538	24634
274.598	21925
274.658	76170
274.718	91194
274.778	37636
274.838	22898
274.898	45960
274.958	128059
275.018	83952
275.078	52814
275.138	26809
275.198	16917
275.258	12880
275.318	18983
275.378	31970
275.438	31865
275.498	23434
275.558	61107
275.618	103924
275.678	52230
275.738	35313
275.798	27351
275.858	16357
275.918	10782
275.978	14313
276.038	14056
276.098	12368
276.157	21916
276.217	53761
276.277	27043
276.337	21437
276.397	13692
276.457	15655
276.517	12347
276.576	9875
276.636	10176
276.696	17804
276.756	36989
276.815	26894
276.875	14999
276.935	18164
276.995	15504
277.055	11279
277.114	10529
277.174	13668
277.234	37735
277.293	20059
277.353	15307
277.413	10539
277.472	13111
277.532	13696
277.592	13845
277.651	33620
277.711	54815
277.771	22173
277.830	68190
277.890	53522
277.950	42869
278.009	103634
278.069	42370
278.128	41757
278.188	56329
278.248	27592
278.307	60122
278.367	40081
278.426	18295
278.486	13253
278.545	12290
278.605	11011
278.664	11619
278.724	13231
278.783	30244
278.843	66618
278.902	24412
278.962	16944
279.021	19341
279.081	27715
279.140	27128
279.199	22372
279.259	21688
279.318	22147
279.378	28246
279.437	45973
279.496	125747
279.556	367901
279.615	272669
279.675	81855
279.734	49133
279.793	73038
279.853	98467
279.912	42643
279.971	28406
280.031	26032
280.090	40933
280.149	64238
280.208	59463
280.268	253537
280.327	240895
280.386	64182
280.445	47104
280.505	40222
280.564	20919
280.623	19344
280.682	26344
280.742	36162
280.801	16434
280.860	13936
280.919	12152
280.978	11161
281.037	11660
281.097	10224
281.156	10486
281.215	10449
281.274	12688
281.333	42518
281.392	32852
281.451	10909
281.510	10125
281.569	8775
281.628	8319
281.688	9018
281.747	11017
281.806	10858
281.865	8735
281.924	8499
281.983	9598
282.042	6942
282.101	7402
282.160	8269
282.219	8144
282.278	8756
282.337	26916
282.396	19123
282.454	10471
282.513	12452
282.572	37614
282.631	24551
282.690	10585
282.749	9514
282.808	11591
282.867	11688
282.926	12308
282.985	7750
283.043	7352
283.102	8840
283.161	10821
283.220	20899
283.279	39948
283.338	18404
283.396	11023
283.455	10504
283.514	11302
283.573	18617
283.631	14239
283.690	10624
283.749	10201
283.808	19849
283.866	22869
283.925	10421
283.984	10191
284.043	15089
284.101	15968
284.160	11160
284.219	14046
284.277	12758
284.336	19000
284.395	51347
284.453	41021
284.512	17922
284.570	24842
284.629	21160
284.688	19070
284.746	19845
284.805	23100
284.863	28547
284.922	36551
284.981	41893
285.039	56556
285.098	90595
285.156	175257
285.215	279737
285.273	258940
285.332	177519
285.390	109669
285.449	69048
285.507	48631
285.566	37447
285.624	29934
285.683	25936
285.741	21641
285.799	19351
285.858	18495
285.916	17352
285.975	14008
286.033	12222
286.091	11706
286.150	10686
286.208	9988
286.267	12720
286.325	13273
286.383	20675
286.442	17156
286.500	10690
286.558	9347
286.616	8743
286.675	13814
286.733	12605
286.791	12732
286.850	12559
286.908	15514
286.966	23418
287.024	11878
287.083	9224
287.141	7797
287.199	10630
287.257	15467
287.315	11754
287.374	12448
287.432	27851
287.490	19530
287.548	13489
287.606	11683
287.664	11418
287.723	15912
287.781	19758
287.839	14036
287.897	18444
287.955	23598
288.013	32863
288.071	60411
288.129	201162
288.187	456089
288.245	237875
288.303	88211
288.361	47845
288.419	33463
288.477	23549
288.535	19635
288.593	16524
288.651	15280
288.709	11913
288.767	11338
288.825	11506
288.883	9652
288.941	9567
288.999	9571
289.057	8606
289.115	8552
289.173	9063
289.231	9194
289.289	10120
289.346	8795
289.404	10943
289.462	17496
289.520	18341
289.578	10283
289.636	7251
289.694	6714
289.751	6725
289.809	6916
289.867	7606
289.925	10087
289.983	12775
290.040	8562
290.098	7203
290.156	10189
290.214	11146
290.271	7709
290.329	7267
290.387	7381
290.444	6769
290.502	5606
290.560	6899
290.617	7270
290.675	7194
290.733	7532
290.790	8501
290.848	6762
290.906	8950
290.963	9287
291.021	7851
291.078	7917
291.136	8441
291.194	19682
291.251	39438
291.309	14200
291.366	7387
291.424	8434
291.481	8413
291.539	6986
291.596	7201
291.654	5661
291.711	5731
291.769	8437
291.826	18227
291.884	12471
291.941	7193
291.999	8681
292.056	9274
292.114	10724
292.171	7273
292.228	8532
292.286	11216
292.343	18841
292.401	23417
292.458	14613
292.515	9982
292.573	12789
292.630	12272
292.687	13652
292.745	10926
292.802	12395
292.859	26940
292.917	43512
292.974	27416
293.031	11716
293.089	9167
293.146	8216
293.203	8345
293.260	7156
293.318	10876
293.375	13057
293.432	8561
293.489	8364
293.546	9109
293.604	12370
293.661	31696
293.718	69005
293.775	37706
293.832	20692
293.889	15728
293.947	18606
294.004	13896
294.061	12801
294.118	21727
294.175	40312
294.232	47064
294.289	21236
294.346	16434
294.403	19992
294.460	14830
294.517	11923
294.574	10513
294.631	10010
294.688	12130
294.745	25112
294.802	75869
294.859	80275
294.916	36653
294.973	24262
295.030	19533
295.087	16902
295.144	12534
295.201	11738
295.258	10425
295.315	13399
295.372	33672
295.429	57252
295.486	28640
295.542	16835
295.599	33285
295.656	54528
295.713	39335
295.770	50619
295.827	22946
295.883	13878
295.940	13308
295.997	22515
296.054	21418
296.111	12611
296.167	9946
296.224	8083
296.281	8489
296.338	9033
296.394	9003
296.451	11339
296.508	26052
296.564	44559
296.621	33575
296.678	64533
296.734	87978
296.791	38225
296.848	21806
296.904	20940
296.961	44389
297.018	60664
297.074	45287
297.131	22287
297.187	17466
297.244	21213
297.301	56195
297.357	92307
297.414	38264
297.470	18773
297.527	13705
297.583	12343
297.640	12505
297.696	10168
297.753	9184
297.809	8488
297.866	8263
297.922	8601
297.979	8818
298.035	10328
298.092	15320
298.148	36220
298.204	34867
298.261	19380
298.317	30808
298.374	74530
298.430	47269
298.486	27980
298.543	22441
298.599	19261
298.656	21926
298.712	31452
298.768	71503
298.824	51811
298.881	20873
298.937	13269
298.993	11930
299.050	15505
299.106	14138
299.162	11469
299.218	13643
299.275	11369
299.331	12760
299.387	20698
299.443	63702
299.500	64694
299.556	28219
299.612	16761
299.668	15578
299.724	16856
299.780	16902
299.837	12430
299.893	18689
299.949	54691
300.005	61429
300.061	55181
300.117	86672
300.173	45408
300.229	23944
300.285	29372
300.341	33852
300.397	18095
300.453	12999
300.510	12049
300.566	12566
300.622	13575
300.678	28460
300.734	54190
300.790	52680
300.845	63279
300.901	40727
300.957	55089
301.013	44404
301.069	18244
301.125	15618
301.181	16825
301.237	14480
301.293	10514
301.349	9896
301.405	10001
301.461	11248
301.516	14568
301.572	14807
301.628	24215
301.684	21226
301.740	27355
301.796	40354
301.851	30956
301.907	48618
301.963	46022
302.019	66642
302.074	156807
302.130	162268
302.186	83869
302.242	38012
302.297	24871
302.353	23258
302.409	38329
302.464	35281
302.520	29904
302.576	70030
302.631	77013
302.687	47755
302.743	23766
302.798	15609
302.854	13529
302.910	14333
302.965	17064
303.021	28776
303.076	27446
303.132	34918
303.187	40194
303.243	23127
303.299	14239
303.354	11801
303.410	11721
303.465	10002
303.521	11045
303.576	11334
303.632	13521
303.687	21733
303.743	58284
303.798	51772
303.853	23658
303.909	15114
303.964	14286
304.020	20535
304.075	30634
304.130	27566
304.186	46749
304.241	48862
304.297	39651
304.352	23027
304.358	22303
304.407	16429
304.449	15336
304.463	14965
304.518	16577
304.539	15433
304.573	13642
304.629	13718
304.630	13831
304.684	20021
304.720	39212
304.739	48347
304.794	67497
304.811	58616
304.850	37309
304.902	19226
304.905	18120
304.960	14989
304.992	15642
305.015	15966
305.071	15606
305.083	15049
305.126	12916
305.173	10345
305.181	10004
305.236	9262
305.264	10181
305.292	11185
305.347	14775
305.354	15071
305.402	17031
305.445	18418
305.457	18699
305.512	22367
305.535	22207
305.567	22263
305.622	21160
305.626	21666
305.678	37432
305.716	66291
305.733	74434
305.788	77225
305.807	66744
305.843	52589
305.897	68089
305.898	68173
305.953	63349
305.988	43636
306.008	34218
306.063	23450
306.078	21816
306.118	18020
306.168	12459
306.173	12040
306.228	11553
306.259	10858
306.283	10678
306.338	11451
306.349	11882
306.393	13928
306.440	16494
306.448	16844
306.503	16425
306.530	16699
306.558	22051
306.613	43038
306.620	46003
306.668	62092
306.711	77880
306.723	77795
306.778	57557
306.801	44049
306.833	31342
306.888	18407
306.892	17791
306.943	13947
306.982	12384
306.997	12067
307.052	12538
307.072	12758
307.107	15022
307.162	19526
307.163	19571
307.217	26763
307.253	31622
307.272	31717
307.327	31265
307.343	29251
307.381	27343
307.434	26651
307.436	27513
307.491	52304
307.524	73621
307.546	74964
307.600	66645
307.614	59406
307.655	40356
307.704	25344
307.710	25559
307.765	33586
307.795	40727
307.819	45550
307.874	62470
307.885	63100
307.929	55674
307.975	48064
307.984	51088
308.038	77653
308.065	94204
308.093	153368
308.148	294931
308.156	321157
308.202	407755
308.246	453501
308.257	438099
308.312	276589
308.336	207653
308.366	163565
308.421	99842
308.426	94027
308.475	64920
308.517	46588
308.530	43874
308.585	38885
308.607	37112
308.639	38743
308.694	42513
308.697	42881
308.748	68278
308.787	92472
308.803	90030
308.857	68413
308.877	59274
308.912	58051
308.967	61578
308.967	61587
309.021	87320
309.058	107067
309.076	137850
309.130	239864
309.148	276672
309.185	405470
309.238	613598
309.239	615069
309.293	603444
309.328	558435
309.348	495282
309.402	289149
309.418	233185
309.457	174586
309.508	110681
309.511	109422
309.566	94825
309.598	88075
309.620	93438
309.674	112326
309.688	117187
309.729	110038
309.778	96015
309.783	94801
309.837	77410
309.868	68297
309.892	85654
309.946	130359
309.959	142503
310.001	161597
310.049	176194
310.055	169760
310.109	99019
310.139	59604
310.163	49989
310.218	34293
310.229	31543
310.272	27350
310.319	23124
310.326	22695
310.381	19980
310.409	18748
310.435	18628
310.489	18478
310.499	18433
310.543	19320
310.589	20214
310.598	20062
310.652	19061
310.679	18498
310.706	17115
310.760	13779
310.769	13276
310.814	12798
310.859	12514
310.868	12748
310.923	13726
310.948	14387
310.977	16320
311.031	19855
311.038	20287
311.085	18652
311.128	16775
311.139	16715
311.193	16426
311.218	16291
311.247	15446
311.301	13603
311.308	13346
311.356	13748
311.398	14211
311.410	14061
311.464	13147
311.488	12664
311.518	13970
311.572	16347
311.578	16599
311.626	22540
311.668	27708
311.680	27336
311.734	24928
311.758	23849
311.788	23228
311.842	21953
311.847	21769
311.896	30293
311.937	37587
311.950	36564
312.004	31504
312.027	29158
312.058	25301
312.112	18324
312.117	17582
312.165	17027
312.207	16481
312.297	24190
312.386	17623
312.476	23339
312.566	47845
312.656	21043
312.745	14112
312.835	16294
312.925	19618
313.015	19217
313.104	17692
313.194	15777
313.284	16224
313.374	26765
313.463	19371
313.553	15248
313.643	14169
313.732	12210
313.822	12535
313.912	15400
314.001	20079
314.091	20843
314.180	26677
314.270	26637
314.360	30055
314.449	23778
314.539	15317
314.628	14048
314.718	19629
314.808	22011
314.897	14395
314.987	15557
315.076	23740
315.166	29243
315.255	25099
315.345	26921
315.434	24482
315.524	22600
315.613	27764
315.703	37415
315.792	44169
315.881	82667
315.971	39021
316.060	53162
316.150	64559
316.239	59908
316.328	22946
316.418	16749
316.507	17672
316.597	26599
316.686	22739
316.775	36588
316.865	59043
316.954	15744
317.043	13091
317.133	17562
317.222	15702
317.311	15015
317.400	16319
317.490	28247
317.579	29199
317.668	18695
317.757	32851
317.847	65197
317.936	155930
318.025	87679
318.114	47080
318.203	34371
318.293	55226
318.382	98332
318.471	72330
318.560	95271
318.649	136814
318.738	31214
318.828	33644
318.917	32493
319.006	36881
319.095	86343
319.184	187854
319.273	117082
319.362	66175
319.451	28267
319.540	27910
319.629	75572
319.718	95990
319.807	39798
319.896	86833
319.985	229506
320.074	81767
320.163	31195
320.252	45489
320.341	35328
320.430	33573
320.519	55741
320.608	27264
320.697	24168
320.786	25979
320.875	35607
320.964	48333
321.053	78451
321.142	115973
321.230	102629
321.319	88930
321.408	175705
321.497	63322
321.586	74115
321.675	77893
321.764	67510
321.852	51887
321.941	111688
322.030	63005
322.119	87298
322.207	186829
322.296	92259
322.385	52822
322.474	81622
322.562	234650
322.651	91483
322.740	91806
322.829	110407
322.917	94079
323.006	64672
323.095	58090
323.183	39682
323.272	64481
323.361	116080
323.449	238041
323.538	79077
323.626	190868
323.715	86654
323.804	54992
323.892	175917
323.981	87245
324.069	34387
324.158	96271
324.246	66690
324.335	47294
324.424	66359
324.512	24101
324.601	36229
324.689	79092
324.778	117635
324.866	71320
324.954	22182
325.043	26641
325.131	49495
325.220	69811
325.308	74394
325.397	64071
325.485	34826
325.574	17832
325.662	18505
325.750	23495
325.839	17341
325.927	15501
326.015	24363
326.104	37266
326.192	40025
326.280	16311
326.369	17328
326.457	34441
326.545	58565
326.634	21901
326.722	14002
326.810	16747
326.898	13748
326.987	20096
327.075	56381
327.163	45263
327.251	23021
327.340	52720
327.428	59241
327.516	15630
327.604	18988
327.692	17029
327.781	21475
327.869	33992
327.957	24652
328.045	26189
328.133	14136
328.221	20364
328.309	18708
328.397	17504
328.485	23590
328.574	37565
328.662	124763
328.750	55070
328.838	22949
328.926	15964
329.014	15114
329.102	27223
329.190	64555
329.278	39417
329.366	14542
329.454	13517
329.542	14634
329.630	14154
329.718	17187
329.806	27094
329.893	25919
329.981	31594
330.069	60648
330.157	212574
330.245	407767
330.333	211944
330.421	57962
330.509	54797
330.597	162707
330.684	85994
330.772	31764
330.860	37813
330.948	44424
331.036	21550
331.123	13097
331.211	13727
331.299	18091
331.387	45450
331.475	65779
331.562	22376
331.650	13908
331.738	17554
331.825	20563
331.913	12345
332.001	13660
332.089	20383
332.176	37779
332.264	89798
332.352	57230
332.439	23150
332.527	18225
332.614	15864
332.702	18655
332.790	17014
332.877	51040
332.965	71376
333.052	22556
333.140	29369
333.228	51769
333.315	18693
333.403	19512
333.490	51689
333.578	42784
333.665	61555
333.753	33947
333.840	17783
333.928	22022
334.015	54154
334.103	89660
334.190	212316
334.278	48263
334.365	25961
334.452	19815
334.540	16148
334.627	23039
334.715	30841
334.802	70114
334.889	311265
334.977	211786
335.064	30947
335.151	21503
335.239	21299
335.326	31013
335.413	123534
335.501	123619
335.588	25873
335.675	19318
335.762	26109
335.850	38635
335.937	31403
336.024	88693
336.111	280652
336.199	87665
336.286	23111
336.373	16455
336.460	12177
336.547	14782
336.635	21060
336.722	19006
336.809	16590
336.896	32175
336.983	88479
337.070	182882
337.157	210087
337.245	190988
337.332	100767
337.419	19662
337.506	14126
337.593	18558
337.680	67266
337.767	148066
337.854	52355
337.941	60840
338.028	71953
338.115	25298
338.202	32164
338.289	69935
338.376	185336
338.463	53747
338.550	104701
338.637	84515
338.724	43828
338.811	52097
338.898	15123
338.984	14192
339.071	18698
339.158	27907
339.245	72129
339.332	36877
339.419	48604
339.506	35351
339.593	11804
339.679	16040
339.766	14567
339.853	26256
339.940	51725
340.027	16909
340.113	20980
340.200	28506
340.287	18940
340.374	30741
340.460	44966
340.547	20801
340.634	43663
340.720	139254
340.807	62268
340.894	15546
340.980	18199
341.067	16760
341.154	18447
341.240	36327
341.327	67531
341.414	23300
341.500	25729
341.587	16514
341.674	17762
341.760	52238
341.847	54885
341.933	17036
342.020	9940
342.106	10493
342.193	21885
342.279	37603
342.366	32014
342.452	48503
342.539	28190
342.625	74828
342.712	141395
342.798	58419
342.885	24333
342.971	10754
343.058	10371
343.144	12678
343.230	12901
343.317	14901
343.403	12222
343.490	10603
343.576	10944
343.662	15647
343.749	18015
343.835	23228
343.921	43252
344.008	228340
344.094	366087
344.180	84809
344.267	48053
344.353	125368
344.439	110965
344.525	70262
344.612	44854
344.698	46601
344.784	28513
344.870	15863
344.957	17206
345.043	27975
345.129	23933
345.215	46236
345.301	23706
345.387	14894
345.474	10275
345.560	12261
345.646	17084
345.732	14044
345.818	21159
345.904	18383
345.990	20525
346.076	20099
346.162	31011
346.249	16917
346.335	12586
346.421	17199
346.507	62250
346.593	144416
346.679	35275
346.765	15603
346.851	17155
346.937	17330
347.023	13620
347.108	20726
347.194	16373
347.280	15747
347.366	21083
347.452	64063
347.538	191420
347.624	141763
347.710	102984
347.796	21927
347.882	15199
347.967	13022
348.053	19082
348.139	14192
348.225	13335
348.311	15422
348.397	11969
348.482	20744
348.568	21240
348.654	11453
348.740	13363
348.825	16673
348.911	30137
348.997	108499
349.083	151167
349.168	28141
349.254	18447
349.340	17202
349.425	13657
349.511	24320
349.597	23977
349.682	54881
349.768	122342
349.854	45922
349.939	14511
350.025	13607
350.110	14345
350.196	10844
350.282	9681
350.367	11159
350.453	24870
350.538	23716
350.624	23063
350.709	18401
350.795	13526
350.880	15310
350.966	17494
351.051	25664
351.137	16630
351.222	17389
351.308	56812
351.393	112843
351.479	31727
351.564	15284
351.649	15754
351.735	11871
351.820	9994
351.906	14189
351.991	23187
352.076	89867
352.162	102400
352.247	26594
352.332	23250
352.418	44749
352.503	55790
352.588	190545
352.673	139846
352.759	38989
352.844	21379
352.929	27614
353.014	34110
353.100	23577
353.185	43774
353.270	67071
353.355	52752
353.441	18312
353.526	23187
353.611	59356
353.696	59014
353.781	35389
353.866	17526
353.952	23289
354.037	61599
354.122	119563
354.207	104001
354.292	37497
354.377	18554
354.462	17585
354.547	26555
354.632	22481
354.717	33742
354.802	45546
354.887	18245
354.972	13554
355.057	11882
355.142	12553
355.227	20431
355.312	40200
355.397	94144
355.482	187600
355.567	83002
355.652	65574
355.737	65320
355.822	153359
355.907	98650
355.991	23491
356.076	16622
356.161	14176
356.246	13243
356.331	18378
356.416	49508
356.501	235727
356.585	195343
356.670	41865
356.755	31560
356.840	54660
356.924	232426
357.009	538672
357.094	190679
357.179	64128
357.263	40433
357.348	43567
357.433	40802
357.517	39396
357.602	30400
357.687	25423
357.771	48296
357.856	111953
357.941	70785
358.025	177284
358.110	509170
358.195	225750
358.279	52324
358.364	45554
358.448	150307
358.533	304583
358.617	221481
358.702	197969
358.787	76951
358.871	58474
358.956	44983
359.040	17758
359.125	14965
359.209	19120
359.294	61462
359.378	86533
359.462	46611
359.547	25457
359.631	17486
359.716	14377
359.800	16436
359.885	25528
359.969	19713
360.053	15243
360.138	17626
360.222	32648
360.306	59005
360.391	42251
360.475	87313
360.559	157880
360.644	140394
360.728	90657
360.812	157410
360.896	306813
360.981	159025
361.065	87685
361.149	29438
361.233	29184
361.318	24133
361.402	25141
361.486	22927
361.570	20152
361.654	28877
361.739	81510
361.823	260568
361.907	290701
361.991	63868
362.075	56051
362.159	112102
362.243	71251
362.327	58407
362.411	49267
362.495	35469
362.580	22912
362.664	17604
362.748	18463
362.832	23272
362.916	38153
363.000	95767
363.084	271233
363.168	344522
363.252	96361
363.336	45171
363.420	61299
363.503	168124
363.587	155831
363.671	41280
363.755	39492
363.839	50410
363.923	29551
364.007	63005
364.091	60301
364.175	81818
364.258	234251
364.342	153988
364.426	122993
364.510	73415
364.594	57918
364.677	91258
364.761	289503
364.845	176832
364.929	96029
365.013	77105
365.096	68580
365.180	72860
365.264	85599
365.347	220433
365.431	89054
365.515	34935
365.598	23508
365.682	20177
365.766	34441
365.849	36695
365.933	26617
366.017	30405
366.100	21786
366.184	13689
366.267	15879
366.351	16530
366.435	16022
366.518	12717
366.602	12346
366.685	16972
366.769	21939
366.852	35344
366.936	60672
367.019	37097
367.103	27930
367.186	38371
367.270	15650
367.353	12552
367.436	15361
367.520	15079
367.603	24942
367.687	41933
367.770	65548
367.853	37434
367.937	96123
368.020	122948
368.104	40480
368.187	52886
368.270	70295
368.353	61864
368.437	80132
368.520	130084
368.603	91656
368.687	128900
368.770	181088
368.853	55450
368.936	61520
369.020	51635
369.103	24505
369.186	17984
369.269	22880
369.352	49925
369.436	60262
369.519	38626
369.602	20805
369.685	22392
369.768	24736
369.851	18974
369.934	15848
370.018	28063
370.101	57881
370.184	38344
370.267	29970
370.350	54849
370.433	81890
370.516	158258
370.599	153694
370.682	73086
370.765	136858
370.848	155657
370.931	214901
371.014	78326
371.097	24815
371.180	19998
371.263	12710
371.346	10592
371.429	13558
371.511	18074
371.594	38290
371.677	50833
371.760	47544
371.843	56851
371.926	231613
372.009	389644
372.091	136883
372.174	114516
372.257	187922
372.340	74434
372.423	76213
372.505	72358
372.588	38440
372.671	101919
372.754	226129
372.836	103004
372.919	89162
373.002	137365
373.085	54568
373.167	55807
373.250	128440
373.332	210998
373.415	330050
373.498	535101
373.580	220636
373.663	293173
373.746	324648
373.828	96454
373.911	46892
373.993	54957
374.076	148850
374.159	121797
374.241	85429
374.324	208532
374.406	131570
374.489	199544
374.571	411345
374.654	165430
374.736	115949
374.819	288002
374.901	415476
374.983	363811
375.066	75323
375.148	39432
375.231	128689
375.313	199213
375.395	80326
375.478	23665
375.560	19745
375.643	32300
375.725	121537
375.807	352163
375.890	256796
375.972	120317
376.054	81742
376.136	99754
376.219	49815
376.301	130913
376.383	278271
376.465	112632
376.548	103415
376.630	122443
376.712	244380
376.794	100726
376.877	19297
376.959	16042
377.041	20620
377.123	36924
377.205	35980
377.287	12570
377.369	13230
377.452	16494
377.534	15976
377.616	16332
377.698	16378
377.780	13348
377.862	18209
377.944	15460
378.026	11174
378.108	11983
378.190	12571
378.272	12409
378.354	9578
378.436	11788
378.518	30142
378.600	81333
378.682	78892
378.764	148564
378.846	99968
378.928	41285
379.010	59620
379.091	30362
379.173	17316
379.255	16450
379.337	28646
379.419	92446
379.501	187392
379.583	69212
379.664	30637
379.746	77172
379.828	161978
379.910	197486
379.991	144881
380.073	30819
380.155	25849
380.237	19645
380.318	15141
380.400	18957
380.482	48444
380.564	68754
380.645	68489
380.727	61023
380.809	34470
380.890	25428
380.972	19971
381.053	19432
381.135	24330
381.217	66596
381.298	152590
381.380	75994
381.461	86897
381.543	288576
381.624	286530
381.706	63239
381.787	38627
381.869	46849
381.951	159325
382.032	421140
382.113	258186
382.195	73074
382.276	52711
382.358	117167
382.439	236978
382.521	277289
382.602	365506
382.684	206647
382.765	360762
382.846	383712
382.928	437350
383.009	249343
383.090	263084
383.172	732880
383.253	836905
383.334	357074
383.416	353832
383.497	183922
383.578	122539
383.659	243371
383.741	731320
383.822	1263319
383.903	626149
383.984	318885
384.066	451731
384.147	263087
384.228	68398
384.309	59956
384.390	42581
384.471	31671
384.553	36881
384.634	52370
384.715	50987
384.796	27089
384.877	43494
384.958	140824
385.039	155612
385.120	62032
385.201	33036
385.282	39271
385.363	35741
385.444	35933
385.525	73652
385.606	184378
385.687	134402
385.768	44653
385.849	72080
385.930	238404
386.011	316061
386.092	92529
386.173	30888
386.254	24923
386.335	24955
386.416	34519
386.496	104564
386.577	138590
386.658	54000
386.739	39347
386.820	31741
386.901	26300
386.981	24816
387.062	21539
387.143	49861
387.224	147327
387.304	119389
387.385	49513
387.466	33929
387.547	38057
387.627	29622
387.708	71890
387.789	243916
387.869	249025
387.950	66456
388.031	19140
388.111	22360
388.192	48303
388.273	62323
388.353	40939
388.434	30689
388.514	69191
388.595	220273
388.676	259006
388.756	146295
388.837	152956
388.917	88615
388.998	23163
389.078	22238
389.159	21598
389.239	22814
389.320	34482
389.400	33001
389.480	63231
389.561	129531
389.641	60481
389.722	35868
389.802	57442
389.883	75761
389.963	150349
390.043	91811
390.124	37313
390.204	75366
390.284	179278
390.365	114828
390.445	151337
390.525	359398
390.605	289191
390.686	92433
390.766	33306
390.846	21904
390.927	17237
391.007	19875
391.087	19972
391.167	19527
391.247	18047
391.328	30663
391.408	39904
391.488	26585
391.568	15613
391.648	28428
391.728	39163
391.808	38039
391.888	44232
391.969	88431
392.049	116259
392.129	53383
392.209	72823
392.289	142734
392.369	78491
392.449	67578
392.529	47418
392.609	43323
392.689	61024
392.769	147413
392.849	115680
392.929	100952
393.009	200454
393.089	143233
393.169	130499
393.248	446918
393.328	1270570
393.408	1177190
393.488	329726
393.568	109700
393.648	61720
393.728	44648
393.807	34916
393.887	32429
393.967	33928
394.047	43639
394.127	60554
394.206	110991
394.286	375058
394.366	1021418
394.446	959202
394.525	310761
394.605	101969
394.685	76166
394.764	118367
394.844	169551
394.924	111759
395.003	49422
395.083	38831
395.163	34323
395.242	33738
395.322	33462
395.402	25554
395.481	35262
395.561	92378
395.640	192271
395.720	158228
395.799	201849
395.879	167499
395.958	172865
396.038	547061
396.117	1278956
396.197	1232143
396.276	516561
396.356	202865
396.435	128716
396.515	87082
396.594	93576
396.673	150031
396.753	487635
396.832	1163635
396.912	828464
396.991	224248
397.070	70817
397.150	46125
397.229	32780
397.308	36912
397.388	51559
397.467	33064
397.546	20569
397.625	20586
397.705	30935
397.784	31566
397.863	18047
397.942	14144
398.022	18606
398.101	67875
398.180	150345
398.259	74213
398.338	27093
398.417	23101
398.497	17263
398.576	17260
398.655	14057
398.734	12395
398.813	16437
398.892	64771
398.971	158336
399.050	74213
399.129	14514
399.208	10892
399.287	12927
399.366	11457
399.445	11343
399.524	13075
399.603	14073
399.682	33621
399.761	85588
399.840	178748
399.919	116203
399.998	20725
400.077	11106
400.156	11028
400.235	15094
400.313	12467
400.392	24622
400.471	97890
400.550	131663
400.629	38560
400.708	20023
400.786	19750
400.865	42363
400.944	47320
401.023	24032
401.102	8513
401.180	8935
401.259	10662
401.338	14962
401.416	21830
401.495	19227
401.574	13857
401.652	14086
401.731	20413
401.810	19124
401.888	11359
401.967	10027
402.046	11643
402.124	20026
402.203	25508
402.281	15060
402.360	22154
402.438	51741
402.517	36093
402.596	16073
402.674	14381
402.753	11318
402.831	10410
402.910	17197
402.988	66852
403.066	158935
403.145	87431
403.223	68347
403.302	142713
403.380	108458
403.459	103730
403.537	43199
403.615	19279
403.694	8604
403.772	9333
403.850	8603
403.929	8779
404.007	13421
404.085	31884
404.164	36891
404.242	22807
404.320	62207
404.398	160518
404.477	212153
404.555	365549
404.633	281746
404.711	131634
404.789	79523
404.868	30042
404.946	15537
405.024	11598
405.102	10217
405.180	9913
405.258	9386
405.336	10961
405.415	12838
405.493	26066
405.571	24202
405.649	11129
405.727	12822
405.805	19945
405.883	18940
405.961	18562
406.039	19583
406.117	12955
406.195	27658
406.273	115196
406.351	284870
406.429	148273
406.507	29520
406.585	15060
406.663	19449
406.740	24717
406.818	20629
406.896	12034
406.974	15406
407.052	45846
407.130	192315
407.208	217318
407.285	46397
407.363	15203
407.441	15106
407.519	13535
407.596	18567
407.674	51676
407.752	126314
407.830	105233
407.907	39038
407.985	19429
408.063	11509
408.141	9095
408.218	18408
408.296	20318
408.373	18978
408.451	19275
408.529	17543
408.606	9761
408.684	8017
408.762	6677
408.839	6523
408.917	6720
408.994	9053
409.072	9090
409.149	8792
409.227	14076
409.304	14602
409.382	10262
409.459	10991
409.537	15892
409.614	16500
409.692	12519
409.769	13728
409.846	16361
409.924	22535
410.001	20315
410.079	17001
410.156	13659
410.233	14357
410.311	12583
410.388	11614
410.465	14058
410.543	15030
410.620	11033
410.697	13860
410.775	17081
410.852	9990
410.929	17005
411.006	21214
411.083	15106
411.161	32385
411.238	30804
411.315	14906
411.392	10480
411.469	18588
411.547	19703
411.624	11912
411.701	11423
411.778	18162
411.855	35094
411.932	19966
412.009	10308
412.086	10371
412.163	12939
412.240	15495
412.317	18381
412.394	17294
412.471	8765
412.548	9593
412.625	10301
412.702	15903
412.779	28006
412.856	18616
412.933	9080
413.010	10798
413.087	25189
413.164	95376
413.241	112183
413.318	31646
413.395	23421
413.471	33315
413.548	15502
413.625	11567
413.702	15674
413.779	10793
413.855	6505
413.932	6731
414.009	5850
414.086	7155
414.162	7880
414.239	22922
414.316	96415
414.393	170600
414.469	57531
414.546	10115
414.623	7069
414.699	9544
414.776	14235
414.853	9504
414.929	9929
415.006	9885
415.082	12383
415.159	11396
415.236	9518
415.312	12830
415.389	25975
415.465	34081
415.542	17514
415.618	14391
415.695	22891
415.771	16336
415.848	13393
415.924	11924
416.000	8680
416.077	7752
416.153	5405
416.230	4324
416.306	6019
416.383	7113
416.459	6236
416.535	6253
416.612	6129
416.688	5752
416.764	5981
416.841	7373
416.917	7019
416.993	8339
417.069	13409
417.146	25087
417.222	36612
417.298	19670
417.374	9890
417.451	11748
417.527	17924
417.603	19663
417.679	12700
417.755	10461
417.831	6997
417.908	6180
417.984	5593
418.060	9788
418.136	29578
418.212	36714
418.288	13018
418.364	7154
418.440	10922
418.516	18464
418.592	22731
418.668	46002
418.744	68486
418.820	46644
418.896	14377
418.972	8633
419.048	12009
419.124	30702
419.200	23300
419.276	8317
419.352	5576
419.428	6473
419.504	11666
419.579	16908
419.655	12174
419.731	16467
419.807	48416
419.883	80863
419.959	50212
420.034	16786
420.110	38458
420.186	114776
420.262	76369
420.337	17528
420.413	15388
420.489	8819
420.565	8243
420.640	8219
420.716	9741
420.792	7529
420.867	9661
420.943	10920
421.019	21586
421.094	17277
421.170	7857
421.245	7152
421.321	9613
421.397	11569
421.472	28514
421.548	67453
421.623	44677
421.699	18412
421.774	16087
421.850	17094
421.925	28679
422.001	24136
422.076	17564
422.152	22310
422.227	36631
422.302	37569
422.378	51286
422.453	93576
422.529	219190
422.604	550207
422.679	779293
422.755	522110
422.830	205131
422.905	83718
422.981	47158
423.056	32410
423.131	23926
423.207	21038
423.282	25748
423.357	45508
423.432	30626
423.508	34897
423.583	69535
423.658	47717
423.733	18194
423.808	21025
423.883	22549
423.959	21119
424.034	14024
424.109	10645
424.184	7969
424.259	7941
424.334	8091
424.409	7258
424.484	8930
424.559	11501
424.634	9952
424.709	16643
424.784	19494
424.859	13506
424.934	28524
425.009	95790
425.084	129724
425.159	43529
425.234	10179
425.309	9909
425.384	35277
425.459	50688
425.534	16250
425.609	9401
425.683	7469
425.758	8304
425.833	10024
425.908	16335
425.983	67650
426.058	146585
426.132	61791
426.207	14706
426.282	17990
426.357	14901
426.431	8043
426.506	7876
426.581	8469
426.655	7630
426.730	8458
426.805	8811
426.879	9549
426.954	10461
427.029	31250
427.103	140815
427.178	248775
427.253	94744
427.327	16991
427.402	27152
427.476	57329
427.551	28404
427.625	11408
427.700	10207
427.774	8230
427.849	9692
427.923	6553
427.998	8000
428.072	10655
428.147	24192
428.221	86106
428.296	167825
428.370	77310
428.444	17590
428.519	23367
428.593	38433
428.667	32789
428.742	39128
428.816	42826
428.890	125396
428.965	170486
429.039	67049
429.113	42509
429.188	18683
429.262	9376
429.336	26880
429.410	63986
429.485	39420
429.559	33160
429.633	24928
429.707	12583
429.781	35975
429.855	146200
429.930	194962
430.004	121572
430.078	166198
430.152	148038
430.226	229945
430.300	196959
430.374	35407
430.448	20497
430.522	71639
430.596	153726
430.670	106095
430.744	235109
430.818	282009
430.892	60459
430.966	15551
431.040	9459
431.114	6340
431.188	5238
431.262	7270
431.336	7439
431.410	24373
431.484	54492
431.557	35255
431.631	7765
431.705	10164
431.779	41890
431.853	136851
431.927	86673
432.000	13587
432.074	7286
432.148	9834
432.222	9695
432.295	7052
432.369	7790
432.443	23277
432.516	121766
432.590	225748
432.664	75906
432.737	13687
432.811	5743
432.885	5163
432.958	5447
433.032	5567
433.106	4234
433.179	3982
433.253	4938
433.326	4922
433.400	4049
433.473	5330
433.547	3957
433.620	7449
433.694	18355
433.767	15255
433.841	6154
433.914	5588
433.988	5016
434.061	5242
434.134	5750
434.208	4044
434.281	3803
434.355	4623
434.428	6613
434.501	5243
434.575	4602
434.648	5606
434.721	4929
434.795	4815
434.868	3817
434.941	3382
435.014	3953
435.088	5658
435.161	9251
435.234	16472
435.307	19169
435.381	9038
435.454	5707
435.527	6753
435.600	6885
435.673	6910
435.746	5836
435.819	6380
435.892	5589
435.966	5227
436.039	5475
436.112	5676
436.185	3237
436.258	4177
436.331	3294
436.404	3529
436.477	2563
436.550	3065
436.623	4826
436.696	4783
436.769	7335
436.842	6745
436.915	7363
436.987	11253
437.060	5807
437.133	4356
437.206	4073
437.279	5637
437.352	4117
437.425	5259
437.498	8253
437.570	20029
437.643	16511
437.716	6007
437.789	5666
437.861	19462
437.934	40242
438.007	17838
438.080	6744
438.152	9675
438.225	28403
438.298	155032
438.370	295780
438.443	116485
438.516	36290
438.588	10590
438.661	6160
438.734	7181
438.806	8792
438.879	10000
438.951	15415
439.024	21168
439.096	9462
439.169	5644
439.241	4194
439.314	5520
439.386	10007
439.459	15637
439.531	21729
439.604	10436
439.676	4392
439.749	4135
439.821	3817
439.893	4726
439.966	5273
440.038	9494
440.110	9374
440.183	6448
440.255	6585
440.327	12857
440.400	71624
440.472	209304
440.544	109406
440.617	18746
440.689	16896
440.761	24845
440.833	35458
440.905	19662
440.978	5227
441.050	4621
441.122	4441
441.194	5037
441.266	4517
441.338	5528
441.411	18033
441.483	87946
441.555	99894
441.627	20161
441.699	13340
441.771	11997
441.843	5843
441.915	4265
441.987	4194
442.059	5533
442.131	8373
442.203	12156
442.275	15324
442.347	12467
442.419	17272
442.491	68518
442.563	128740
442.635	58763
442.706	51981
442.778	36726
442.850	9416
442.922	6627
442.994	9530
443.066	14917
443.137	10734
443.209	9650
443.281	13934
443.353	29061
443.425	100290
443.496	261167
443.568	213081
443.640	72802
443.711	18588
443.783	12126
443.855	8819
443.926	6022
443.998	7236
444.070	9146
444.141	10833
444.213	18633
444.285	19483
444.356	15918
444.428	11907
444.499	5732
444.571	3896
444.642	5839
444.714	10295
444.785	16892
444.857	18035
444.928	31817
445.000	18012
445.071	24653
445.143	26510
445.214	18808
445.285	30715
445.357	80343
445.428	220297
445.500	386518
445.571	223968
445.642	103523
445.714	55949
445.785	50039
445.856	20575
445.928	22213
445.999	18228
446.070	14335
446.141	15658
446.213	19124
446.284	9685
446.355	9348
446.426	7650
446.497	8800
446.569	14736
446.640	22432
446.711	15789
446.782	7318
446.853	10546
446.924	10533
446.995	9061
447.066	8239
447.138	12931
447.209	7990
447.280	4753
447.351	3793
447.422	3630
447.493	8650
447.564	12405
447.635	16536
447.706	7677
447.777	4076
447.847	4200
447.918	4674
447.989	8414
448.060	11801
448.131	23438
448.202	22794
448.273	16977
448.344	7310
448.414	5906
448.485	5822
448.556	4759
448.627	4239
448.698	4264
448.768	3653
448.839	6882
448.910	13872
448.981	11346
449.051	7215
449.122	4064
449.193	4344
449.263	5039
449.334	5953
449.405	11488
449.475	23745
449.546	13890
449.616	14947
449.687	12302
449.758	6654
449.828	5516
449.899	6022
449.969	4218
450.040	5801
450.110	7171
450.181	8393
450.251	6020
450.322	5550
450.392	5541
450.463	4852
450.533	4527
450.604	5635
450.674	4408
450.744	4858
450.815	4340
450.885	5071
450.955	3734
451.026	4724
451.096	4597
451.166	6825
451.237	16311
451.307	29950
451.377	11297
451.447	5720
451.518	4334
451.588	5223
451.658	5991
451.728	12383
451.799	37277
451.869	31789
451.939	8222
452.009	5146
452.079	4813
452.149	6312
452.219	13134
452.289	40535
452.360	23467
452.430	6747
452.500	8964
452.570	10404
452.640	12046
452.710	29339
452.780	38705
452.850	39103
452.920	33416
452.990	10601
453.060	9250
453.129	13774
453.199	15593
453.269	56849
453.339	85786
453.409	114778
453.479	139571
453.549	187037
453.619	178210
453.688	56700
453.758	11868
453.828	8278
453.898	6213
453.968	5789
454.037	5487
454.087	5580
454.107	5602
454.168	5573
454.177	5549
454.247	5358
454.249	5365
454.316	4960
454.330	5475
454.386	7096
454.411	12799
454.456	22079
454.492	23398
454.525	24678
454.574	13648
454.595	8896
454.655	6420
454.665	6055
454.734	8572
454.736	8848
454.804	15713
454.817	19807
454.873	35523
454.898	35070
454.943	34088
454.979	23387
455.013	14109
455.060	9830
455.082	8221
455.141	11143
455.152	11835
455.221	34436
455.222	34932
455.291	55550
455.303	59607
455.360	74138
455.384	95239
455.430	126271
455.465	87582
455.499	53850
455.546	41376
455.569	35352
455.627	21758
455.638	19493
455.707	7195
455.708	7215
455.777	6276
455.789	6411
455.846	6982
455.869	6291
455.916	4919
455.950	5137
455.985	5321
456.031	6118
456.054	6365
456.112	5110
456.124	4946
456.193	6035
456.193	6010
456.262	6268
456.274	6634
456.332	8064
456.355	8326
456.401	8326
456.436	7210
456.470	6112
456.516	4873
456.540	4391
456.597	3773
456.609	3595
456.678	4814
456.678	4801
456.747	4234
456.759	4141
456.817	3676
456.840	4038
456.886	4635
456.920	4669
456.955	4984
457.001	5579
457.024	5973
457.082	7275
457.093	7459
457.162	10103
457.163	10149
457.232	11045
457.243	10281
457.301	6917
457.324	6199
457.370	5350
457.405	5587
457.439	5952
457.485	5507
457.508	5265
457.566	5929
457.577	6106
457.646	7625
457.647	7669
457.715	10652
457.727	11081
457.784	12950
457.808	14873
457.853	17956
457.889	20339
457.922	21453
457.969	18205
457.991	17740
458.050	18740
458.060	18812
458.129	25987
458.130	26181
458.198	27458
458.211	25351
458.267	16747
458.292	13506
458.336	10663
458.372	10637
458.405	12123
458.453	15723
458.474	17599
458.533	26025
458.543	26887
458.611	42156
458.614	42300
458.680	31858
458.694	27173
458.749	14676
458.775	11730
458.818	8595
458.855	7621
458.887	6989
458.936	6695
458.955	6590
459.016	6752
459.024	6879
459.093	8787
459.097	8810
459.162	7977
459.177	8143
459.230	9940
459.257	11110
459.299	11314
459.338	10646
459.368	10810
459.418	12547
459.437	12394
459.499	9186
459.505	9016
459.574	8045
459.579	8057
459.643	8088
459.659	7876
459.711	7922
459.740	8524
459.780	9159
459.820	9707
459.849	10053
459.900	10561
459.917	10478
459.981	9890
459.986	9894
460.054	10219
460.061	10291
460.123	11214
460.141	11459
460.191	13244
460.222	14694
460.260	15851
460.302	18089
460.328	17440
460.382	12914
460.397	12664
460.462	12301
460.465	12640
460.534	21830
460.543	23135
460.602	46223
460.623	55829
460.671	78051
460.703	104894
460.739	100927
460.783	72472
460.808	61414
460.864	18772
460.876	13810
460.944	9799
460.945	9757
461.013	9934
461.024	10009
461.081	10780
461.104	11310
461.150	10637
461.184	9498
461.218	9018
461.264	8648
461.286	8861
461.345	9925
461.355	9833
461.423	8837
461.425	8804
461.491	9801
461.505	10130
461.559	18817
461.585	23002
461.628	30671
461.665	39621
461.696	42059
461.745	48656
461.764	44447
461.825	15905
461.832	14934
461.901	10224
461.905	10263
461.969	9714
461.985	9108
462.037	8690
462.065	8943
462.105	11123
462.145	13190
462.173	16209
462.225	22210
462.241	24106
462.305	35012
462.310	34251
462.378	18951
462.385	16677
462.446	11479
462.465	10987
462.514	10539
462.545	10526
462.582	10336
462.625	10083
462.650	9999
462.705	9438
462.718	9781
462.785	12074
462.786	12127
462.854	14576
462.865	15151
462.922	17737
462.945	18871
462.990	15215
463.025	11067
463.058	9802
463.104	8429
463.126	8566
463.184	9620
463.194	9746
463.262	10313
463.264	10354
463.330	11330
463.344	11309
463.398	11299
463.424	11549
463.466	11298
463.504	11249
463.533	11742
463.583	11835
463.601	12054
463.663	13253
463.669	13739
463.737	19466
463.743	20001
463.805	28579
463.823	30934
463.873	40631
463.903	47421
463.940	47956
463.982	49132
464.008	40583
464.062	17113
464.076	15954
464.142	11275
464.144	11208
464.211	10957
464.221	10926
464.279	11996
464.301	12367
464.347	13317
464.381	14025
464.414	15207
464.461	16844
464.482	17421
464.540	19383
464.550	19194
464.617	16945
464.620	16856
464.685	18797
464.699	19201
464.753	21827
464.779	23250
464.820	24482
464.859	25527
464.888	24262
464.938	21666
464.956	21955
465.018	23251
465.023	23025
465.091	19140
465.098	18753
465.158	18869
465.177	18959
465.226	19326
465.257	19426
465.293	20789
465.336	22357
465.361	23910
465.416	27337
465.428	28944
465.495	37942
465.496	38064
465.563	48584
465.575	50593
465.631	56819
465.654	59488
465.698	40112
465.734	22183
465.765	20199
465.813	18103
465.833	18268
465.893	19513
465.900	19539
465.968	19440
465.972	19406
466.035	20238
466.052	20430
466.102	20512
466.131	20534
466.170	20993
466.210	21391
466.237	21899
466.290	22800
466.304	22842
466.369	22855
466.372	22948
466.439	24806
466.449	25022
466.506	27002
466.528	27734
466.573	39433
466.607	48128
466.641	59877
466.687	76165
466.708	80925
466.766	94285
466.775	88086
466.842	39502
466.845	37140
466.909	31302
466.925	30041
466.977	29458
467.004	29136
467.044	30522
467.083	31823
467.111	33856
467.163	37544
467.178	38370
467.242	41528
467.245	41380
467.312	36914
467.321	36265
467.379	35415
467.400	35015
467.446	36103
467.480	36780
467.559	32339
467.638	29670
467.717	32125
467.796	33906
467.875	36569
467.955	33711
468.034	49792
468.113	81632
468.192	107325
468.271	30857
468.350	26335
468.429	26293
468.508	26653
468.588	27019
468.667	26431
468.746	27048
468.825	26375
468.904	22454
468.983	30307
469.062	40352
469.141	44520
469.220	23206
469.299	23954
469.378	26390
469.456	32837
469.535	28091
469.614	27737
469.693	28312
469.772	35118
469.851	44497
469.930	30228
470.009	26193
470.088	26049
470.166	30568
470.245	37222
470.324	41884
470.403	34698
470.482	28813
470.560	26440
470.639	29769
470.718	33661
470.797	26991
470.875	32470
470.954	38143
471.033	38400
471.111	19988
471.190	21443
471.269	19033
471.347	21241
471.426	22283
471.505	26199
471.583	26444
471.662	25230
471.740	22889
471.819	23660
471.898	21944
471.976	21531
472.055	21859
472.133	25676
472.212	31925
472.290	30170
472.369	22175
472.447	20960
472.526	19249
472.604	23495
472.683	23562
472.761	24999
472.839	22868
472.918	21852
472.996	23175
473.075	24819
473.153	22686
473.231	22354
473.310	24381
473.388	25073
473.466	23810
473.545	29844
473.623	38676
473.701	36786
473.780	23137
473.858	21670
473.936	24822
474.014	22479
474.093	27279
474.171	35291
474.249	43511
474.327	28202
474.405	20036
474.484	22266
474.562	21655
474.640	21902
474.718	23320
474.796	23521
474.874	22168
474.952	21877
475.030	22492
475.108	23077
475.187	25324
475.265	30293
475.343	38537
475.421	42354
475.499	24135
475.577	24076
475.655	31194
475.733	54660
475.811	87675
475.889	72529
475.966	45498
476.044	22843
476.122	30271
476.200	36041
476.278	27853
476.356	20724
476.434	22314
476.512	27412
476.590	34772
476.667	29567
476.745	19245
476.823	21117
476.901	19241
476.979	21031
477.056	19924
477.134	21536
477.212	22364
477.290	21723
477.367	17220
477.445	18367
477.523	17801
477.601	18205
477.678	18970
477.756	21870
477.834	23992
477.911	18607
477.989	17818
478.066	18747
478.144	21061
478.222	29219
478.299	40704
478.377	37681
478.454	18303
478.532	18601
478.609	20806
478.687	21576
478.764	17783
478.842	21169
478.919	23607
478.997	20611
479.074	17396
479.152	21637
479.229	24994
479.307	16831
479.384	15397
479.461	15847
479.539	16985
479.616	21515
479.694	18198
479.771	19743
479.848	21906
479.926	27159
480.003	27599
480.080	17090
480.157	17348
480.235	17181
480.312	16705
480.389	20833
480.467	29402
480.544	33953
480.621	18729
480.698	19344
480.775	22569
480.853	21664
480.930	18461
481.007	20341
481.084	23410
481.161	25289
481.238	21780
481.315	16188
481.392	15847
481.470	16810
481.547	17687
481.624	15891
481.701	15774
481.778	16866
481.855	19295
481.932	31776
482.009	45221
482.086	29079
482.163	18909
482.240	32912
482.317	50336
482.393	38734
482.470	18668
482.547	18577
482.624	17849
482.701	18420
482.778	17110
482.855	15882
482.932	14683
483.009	15532
483.085	19586
483.162	24778
483.239	21673
483.316	16192
483.393	15670
483.469	17465
483.546	20282
483.623	20924
483.699	16179
483.776	19372
483.853	21633
483.930	35521
484.006	74515
484.083	115233
484.160	71348
484.236	106435
484.313	78285
484.389	61024
484.466	54279
484.543	52779
484.619	50681
484.696	54672
484.772	56744
484.849	58667
484.925	49313
485.002	49726
485.078	52408
485.155	53564
485.231	47042
485.308	46808
485.384	48274
485.461	61204
485.537	88561
485.614	94134
485.690	47761
485.766	45964
485.843	53569
485.919	75146
485.995	76986
486.072	45164
486.148	41196
486.224	42660
486.301	45531
486.377	52503
486.453	51503
486.530	52506
486.606	67051
486.682	74860
486.758	81613
486.835	90059
486.911	79066
486.987	120034
487.063	149138
487.139	194660
487.215	128831
487.292	61138
487.368	50911
487.444	56691
487.520	64055
487.596	60917
487.672	76236
487.748	133133
487.824	174806
487.900	87750
487.976	57233
488.052	57355
488.128	67159
488.204	54943
488.280	46446
488.356	59619
488.432	100897
488.508	136900
488.584	56786
488.660	46699
488.736	47353
488.812	50262
488.888	63803
488.964	98930
489.039	204743
489.115	284432
489.191	156297
489.267	50100
489.343	44773
489.418	38984
489.494	38495
489.570	35620
489.646	38562
489.722	37159
489.797	40339
489.873	63038
489.949	109455
490.024	85884
490.100	37416
490.176	40348
490.251	51393
490.327	65018
490.403	38135
490.478	34694
490.554	30332
490.629	32811
490.705	31943
490.781	36997
490.856	34529
490.932	43293
491.007	42471
491.083	40509
491.158	35411
491.234	50893
491.309	84468
491.385	80750
491.460	37679
491.536	39232
491.611	36488
491.686	41933
491.762	63118
491.837	128305
491.913	215953
491.988	286236
492.063	345219
492.139	84331
492.214	48120
492.289	32298
492.365	33737
492.440	38727
492.515	35700
492.590	32706
492.666	31204
492.741	42886
492.816	53754
492.891	34528
492.967	31977
493.042	31007
493.117	32900
493.192	39542
493.267	95530
493.342	271456
493.418	313718
493.493	47413
493.568	27202
493.643	29188
493.718	37210
493.793	53758
493.868	61396
493.943	39757
494.018	30420
494.093	26873
494.168	27084
494.243	25683
494.318	23263
494.393	23958
494.468	23836
494.543	25246
494.618	30989
494.693	26419
494.768	24402
494.842	27657
494.917	25115
494.992	28870
495.067	26256
495.142	26481
495.217	29828
495.292	29934
495.366	33705
495.441	39026
495.516	46464
495.591	88201
495.665	309938
495.740	607733
495.815	230059
495.890	46367
495.964	32958
496.039	37270
496.114	34535
496.188	38895
496.263	38065
496.338	32921
496.412	36396
496.487	45116
496.561	49148
496.636	50802
496.710	39293
496.785	44618
496.860	46192
496.934	41346
497.009	41790
497.083	41942
497.158	43856
497.232	51634
497.307	58564
497.381	51587
497.455	60082
497.530	71279
497.604	59123
497.679	65259
497.753	88436
497.827	106427
497.902	96663
497.976	116462
498.050	264209
498.125	694519
498.199	618677
498.273	151924
498.348	132045
498.422	114714
498.496	108120
498.570	98347
498.645	77624
498.719	72420
498.793	76990
498.867	94254
498.941	129502
499.016	338741
499.090	680982
499.164	213737
499.238	51416
499.312	48575
499.386	56765
499.460	49746
499.534	41664
499.609	49132
499.683	60470
499.757	61764
499.831	160775
499.905	475689
499.979	384976
500.053	75591
500.127	86450
500.201	73594
500.275	43792
500.349	39022
500.422	42613
500.496	73002
500.570	161900
500.644	321873
500.718	454748
500.792	93595
500.866	39599
500.940	44665
501.013	36712
501.087	42152
501.161	71423
501.235	91007
501.309	181776
501.382	423764
501.456	332537
501.530	96093
501.603	132302
501.677	52056
501.751	28737
501.825	39672
501.898	74843
501.972	166090
502.046	93589
502.119	39918
502.193	94848
502.266	177950
502.340	84124
502.413	91065
502.487	153808
502.561	89005
502.634	36627
502.708	34665
502.781	30768
502.855	25927
502.928	21566
503.002	21147
503.075	21516
503.149	23549
503.222	23676
503.295	24749
503.369	28072
503.442	46018
503.516	149297
503.589	314525
503.662	187711
503.736	71083
503.809	144936
503.882	122945
503.956	169810
504.029	147661
504.102	97202
504.175	103349
504.249	48744
504.322	37099
504.395	31501
504.468	24694
504.542	22845
504.615	18973
504.688	20065
504.761	19295
504.834	27433
504.907	40399
504.980	58489
505.053	29696
505.127	38660
505.200	41277
505.273	32449
505.346	23450
505.419	19367
505.492	19066
505.565	16561
505.638	17355
505.711	17913
505.784	16397
505.857	16361
505.930	18025
506.003	16636
506.076	21102
506.149	24470
506.221	27164
506.294	30049
506.367	84992
506.440	221310
506.513	109700
506.586	32438
506.659	22469
506.731	20607
506.804	29368
506.877	40867
506.950	25078
507.022	18992
507.095	24231
507.168	30265
507.241	21924
507.313	19995
507.386	26140
507.459	34000
507.531	22890
507.604	19001
507.677	18477
507.749	16241
507.822	30620
507.894	56781
507.967	61002
508.040	34654
508.112	29949
508.185	27636
508.257	29795
508.330	41957
508.402	27148
508.475	26108
508.547	27655
508.620	28248
508.692	38830
508.765	27419
508.837	23732
508.909	22374
508.982	23447
509.054	28090
509.127	25023
509.199	22463
509.271	21369
509.344	21503
509.416	22159
509.488	21786
509.560	23875
509.633	28088
509.705	32758
509.777	32072
509.849	45119
509.922	32342
509.994	26254
510.066	25883
510.138	30128
510.210	52604
510.283	45824
510.355	39004
510.427	35780
510.499	33534
510.571	32830
510.643	34972
510.715	53267
510.787	45834
510.859	33235
510.931	38726
511.003	51808
511.076	44483
511.148	30562
511.219	31909
511.291	45020
511.363	46355
511.435	29369
511.507	27358
511.579	28722
511.651	27680
511.723	26978
511.795	25438
511.867	26803
511.939	34348
512.010	55358
512.082	43722
512.154	28692
512.226	29822
512.298	45761
512.369	62628
512.441	49787
512.513	48609
512.585	38578
512.656	39358
512.728	40520
512.800	31779
512.871	32047
512.943	31669
513.015	28776
513.086	32580
513.158	36683
513.230	39093
513.301	57306
513.373	57690
513.444	36727
513.516	28954
513.588	31052
513.659	34931
513.731	42670
513.802	42328
513.874	88621
513.945	137674
514.016	49067
514.088	30548
514.159	35986
514.231	48587
514.302	57255
514.374	41269
514.445	41275
514.516	64193
514.588	46949
514.659	39533
514.730	59492
514.802	53061
514.873	49578
514.944	51187
515.016	47886
515.087	49454
515.158	55038
515.229	62978
515.301	52976
515.372	68574
515.443	54276
515.514	43406
515.585	34387
515.656	34107
515.728	32222
515.799	31280
515.870	33933
515.941	33997
516.012	35124
516.083	45210
516.154	52022
516.225	60952
516.296	57321
516.367	47830
516.438	51285
516.509	59373
516.580	95871
516.651	299998
516.722	822265
516.793	350160
516.864	86584
516.935	76362
517.006	76768
517.077	117808
517.148	304313
517.219	927845
517.289	1187706
517.360	343735
517.431	107716
517.502	49209
517.573	45518
517.643	46497
517.714	53159
517.785	51164
517.856	52911
517.926	59796
517.997	64353
518.068	71098
518.138	90881
518.209	171151
518.280	703070
518.350	1789602
518.421	687844
518.492	104197
518.562	65200
518.633	58306
518.703	55323
518.774	77553
518.845	123258
518.915	110860
518.986	63375
519.056	65641
519.127	118901
519.197	179507
519.268	294416
519.338	147694
519.408	58302
519.479	77777
519.549	54229
519.620	36835
519.690	30493
519.760	31756
519.831	33414
519.901	32162
519.971	27561
520.042	29777
520.112	34797
520.182	43658
520.253	47230
520.323	33863
520.393	52062
520.463	73381
520.534	57036
520.604	96023
520.674	44491
520.744	48670
520.814	116303
520.885	95727
520.955	109737
521.025	289709
521.095	100211
521.165	32541
521.235	30494
521.305	27175
521.375	26185
521.445	33001
521.515	45191
521.585	52387
521.655	48035
521.725	39997
521.795	34313
521.865	25712
521.935	39182
522.005	31687
522.075	24699
522.145	27113
522.215	31196
522.285	42180
522.355	54674
522.424	90942
522.494	76035
522.564	52504
522.634	130754
522.704	308790
522.774	104685
522.843	32094
522.913	34860
522.983	43205
523.053	31244
523.122	31670
523.192	58662
523.262	190972
523.331	162378
523.401	36551
523.471	24961
523.540	27612
523.610	21235
523.680	21257
523.749	22747
523.819	28499
523.888	26369
523.958	21868
524.027	22723
524.097	24334
524.166	23854
524.236	28361
524.305	26037
524.375	21514
524.444	20372
524.514	23568
524.583	24166
524.653	28394
524.722	31481
524.791	22782
524.861	22868
524.930	21165
524.999	24823
525.069	35706
525.138	25786
525.207	29590
525.277	24641
525.346	25034
525.415	23900
525.484	25511
525.554	28870
525.623	26719
525.692	26662
525.761	25304
525.830	25893
525.900	28454
525.969	39511
526.038	54513
526.107	99344
526.176	238064
526.245	194855
526.314	95998
526.383	147504
526.452	185474
526.522	301501
526.591	318074
526.660	166443
526.729	72879
526.797	74603
526.867	210686
526.935	754020
527.004	823986
527.073	389438
527.142	55913
527.211	35397
527.280	38052
527.349	38250
527.418	22906
527.487	23227
527.555	20524
527.624	20892
527.693	17819
527.762	20950
527.831	18130
527.899	19678
527.968	19515
528.037	21073
528.106	30522
528.174	55475
528.243	40908
528.312	62687
528.380	76723
528.449	25427
528.518	20027
528.586	16024
528.655	17917
528.723	17197
528.792	16902
528.861	20275
528.929	16851
528.998	18251
529.066	17290
529.135	18570
529.203	17954
529.272	20698
529.340	23600
529.409	24893
529.477	21697
529.545	27251
529.614	29698
529.682	33374
529.751	36105
529.819	38979
529.887	31252
529.956	25049
530.024	25834
530.092	24781
530.161	32858
530.229	49370
530.297	30556
530.365	25118
530.434	25016
530.502	24257
530.570	22963
530.638	21257
530.707	25861
530.775	25598
530.843	22092
530.911	23413
530.979	22011
531.047	24303
531.115	24693
531.183	23975
531.252	23570
531.320	24375
531.388	21528
531.456	24870
531.524	22479
531.592	26649
531.660	30677
531.728	25272
531.796	25305
531.864	26148
531.932	27174
532.000	26313
532.067	30557
532.135	31433
532.203	35616
532.271	40843
532.339	74995
532.407	162612
532.475	87537
532.542	42893
532.610	44520
532.678	70918
532.746	276763
532.814	520492
532.881	126443
532.949	37268
533.017	32434
533.084	28845
533.152	27409
533.220	30045
533.287	33804
533.355	28169
533.423	27440
533.490	27214
533.558	28461
533.625	30631
533.693	32175
533.761	30068
533.828	31648
533.896	36980
533.963	67806
534.031	81998
534.098	99436
534.166	48447
534.233	33808
534.300	36494
534.368	35411
534.435	33435
534.503	32330
534.570	35720
534.637	31931
534.705	30833
534.772	33907
534.840	49560
534.907	135583
534.974	146584
535.041	38178
535.109	34235
535.176	25725
535.243	26113
535.310	29663
535.378	27587
535.445	23678
535.512	24030
535.579	24438
535.646	24377
535.714	26252
535.781	32232
535.848	31548
535.915	34861
535.982	37702
536.049	36751
536.116	35882
536.183	34345
536.250	32741
536.317	34633
536.384	41510
536.451	55545
536.518	55050
536.585	40980
536.652	51527
536.719	67707
536.786	49384
536.853	41262
536.920	60665
536.987	88377
537.053	97027
537.120	323153
537.187	211980
537.254	34436
537.321	29583
537.388	28597
537.454	23200
537.521	24217
537.588	23833
537.654	28835
537.721	33370
537.788	31669
537.855	26147
537.921	28438
537.988	26855
538.055	27908
538.121	26972
538.188	34665
538.254	58708
538.321	98611
538.388	52190
538.454	29403
538.521	26499
538.587	24246
538.654	25159
538.720	24269
538.787	25120
538.853	26881
538.920	33230
538.986	31450
539.053	28586
539.119	30971
539.185	29961
539.252	37328
539.318	56352
539.385	40336
539.451	35936
539.517	35333
539.583	42948
539.650	112748
539.716	225116
539.782	59035
539.849	30849
539.915	32065
539.981	34182
540.047	40238
540.114	34420
540.180	34790
540.246	35874
540.312	54020
540.378	100475
540.444	87312
540.510	115849
540.576	259673
540.643	70191
540.709	30612
540.775	29551
540.841	30307
540.907	41594
540.973	61941
541.039	60558
541.105	56608
541.171	33525
541.237	30283
541.303	33399
541.369	39845
541.435	56893
541.500	85677
541.566	49153
541.632	29458
541.698	26872
541.764	26734
541.830	25515
541.896	26948
541.961	29061
542.027	29438
542.093	30353
542.159	33051
542.224	38384
542.290	58222
542.356	93530
542.421	86760
542.487	43475
542.553	33374
542.618	34458
542.684	29827
542.750	30809
542.815	37648
542.881	75120
542.947	246246
543.012	137700
543.078	30941
543.143	28369
543.209	31179
543.274	32361
543.340	39208
543.405	104539
543.471	135211
543.536	34207
543.602	28104
543.667	27288
543.732	27697
543.798	26037
543.863	28084
543.928	26003
543.994	26160
544.059	27670
544.124	26216
544.190	28067
544.255	27964
544.320	29657
544.386	32871
544.451	45768
544.516	49435
544.581	54943
544.646	168219
544.712	206350
544.777	43907
544.842	35770
544.907	36092
544.972	32447
545.037	32649
545.102	33935
545.168	33350
545.233	35393
545.298	37902
545.363	44076
545.428	52471
545.493	102962
545.558	193029
545.623	68349
545.688	36304
545.753	33603
545.818	33364
545.883	34656
545.947	33698
546.012	36542
546.077	36233
546.142	35765
546.207	39734
546.272	53419
546.337	50638
546.401	39806
546.466	38005
546.531	36353
546.596	39937
546.661	38798
546.725	38097
546.790	33940
546.855	35486
546.919	36284
546.984	39871
547.049	42690
547.113	45574
547.178	42352
547.243	47855
547.307	52152
547.372	61497
547.436	62522
547.501	54327
547.565	58225
547.630	68886
547.695	64468
547.759	62327
547.823	55688
547.888	50374
547.952	51483
548.017	57717
548.081	67331
548.146	73694
548.210	62385
548.274	55934
548.339	54259
548.403	51935
548.468	48956
548.532	50192
548.596	51729
548.660	52173
548.725	57950
548.789	66703
548.853	63903
548.917	59165
548.982	68272
549.046	62130
549.110	47535
549.174	49238
549.238	51674
549.303	54086
549.367	56282
549.431	54185
549.495	51923
549.559	51377
549.623	59034
549.687	70297
549.751	86971
549.815	72848
549.879	68044
549.943	64875
550.007	69226
550.071	73187
550.135	83540
550.199	69024
550.263	62754
550.327	65809
550.391	77429
550.455	68391
550.519	66630
550.582	74892
550.646	100244
550.710	96285
550.774	76798
550.838	77177
550.901	79285
550.965	82951
551.029	86289
551.093	94654
551.156	112664
551.220	158160
551.284	147145
551.347	106566
551.411	162522
551.475	146333
551.538	84099
551.602	76208
551.666	71661
551.729	68617
551.793	68019
551.856	69753
551.920	67993
551.983	67629
552.047	66317
552.110	66235
552.174	67032
552.237	69067
552.301	62492
552.364	61517
552.428	61656
552.491	63893
552.554	66025
552.618	66887
552.681	69009
552.745	72152
552.808	95338
552.871	113406
552.934	88117
552.998	72798
553.061	73060
553.124	68478
553.187	67717
553.251	71088
553.314	72598
553.377	76256
553.440	111626
553.503	290402
553.567	348615
553.630	91876
553.693	68189
553.756	67617
553.819	64259
553.882	62437
553.945	63498
554.008	62453
554.071	60518
554.134	61917
554.197	57017
554.260	58975
554.323	63713
554.386	63954
554.449	62846
554.512	62747
554.575	58023
554.638	61492
554.701	59690
554.764	58391
554.827	56538
554.889	53704
554.952	51685
555.015	52274
555.078	52239
555.141	53458
555.203	52215
555.266	53346
555.329	52737
555.391	53032
555.454	55651
555.517	54909
555.580	49470
555.642	47999
555.705	49062
555.768	50073
555.830	48949
555.893	46032
555.955	46205
556.018	46220
556.080	46655
556.143	47246
556.206	47256
556.268	50020
556.330	49936
556.393	48596
556.455	48343
556.518	63887
556.580	58921
556.643	45121
556.705	43229
556.767	43731
556.830	46229
556.892	54044
556.955	78700
557.017	55678
557.079	43477
557.142	43883
557.204	56972
557.266	105144
557.328	76512
557.391	40877
557.453	39659
557.515	40993
557.577	54008
557.639	51381
557.701	38632
557.764	38922
557.826	40043
557.888	42401
557.950	40737
558.012	43710
558.074	54804
558.136	109740
558.198	209364
558.260	84883
558.322	49773
558.384	53087
558.446	54599
558.508	60577
558.570	75676
558.632	137295
558.694	178399
558.756	168891
558.818	489773
558.880	958021
558.942	290115
559.003	230084
559.065	109683
559.127	60040
559.189	57888
559.251	64873
559.312	91557
559.374	232101
559.436	632349
559.498	266239
559.559	66468
559.621	55735
559.683	65617
559.744	116549
559.806	335864
559.868	397486
559.929	88539
559.991	63616
560.052	94946
560.114	211083
560.176	131138
560.237	146378
560.299	196576
560.360	59025
560.422	39574
560.483	38059
560.545	36488
560.606	34994
560.667	34033
560.729	34417
560.790	32630
560.852	33030
560.913	34655
560.974	34028
561.036	33222
561.097	35127
561.158	35489
561.220	35829
561.281	36004
561.342	37950
561.403	44204
561.465	63728
561.526	152056
561.587	162884
561.648	49933
561.709	38737
561.771	36112
561.832	36029
561.893	35759
561.954	35250
562.015	33894
562.076	34695
562.137	34592
562.198	35323
562.259	35846
562.320	35998
562.381	42092
562.442	58922
562.503	44975
562.564	35895
562.625	34453
562.686	34093
562.747	39587
562.808	35438
562.869	35674
562.930	40210
562.991	38803
563.051	36319
563.112	35350
563.173	35484
563.234	33804
563.294	35460
563.355	36777
563.416	37632
563.477	36102
563.537	37119
563.598	37365
563.659	36762
563.720	37559
563.780	38522
563.841	39501
563.901	37021
563.962	35277
564.023	35374
564.083	35494
564.144	37275
564.204	35265
564.265	37869
564.325	43749
564.386	68241
564.446	53800
564.507	36261
564.567	36345
564.628	37522
564.688	35769
564.749	36614
564.809	40982
564.869	44804
564.930	37761
564.990	37600
565.050	36738
565.111	36961
565.171	37471
565.231	36390
565.292	38545
565.352	37779
565.412	39033
565.472	42698
565.532	43503
565.593	42585
565.653	40632
565.713	43320
565.773	45637
565.833	56014
565.893	62270
565.953	44856
566.013	43696
566.074	45477
566.134	54390
566.194	74957
566.254	74037
566.314	57552
566.374	50150
566.434	51446
566.494	52529
566.554	53550
566.614	55006
566.673	57574
566.733	60965
566.793	62497
566.853	65786
566.913	65614
566.973	67910
567.033	67711
567.092	68506
567.152	65526
567.212	68162
567.272	69701
567.331	73290
567.391	74663
567.451	80394
567.511	89115
567.570	84824
567.630	70906
567.690	68783
567.749	72771
567.809	75169
567.868	83898
567.928	91838
567.988	104777
568.047	117923
568.107	146857
568.166	191290
568.226	273751
568.285	342793
568.345	326847
568.404	290714
568.464	259616
568.523	247001
568.582	247825
568.642	269998
568.701	317301
568.761	426685
568.820	571221
568.879	581141
568.939	497200
568.998	404338
569.057	329541
569.116	274007
569.176	228121
569.235	195713
569.294	169300
569.353	146535
569.413	129577
569.472	116535
569.531	104568
569.590	93804
569.649	89575
569.708	81525
569.767	80535
569.827	81888
569.886	71429
569.945	62852
570.004	60814
570.063	59682
570.122	59769
570.181	60022
570.240	58013
570.299	58665
570.358	58430
570.417	48545
570.475	47127
570.534	49406
570.593	48049
570.652	48832
570.711	48108
570.770	45495
570.829	47743
570.887	48371
570.946	48994
571.005	41365
571.064	40829
571.122	41657
571.181	44398
571.240	38959
571.299	37512
571.357	39071
571.416	39885
571.475	42724
571.533	41731
571.592	36854
571.650	38090
571.709	35266
571.768	36412
571.826	35490
571.885	34490
571.943	33411
572.002	33858
572.060	32988
572.119	32389
572.177	31183
572.236	31157
572.294	31062
572.352	30698
572.411	31005
572.469	30943
572.528	32352
572.586	31819
572.644	37069
572.703	43548
572.761	34296
572.819	30398
572.877	30317
572.936	30214
572.994	29809
573.052	30608
573.110	31168
573.169	31216
573.227	29333
573.285	28056
573.343	29068
573.401	28924
573.459	28873
573.517	28483
573.576	29197
573.634	30055
573.692	30678
573.750	29209
573.808	29280
573.866	31358
573.924	34602
573.982	32912
574.040	28399
574.098	28781
574.155	28127
574.213	27844
574.271	28467
574.329	28785
574.387	27962
574.445	27469
574.503	26769
574.560	26532
574.618	26608
574.676	26433
574.734	25489
574.792	27741
574.849	26287
574.907	26310
574.965	26177
575.022	26642
575.080	26569
575.138	27448
575.195	27299
575.253	29228
575.311	31243
575.368	27117
575.426	26309
575.483	25903
575.541	25380
575.598	25732
575.656	27886
575.713	26594
575.771	26964
575.828	26148
575.886	25875
575.943	28584
576.001	28085
576.058	27849
576.115	29064
576.173	33581
576.230	35494
576.287	40507
576.345	32367
576.402	28975
576.459	28095
576.517	28885
576.574	30657
576.631	29530
576.688	27421
576.746	26964
576.803	27983
576.860	26799
576.917	28369
576.974	27122
577.031	28014
577.089	28604
577.146	28691
577.203	29844
577.260	29981
577.317	30520
577.374	31894
577.431	31524
577.488	29305
577.545	28723
577.602	28662
577.659	30715
577.716	32418
577.773	34794
577.830	31186
577.886	30845
577.943	28410
578.000	29919
578.057	33291
578.114	35004
578.171	40125
578.227	49775
578.284	48811
578.341	41443
578.398	36625
578.454	36404
578.511	36617
578.568	36535
578.625	32580
578.681	30595
578.738	29667
578.794	29923
578.851	29466
578.908	31512
578.964	32293
579.021	33426
579.077	31237
579.134	30793
579.190	29604
579.247	30239
579.303	29684
579.360	28726
579.416	30180
579.473	28456
579.529	28975
579.586	30748
579.642	31134
579.698	31261
579.755	32646
579.811	33586
579.867	33768
579.924	34410
579.980	35772
580.036	41149
580.093	48787
580.149	66503
580.205	70634
580.261	58274
580.317	50315
580.374	45100
580.430	43490
580.486	41408
580.542	37169
580.598	37628
580.619	37007
580.654	35967
580.692	35869
580.710	35871
580.765	34536
580.767	34529
580.823	34972
580.838	34758
580.879	34279
580.911	34242
580.935	34256
580.984	33746
580.991	33716
581.047	35115
581.057	35155
581.103	35475
581.130	36872
581.159	38389
581.203	41207
581.215	41978
581.270	40527
581.276	40208
581.326	37410
581.349	36833
581.382	36069
581.422	36478
581.438	36663
581.494	35454
581.494	35438
581.550	35908
581.567	36099
581.606	36516
581.640	35797
581.661	35394
581.713	35287
581.717	35292
581.773	34369
581.786	34519
581.829	35164
581.859	35241
581.885	35331
581.932	35849
581.940	35938
581.996	35712
582.004	35531
582.052	34598
582.077	34620
582.107	34698
582.150	35703
582.163	36048
582.219	36167
582.223	36152
582.274	35871
582.296	36648
582.330	38014
582.368	37463
582.386	37208
582.441	36464
582.441	36468
582.497	37494
582.514	38090
582.552	39743
582.587	41290
582.608	42035
582.659	39181
582.663	38948
582.719	39979
582.732	39634
582.774	39053
582.805	39824
582.830	40291
582.877	40267
582.885	40298
582.941	41036
582.950	41323
582.996	43082
583.023	45402
583.052	47949
583.095	48573
583.107	48837
583.162	56673
583.168	57046
583.218	59600
583.240	57582
583.273	54203
583.313	51054
583.328	49945
583.384	48561
583.385	48493
583.439	46476
583.458	46266
583.494	45987
583.531	45011
583.549	44613
583.603	45142
583.605	45153
583.660	44681
583.676	44786
583.715	45205
583.748	45335
583.770	45446
583.820	46753
583.825	46832
583.881	45303
583.893	45111
583.936	44867
583.965	45361
583.991	45860
584.038	46864
584.046	46987
584.101	46176
584.110	46282
584.156	46808
584.183	47387
584.211	48165
584.255	47951
584.266	47815
584.321	47705
584.328	47776
584.376	48944
584.400	49456
584.431	49934
584.472	49983
584.486	49995
584.541	51794
584.545	51784
584.596	51881
584.617	52238
584.651	52968
584.689	54349
584.706	54876
584.761	55439
584.762	55441
584.816	56193
584.834	56287
584.871	56731
584.906	57906
584.926	58493
584.978	59624
584.980	59686
585.035	60342
585.051	61037
585.090	63089
585.123	64597
585.145	65583
585.195	67160
585.200	67443
585.254	72213
585.267	73685
585.309	79609
585.340	83839
585.364	85261
585.412	81015
585.419	80351
585.473	81624
585.484	82247
585.528	89720
585.556	98160
585.583	110551
585.628	140343
585.637	151041
585.692	246834
585.700	260639
585.747	312795
585.772	280174
585.801	203128
585.845	123139
585.856	112963
585.910	93705
585.917	91835
585.965	88698
585.989	87873
586.019	88078
586.061	88875
586.074	89136
586.128	90351
586.133	90505
586.183	93516
586.205	93986
586.237	93863
586.277	94279
586.292	94872
586.346	96372
586.349	96455
586.401	97408
586.421	98344
586.455	101834
586.493	105794
586.509	108912
586.564	121296
586.565	121690
586.618	145863
586.637	146956
586.672	133654
586.709	122447
586.727	120349
586.781	120329
586.781	120398
586.835	122864
586.853	123844
586.889	125920
586.925	127390
586.944	128728
586.996	132710
586.998	132901
587.052	139673
587.068	141215
587.106	145597
587.140	148786
587.161	150422
587.212	155454
587.215	155891
587.269	163278
587.284	165258
587.323	171233
587.356	176250
587.377	180236
587.427	191042
587.431	191802
587.485	198919
587.499	201358
587.539	211752
587.571	219511
587.593	224923
587.643	237268
587.648	238747
587.702	254391
587.715	258616
587.755	275304
587.786	286718
587.810	295555
587.858	316423
587.864	319430
587.917	347525
587.930	354093
587.971	380516
588.001	399788
588.025	416102
588.073	450341
588.079	455674
588.133	503429
588.145	514228
588.187	562522
588.217	596995
588.241	630576
588.288	700668
588.295	712274
588.348	809178
588.360	830363
588.402	925732
588.431	994678
588.456	1067927
588.503	1214348
588.510	1240681
588.564	1455861
588.575	1501766
588.617	1725160
588.646	1882076
588.671	2038329
588.718	2330820
588.725	2376453
588.778	2696071
588.789	2749567
588.832	2842760
588.861	2867751
588.886	2714979
588.932	2348804
588.939	2319740
588.993	2166384
589.004	2162990
589.047	2647278
589.075	2927687
589.100	2948397
589.147	2910470
589.154	2883974
589.207	2619246
589.218	2562757
589.261	2442358
589.290	2373179
589.314	2399332
589.361	2461814
589.368	2489698
589.421	2706452
589.433	2744169
589.475	2788803
589.504	2771492
589.528	2612407
589.576	2286659
589.582	2314893
589.635	2676724
589.647	2736432
589.689	2694498
589.718	2614382
589.742	2413353
589.790	1985829
589.795	1947832
589.849	1575783
589.861	1490700
589.902	1306975
589.932	1170330
589.955	1094913
590.004	939437
590.009	929974
590.062	818454
590.075	791142
590.115	726509
590.146	675092
590.168	636138
590.218	548630
590.222	545239
590.275	494882
590.289	481132
590.328	452936
590.360	429243
590.381	415990
590.431	384520
590.435	383452
590.488	356937
590.503	349234
590.541	334123
590.574	320526
590.594	314034
590.645	296188
590.647	295959
590.700	278922
590.716	273359
590.753	263131
590.787	253588
590.806	250361
590.859	239805
590.859	240021
590.912	230877
590.930	227647
590.965	222361
591.001	216344
591.018	214095
591.071	206387
591.072	205977
591.124	199642
591.143	197027
591.177	194126
591.214	190170
591.230	189380
591.283	186257
591.285	185800
591.336	182891
591.356	181309
591.389	178041
591.427	173260
591.442	171250
591.495	162629
591.498	161720
591.547	158534
591.569	156722
591.600	155222
591.640	152570
591.653	151966
591.706	148256
591.711	147582
591.759	147284
591.782	146833
591.811	148056
591.853	148886
591.864	147772
591.917	140796
591.924	139486
591.969	137503
591.995	136093
592.022	135658
592.066	134063
592.075	134670
592.127	136912
592.137	137064
592.180	139260
592.208	140074
592.233	136192
592.279	127953
592.285	127847
592.338	124851
592.350	123900
592.390	121078
592.421	118529
592.443	118965
592.491	119134
592.495	119318
592.548	118335
592.562	117813
592.600	116411
592.633	114727
592.653	114386
592.704	112228
592.705	112852
592.775	111759
592.846	111369
592.916	112859
592.987	115144
593.058	109180
593.128	102691
593.199	103114
593.270	101819
593.341	99265
593.411	99174
593.482	100409
593.553	97786
593.623	94971
593.694	96559
593.764	96830
593.835	95376
593.906	93806
593.976	91541
594.047	92726
594.117	98849
594.188	99372
594.258	90071
594.329	86618
594.399	87090
594.470	86728
594.540	87068
594.611	86047
594.681	84983
594.751	86292
594.822	87944
594.892	89916
594.963	89621
595.033	87656
595.103	89344
595.174	91583
595.244	107297
595.314	119776
595.384	88924
595.455	85295
595.525	87388
595.595	86798
595.665	87336
595.736	85845
595.806	84136
595.876	85269
595.946	83515
596.016	84721
596.087	87131
596.157	84983
596.227	84726
596.297	87668
596.367	90344
596.437	94237
596.507	105048
596.577	116596
596.647	92761
596.717	89800
596.787	91530
596.857	90360
596.927	91744
596.997	91250
597.067	94073
597.137	100720
597.207	95880
597.277	93709
597.347	91059
597.417	91075
597.487	92937
597.557	94595
597.626	92767
597.696	96116
597.766	102746
597.836	114147
597.906	92824
597.975	87345
598.045	86245
598.115	88900
598.185	90699
598.254	95960
598.324	102263
598.394	105181
598.464	102181
598.533	97554
598.603	93950
598.672	94570
598.742	93701
598.812	94300
598.881	93982
598.951	93383
599.020	91695
599.090	94024
599.159	95649
599.229	93081
599.299	91720
599.368	94184
599.437	92483
599.507	90847
599.576	91559
599.646	94992
599.715	96795
599.785	91101
599.854	90982
599.924	93284
599.993	91208
600.062	88923
600.132	89364
600.201	95225
600.270	103246
600.340	103938
600.409	101797
600.478	99760
600.547	101544
600.617	98004
600.686	91275
600.755	91116
600.824	91871
600.894	89139
600.963	86365
601.032	85463
601.101	86730
601.170	85931
601.239	86393
601.308	90248
601.378	90371
601.447	87255
601.516	88416
601.585	92599
601.654	97903
601.723	95385
601.792	95410
601.861	102600
601.930	113301
601.999	111820
602.068	102971
602.137	108781
602.206	109870
602.275	106656
602.343	115656
602.412	116588
602.481	104398
602.550	101828
602.619	104610
602.688	105756
602.756	103565
602.825	102294
602.894	104001
602.963	102770
603.032	105291
603.100	105074
603.169	103861
603.238	106667
603.307	101408
603.375	103345
603.444	107045
603.513	102652
603.581	102986
603.650	107804
603.719	95787
603.787	94501
603.856	96596
603.924	99216
603.993	101085
604.061	102124
604.130	103857
604.198	105902
604.267	105748
604.335	106600
604.404	107460
604.472	108945
604.541	109692
604.609	113259
604.678	114062
604.746	115918
604.815	118535
604.883	115898
604.951	115269
605.020	115326
605.088	111864
605.156	109181
605.225	111030
605.293	109503
605.361	110903
605.429	110253
605.498	114903
605.566	117470
605.634	118692
605.702	118601
605.771	119153
605.839	121147
605.907	114573
605.975	116123
606.043	113307
606.111	112289
606.180	119678
606.248	123096
606.316	125641
606.384	118746
606.452	116104
606.520	119359
606.588	102963
606.656	95652
606.724	94645
606.792	90709
606.860	83491
606.928	78105
606.996	76755
607.064	75151
607.132	77826
607.200	80838
607.267	81982
607.335	84067
607.403	85151
607.471	81872
607.539	82535
607.607	81074
607.674	76706
607.742	77155
607.810	79445
607.878	78160
607.946	76971
608.013	78540
608.081	80406
608.149	80252
608.216	80511
608.284	82586
608.352	83210
608.419	84904
608.487	93347
608.555	83526
608.622	79986
608.690	82703
608.757	88216
608.825	91559
608.893	91608
608.960	95954
609.028	98449
609.095	100605
609.163	85941
609.230	78116
609.298	75270
609.365	76548
609.432	82059
609.500	88255
609.567	96773
609.635	106379
609.702	109004
609.769	108662
609.837	95215
609.904	87825
609.971	92552
610.039	110600
610.106	151017
610.173	271750
610.241	581419
610.308	587035
610.375	316872
610.442	134182
610.509	98105
610.577	88825
610.644	87484
610.711	86259
610.778	87722
610.845	88685
610.912	94742
610.980	102491
611.047	122476
611.114	104844
611.181	90026
611.248	86343
611.315	91095
611.382	91571
611.449	93739
611.516	95045
611.583	95219
611.650	95516
611.717	97814
611.784	101180
611.851	107439
611.918	123117
611.984	139987
612.051	200191
612.118	396899
612.185	939860
612.252	641088
612.319	171953
612.386	127986
612.452	116109
612.519	112510
612.586	121792
612.653	111738
612.719	109685
612.786	105176
612.853	98817
612.919	95089
612.986	96012
613.053	91617
613.120	87465
613.186	84024
613.253	87585
613.319	86052
613.386	87819
613.453	91838
613.519	98492
613.586	113443
613.652	140519
613.719	120702
613.785	111186
613.852	93149
613.918	92743
613.985	103248
614.051	134750
614.118	225146
614.184	215685
614.250	101449
614.317	92357
614.383	89747
614.449	91246
614.516	90061
614.582	91564
614.648	88939
614.715	87762
614.781	88004
614.847	89097
614.914	88838
614.980	89032
615.046	88743
615.112	91779
615.179	94343
615.245	104089
615.311	123053
615.377	174139
615.443	201681
615.509	141703
615.575	116040
615.642	107151
615.708	111272
615.774	118125
615.840	134715
615.906	162641
615.972	236795
616.038	427293
616.104	706928
616.170	1288769
616.236	1120527
616.302	281538
616.368	177797
616.434	137032
616.500	124321
616.565	127189
616.631	145752
616.697	130788
616.763	131579
616.829	174148
616.895	276639
616.961	280656
617.026	155228
617.092	108084
617.158	99564
617.224	95923
617.289	92483
617.355	90123
617.421	86519
617.487	86770
617.552	82556
617.618	79818
617.684	80003
617.749	82022
617.815	78785
617.880	77081
617.946	77890
618.012	81892
618.077	81847
618.143	80191
618.208	80081
618.274	83430
618.339	86134
618.405	75991
618.470	76215
618.536	78209
618.601	79215
618.667	74135
618.732	72606
618.798	72215
618.863	71393
618.928	70923
618.994	75856
619.059	82169
619.124	105704
619.190	82306
619.255	70236
619.320	70584
619.386	69915
619.451	68727
619.516	67387
619.581	68339
619.647	69490
619.712	69357
619.777	68428
619.842	70810
619.907	71844
619.972	72373
620.038	72087
620.103	68784
620.168	66254
620.233	68990
620.298	67921
620.363	68127
620.428	69212
620.493	70686
620.558	71110
620.623	71288
620.688	70722
620.753	70170
620.818	70922
620.883	72855
620.948	71348
621.013	72322
621.078	71978
621.143	73300
621.207	76756
621.272	75760
621.337	78928
621.402	77305
621.467	87116
621.532	87604
621.596	81774
621.661	74917
621.726	73396
621.791	74647
621.855	78635
621.920	82339
621.985	80896
622.049	84436
622.114	83545
622.179	79104
622.243	80885
622.308	80791
622.373	82881
622.437	81864
622.502	77918
622.566	78200
622.631	77595
622.695	80172
622.760	80661
622.824	79723
622.889	83481
622.953	90694
623.018	120794
623.082	117221
623.147	83773
623.211	83027
623.276	83743
623.340	77275
623.404	75986
623.469	75717
623.533	75893
623.597	73866
623.662	74236
623.726	71762
623.790	68344
623.854	70443
623.919	70104
623.983	70059
624.047	71504
624.111	71022
624.176	74000
624.240	77656
624.304	83002
624.368	71181
624.432	72876
624.496	73834
624.560	81596
624.625	88217
624.689	76445
624.753	74636
624.817	70988
624.881	71274
624.945	68021
625.009	66882
625.073	69640
625.137	74503
625.201	89421
625.265	88571
625.329	70893
625.393	74697
625.456	70766
625.520	71500
625.584	78160
625.648	86768
625.712	108465
625.776	188495
625.839	205547
625.903	99610
625.967	71676
626.031	96475
626.095	132076
626.158	74464
626.222	58048
626.286	54949
626.349	55118
626.413	53702
626.477	58709
626.540	54090
626.604	51914
626.668	52061
626.731	52475
626.795	52758
626.858	52608
626.922	50745
626.986	50532
627.049	49248
627.113	50936
627.176	50359
627.240	48294
627.303	49541
627.366	48384
627.430	50614
627.493	49199
627.557	48368
627.620	50196
627.684	48637
627.747	48627
627.810	45810
627.874	44525
627.937	43950
628.000	48069
628.064	46674
628.127	41332
628.190	43790
628.253	42748
628.317	41466
628.380	41465
628.443	40732
628.506	41616
628.569	40165
628.632	38215
628.696	38715
628.759	37220
628.822	36068
628.885	35703
628.948	37588
629.011	37711
629.074	38872
629.137	35594
629.200	35738
629.263	39291
629.326	35469
629.389	34954
629.452	35133
629.515	36581
629.578	35509
629.641	38351
629.704	36746
629.767	38976
629.830	35916
629.892	35235
629.955	35236
630.018	38686
630.081	42175
630.144	51352
630.207	40409
630.269	39417
630.332	38188
630.395	36244
630.458	32655
630.520	32031
630.583	33945
630.646	31276
630.708	32039
630.771	31367
630.834	33306
630.896	31645
630.959	32265
631.021	30457
631.084	32499
631.146	35348
631.209	37449
631.272	32524
631.334	31798
631.397	32523
631.459	31466
631.522	34335
631.584	33255
631.646	34185
631.709	36152
631.771	44708
631.834	37788
631.896	32022
631.958	30077
632.021	32068
632.083	29756
632.145	31835
632.208	31492
632.270	33393
632.332	29926
632.395	29262
632.457	30238
632.519	30122
632.581	31012
632.643	28340
632.706	30886
632.768	28577
632.830	29110
632.892	28512
632.954	29352
633.016	30358
633.078	29209
633.141	28628
633.203	28677
633.265	29197
633.327	29345
633.389	28973
633.451	34726
633.513	40765
633.575	36436
633.637	38624
633.698	36617
633.760	30785
633.822	30815
633.884	31011
633.946	31272
634.008	31351
634.070	33614
634.132	38686
634.193	35334
634.255	32795
634.317	31947
634.379	34613
634.441	31069
634.502	31569
634.564	29981
634.626	30501
634.687	29995
634.749	28803
634.811	29103
634.873	26937
634.934	27123
634.996	28983
635.057	27028
635.119	25886
635.181	28921
635.242	28247
635.304	26171
635.365	29425
635.427	27327
635.488	30057
635.550	26551
635.611	27312
635.673	25927
635.734	29454
635.796	30038
635.857	32493
635.918	30158
635.980	32803
636.041	32228
636.102	33019
636.164	32300
636.225	33373
636.286	29178
636.348	29463
636.409	28151
636.470	27426
636.531	27742
636.593	28920
636.654	28373
636.715	25499
636.776	24730
636.838	24763
636.899	25790
636.960	24532
637.021	24014
637.082	24474
637.143	25390
637.204	22455
637.265	23412
637.326	24206
637.387	23539
637.448	22534
637.509	23223
637.570	22512
637.631	24345
637.692	22058
637.753	20792
637.814	23277
637.875	23607
637.936	23066
637.997	23737
638.058	25272
638.119	24214
638.179	22555
638.240	22191
638.301	22719
638.362	22251
638.423	21669
638.483	23498
638.544	21842
638.605	21390
638.666	20315
638.726	22336
638.787	22145
638.848	21487
638.908	21668
638.969	21925
639.030	21720
639.090	20646
639.151	22271
639.211	25877
639.272	31511
639.332	51006
639.393	31250
639.453	23388
639.514	22923
639.574	21945
639.635	21064
639.695	22522
639.756	20581
639.816	24433
639.877	28772
639.937	46263
639.997	59730
640.058	26582
640.118	20652
640.178	21892
640.239	19507
640.299	20326
640.359	20344
640.420	20738
640.480	21813
640.540	21013
640.600	22574
640.661	23409
640.721	23786
640.781	31721
640.841	26724
640.901	22307
640.961	21409
641.021	24057
641.082	27711
641.142	38431
641.202	28279
641.262	19276
641.322	20788
641.382	18660
641.442	19360
641.502	18618
641.562	20152
641.622	19048
641.682	20959
641.742	20417
641.802	20888
641.861	22317
641.921	22719
641.981	24264
642.041	25542
642.101	31679
642.161	22038
642.221	18385
642.280	18041
642.340	17919
642.400	18467
642.460	18732
642.519	18401
642.579	18577
642.639	20128
642.698	16933
642.758	21255
642.818	20128
642.877	18975
642.937	20158
642.997	24354
643.056	35417
643.116	23487
643.175	21256
643.235	19435
643.294	19556
643.354	20590
643.414	22462
643.473	26075
643.532	29135
643.592	38093
643.651	55621
643.711	91075
643.770	168515
643.830	391101
643.889	817088
643.948	207967
644.008	42156
644.067	28841
644.126	23884
644.186	20917
644.245	21107
644.304	18263
644.363	20438
644.423	17302
644.482	18090
644.541	19369
644.600	18109
644.659	22287
644.719	24821
644.778	31806
644.837	45077
644.896	81628
644.955	175400
645.014	70793
645.073	30176
645.132	21767
645.191	20695
645.250	18491
645.309	20505
645.368	19976
645.427	22643
645.486	28388
645.545	42958
645.604	21928
645.663	18927
645.722	18146
645.781	20621
645.840	21986
645.898	26335
645.957	34992
646.016	48298
646.075	81572
646.134	149358
646.192	379900
646.251	561714
646.310	93759
646.369	30260
646.427	25290
646.486	21054
646.545	19604
646.603	18512
646.662	17956
646.721	17648
646.779	16808
646.838	16526
646.896	20236
646.955	23701
647.014	29963
647.072	46883
647.131	108918
647.189	59209
647.248	18176
647.306	16568
647.365	16020
647.423	14346
647.481	16379
647.540	14000
647.598	14646
647.657	14584
647.715	14933
647.773	13415
647.832	15661
647.890	14138
647.948	14311
648.007	15480
648.065	14731
648.123	15670
648.181	19063
648.240	21571
648.298	19236
648.356	14373
648.414	15940
648.472	14238
648.531	14874
648.589	14310
648.647	13216
648.705	13746
648.763	14610
648.821	14602
648.879	14647
648.937	16375
648.995	18464
649.053	20545
649.111	27734
649.169	40393
649.227	63195
649.285	119379
649.343	318610
649.401	174697
649.459	75390
649.516	55502
649.574	40645
649.632	76970
649.690	91642
649.748	38498
649.806	43018
649.863	64976
649.921	82769
649.979	57358
650.037	17987
650.094	13532
650.152	14118
650.210	13643
650.268	13273
650.325	14206
650.383	15748
650.440	12729
650.498	12785
650.556	11817
650.613	11446
650.671	12564
650.728	12436
650.786	13332
650.843	13881
650.901	10810
650.958	12651
651.016	12619
651.073	11317
651.131	10840
651.188	10476
651.246	11844
651.303	11752
651.360	11607
651.418	11083
651.475	12352
651.532	9714
651.590	11234
651.647	10774
651.704	11894
651.762	11170
651.819	12515
651.876	10184
651.933	9921
651.990	11834
652.048	10472
652.105	10484
652.162	11448
652.219	9676
652.276	11256
652.333	10288
652.390	9553
652.448	11404
652.505	11961
652.562	12623
652.619	15563
652.676	23140
652.733	22478
652.790	11898
652.847	9269
652.904	10623
652.961	10914
653.017	9483
653.074	11503
653.131	11985
653.188	10343
653.245	10894
653.302	10532
653.359	10036
653.415	11068
653.472	9943
653.529	10800
653.586	8993
653.642	9843
653.699	10469
653.756	10135
653.813	9157
653.869	10119
653.926	10238
653.983	9287
654.039	10160
654.096	10197
654.152	10902
654.209	9336
654.266	10409
654.322	9682
654.379	11824
654.435	12986
654.492	12838
654.548	17453
654.605	25944
654.661	14970
654.717	10606
654.774	11310
654.830	11367
654.887	11468
654.943	10134
655.000	11976
655.056	11281
655.112	10588
655.168	9772
655.225	10502
655.281	11660
655.337	14079
655.394	20032
655.450	15762
655.506	14439
655.562	19696
655.618	18519
655.675	9681
655.731	10325
655.787	10185
655.843	11547
655.899	9584
655.955	11690
656.011	11290
656.067	10519
656.123	11132
656.179	10965
656.235	13252
656.291	10784
656.347	12956
656.403	11261
656.459	11341
656.515	11821
656.571	11619
656.627	10409
656.683	10946
656.739	11373
656.795	11820
656.850	11962
656.906	13606
656.962	11380
657.018	10534
657.074	10105
657.129	11189
657.185	12438
657.241	16611
657.297	13304
657.352	10812
657.408	10428
657.464	11617
657.519	10441
657.575	9035
657.630	9522
657.686	8799
657.742	8426
657.797	9304
657.853	10189
657.908	10447
657.964	8367
658.019	9995
658.075	9597
658.130	10045
658.186	8167
658.241	9138
658.297	9328
658.352	9149
658.407	10411
658.463	8604
658.518	10186
658.573	9292
658.629	8202
658.684	9203
658.739	9360
658.795	8811
658.850	9924
658.905	8714
658.960	10132
659.016	9408
659.071	9905
659.126	10699
659.181	11268
659.236	18862
659.291	20885
659.346	13816
659.401	13349
659.457	15699
659.512	20070
659.567	13860
659.622	10572
659.677	10144
659.732	8676
659.787	9379
659.842	11249
659.897	13027
659.952	8939
660.007	9547
660.061	10028
660.116	8590
660.171	8866
660.226	8558
660.281	10322
660.336	8719
660.391	9621
660.445	9057
660.500	9475
660.555	10356
660.610	9642
660.664	9392
660.719	8537
660.774	10217
660.828	9494
660.883	9970
660.938	9651
660.992	8909
661.047	9438
661.101	9513
661.156	9059
661.211	8960
661.265	8940
661.320	8749
661.374	9492
661.429	8670
661.483	9343
661.538	8211
661.592	8882
661.647	9903
661.701	9991
661.755	9663
661.810	9410
661.864	8877
661.919	8906
661.973	8787
662.027	8519
662.081	7965
662.136	9379
662.190	9707
662.244	9281
662.299	9284
662.353	9365
662.407	8720
662.461	9444
662.515	9748
662.569	9061
662.624	10008
662.678	8291
662.732	10021
662.786	9743
662.840	9524
662.894	9177
662.948	8633
663.002	9296
663.056	9270
663.110	8856
663.164	8027
663.218	10053
663.272	9705
663.326	10917
663.380	9604
663.434	9481
663.488	9287
663.542	10057
663.595	8567
663.649	9089
663.703	9537
663.757	8662
663.811	9190
663.864	7560
663.918	9628
663.972	8232
664.026	8505
664.079	8923
664.133	8992
664.187	8613
664.240	8701
664.294	8812
664.348	9831
664.401	8360
664.455	8599
664.508	8285
664.562	9495
664.615	8855
664.669	7978
664.722	9492
664.776	8630
664.829	9095
664.883	8342
664.936	8724
664.990	8611
665.043	9238
665.097	9860
665.150	10199
665.203	8827
665.257	8852
665.310	10374
665.363	9141
665.417	9354
665.470	9129
665.523	8944
665.576	9226
665.630	9755
665.683	10249
665.736	9527
665.789	10105
665.842	8461
665.895	8660
665.949	9231
666.002	9232
666.055	8490
666.108	11155
666.161	9478
666.214	10391
666.267	11626
666.320	11559
666.373	10021
666.426	9571
666.479	8699
666.532	10299
666.585	10730
666.638	10934
666.691	10161
666.744	11451
666.796	11174
666.849	10808
666.902	10327
666.955	9419
667.008	9218
667.060	8462
667.113	8686
667.166	8702
667.219	9268
667.271	8907
667.324	8322
667.377	9812
667.430	10449
667.482	11686
667.535	12134
667.587	10904
667.640	11204
667.693	12577
667.745	19731
667.798	20648
667.850	11250
667.903	9386
667.955	9294
668.008	8498
668.060	10308
668.113	10566
668.165	10414
668.218	9978
668.270	9891
668.322	9219
668.375	8962
668.427	10054
668.479	9344
668.532	8871
668.584	9612
668.636	9627
668.689	9848
668.741	9376
668.793	10024
668.845	9418
668.898	9991
668.950	9003
669.002	9649
669.054	9318
669.106	10460
669.158	10325
669.211	11358
669.263	11557
669.315	13298
669.367	15297
669.419	12677
669.471	14398
669.523	14660
669.575	18382
669.627	17087
669.679	13560
669.731	12842
669.783	13574
669.835	14943
669.886	14389
669.938	13679
669.990	13147
670.042	13605
670.094	15074
670.146	15919
670.197	19218
670.249	22943
670.301	28297
670.353	38572
670.404	53456
670.456	75675
670.508	110876
670.560	169626
670.611	268633
670.663	447543
670.715	915094
670.766	1270531
670.818	599683
670.869	146206
670.921	69902
670.972	45023
671.024	33356
671.075	27409
671.127	22797
671.178	19780
671.230	18636
671.281	16386
671.333	16170
671.384	15537
671.436	15919
671.487	16068
671.538	16782
671.590	19474
671.641	22435
671.692	29970
671.744	45985
671.795	40853
671.846	22651
671.897	14970
671.949	13359
672.000	11740
672.051	11046
672.102	11502
672.153	10895
672.204	10243
672.256	10759
672.307	10438
672.358	10650
672.409	9395
672.460	9163
672.511	9511
672.562	9654
672.613	8504
672.664	9642
672.715	9879
672.766	9344
672.817	9016
672.868	9304
672.919	9444
672.970	8718
673.021	8663
673.071	7875
673.122	8931
673.173	8987
673.224	9143
673.275	8644
673.326	8855
673.376	8238
673.427	8509
673.478	7842
673.528	9420
673.579	7860
673.630	7057
673.680	8984
673.731	8127
673.782	8002
673.832	8281
673.883	8341
673.934	8358
673.984	8254
674.035	8324
674.085	8141
674.136	9373
674.186	8572
674.237	9967
674.287	13275
674.338	9644
674.388	7830
674.438	8126
674.489	8244
674.539	8375
674.589	8202
674.640	8322
674.690	7946
674.740	8681
674.791	9661
674.841	8403
674.891	8258
674.942	8549
674.992	8645
675.042	7636
675.092	7072
675.142	7653
675.193	7846
675.243	8047
675.293	8333
675.343	7800
675.393	7255
675.443	7552
675.493	7700
675.543	7135
675.593	7499
675.643	7955
675.693	8091
675.743	7028
675.793	6782
675.843	6859
675.893	6716
675.943	7601
675.993	8508
676.043	7102
676.093	7901
676.142	7128
676.192	7102
676.242	8028
676.292	6053
676.341	7193
676.391	8505
676.441	7144
676.491	6259
676.540	7361
676.590	6445
676.640	6836
676.689	7088
676.739	6457
676.789	7285
676.838	7173
676.888	5944
676.937	6816
676.987	7217
677.037	6635
677.086	5350
677.136	6904
677.185	6745
677.235	6438
677.284	7021
677.333	6307
677.383	5690
677.432	6247
677.482	6914
677.531	5893
677.580	5903
677.630	7206
677.679	5930
677.728	6371
677.778	6492
677.827	5790
677.876	6456
677.925	5313
677.975	5840
678.024	6663
678.073	6537
678.122	6795
678.171	6987
678.220	6875
678.269	6905
678.319	6704
678.368	7366
678.417	6588
678.466	7813
678.515	8042
678.564	6962
678.613	8031
678.662	6757
678.711	6836
678.760	7010
678.809	6506
678.857	5095
678.906	7452
678.955	6756
679.004	7181
679.053	6979
679.102	7597
679.151	6625
679.199	6073
679.248	6245
679.297	6588
679.346	6347
679.394	6195
679.443	6294
679.492	5299
679.540	6208
679.589	5894
679.638	6535
679.686	6830
679.735	6182
679.784	5860
679.832	6542
679.881	5499
679.929	5972
679.978	4930
680.026	6211
680.075	6392
680.123	5604
680.172	5839
680.220	5301
680.268	6076
680.317	6545
680.365	5615
680.414	5743
680.462	5396
680.510	6209
680.559	4990
680.607	6582
680.655	5126
680.703	5891
680.752	5348
680.800	4935
680.848	5477
680.896	5555
680.945	5963
680.993	6135
681.041	6060
681.089	5445
681.137	5458
681.185	4903
681.233	5560
681.258	5740
681.281	5886
681.329	4888
681.377	5753
681.380	5790
681.425	5975
681.473	6050
681.502	6074
681.521	6039
681.569	6072
681.617	6347
681.624	6236
681.665	5342
681.713	6328
681.745	6196
681.761	6082
681.809	5483
681.857	6354
681.867	6360
681.904	6282
681.952	6048
681.989	6001
682.000	5963
682.048	5480
682.096	5574
682.111	5652
682.143	5712
682.191	5643
682.233	6924
682.239	7088
682.286	6243
682.334	6609
682.354	6250
682.382	5710
682.430	6230
682.476	6910
682.477	6903
682.525	6654
682.572	6157
682.598	6232
682.620	6266
682.667	6446
682.715	6994
682.720	7102
682.763	7823
682.810	7153
682.841	7239
682.857	7255
682.905	6624
682.952	7269
682.963	7228
683.000	6984
683.047	6959
683.085	8246
683.095	8561
683.142	6971
683.190	7298
683.206	7315
683.237	7300
683.284	7532
683.328	7518
683.332	7497
683.379	7376
683.426	7532
683.449	7391
683.473	7198
683.521	7762
683.568	7486
683.571	7505
683.615	7520
683.662	7690
683.693	7396
683.709	7211
683.757	7224
683.804	8155
683.814	8103
683.851	7822
683.898	8239
683.936	7699
683.945	7539
683.992	8750
684.039	7954
684.057	8408
684.086	9178
684.133	8770
684.179	8976
684.180	8956
684.227	8851
684.274	8659
684.300	8899
684.321	9130
684.368	8615
684.415	8813
684.422	8710
684.462	7916
684.509	8791
684.543	8221
684.556	8025
684.603	8373
684.649	9140
684.665	9125
684.696	9001
684.743	8664
684.786	8531
684.790	8515
684.837	8501
684.883	9765
684.908	9855
684.930	9924
684.977	9938
685.023	9519
685.029	9572
685.070	9701
685.117	9050
685.150	9604
685.164	9820
685.210	9878
685.257	10568
685.272	10559
685.303	10558
685.350	10186
685.393	11256
685.396	11332
685.443	10974
685.490	11646
685.514	11407
685.536	11109
685.583	10630
685.629	11156
685.636	11154
685.675	10953
685.722	10356
685.757	10957
685.768	11193
685.815	11025
685.861	10489
685.878	10679
685.908	10905
685.954	10744
686.000	11158
686.000	11165
686.047	11491
686.093	12564
686.121	12865
686.139	12781
686.185	11157
686.232	10821
686.242	10830
686.278	11001
686.324	11099
686.363	9974
686.370	9783
686.416	10879
686.463	10320
686.484	10677
686.509	11128
686.555	11232
686.601	11002
686.606	11039
686.647	11128
686.693	11002
686.727	11198
686.739	11314
686.785	10414
686.831	10288
686.848	10677
686.877	11249
686.923	11066
686.969	10759
686.969	10757
687.015	10923
687.061	10971
687.090	11310
687.107	11444
687.153	11603
687.199	11052
687.211	11052
687.245	11168
687.291	11705
687.332	11891
687.336	11906
687.382	12377
687.428	11866
687.453	12079
687.474	12089
687.520	11677
687.565	11676
687.574	11555
687.611	11482
687.657	11866
687.695	12137
687.702	12219
687.748	12944
687.794	14394
687.816	14115
687.839	13447
687.885	12781
687.931	12556
687.937	12533
687.976	12620
688.022	12489
688.058	12243
688.067	12195
688.113	12220
688.158	11981
688.179	11892
688.204	11904
688.249	12461
688.295	12556
688.300	12621
688.340	13218
688.386	13483
688.421	13152
688.431	13013
688.477	12989
688.522	13138
688.542	13174
688.567	13287
688.613	13749
688.658	13037
688.663	13054
688.703	13194
688.749	13269
688.784	12814
688.794	12713
688.839	12747
688.884	13259
688.905	13226
688.930	13214
688.975	13364
689.020	12952
689.026	13024
689.065	13472
689.110	13164
689.146	12479
689.155	12353
689.201	12728
689.246	13400
689.267	13347
689.291	13286
689.336	13421
689.381	13143
689.388	13129
689.426	13165
689.471	13354
689.509	13230
689.516	13239
689.561	13447
689.606	13874
689.630	14043
689.651	14111
689.696	13419
689.741	14056
689.750	14063
689.785	14156
689.830	14114
689.871	13570
689.875	13552
689.920	13884
689.965	13826
689.992	13835
690.010	13800
690.054	14260
690.099	14611
690.112	14584
690.144	14610
690.189	14580
690.233	14458
690.233	14472
690.278	14487
690.323	14447
690.354	13987
690.367	13958
690.412	15044
690.457	15074
690.474	15316
690.501	15807
690.546	16118
690.590	16671
690.595	16706
690.635	17524
690.680	18413
690.716	19378
690.724	19844
690.769	22210
690.813	24662
690.836	25923
690.857	28946
690.902	35750
690.946	43092
690.957	44985
690.991	60171
691.035	82885
691.077	103857
691.080	103921
691.124	94898
691.168	83362
691.198	77264
691.213	71437
691.257	56064
691.301	40228
691.318	34349
691.346	31533
691.390	26936
691.434	22503
691.439	22010
691.478	21387
691.522	20229
691.559	19624
691.567	19629
691.611	19001
691.655	18793
691.680	18418
691.699	18147
691.743	17633
691.787	17090
691.800	16901
691.831	17002
691.875	17436
691.919	17662
691.921	17642
691.964	17497
692.008	17636
692.041	17181
692.052	17099
692.096	16947
692.139	17241
692.162	17163
692.183	17127
692.227	16580
692.271	16488
692.282	16472
692.315	16735
692.359	17203
692.402	17032
692.403	17058
692.447	17174
692.490	17156
692.523	17278
692.534	17420
692.578	17502
692.622	17748
692.643	17651
692.666	17319
692.709	17336
692.753	16667
692.763	16598
692.797	16947
692.840	17200
692.884	17504
692.884	17539
692.928	18135
692.971	18909
693.004	18997
693.015	18926
693.059	18853
693.102	18826
693.124	18636
693.146	18856
693.189	19804
693.233	20139
693.245	20376
693.276	21611
693.320	23112
693.363	24294
693.365	24299
693.407	26332
693.450	28703
693.485	30387
693.493	31408
693.537	36554
693.580	42258
693.605	45473
693.624	52275
693.667	68143
693.710	84695
693.725	90909
693.753	120056
693.797	167332
693.840	215004
693.845	219559
693.883	203332
693.926	180934
693.966	162468
693.970	159033
694.013	122307
694.056	86150
694.086	61470
694.099	58665
694.142	49510
694.185	40442
694.206	35889
694.229	34255
694.272	31530
694.315	28715
694.326	27916
694.358	27106
694.401	26070
694.444	25093
694.446	24990
694.487	24009
694.530	22777
694.566	21788
694.573	21697
694.616	20565
694.659	19893
694.686	19432
694.702	19404
694.745	18973
694.787	18761
694.806	18484
694.830	18450
694.873	18833
694.916	18669
694.926	18704
694.959	19002
695.002	19011
695.044	19274
695.046	19244
695.087	19248
695.130	18925
695.166	18771
695.172	18852
695.215	18897
695.258	19323
695.286	19442
695.301	19435
695.343	19289
695.386	19256
695.406	19088
695.428	18815
695.471	18250
695.514	17987
695.526	17786
695.556	18019
695.599	18545
695.641	18882
695.646	18867
695.684	18550
695.726	18349
695.766	18032
695.769	18069
695.811	17946
695.854	18089
695.886	18064
695.896	18177
695.938	18457
695.981	18699
696.005	18822
696.023	18928
696.065	19050
696.108	19373
696.125	19274
696.150	19136
696.192	19129
696.235	19260
696.245	19211
696.277	19333
696.319	19405
696.361	19511
696.365	19474
696.404	20023
696.446	20639
696.485	21065
696.488	21083
696.530	20671
696.572	20407
696.604	19974
696.614	19911
696.656	19708
696.698	19321
696.724	19082
696.740	18992
696.783	18539
696.825	18379
696.844	18104
696.867	18326
696.909	18824
696.951	19335
696.964	19424
696.992	19148
697.034	18700
697.076	18331
697.083	18205
697.118	18621
697.160	19140
697.202	19658
697.203	19628
697.244	19507
697.286	19162
697.323	18790
697.327	18832
697.369	18916
697.411	19007
697.442	18985
697.453	19119
697.494	19467
697.536	19851
697.562	20073
697.578	20108
697.620	19936
697.661	19876
697.682	19792
697.703	20166
697.744	20751
697.786	21446
697.801	21618
697.828	21549
697.869	21291
697.911	21146
697.921	21040
697.952	20767
697.994	20396
698.035	20046
698.040	19947
698.077	19665
698.118	19314
698.160	19027
698.160	18980
698.201	19262
698.243	19535
698.279	19742
698.284	19822
698.325	20108
698.367	20386
698.399	20561
698.408	20508
698.449	20004
698.491	19548
698.518	19174
698.532	19345
698.573	19720
698.614	20112
698.638	20287
698.656	20423
698.697	20609
698.738	20800
698.757	20842
698.779	20924
698.820	20976
698.862	21022
698.877	20990
698.903	21167
698.944	21363
698.985	21566
698.996	21569
699.026	21446
699.067	21205
699.116	20868
699.235	20140
699.354	19448
699.474	20658
699.593	23106
699.713	21151
699.832	20546
699.951	21746
700.070	20957
700.190	19594
700.309	20720
700.428	22074
700.547	19838
700.667	20641
700.786	21350
700.905	19122
701.024	20132
701.143	19692
701.262	19160
701.381	19384
701.500	19499
701.619	21396
701.738	18435
701.857	19584
701.976	18688
702.095	18667
702.214	19987
702.333	20726
702.452	19537
702.571	18317
702.690	19379
702.809	18487
702.928	18163
703.047	19054
703.165	19095
703.284	17766
703.403	18733
703.522	19879
703.640	20212
703.759	21643
703.878	24181
703.997	18845
704.115	18728
704.234	18509
704.353	18156
704.471	17638
704.590	17843
704.708	17419
704.827	17170
704.946	17509
705.064	18429
705.183	17921
705.301	20602
705.420	25687
705.538	23313
705.656	22776
705.775	25429
705.893	49448
706.012	55096
706.130	23241
706.249	22489
706.367	21709
706.485	21793
706.604	21710
706.722	22516
706.840	25495
706.958	27680
707.077	23179
707.195	20425
707.313	20156
707.431	19807
707.549	19575
707.668	19547
707.786	20092
707.904	19882
708.022	19455
708.140	19147
708.258	18359
708.376	19983
708.494	19630
708.612	21061
708.730	26809
708.848	25898
708.966	24698
709.084	23833
709.202	23056
709.320	24170
709.438	23029
709.556	23805
709.674	23468
709.791	22901
709.909	22793
710.027	22869
710.145	23089
710.263	22048
710.380	22426
710.498	22146
710.616	22105
710.733	21316
710.851	21910
710.969	22689
711.086	20714
711.204	21861
711.322	20261
711.439	22179
711.557	20416
711.674	20823
711.792	21627
711.909	23231
712.027	25087
712.144	20706
712.262	21513
712.379	23443
712.497	28947
712.614	28066
712.732	25175
712.849	24882
712.966	25734
713.084	28426
713.201	25744
713.318	25291
713.436	24685
713.553	25109
713.670	24667
713.787	27092
713.905	26307
714.022	24716
714.139	24778
714.256	26283
714.373	31255
714.490	41274
714.608	83141
714.725	310792
714.842	273381
714.959	36073
715.076	26662
715.193	23692
715.310	23899
715.427	22020
715.544	21433
715.661	22178
715.778	22193
715.895	24010
716.011	23386
716.128	21958
716.245	21665
716.362	25282
716.479	24977
716.596	21500
716.713	21995
716.829	21297
716.946	21180
717.063	20437
717.180	20451
717.296	19300
717.413	19950
717.530	20871
717.646	19303
717.763	19672
717.880	19233
717.996	19697
718.113	19862
718.229	19422
718.346	18666
718.462	20094
718.579	24293
718.695	34302
718.812	26366
718.928	23985
719.045	20114
719.161	18102
719.277	19100
719.394	18667
719.510	20245
719.626	20729
719.743	22537
719.859	24173
719.975	33244
720.092	92233
720.208	167966
720.324	31949
720.440	21183
720.557	22593
720.673	29479
720.789	34664
720.905	54076
721.021	24163
721.137	19066
721.253	18753
721.369	18549
721.486	20489
721.602	23571
721.718	17861
721.834	16886
721.950	17810
722.066	16906
722.181	16808
722.297	17687
722.413	17435
722.529	17628
722.645	17451
722.761	17220
722.877	16648
722.993	16707
723.108	17144
723.224	17519
723.340	17356
723.456	16080
723.571	17161
723.687	15683
723.803	16134
723.918	15825
724.034	16520
724.150	15445
724.265	17967
724.381	27790
724.497	28216
724.612	15776
724.728	15833
724.843	15528
724.959	17814
725.074	27701
725.190	25717
725.305	16290
725.421	15449
725.536	14229
725.651	14765
725.767	13568
725.882	14906
725.997	13525
726.113	15191
726.228	14826
726.343	13503
726.459	13563
726.574	14844
726.689	14544
726.804	15087
726.920	15009
727.035	15128
727.150	14684
727.265	14882
727.380	15441
727.495	15097
727.610	14567
727.725	15320
727.841	19219
727.956	35641
728.071	25253
728.186	14294
728.301	13776
728.416	15152
728.531	14543
728.645	14052
728.760	14553
728.875	15949
728.990	14125
729.105	14633
729.220	15322
729.335	14895
729.449	13268
729.564	13027
729.679	14004
729.794	13292
729.908	13838
730.023	13764
730.138	12766
730.253	12960
730.367	13043
730.482	13337
730.596	13584
730.711	13714
730.826	14270
730.940	14198
731.055	14362
731.169	12211
731.284	12970
731.398	13169
731.513	14002
731.627	13431
731.742	14554
731.856	14823
731.970	14952
732.085	15146
732.199	16814
732.313	21399
732.428	40358
732.542	93095
732.656	48881
732.771	18001
732.885	15722
732.999	14542
733.113	15153
733.227	14282
733.342	14060
733.456	13565
733.570	13571
733.684	12694
733.798	13057
733.912	12470
734.026	11230
734.140	13228
734.254	13856
734.368	18806
734.482	19428
734.596	12287
734.710	12716
734.824	13424
734.938	12511
735.052	11988
735.166	13167
735.280	13430
735.393	11966
735.507	12592
735.621	15253
735.735	20519
735.849	13321
735.962	12783
736.076	12748
736.190	13299
736.303	15859
736.417	16008
736.531	12899
736.644	12368
736.758	11737
736.872	11561
736.985	12195
737.099	11794
737.212	11503
737.326	12175
737.439	12539
737.553	12399
737.666	12296
737.780	11064
737.893	10485
738.007	11140
738.120	11484
738.233	11572
738.347	11310
738.460	11719
738.573	12228
738.687	11413
738.800	13527
738.913	15181
739.026	11769
739.140	13238
739.253	12272
739.366	11513
739.479	11110
739.592	11190
739.705	10185
739.818	11493
739.932	10940
740.045	11961
740.158	11696
740.271	11202
740.384	11415
740.497	12403
740.610	12891
740.723	12026
740.836	12257
740.949	13226
741.062	16087
741.174	12942
741.287	11653
741.400	11536
741.513	11277
741.626	13324
741.739	11526
741.851	11639
741.964	11595
742.077	11481
742.189	11643
742.302	13796
742.415	12715
742.527	11837
742.640	11088
742.753	12103
742.865	10627
742.978	10684
743.090	12348
743.203	10960
743.316	10879
743.428	10992
743.541	10288
743.653	11118
743.766	11016
743.878	11538
743.990	12292
744.103	14086
744.215	13509
744.327	11697
744.440	13978
744.552	17036
744.664	11527
744.777	10400
744.889	10317
745.001	11401
745.113	10301
745.226	10781
745.338	10347
745.450	10279
745.562	10810
745.674	10392
745.786	10770
745.898	11049
746.010	10101
746.122	11220
746.234	11315
746.347	11237
746.459	11681
746.570	11207
746.682	11370
746.794	14402
746.906	11597
747.018	10186
747.130	10407
747.242	10729
747.354	10282
747.466	11359
747.577	10150
747.689	11003
747.801	10789
747.913	10069
748.024	10282
748.136	9994
748.248	10212
748.359	9992
748.471	10972
748.583	10151
748.694	12513
748.806	13765
748.918	12514
749.029	11273
749.141	11556
749.252	12004
749.364	14111
749.475	19183
749.587	13148
749.698	10969
749.809	11045
749.921	10585
750.032	10216
750.144	10272
750.255	10379
750.366	10268
750.478	10508
750.589	10904
750.700	11038
750.811	11309
750.923	14611
751.034	23422
751.145	19200
751.256	11458
751.367	11288
751.479	11705
751.590	10106
751.701	10611
751.812	10203
751.923	10988
752.034	10921
752.145	10013
752.256	10911
752.367	10772
752.478	9988
752.589	9792
752.700	11325
752.811	10053
752.922	11001
753.032	12530
753.143	11963
753.254	10150
753.365	12114
753.476	12087
753.586	11432
753.697	10730
753.808	11007
753.919	11230
754.029	10873
754.140	11628
754.251	11331
754.361	10529
754.472	10567
754.582	11637
754.693	11638
754.804	11572
754.914	10896
755.025	11150
755.135	11234
755.246	11308
755.356	11132
755.466	11950
755.577	11695
755.687	10974
755.798	11433
755.908	11869
756.018	12041
756.129	11901
756.239	12499
756.349	12859
756.460	12334
756.570	13008
756.680	12872
756.790	12927
756.900	14122
757.011	12683
757.121	13590
757.231	12794
757.341	13268
757.451	12635
757.561	12887
757.671	12997
757.781	13091
757.891	14085
758.001	13206
758.111	13231
758.221	15254
758.331	14637
758.441	14398
758.551	17187
758.661	16867
758.771	14771
758.880	15548
758.990	15442
759.100	15038
759.210	14932
759.320	15863
759.429	15282
759.539	15886
759.649	16637
759.758	16488
759.868	17890
759.978	16688
760.087	17732
760.197	17509
760.307	18037
760.416	17488
760.526	17947
760.635	19650
760.745	19670
760.854	19322
760.964	19838
761.073	20121
761.182	20404
761.292	21836
761.401	21152
761.511	21892
761.620	22339
761.729	22648
761.839	23591
761.948	24683
762.057	24863
762.166	24613
762.276	25047
762.385	26524
762.494	26195
762.603	26634
762.712	29366
762.822	29031
762.931	30145
763.040	31190
763.149	32743
763.258	33310
763.367	35079
763.476	37854
763.585	37987
763.694	41053
763.803	42554
763.912	44455
764.021	47770
764.130	50643
764.238	55232
764.347	58047
764.456	60942
764.565	66337
764.674	72233
764.783	79660
764.891	88557
765.000	100034
765.109	112575
765.217	128865
765.326	152328
765.435	181651
765.543	219955
765.652	277320
765.761	362128
765.869	486670
765.978	692624
766.086	1005247
766.195	1454227
766.303	1795111
766.412	1401704
766.520	1589472
766.629	1674804
766.737	1222850
766.846	836110
766.954	589056
767.062	432461
767.171	335467
767.279	261629
767.387	211112
767.496	177640
767.604	153823
767.712	134019
767.820	119327
767.928	109439
768.037	102429
768.145	95892
768.253	92986
768.361	89129
768.469	91082
768.577	90594
768.685	94668
768.793	103084
768.901	115298
769.009	131964
769.117	161575
769.225	207825
769.333	292199
769.441	436700
769.549	714454
769.657	1200610
769.765	1589554
769.873	1395140
769.981	1466841
770.088	971968
770.196	588414
770.304	388851
770.412	278965
770.519	213556
770.627	168358
770.735	139107
770.842	115937
770.950	101657
771.058	87026
771.165	77899
771.273	70623
771.380	64405
771.488	59186
771.595	54208
771.703	49826
771.810	47826
771.918	44740
772.025	42808
772.133	39271
772.240	37385
772.348	37956
772.455	34589
772.562	32967
772.670	31115
772.777	30588
772.884	28917
772.991	28462
773.099	27345
773.206	26110
773.313	25010
773.420	25042
773.528	22623
773.635	22719
773.742	22494
773.849	21920
773.956	21766
774.063	22134
774.170	20475
774.277	20805
774.384	20061
774.491	19028
774.598	19136
774.705	18747
774.812	19763
774.919	19129
775.026	18448
775.133	18470
775.239	16829
775.346	16350
775.453	16510
775.560	15956
775.667	16549
775.773	15268
775.880	16116
775.987	14672
776.093	15445
776.200	14862
776.307	14164
776.413	14211
776.520	14154
776.627	13118
776.733	14210
776.840	12342
776.946	16096
777.053	17113
777.159	23208
777.266	17208
777.372	21256
777.478	18696
777.585	14719
777.691	12493
777.798	12349
777.904	14456
778.010	17634
778.117	14151
778.223	12185
778.329	11732
778.435	12562
778.542	11943
778.648	11575
778.754	10687
778.860	11649
778.966	11807
779.072	11744
779.178	11737
779.284	11533
779.391	11844
779.497	13931
779.603	20771
779.708	33018
779.815	78941
779.920	281644
780.026	353124
780.132	56702
780.238	19174
780.344	14542
780.450	14385
780.556	12102
780.661	11011
780.767	10800
780.873	9751
780.979	10276
781.085	10186
781.190	9413
781.296	10071
781.402	8868
781.507	9095
781.613	9031
781.719	8785
781.824	9053
781.930	9359
782.035	9095
782.141	8341
782.246	8558
782.352	8161
782.457	8814
782.563	8449
782.668	8249
782.773	8282
782.879	8285
782.984	8560
783.090	10102
783.195	12378
783.300	9072
783.405	9203
783.511	8235
783.616	8756
783.721	8511
783.826	8165
783.932	8815
784.037	8152
784.142	8245
784.247	8275
784.352	8363
784.457	8225
784.562	7196
784.667	7371
784.772	7766
784.877	7060
784.982	8025
785.087	8155
785.192	7965
785.297	7538
785.402	7997
785.507	7688
785.611	6767
785.716	7228
785.821	7250
785.926	6799
786.031	6973
786.135	7111
786.240	7056
786.345	5968
786.450	7673
786.554	6905
786.659	6756
786.763	5677
786.868	7162
786.973	7455
787.077	7052
787.182	6613
787.286	7049
787.391	6224
787.495	5968
787.600	6300
787.704	5775
787.809	5850
787.913	5606
788.017	6364
788.122	5975
788.226	5517
788.330	5686
788.435	5792
788.539	6446
788.643	5792
788.747	5671
788.852	4958
788.956	5239
789.060	6007
789.164	5984
789.268	5824
789.372	6028
789.476	5810
789.580	4955
789.684	5537
789.788	5036
789.892	6016
789.996	6486
790.100	5603
790.204	5597
790.308	6256
790.412	5970
790.516	6608
790.620	6183
790.724	6298
790.828	4698
790.931	4963
791.035	7106
791.139	5849
791.242	5724
791.346	5661
791.450	5261
791.554	5158
791.657	4250
791.761	6045
791.864	6300
791.968	5708
792.072	5563
792.175	5778
792.279	4974
792.382	5034
792.486	5578
792.589	4947
792.693	5478
792.796	4362
792.899	5584
793.003	6129
793.106	4521
793.209	5583
793.313	5597
793.416	4058
793.519	6714
793.623	9174
793.726	9015
793.829	6281
793.932	6100
794.035	5499
794.138	8445
794.242	8415
794.345	11409
794.448	20355
794.551	48123
794.654	160088
794.757	218627
794.860	33472
794.963	10257
795.066	7545
795.169	6994
795.272	5276
795.375	5326
795.477	5454
795.580	5733
795.683	4820
795.786	4520
795.889	3802
795.991	6490
796.094	5564
796.197	3835
796.300	5295
796.402	4481
796.505	3762
796.608	3543
796.710	5193
796.813	4573
796.915	3254
797.018	4331
797.120	4134
797.223	2966
797.326	5185
797.428	3455
797.530	3690
797.633	3818
797.735	5753
797.838	6064
797.940	5841
798.042	3593
798.145	4304
798.247	4405
798.349	1833
798.452	3724
798.554	3340
798.656	3346
798.758	4274
798.860	3813
798.962	3683
799.065	3860
799.167	3050
799.269	4769
799.371	4796
799.473	4331
799.575	4217
799.677	4384
799.779	6149
799.881	5610
799.983	5509
800.085	4275
800.187	3668
800.289	2791
800.390	3671
800.492	3403
800.594	3939
800.696	3127
800.798	3252
800.899	3230
801.001	2739
801.103	3416
801.205	2972
801.306	3343
801.408	2518
801.509	3603
801.611	3111
801.713	3376
801.814	2797
801.916	2749
802.017	2521
802.119	2908
802.220	3504
802.322	1693
802.423	5519
802.525	1923
802.626	3493
802.727	3552
802.829	3993
802.930	1587
803.031	4428
803.133	2718
803.234	2747
803.335	3425
803.436	2071
803.538	3269
803.639	1529
803.740	3958
803.841	2797
803.942	3621
804.043	3481
804.144	2823
804.245	2190
804.346	2876
804.447	2842
804.548	4695
804.649	4896
804.750	2558
804.851	2651
804.952	2626
805.053	2899
805.154	2131
805.255	3423
805.355	3276
805.456	3107
805.557	2198
805.658	2292
805.758	3283
805.859	2591
805.960	2274
806.061	2169
806.161	2467
806.262	2546
806.362	2871
806.463	2348
806.564	3282
806.664	2442
806.765	3782
806.865	3271
806.966	2193
807.066	2179
807.166	3285
807.267	3692
807.367	1695
807.468	2744
807.568	2146
807.668	3705
807.769	3936
807.869	2193
807.969	3053
808.069	3142
808.170	3457
808.270	2659
808.370	2919
808.470	3571
808.570	2941
808.670	1698
808.770	3387
808.870	2414
808.970	2393
809.070	2378
809.170	2658
809.271	3368
809.370	2539
809.470	2624
809.570	2605
809.670	1450
809.770	2563
809.870	3807
809.970	2687
810.070	2394
810.169	2865
810.269	1421
810.369	2715
810.469	1615
810.568	2326
810.668	2183
810.768	2755
810.867	2526
810.967	2805
811.066	2540
811.166	2098
811.265	3636
811.365	1765
811.464	1534
811.564	2520
811.663	2611
811.763	1794
811.862	2960
811.962	3346
812.061	2749
812.160	2876
812.260	2878
812.359	4405
812.458	6211
812.557	13750
812.657	14703
812.756	6344
812.855	3733
812.954	3415
813.053	3691
813.153	2493
813.252	2338
813.351	2817
813.450	2386
813.549	2416
813.648	3223
813.747	2399
813.846	3359
813.945	2201
814.044	3181
814.143	3018
814.242	3876
814.341	2523
814.439	2441
814.538	3191
814.637	3154
814.736	2145
814.835	4493
814.933	3304
815.032	4040
815.131	3509
815.229	3702
815.328	4397
815.427	4828
815.525	4811
815.624	4814
815.722	4111
815.821	3865
815.919	4508
816.018	4384
816.116	5521
816.215	4187
816.313	5254
816.412	5598
816.510	5629
816.609	7222
816.707	6306
816.805	6698
816.904	6363
817.002	8125
817.100	8787
817.198	9388
817.296	9965
817.395	11733
817.493	15052
817.591	15598
817.689	22264
817.787	30554
817.885	49454
817.983	86103
818.081	177267
818.179	392314
818.277	769277
818.375	575446
818.473	224827
818.571	102898
818.669	67839
818.767	58577
818.865	58161
818.963	67908
819.061	98700
819.158	163310
819.256	320226
819.354	655524
819.452	1010147
819.549	648309
819.647	290667
819.745	141564
819.842	86596
819.940	59115
820.038	42725
820.135	33358
820.233	27736
820.330	21481
820.428	16899
820.525	16920
820.623	14318
820.720	11902
820.818	11450
820.915	10983
821.012	9768
821.110	7256
821.207	8454
821.304	7070
821.402	7133
821.499	9189
821.596	9092
821.693	6976
821.791	6892
821.888	7632
821.985	11482
822.082	7797
822.179	6458
822.276	6181
822.373	4888
822.470	4459
822.567	4408
822.664	2625
822.761	4818
822.858	3856
822.955	3853
823.052	3634
823.149	3577
823.246	2877
823.343	3196
823.440	3997
823.536	2646
823.633	2052
823.730	3679
823.827	3180
823.923	3292
824.020	3485
824.117	2871
824.213	2228
824.310	3099
824.407	2912
824.503	2866
824.600	2866
824.696	2512
824.793	3168
824.889	2746
824.986	2645
825.082	1811
825.179	2819
825.275	2618
825.371	2053
825.468	2573
825.564	951
825.660	3570
825.757	2193
825.853	3221
825.949	1783
826.045	2179
826.142	2205
826.238	2394
826.334	2661
826.430	1135
826.526	2084
826.622	1373
826.718	1824
826.814	1729
826.910	2125
827.006	1281
827.102	1326
827.198	2346
827.294	1622
827.390	1626
827.486	2763
827.582	713
827.678	1330
827.774	2324
827.869	1311
827.965	3265
828.061	1018
828.157	1865
828.252	1021
828.348	252
828.444	2533
828.539	1143
828.635	1763
828.731	2541
828.826	1312
828.922	1916
829.017	1359
829.113	1652
829.208	560
829.304	1672
829.399	2580
829.495	1555
829.590	1698
829.685	1478
829.781	1299
829.876	410
829.971	1645
830.066	1032
830.162	2237
830.257	1851
830.352	1363
830.447	2913
830.543	1275
830.638	873
830.733	2534
830.828	1921
830.923	1802
831.018	1646
831.113	1645
831.208	869
831.303	1047
831.398	1802
831.493	853
831.588	1492
831.683	1195
831.778	1265
831.873	1557
831.967	2737
832.062	690
832.157	1494
832.252	1642
832.346	2533
832.441	3384
832.536	3473
832.631	7545
832.725	5271
832.820	1158
832.914	1357
833.009	1638
833.104	2243
833.198	3241
833.293	1426
833.387	1880
833.482	2066
833.576	777
833.670	2522
833.765	2098
833.859	2205
833.954	1912
834.048	1407
834.142	1156
834.237	1366
834.331	1780
834.425	1582
834.519	1105
834.613	1850
834.708	745
834.802	1366
834.896	622
834.990	617
835.084	1972
835.178	874
835.272	1175
835.366	1045
835.460	1698
835.554	1436
835.648	1020
835.742	1061
835.836	1529
835.930	771
836.024	1939
836.117	1968
836.211	1350
836.305	2263
836.399	2440
836.493	1559
836.586	3154
836.680	1409
836.774	588
836.867	2224
836.961	455
837.055	1601
837.148	1081
837.242	1209
837.335	975
837.429	1462
837.522	1029
837.616	1752
837.709	3428
837.803	2292
837.896	1218
837.989	1206
838.083	2203
838.176	5100
838.269	3634
838.363	1941
838.456	1797
838.549	3218
838.642	5056
838.735	8060
838.829	2868
838.922	-47
839.015	797
839.108	380
839.201	1292
839.294	1941
839.387	2129
839.480	1528
839.573	2163
839.666	2172
839.759	1817
839.852	1256
839.945	1505
840.038	1313
840.131	762
840.223	1217
840.316	1587
840.409	731
840.502	518
840.594	2209
840.687	382
840.780	2000
840.873	207
840.965	602
841.058	1722
841.150	3679
841.243	2214
841.336	2143
841.428	1806
841.521	897
841.613	879
841.706	1324
841.798	926
841.890	1834
841.983	1016
842.075	2019
842.167	483
842.260	1199
842.352	2665
842.444	2708
842.537	4698
842.629	6039
842.721	1042
842.813	1285
842.905	1029
842.997	1071
843.090	1209
843.182	2849
843.274	3497
843.366	9356
843.458	16726
843.550	10012
843.642	2005
843.734	1569
843.826	2340
843.918	1326
844.009	1649
844.101	1154
844.193	1450
844.285	944
844.377	1401
844.469	2978
844.560	3002
844.652	2263
844.744	1843
844.835	1358
844.927	1299
845.019	1406
845.110	1461
845.202	1041
845.293	1485
845.385	800
845.476	1156
845.568	2738
845.659	776
845.751	1612
845.842	47
845.934	318
846.025	1139
846.116	1285
846.208	731
846.299	392
846.390	496
846.482	531
846.573	1933
846.664	2331
846.755	3498
846.846	2521
846.937	491
847.029	800
847.120	1534
847.211	1205
847.302	1626
847.393	170
847.484	620
847.575	478
847.666	435
847.757	973
847.847	1624
847.938	1349
848.029	872
848.120	1295
848.211	518
848.302	852
848.392	-90
848.483	805
848.574	550
848.664	-294
848.755	816
848.846	819
848.936	387
849.027	865
849.118	902
849.208	495
849.299	1537
849.389	2229
849.480	4302
849.570	7227
849.661	12548
849.751	17410
849.841	5859
849.932	1299
850.022	1764
850.112	986
850.203	568
850.293	397
850.383	1120
850.474	930
850.564	565
850.654	827
850.744	702
850.834	848
850.924	520
851.014	1050
851.104	696
851.194	1441
851.284	1943
851.374	2276
851.464	1400
851.554	1941
851.644	1092
851.734	3203
851.824	2947
851.914	4388
852.004	10523
852.094	7890
852.183	1472
852.273	886
852.363	823
852.452	319
852.542	951
852.632	1302
852.721	479
852.811	376
852.901	1624
852.990	1447
853.080	1599
853.169	968
853.259	632
853.348	1199
853.438	2160
853.527	3257
853.617	2745
853.706	6980
853.795	11191
853.885	25889
853.974	46679
854.063	85442
854.152	116229
854.242	36816
854.331	6138
854.420	3120
854.509	2888
854.598	2850
854.687	1779
854.777	1422
854.866	797
854.955	985
855.044	-148
855.133	761
855.222	752
855.311	-231
855.400	1131
855.488	662
855.577	1067
855.666	1921
855.755	1763
855.844	2129
855.933	1954
856.021	1446
856.110	719
856.199	-42
856.288	131
856.376	630
856.465	1183
856.554	87
856.642	302
856.731	1011
856.819	-268
856.908	453
856.996	527
857.085	633
857.173	1036
857.262	302
857.350	773
857.438	667
857.527	535
857.615	761
857.703	538
857.792	1067
857.880	782
857.968	410
858.056	947
858.145	759
858.233	436
858.321	150
858.409	1596
858.497	723
858.585	215
858.673	905
858.761	264
858.849	428
858.937	303
859.025	1034
859.113	1218
859.201	146
859.289	1657
859.377	1204
859.465	1050
859.552	509
859.640	356
859.728	339
859.816	86
859.903	945
859.991	1319
860.079	618
860.166	191
860.254	406
860.342	28
860.429	636
860.517	496
860.604	796
860.692	1326
860.779	240
860.867	45
860.954	1107
861.042	1337
861.129	1014
861.216	676
861.304	9
861.391	1103
861.478	891
861.565	807
861.653	1004
861.740	584
861.827	774
861.914	1015
862.001	141
862.089	1405
862.176	864
862.263	-5
862.350	1022
862.437	425
862.524	1049
862.611	875
862.698	1641
862.785	1540
862.871	1612
862.958	866
863.045	452
863.132	1052
863.219	1165
863.306	280
863.392	936
863.479	497
863.566	1014
863.652	1718
863.739	542
863.826	1814
863.912	850
863.999	-116
864.086	1106
864.172	987
864.259	524
864.345	508
864.432	1377
864.518	548
864.604	1329
864.691	654
864.777	1278
864.863	1160
864.950	1619
865.036	1051
865.122	1210
865.209	1599
865.295	1367
865.381	1787
865.467	2291
865.553	3285
865.639	2964
865.726	6515
865.812	11675
865.898	22505
865.984	31271
866.070	61038
866.156	54239
866.242	13253
866.328	3357
866.414	1889
866.499	2910
866.585	1914
866.671	1405
866.757	1070
866.843	968
866.928	1516
867.014	1089
867.100	1687
867.186	1549
867.271	1730
867.357	3021
867.442	2227
867.528	1792
867.614	1515
867.699	1943
867.785	2384
867.870	3451
867.956	2696
868.041	2961
868.127	1551
868.212	2884
868.297	2667
868.383	2046
868.468	2600
868.553	4093
868.639	4657
868.724	10221
868.809	7690
868.894	1340
868.979	634
869.065	1200
869.150	1024
869.235	643
869.320	697
869.405	707
869.490	1125
869.575	209
869.660	229
869.745	1215
869.830	-186
869.915	514
870.000	973
870.085	1459
870.169	1475
870.254	988
870.339	199
870.424	-211
870.509	990
870.593	396
870.678	1360
870.763	622
870.847	1180
870.932	1239
871.016	1713
871.101	578
871.186	682
871.270	1050
871.355	373
871.439	661
871.523	373
871.608	957
871.692	892
871.777	1432
871.861	1397
871.945	436
872.030	840
872.114	1072
872.198	89
872.282	-263
872.367	389
872.451	104
872.535	1208
872.619	1269
872.703	-225
872.787	-362
872.871	498
872.955	581
873.039	152
873.123	734
873.207	970
873.291	-400
873.375	122
873.459	633
873.543	696
873.627	346
873.711	1025
873.794	627
873.878	291
873.962	-324
874.045	768
874.129	436
874.137	491
874.213	1044
874.245	805
874.296	412
874.352	631
874.380	738
874.460	1584
874.464	1618
874.547	49
874.568	258
874.631	866
874.676	643
874.714	461
874.784	506
874.798	516
874.881	2199
874.892	2022
874.965	771
874.999	808
875.048	883
875.107	553
875.131	415
875.215	1228
875.215	1227
875.298	3
875.323	364
875.381	1239
875.430	989
875.465	823
875.538	899
875.548	896
875.631	487
875.646	349
875.714	-305
875.753	-328
875.798	-303
875.861	-321
875.881	-333
875.964	594
875.968	613
876.047	985
876.076	940
876.130	858
876.183	608
876.213	469
876.291	1405
876.296	1457
876.379	360
876.398	395
876.462	683
876.506	710
876.545	678
876.613	1284
876.628	1438
876.711	689
876.721	774
876.794	1315
876.828	1066
876.877	727
876.935	628
876.960	615
877.043	1218
877.043	1221
877.125	2169
877.150	2281
877.208	2453
877.258	2327
877.291	2252
877.365	1378
877.374	1285
877.456	2091
877.472	1893
877.539	994
877.579	1576
877.622	2180
877.687	2088
877.704	2041
877.787	1427
877.794	1430
877.869	1813
877.901	1847
877.952	1653
878.008	1350
878.034	1260
878.115	1597
878.117	1602
878.199	1269
878.222	1245
878.282	1459
878.329	1786
878.364	1901
878.437	1487
878.447	1414
878.529	1050
878.544	1044
878.611	1249
878.651	1308
878.694	1308
878.758	1265
878.776	1319
878.858	1307
878.865	1373
878.941	1808
878.972	1642
879.023	1434
879.078	1044
879.105	975
879.185	1460
879.187	1470
879.269	2105
879.292	1916
879.351	1194
879.399	1163
879.433	1204
879.506	1489
879.516	1531
879.598	757
879.613	760
879.680	800
879.720	1203
879.762	1675
879.827	819
879.844	596
879.926	959
879.933	972
880.007	1128
880.040	1266
880.089	1320
880.147	1476
880.171	1808
880.253	3451
880.254	3458
880.335	4600
880.360	4915
880.417	7007
880.467	10217
880.499	12203
880.574	13924
880.580	13568
880.662	5381
880.680	4055
880.744	1915
880.787	1400
880.825	1463
880.893	1377
880.907	1354
880.989	977
881.000	935
881.070	739
881.106	981
881.152	1258
881.213	1020
881.233	980
881.315	1259
881.319	1266
881.396	1517
881.426	1261
881.478	555
881.532	1022
881.559	1364
881.639	1227
881.641	1227
881.722	1691
881.745	1614
881.803	1418
881.852	1418
881.885	1429
881.958	1379
881.966	1347
882.047	1608
882.064	1589
882.129	2080
882.171	2677
882.210	3756
882.277	5260
882.291	5070
882.372	2528
882.383	2244
882.454	1110
882.489	963
882.535	1204
882.596	1235
882.616	1116
882.697	730
882.702	693
882.778	986
882.808	1248
882.859	1409
882.914	1288
882.940	1246
883.020	1212
883.021	1216
883.102	1117
883.127	1061
883.183	912
883.233	1142
883.264	1263
883.339	840
883.345	815
883.426	693
883.445	770
883.507	1070
883.551	1059
883.587	1372
883.657	2153
883.668	2168
883.749	1986
883.763	1934
883.830	1838
883.869	1655
883.910	1399
883.975	1556
883.991	1548
884.072	1156
884.081	1098
884.152	1276
884.187	1456
884.233	1633
884.292	1724
884.314	1725
884.394	1439
884.398	1448
884.475	1192
884.504	947
884.555	1049
884.610	1173
884.636	1289
884.716	1737
884.716	1742
884.797	1545
884.821	1519
884.877	1820
884.927	1977
884.958	1768
885.033	1565
885.038	1592
885.118	1403
885.139	1433
885.199	983
885.244	752
885.279	1213
885.350	1798
885.359	1747
885.439	1594
885.456	1459
885.520	1471
885.561	1702
885.600	1614
885.667	1325
885.680	1319
885.760	1334
885.773	1297
885.840	1506
885.878	1665
885.920	1582
885.984	1381
886.000	1445
886.080	2136
886.089	2168
886.160	1668
886.195	1482
886.240	1488
886.300	1370
886.320	1390
886.400	1344
886.406	1362
886.480	2112
886.511	2306
886.560	2617
886.616	3004
886.640	2925
886.720	2557
886.722	2539
886.800	1964
886.827	1839
886.879	1844
886.932	1752
886.959	1847
887.038	1892
887.039	1897
887.119	1816
887.143	1841
887.198	1740
887.248	1525
887.278	1597
887.354	1658
887.358	1656
887.437	1728
887.459	1698
887.517	2069
887.564	2365
887.596	2147
887.669	1565
887.676	1608
887.755	2296
887.774	2383
887.835	2324
887.880	2412
887.914	2454
887.985	2367
887.994	2304
888.073	1736
888.090	1623
888.153	1674
888.195	1695
888.232	2046
888.300	2685
888.311	2642
888.391	2192
888.405	2117
888.470	2000
888.510	1893
888.549	1960
888.615	2182
888.628	2193
888.708	2093
888.720	2075
888.787	2554
888.825	2826
888.866	2472
888.930	1933
888.945	1972
889.024	2113
889.035	2132
889.103	2425
889.140	2550
889.182	2463
889.245	2370
889.261	2362
889.340	2254
889.349	2241
889.419	2336
889.454	2368
889.498	2511
889.559	2707
889.577	2714
889.656	2733
889.664	2732
889.735	2750
889.768	2752
889.814	2935
889.873	3161
889.978	1625
890.083	2166
890.187	3124
890.292	2534
890.397	2385
890.501	2710
890.606	2359
890.710	2471
890.815	2821
890.919	2661
891.024	2537
891.128	2512
891.233	2994
891.337	2746
891.442	1984
891.546	2218
891.650	1780
891.755	2061
891.859	3312
891.963	2702
892.068	2151
892.172	1655
892.276	1885
892.380	1993
892.484	2728
892.589	2071
892.693	2456
892.797	1512
892.901	2274
893.005	1802
893.109	2312
893.213	1958
893.317	2101
893.421	2431
893.525	1986
893.629	1835
893.733	1719
893.837	1816
893.941	2239
894.045	3245
894.148	4311
894.252	8930
894.356	4815
894.460	2149
894.564	1974
894.667	1570
894.771	1786
894.875	1072
894.978	1720
895.082	1940
895.186	1824
895.289	2892
895.393	2261
895.496	2068
895.600	1528
895.703	1411
895.807	1169
895.910	2388
896.014	1393
896.117	1956
896.221	1423
896.324	1022
896.427	1554
896.531	1699
896.634	1237
896.737	1756
896.840	1719
896.944	1391
897.047	1870
897.150	1794
897.253	1027
897.356	1924
897.460	1897
897.563	1760
897.666	1418
897.769	1456
897.872	1533
897.975	1164
898.078	1592
898.181	806
898.284	1085
898.387	1095
898.490	1498
898.593	1781
898.695	1441
898.798	1518
898.901	2236
899.004	1420
899.107	1955
899.209	1610
899.312	1925
899.415	1357
899.518	635
899.620	1032
899.723	2160
899.826	3949
899.928	4069
900.031	1167
900.133	788
900.236	1198
900.338	987
900.441	907
900.543	1230
900.646	1415
900.748	1761
900.851	1098
900.953	1521
901.055	1772
901.158	2138
901.260	1765
901.362	1262
901.465	804
901.567	1700
901.669	1614
901.771	1178
901.873	1269
901.976	1444
902.078	1164
902.180	1724
902.282	1507
902.384	1524
902.486	1803
902.588	2257
902.690	2111
902.792	1349
902.894	1958
902.996	1223
903.098	740
903.200	1263
903.302	959
903.404	1813
903.505	1284
903.607	1815
903.709	1376
903.811	1476
903.913	1312
904.014	1611
904.116	1031
904.218	1819
904.319	1318
904.421	2420
904.523	2133
904.624	1895
904.726	2341
904.827	1225
904.929	2055
905.030	2525
905.132	1333
905.233	1291
905.335	1215
905.436	1296
905.537	888
905.639	1082
905.740	1083
905.841	1909
905.943	2399
906.044	2621
906.145	1689
906.247	1238
906.348	1383
906.449	1556
906.550	1239
906.651	1882
906.752	1990
906.854	1802
906.955	561
907.056	1357
907.157	1242
907.258	1571
907.359	306
907.460	1057
907.561	1446
907.662	1194
907.762	503
907.863	996
907.964	1809
908.065	1774
908.166	827
908.267	1453
908.367	884
908.468	1322
908.569	1474
908.670	2640
908.770	3447
908.871	3218
908.971	1922
909.072	2974
909.173	1467
909.273	1606
909.374	1894
909.474	1455
909.575	1339
909.675	1852
909.776	1865
909.876	989
909.977	1478
910.077	1313
910.177	1435
910.278	1126
910.378	1255
910.478	1697
910.579	1516
910.679	1774
910.779	1537
910.879	1329
910.980	767
911.080	1887
911.180	1256
911.280	852
911.380	1459
911.480	1847
911.580	1704
911.680	1299
911.780	2373
911.880	2187
911.980	1760
912.080	1325
912.180	2422
912.280	1675
912.380	1582
912.480	811
912.580	1542
912.679	385
912.779	1314
912.879	1642
912.979	1986
913.078	1386
913.178	661
913.278	1431
913.377	1475
913.477	1692
913.577	1586
913.676	2312
913.776	1448
913.875	1565
913.975	2178
914.074	1138
914.174	1055
914.273	203
914.373	1423
914.472	1912
914.572	1559
914.671	1050
914.770	1507
914.870	1772
914.969	1221
915.068	1791
915.167	1399
915.267	949
915.366	1083
915.465	1338
915.564	2061
915.663	1644
915.763	927
915.862	1266
915.961	532
916.060	1004
916.159	1120
916.258	1403
916.357	1516
916.456	2014
916.555	1865
916.654	1250
916.752	1582
916.851	1486
916.950	2161
917.049	1306
917.148	1353
917.247	2023
917.345	1277
917.444	1179
917.543	1260
917.642	1396
917.740	1670
917.839	1376
917.937	1895
918.036	1284
918.135	1510
918.233	1276
918.332	1334
918.430	1164
918.529	1514
918.627	1473
918.726	1282
918.824	1127
918.923	1524
919.021	1720
919.119	1425
919.218	879
919.316	1727
919.414	359
919.512	1297
919.611	1593
919.709	1133
919.807	1822
919.905	2499
920.003	1389
920.102	1139
920.200	2063
920.298	1482
920.396	1480
920.494	1540
920.592	1901
920.690	1420
920.788	1352
920.886	2038
920.984	1910
921.082	1457
921.180	2175
921.277	2210
921.375	2456
921.473	2015
921.571	2003
921.669	1312
921.766	1739
921.864	1584
921.962	1028
922.060	2110
922.157	2165
922.255	1807
922.352	1311
922.450	2063
922.548	1134
922.645	2073
922.743	2052
922.840	3506
922.938	3693
923.035	2743
923.133	3693
923.230	2081
923.327	2708
923.425	3270
923.522	3298
923.619	2684
923.717	2518
923.814	2278
923.911	2461
924.008	2863
924.106	2699
924.203	2615
924.300	2544
924.397	2759
924.494	2588
924.591	3086
924.688	2610
924.786	2888
924.883	2320
924.979	3294
925.077	2855
925.173	2535
925.270	1656
925.367	2266
925.464	3372
925.561	2187
925.658	2814
925.755	3198
925.852	2887
925.948	3602
926.045	4208
926.142	4091
926.239	4420
926.335	4572
926.432	4368
926.529	4886
926.625	5248
926.722	3808
926.818	3096
926.915	2970
927.011	2731
927.108	2706
927.204	2338
927.301	2211
927.397	1775
927.494	2299
927.590	2046
927.687	1957
927.783	2581
927.879	2112
927.976	2453
928.072	2650
928.168	2441
928.264	1876
928.361	2477
928.457	2536
928.553	2216
928.649	1314
928.745	2545
928.841	2140
928.937	2263
929.033	2294
929.129	2058
929.225	1874
929.321	2117
929.417	1966
929.513	1734
929.609	2139
929.705	1898
929.801	2294
929.897	1871
929.993	1802
930.089	3159
930.184	2095
930.280	2338
930.376	2735
930.471	2038
930.567	2577
930.663	1335
930.758	1305
930.854	1760
930.950	1440
931.045	2148
931.141	2577
931.236	2527
931.332	2477
931.427	2024
931.523	2220
931.618	1663
931.714	2018
931.809	1479
931.905	1656
932.000	1787
932.095	838
932.191	1420
932.286	1488
932.381	1749
932.476	2220
932.572	2092
932.667	2473
932.762	1433
932.857	2793
932.952	1952
933.047	2153
933.142	1580
933.237	2167
933.332	1930
933.427	2611
933.522	1762
933.617	1785
933.712	2231
933.807	2408
933.902	2264
933.997	1605
934.092	2334
934.187	1833
934.282	1759
934.376	1831
934.471	1974
934.566	1670
934.661	2295
934.755	2326
934.850	1558
934.945	2205
935.039	2138
935.134	1592
935.228	2058
935.323	1609
935.417	1752
935.512	1913
935.606	1222
935.701	1407
935.795	1981
935.890	1172
935.984	2662
936.079	1360
936.173	2121
936.267	1535
936.362	905
936.456	1597
936.550	2254
936.644	1485
936.738	1935
936.833	2050
936.927	1643
937.021	2418
937.115	1281
937.209	1326
937.303	2150
937.397	1625
937.491	1863
937.585	1955
937.679	1714
937.773	1453
937.867	1589
937.961	1172
938.055	1992
938.149	2051
938.243	2298
938.337	1911
938.430	1166
938.524	2646
938.618	5034
938.712	2880
938.805	1451
938.899	1754
938.993	2523
939.086	2171
939.180	5016
939.274	5025
939.367	2929
939.461	1812
939.554	1668
939.648	965
939.741	1328
939.835	1572
939.928	1649
940.022	1274
940.115	2104
940.208	1540
940.302	2419
940.395	1845
940.488	640
940.582	1240
940.675	910
940.768	1030
940.861	1734
940.954	1114
941.048	1018
941.141	1676
941.234	2171
941.327	3644
941.420	4539
941.513	1598
941.606	1910
941.699	2056
941.792	1705
941.885	1376
941.978	1463
942.071	622
942.164	1447
942.257	479
942.349	1632
942.442	717
942.535	883
942.628	605
942.721	998
942.813	-608
942.906	1669
942.999	986
943.091	1797
943.184	1616
943.277	714
943.369	808
943.462	500
943.554	1149
943.647	1011
943.739	2295
943.832	590
943.924	10
944.017	614
944.109	449
944.201	892
944.294	784
944.386	1259
944.478	242
944.571	1317
944.663	1615
944.755	1206
944.847	1527
944.940	1337
945.032	78
945.124	1416
945.216	593
945.308	1771
945.400	1215
945.492	1079
945.584	805
945.676	1220
945.768	1359
945.860	1552
945.952	1355
946.044	1354
946.136	1181
946.228	1277
946.320	1124
946.412	1625
946.503	834
946.595	1330
946.687	544
946.779	655
946.870	754
946.962	637
947.054	1028
947.145	1176
947.237	442
947.329	608
947.420	703
947.512	1071
947.603	790
947.695	1164
947.786	116
947.878	672
947.969	717
948.061	722
948.152	649
948.243	955
948.335	410
948.426	763
948.517	869
948.609	597
948.700	799
948.791	-50
948.882	630
948.973	344
949.065	681
949.156	1567
949.247	-5
949.338	1075
949.429	-109
949.520	368
949.611	158
949.702	1266
949.793	695
949.884	661
949.975	649
950.066	1015
950.157	9
950.247	687
950.338	478
950.429	601
950.520	1326
950.611	1190
950.701	452
950.792	1162
950.883	1491
950.973	842
951.064	1089
951.155	1076
951.245	629
951.336	421
951.427	822
951.517	970
951.608	267
951.698	428
951.788	1031
951.879	592
951.969	395
952.060	43
952.150	762
952.240	1225
952.331	-1039
952.421	1121
952.511	733
952.602	971
952.692	247
952.782	715
952.872	-127
952.962	601
953.052	799
953.143	470
953.233	739
953.323	1227
953.413	32
953.503	1246
953.593	1470
953.683	447
953.773	-533
953.863	804
953.953	-3
954.042	991
954.132	408
954.222	983
954.312	1258
954.402	906
954.492	1260
954.581	2113
954.671	50
954.761	-605
954.850	1478
954.940	951
955.030	-620
955.119	316
955.209	684
955.298	357
955.388	1052
955.477	1536
955.567	-17
955.656	344
955.746	255
955.835	977
955.925	-270
956.014	165
956.103	1106
956.193	897
956.282	843
956.371	865
956.461	1245
956.550	786
956.639	682
956.728	116
956.817	811
956.906	960
956.995	1131
957.085	1501
957.174	989
957.263	360
957.352	586
957.441	99
957.530	1214
957.619	1069
957.708	1163
957.796	669
957.885	2082
957.974	757
958.063	1849
958.152	506
958.241	1690
958.329	1446
958.418	1796
958.507	740
958.596	2083
958.684	954
958.773	1435
958.861	1467
958.950	2959
959.039	2461
959.127	1937
959.216	2030
959.304	2103
959.393	2525
959.481	1880
959.570	2088
959.658	2258
959.746	2222
959.835	3079
959.923	3821
960.011	2214
960.100	1991
960.188	1767
960.276	1060
960.365	1676
960.453	1493
960.541	549
960.629	1279
960.717	1373
960.805	1635
960.893	1169
960.981	115
961.069	1634
961.158	1314
961.245	1186
961.333	1427
961.421	144
961.509	570
961.597	649
961.685	447
961.773	789
961.861	380
961.949	1124
962.036	-653
962.124	270
962.212	1101
962.299	15
962.387	-249
962.475	151
962.562	-174
962.650	1622
962.738	1069
962.825	314
962.913	521
963.000	443
963.088	902
963.175	607
963.263	398
963.350	684
963.438	1363
963.525	902
963.612	2874
963.700	6483
963.787	11438
963.874	3421
963.962	963
964.049	762
964.136	558
964.223	192
964.310	1050
964.398	760
964.485	1448
964.572	907
964.659	2015
964.746	958
964.833	1058
964.920	440
965.007	-19
965.094	692
965.181	244
965.268	-106
965.355	179
965.441	60
965.528	395
965.615	1428
965.702	499
965.789	603
965.875	591
965.962	392
966.049	162
966.136	903
966.222	-535
966.309	212
966.395	-123
966.482	-147
966.569	702
966.655	8
966.742	158
966.828	-91
966.915	158
967.001	-100
967.087	571
967.174	-317
967.260	1374
967.347	1240
967.433	4398
967.519	6699
967.605	1606
967.692	-106
967.778	284
967.864	37
967.950	-160
968.036	-958
968.123	624
968.209	-604
968.295	-267
968.381	1208
968.467	73
968.553	-777
968.639	604
968.725	463
968.811	1765
968.897	842
968.983	31
969.069	-571
969.154	587
969.240	459
969.326	310
969.412	-243
969.497	-45
969.583	290
969.669	1200
969.755	7
969.840	-49
969.926	1388
970.012	-778
970.097	336
970.183	-62
970.268	26
970.354	1324
970.439	2668
970.525	3911
970.610	136
970.696	31
970.781	-38
970.866	-1203
970.952	526
971.037	-508
971.122	810
971.208	218
971.293	124
971.378	-801
971.463	-6
971.549	426
971.634	-372
971.719	-140
971.804	322
971.889	1898
971.974	-561
972.059	-129
972.144	-50
972.229	-517
972.314	-298
972.399	-328
972.484	-48
972.569	538
972.654	227
972.739	2888
972.824	1651
972.908	169
972.993	491
973.078	-483
973.163	158
973.247	562
973.332	-1462
973.417	1239
973.501	-601
973.586	-505
973.671	308
973.755	-135
973.840	1547
973.924	610
974.009	-416
974.093	291
974.178	991
974.262	2421
974.346	577
974.431	253
974.515	-215
974.600	-349
974.684	-425
974.768	-741
974.852	667
974.937	-1163
975.021	-53
975.105	208
975.189	-385
975.273	894
975.358	-973
975.442	202
975.526	-123
975.610	-831
975.694	-1080
975.778	699
975.862	233
975.946	-1773
976.030	1269
976.114	-360
976.198	-112
976.281	425
976.365	400
976.449	-181
976.533	504
976.617	-615
976.700	462
976.784	531
976.868	-138
976.951	704
977.035	898
977.119	-226
977.202	159
977.286	762
977.369	-551
977.453	1043
977.536	-352
977.620	-773
977.703	-152
977.787	-1092
977.870	626
977.953	684
978.037	-1145
978.120	755
978.203	1434
978.287	2226
978.370	923
978.453	208
978.536	-161
978.620	1662
978.703	809
978.786	391
978.869	-453
978.952	-961
979.035	1323
979.118	529
979.201	-663
979.284	215
979.367	-900
979.450	785
979.533	-1369
979.616	141
979.699	-141
979.782	431
979.865	-517
979.948	334
980.030	-136
980.113	202
980.196	-1034
980.279	687
980.361	-367
980.444	-1064
980.526	627
980.609	-173
980.692	-127
980.774	123
980.857	-1300
980.939	341
981.022	-824
981.104	-849
981.187	-1013
981.269	197
981.352	-248
981.434	-1484
981.516	-1410
981.599	111
981.681	-222
981.763	446
981.846	-607
981.928	96
982.010	-448
982.092	-522
982.174	287
982.256	-657
982.339	-234
982.421	-941
982.503	299
982.585	-1333
982.667	-337
982.749	-1063
982.831	113
982.913	-1230
982.995	556
983.077	-950
983.158	-365
983.240	-480
983.322	549
983.404	-130
983.486	-990
983.568	115
983.649	-290
983.731	163
983.813	-820
983.894	-158
983.976	-309
984.058	-62
984.139	616
984.221	-807
984.302	906
984.384	-180
984.465	-124
984.547	-53
984.628	-1190
984.710	178
984.791	-833
984.872	448
984.954	-1035
985.035	701
985.116	-359
985.198	-966
985.279	1164
985.360	-603
985.441	-42
985.522	-72
985.604	-205
985.685	-1333
985.766	598
985.847	1477
985.928	-1412
986.009	-205
986.090	-952
986.171	-7
986.252	-293
986.333	178
986.414	56
986.495	-443
986.576	-682
986.656	-733
986.737	549
986.818	-225
986.899	-557
986.980	-142
987.060	565
987.141	-549
987.222	-636
987.302	779
987.383	-266
987.464	-36
987.544	658
987.625	141
987.705	25
987.786	416
987.866	-255
987.947	68
988.027	-738
988.108	-739
988.188	-457
988.268	-579
988.349	-54
988.429	-986
988.509	652
988.589	-998
988.670	-2068
988.750	514
988.830	-484
988.910	-527
988.990	-394
989.070	233
989.151	-373
989.231	-463
989.311	79
989.391	-396
989.471	149
989.551	-1373
989.631	-836
989.711	174
989.791	-718
989.870	-919
989.950	331
990.030	-154
990.110	-647
990.190	-452
990.269	-645
990.349	-401
990.429	262
990.509	633
990.588	-578
990.668	-418
990.747	-28
990.827	-198
990.907	2
990.986	-1056
991.066	284
991.145	-1370
991.225	70
991.304	-583
991.383	-386
991.463	258
991.542	-253
991.622	-212
991.701	-777
991.780	-1471
991.859	-472
991.939	-168
992.018	-363
992.097	-183
992.176	-734
992.256	-325
992.335	-555
992.414	267
992.493	-539
992.572	-369
992.651	674
992.730	-725
992.809	42
992.888	-1575
992.967	-694
993.046	-608
993.125	-1784
993.203	-227
993.282	-624
993.361	-205
993.440	-75
993.519	-1387
993.597	-1212
993.676	-584
993.755	212
993.834	298
993.912	-786
993.991	611
994.069	-900
994.148	-678
994.226	-504
994.305	69
994.384	-1003
994.462	-503
994.540	-1433
994.619	-594
994.697	573
994.776	-751
994.854	453
994.932	-370
995.011	-308
995.089	-518
995.167	-762
995.245	-764
995.324	-1651
995.402	-150
995.480	-1189
995.558	-249
995.636	-1674
995.714	-52
995.792	630
995.870	-1155
995.948	-1093
996.026	838
996.104	-1537
996.182	88
996.260	-1162
996.338	-462
996.416	-834
996.494	-823
996.572	-67
996.649	-838
996.727	-1507
996.805	438
996.883	-732
996.960	-637
997.038	9
997.116	-663
997.193	-1695
997.271	851
997.348	-1436
997.426	-1168
997.504	-329
997.581	-734
997.658	325
997.736	-1099
997.813	-842
997.891	942
997.968	-958
998.046	-1260
998.123	-898
998.200	-714
998.277	-1789
998.355	-393
998.432	-1506
998.509	-860
998.586	-206
998.663	-991
998.741	-1023
998.818	-1186
998.895	-1536
998.972	-507
999.049	-1181
999.126	-1364
999.203	-928
999.280	-767
999.357	-1109
999.434	-127
999.511	-930
999.587	254
999.664	-959
999.741	-497
999.818	-860
999.895	-1861
999.971	-759
1000.048	-1070
1000.125	-188
1000.202	-1334
1000.278	-669
1000.355	-322
1000.431	-1101
1000.508	-1239
1000.584	-1109
1000.661	-45
1000.738	-1329
1000.814	-881
1000.890	-651
1000.967	-483
1001.043	-1215
1001.120	-2164
1001.196	-1297
1001.272	-798
1001.349	-864
1001.425	32
1001.501	-1196
1001.577	-1437
1001.654	-628
1001.730	-705
1001.806	-1645
1001.882	-1112
1001.958	-1347
1002.034	-993
1002.110	-1005
1002.186	-741
1002.262	-735
1002.338	-1483
1002.414	-920
1002.490	-849
1002.566	-742
1002.642	-2031
1002.718	-466
1002.794	-1648
1002.870	-1404
1002.945	-1560
1003.021	-688
1003.097	-1030
1003.173	-722
1003.248	-1138
1003.324	-1484
1003.400	-960
1003.475	-2154
1003.551	-1103
1003.626	-488
1003.702	-1841
1003.777	-1311
1003.853	-1145
1003.928	-1038
1004.004	-1545
1004.079	-649
1004.155	-1243
1004.230	-1951
1004.305	452
1004.381	-1351
1004.456	-543
1004.531	-1453
1004.607	-1111
1004.682	-1252
1004.757	-1173
1004.832	-934
1004.907	-1219
1004.982	-552
1005.057	-899
1005.133	-1120
1005.208	-982
1005.283	-1204
1005.358	430
1005.433	-1830
1005.508	-306
1005.583	-1761
1005.657	-1075
1005.732	-588
1005.807	-1176
1005.882	-1592
1005.957	-292
1006.032	-404
1006.106	-1029
1006.181	-929
1006.256	-821
1006.331	-1251
1006.405	-905
1006.480	-507
1006.554	-1076
1006.629	-435
1006.704	-1006
1006.778	-615
1006.853	-919
1006.927	-1089
1007.002	-2381
1007.076	-830
1007.150	-1749
1007.225	-1797
1007.299	-1082
1007.373	-1846
1007.448	-1314
1007.522	-925
1007.596	-789
1007.671	-1100
1007.745	-780
1007.819	-1935
1007.893	-1516
1007.967	-1334
1008.041	-1471
1008.115	-788
1008.190	-1226
1008.264	-1112
1008.338	-1680
1008.412	-1567
1008.486	-809
1008.560	-851
1008.633	-1397
1008.707	-1767
1008.781	-1123
1008.855	-726
1008.929	-923
1009.003	-1955
1009.076	-928
1009.150	-937
1009.224	-1558
1009.298	-1162
1009.371	-1128
1009.445	-678
1009.519	-1449
1009.592	-2316
1009.666	-1411
1009.739	-606
1009.813	-1441
1009.886	-581
1009.960	-1763
1010.033	-1139
1010.107	-804
1010.180	-1183
1010.253	-743
1010.327	-1550
1010.400	-1371
1010.473	-1277
1010.547	-543
1010.620	-1836
1010.693	-1389
1010.766	-1254
1010.840	-428
1010.913	-1326
1010.986	-1376
1011.059	-1492
1011.132	-1692
1011.205	-722
1011.278	-970
1011.351	-417
1011.424	-966
1011.497	-1946
1011.570	-2114
1011.643	-1342
1011.716	-1598
1011.789	-1264
1011.862	-1197
1011.934	-606
1012.007	-1939
1012.080	-1394
1012.153	-1856
1012.225	-613
1012.298	-1733
1012.371	-969
1012.443	-963
1012.516	-2551
1012.588	-1065
1012.661	-1580
1012.733	-487
1012.806	-1140
1012.879	-1555
1012.951	-1287
1013.023	-1501
1013.096	-1176
1013.168	-1338
1013.241	-636
1013.313	-1647
1013.385	-2512
1013.458	-1292
1013.530	-1352
1013.602	-2160
1013.674	-1133
1013.746	-2057
1013.819	-1708
1013.891	-614
1013.963	-2121
1014.035	-823
1014.107	-432
1014.179	-713
1014.251	-1867
1014.323	-1767
1014.395	-1839
1014.467	-274
1014.539	-788
1014.611	-1550
1014.683	-925
1014.754	-1918
1014.826	-1713
1014.898	-1320
1014.970	-2056
1015.042	-737
1015.113	-749
1015.185	-1547
1015.257	-1745
1015.328	-1056
1015.400	-1746
1015.471	-992
1015.543	-2418
1015.615	-1972
1015.686	-2150
1015.757	-1345
1015.829	-1174
1015.901	-1026
1015.972	-1006
1016.043	-842
1016.115	-1427
1016.186	-1126
1016.257	-2411
1016.328	-1477
1016.400	-1219
1016.471	-1184
1016.542	-1736
1016.613	-1141
1016.685	-1585
1016.756	-636
1016.827	-2010
1016.898	-1556
1016.969	-1103
1017.040	-1010
1017.111	-1916
1017.182	-1215
1017.253	-1666
1017.324	-1728
1017.395	-1682
1017.466	-1829
1017.537	-2273
1017.608	-1471
1017.678	-1595
1017.749	-1819
1017.820	-1193
1017.891	-1913
1017.961	-1875
1018.032	-1476
1018.103	-1659
1018.173	-1407
1018.244	-1495
1018.315	-1793
1018.385	-1383
1018.456	-1432
1018.526	-1859
1018.597	-1243
1018.667	-1372
1018.738	-1475
1018.808	-766
1018.878	-2097
1018.949	-1893
1019.019	-1496
1019.089	-1497
1019.160	-1130
1019.230	-2550
1019.300	-1439
1019.371	-1668
1019.441	-1193
1019.511	-1132
1019.581	-1194
1019.651	-1418
1019.721	-2039
1019.791	-1441
1019.861	-1591
1019.931	-1072
1020.001	-1724
1020.071	-1582
1020.141	-861
1020.211	-2050
1020.281	-2085
1020.351	-967
1020.421	-998
1020.491	-1110
1020.560	-1405
1020.630	-1228
1020.700	-1416
1020.770	-1536
1020.839	-1023
1020.909	-1006
1020.979	-1752
1021.048	-1987
1021.118	-1225
1021.187	-2029
1021.257	-984
1021.326	-1229
1021.396	-2086
1021.465	-953
1021.535	-1934
1021.604	-2253
1021.674	-690
1021.743	-1910
1021.812	-1772
1021.882	-1526
1021.951	-2377
1022.020	-1753
1022.089	-965
1022.159	-2634
1022.228	-737
1022.297	-1827
1022.366	-1408
1022.435	-1106
1022.504	-2819
1022.573	-2580
1022.642	-1040
1022.711	-2151
1022.781	-470
1022.849	-1680
1022.918	-1786
1022.987	-1153
1023.056	-1668
1023.125	-1867
1023.194	-1424
1023.263	-1724
1023.331	-1388
1023.400	-2462
1023.469	-1874
1023.538	-1091
1023.606	-1468
1023.675	-1771
1023.744	-1465
1023.812	-1472
1023.881	-1403
1023.949	-1507
1024.018	-1179
1024.086	-1612
1024.155	-1981
1024.223	-1854
1024.292	-875
1024.360	-2002
1024.429	-1956
1024.497	-2493
1024.565	-1845
1024.634	-1711
1024.702	-1532
1024.770	-1826
1024.838	-1730
1024.907	-2064
1024.975	-963
1025.043	-1557
1025.111	-1797
1025.179	-1709
1025.247	-1525
1025.315	-2150
1025.383	-1657
1025.451	-1946
1025.519	-1894
1025.587	-1323
1025.655	-1557
1025.723	-2069
1025.791	-2424
1025.859	-1615
1025.927	-1611
1025.995	-1198
1026.062	-950
1026.130	-1423
1026.198	-2414
1026.266	-2413
1026.333	-1540
1026.401	-1348
1026.469	-1198
1026.536	-2077
1026.604	-1850
1026.671	-1042
1026.739	-1791
1026.806	-1537
1026.874	-1809
1026.941	-1209
1027.009	-1017
1027.076	-1764
1027.144	-1294
1027.211	-1561
1027.278	-2056
1027.345	-2516
1027.413	-1645
1027.480	-2612
1027.547	-2200
1027.614	-1720
1027.682	-2147
1027.749	-2733
1027.816	-1796
1027.883	-1866
1027.950	-1514
1028.017	-1841
1028.084	-1489
1028.151	-1868
1028.218	-1391
1028.285	-1265
1028.352	-1956
1028.419	-2016
1028.486	-2283
1028.553	-1791
1028.619	-2156
1028.686	-1770
1028.753	-1621
1028.820	-1566
1028.886	-2073
1028.953	-2384
1029.020	-1761
1029.086	-2007
1029.153	-2284
1029.220	-1485
1029.286	-1213
1029.353	-2093
1029.419	-1778
1029.486	-2049
1029.552	-2126
1029.619	-1666
1029.685	-1533
1029.751	-1686
1029.818	-1149
1029.884	-1373
1029.951	-923
1030.017	-1707
1030.083	-1251
1030.149	-2163
1030.216	-1539
1030.282	-1032
1030.348	-1396
1030.414	-2971
1030.480	-2178
1030.546	-2414
1030.612	-1463
1030.678	-1894
1030.744	-1783
1030.810	-2339
1030.876	-2136
1030.942	-2056
1031.008	-1724
1031.074	-1858
1031.140	-1575
1031.206	-1110
1031.272	-1868
1031.337	-1784
1031.403	-1642
1031.469	-1654
1031.534	-1573
1031.600	-1718
1031.666	-2417
1031.731	-2841
1031.797	-2096
1031.863	-2042
1031.928	-1563
1031.994	-2430
1032.059	-1657
1032.125	-2442
1032.190	-1574
1032.256	-2072
1032.321	-1943
1032.386	-1191
1032.452	-1388
1032.517	-1036
1032.582	-1938
1032.647	-1990
1032.713	-1967
1032.778	-1349
1032.843	-2421
1032.908	-1948
1032.974	-1150
1033.039	-2142
1033.104	-1130
1033.169	-1894
1033.234	-1449
1033.299	-1365
1033.364	-1875
1033.429	-1716
1033.494	-998
1033.559	-2137
1033.624	-1619
1033.688	-2117
1033.753	-2990
1033.818	-1531
1033.883	-1603
1033.948	-1737
1034.013	-2350
1034.077	-980
1034.142	-1256
1034.207	-1809
1034.271	-562
1034.336	-549
1034.400	-1294
1034.465	-813
1034.530	-1195
1034.594	-1938
1034.658	-2148
1034.723	-2239
1034.787	-2482
1034.852	-1991
1034.916	-2712
1034.981	-2658
1035.045	-1602
1035.109	-1741
1035.173	-1872
1035.238	-2364
1035.302	-1363
1035.366	-2107
1035.430	-2504
1035.495	-2711
1035.559	-1708
1035.623	-1987
1035.687	-2627
1035.751	-2067
1035.815	-2010
1035.879	-2431
1035.943	-2411
1036.007	-1540
1036.071	-2260
1036.135	-2104
1036.198	-1787
1036.262	-2611
1036.326	-1522
1036.390	-2314
1036.454	-1586
1036.517	-1859
1036.581	-1627
1036.645	-994
1036.709	-959
1036.772	-1711
1036.836	-1815
1036.900	-1572
1036.963	-2076
1037.026	-1885
1037.090	-2333
1037.154	-1957
1037.217	-1948
1037.280	-2376
1037.344	-1505
1037.407	-2934
1037.471	-2130
1037.534	-2305
1037.597	-2558
1037.661	-1765
1037.724	-1877
1037.787	-2375
1037.850	-1300
1037.913	-1543
1037.977	-1486
1038.040	-2000
1038.103	-1943
1038.166	-2174
1038.229	-1840
1038.292	-1419
1038.355	-2362
1038.418	-1818
1038.481	-1920
1038.544	-1999
1038.607	-2348
1038.670	-1797
1038.732	-1989
1038.795	-3128
1038.858	-2261
1038.921	-2190
1038.984	-1445
1039.046	-2089
1039.109	-1833
1039.172	-1865
1039.234	-1546
1039.297	-2080
1039.360	-1786
1039.422	-2754
1039.485	-2413
1039.547	-2438
1039.610	-1925
1039.672	-2250
1039.734	-1719
1039.797	-1756
1039.859	-1838
1039.922	-2901
1039.984	-1545
1040.046	-1761
1040.109	-2171
1040.171	-2486
1040.233	-1909
1040.295	-2307
1040.358	-2448
1040.420	-2312
1040.482	-2006
1040.544	-2624
1040.606	-1884
1040.668	-1955
1040.730	-1732
1040.792	-3026
1040.854	-1708
1040.916	-2060
1040.978	-2382
1041.040	-2015
1041.102	-1280
1041.164	-1077
1041.225	-2683
1041.287	-2004
1041.349	-2414
1041.411	-2175
1041.472	-2249
1041.534	-1653
1041.596	-2259
1041.657	-1918
1041.719	-3017
1041.781	-1473
1041.842	-2090
1041.904	-1634
1041.965	-2813
1042.027	-1755
1042.088	-1975
1042.150	-2056
1042.211	-2006
1042.272	-2228
1042.334	-2641
1042.395	-1835
1042.456	-2085
1042.518	-2027
1042.579	-1301
1042.640	-1914
1042.701	-2578
1042.763	-3030
1042.824	-1720
1042.885	-2107
1042.946	-2317
1043.007	-2175
1043.068	-2197
1043.129	-2196
1043.190	-2209
1043.251	-1885
1043.312	-1543
1043.373	-2071
1043.434	-2506
1043.495	-2293
1043.556	-1230
1043.616	-2209
1043.677	-1872
1043.738	-2335
1043.799	-1644
1043.859	-2104
1043.920	-1775
1043.981	-2393
1044.041	-2478
1044.102	-1605
1044.162	-1885
1044.223	-1547
1044.284	-2214
1044.344	-1753
1044.405	-1381
1044.465	-1989
1044.525	-2503
1044.586	-1954
1044.646	-1752
1044.707	-1694
1044.767	-1242
1044.827	-2462
1044.887	-1892
1044.948	-1011
1045.008	-1448
1045.068	-1769
1045.128	-1138
1045.188	-1728
1045.249	-1533
1045.309	-2187
1045.369	-1253
1045.429	-2324
1045.489	-1903
1045.549	-1577
1045.609	-2134
1045.669	-2282
1045.729	-1995
1045.789	-1571
1045.848	-1395
1045.908	-1115
1045.968	-934
1046.028	-2595
1046.088	-1871
1046.147	-1702
1046.207	-2229
1046.267	-1975
1046.326	-1239
1046.386	-1353
1046.446	-1664
1046.505	-926
1046.565	-691
1046.624	-457
1046.684	-648
1046.743	-1017
1046.803	-379
1046.862	-140
1046.922	0
