'Start Wavelength	183.907
'End Wavelength	1046.922
'Gate Delay	5.000
'Gate Width (ms)	1.050
'Laser Output Level	0.000
'X Position	0.000
'Y Position	0.000
'Z Position	0.000
'Grid Point Number	1.000
'Shot Number	100.000
183.907	532.000
183.977	-322.000
184.047	-703
184.116	203
184.186	-572
184.256	-40
184.325	-28
184.395	-1191
184.465	17
184.534	288
184.604	-847
184.674	492
184.743	-50
184.813	420
184.883	157
184.952	717
185.022	-112
185.092	389
185.161	438
185.231	859
185.301	1301
185.370	598
185.440	-671
185.509	-174
185.579	395
185.649	-185
185.718	422
185.788	811
185.857	-127
185.927	-257
185.996	-487
186.066	-22
186.136	-514
186.205	639
186.275	756
186.344	461
186.414	-275
186.483	-287
186.553	944
186.622	1896
186.692	-685
186.761	475
186.831	198
186.900	220
186.970	92
187.039	635
187.109	921
187.178	398
187.248	692
187.317	874
187.387	-562
187.456	229
187.526	1076
187.595	525
187.664	575
187.734	386
187.803	-74
187.873	1231
187.942	1176
188.012	689
188.081	101
188.150	93
188.220	1400
188.289	1491
188.358	300
188.428	925
188.497	-1195
188.567	431
188.636	-303
188.705	656
188.775	139
188.844	45
188.913	1084
188.983	531
189.052	188
189.121	487
189.191	1038
189.260	2538
189.329	1805
189.399	1706
189.468	862
189.537	765
189.606	834
189.676	1099
189.745	117
189.814	1244
189.883	783
189.953	1623
190.022	3218
190.091	12305
190.161	16812
190.230	5985
190.299	1988
190.368	1566
190.437	478
190.507	1322
190.576	1141
190.645	763
190.714	235
190.783	8
190.853	1112
190.922	1382
190.991	466
191.060	902
191.129	220
191.198	767
191.268	434
191.337	1090
191.406	1100
191.475	424
191.544	392
191.613	1262
191.682	79
191.752	379
191.821	49
191.890	1074
191.959	525
192.028	1206
192.097	823
192.166	1239
192.235	25
192.304	931
192.373	515
192.442	879
192.511	874
192.580	744
192.650	1526
192.719	1461
192.788	622
192.857	1596
192.926	935
192.995	1040
193.064	3618
193.133	5272
193.202	5427
193.271	5537
193.340	3841
193.409	4059
193.478	4046
193.547	6321
193.615	8981
193.684	9120
193.753	4695
193.822	3060
193.891	2672
193.960	2660
194.029	1089
194.098	1273
194.167	993
194.236	1657
194.305	1698
194.374	894
194.443	1386
194.512	764
194.580	1680
194.649	1767
194.718	1177
194.787	1347
194.856	1259
194.925	2080
194.994	907
195.062	1292
195.131	1046
195.200	1092
195.269	938
195.338	1507
195.407	1524
195.475	2911
195.544	1199
195.613	1225
195.682	1293
195.751	1496
195.819	1583
195.888	1841
195.957	2171
196.026	1464
196.094	1620
196.163	1065
196.232	1467
196.301	1145
196.369	660
196.438	1213
196.507	1272
196.576	1079
196.644	1160
196.713	1863
196.782	412
196.850	1731
196.919	1812
196.988	1603
197.056	1818
197.125	2605
197.194	1188
197.262	2027
197.331	1618
197.400	1940
197.468	2387
197.537	2151
197.606	2401
197.674	5520
197.743	16187
197.812	6147
197.880	14461
197.949	10032
198.017	12603
198.086	9035
198.155	4763
198.223	5915
198.292	17961
198.360	8025
198.429	3151
198.497	4101
198.566	9461
198.635	18063
198.703	6227
198.772	6331
198.840	20317
198.909	23270
198.977	7156
199.046	8569
199.114	4587
199.183	3969
199.251	2954
199.320	2718
199.388	1919
199.457	1679
199.525	1972
199.594	2076
199.662	1625
199.731	1860
199.799	1892
199.867	2610
199.936	2470
200.004	2500
200.073	1842
200.141	1680
200.210	1354
200.278	2236
200.346	2502
200.415	3213
200.483	2539
200.552	2046
200.620	1833
200.688	2835
200.757	1719
200.825	2189
200.893	2590
200.962	2557
201.030	1720
201.098	2167
201.167	3096
201.235	3680
201.303	2192
201.372	2139
201.440	2842
201.508	2460
201.577	1960
201.645	3028
201.713	1744
201.781	2620
201.850	2282
201.918	2869
201.986	1905
202.055	2716
202.123	2208
202.191	2500
202.259	1169
202.327	2446
202.396	2891
202.464	2250
202.532	1757
202.600	3015
202.669	1881
202.737	2064
202.805	1997
202.873	2973
202.941	2086
203.009	3144
203.078	2347
203.146	3560
203.214	2170
203.282	1890
203.350	3426
203.418	2563
203.487	2647
203.555	2824
203.623	2905
203.691	3149
203.759	2123
203.827	2706
203.895	3303
203.963	3211
204.031	2707
204.099	3032
204.168	2703
204.236	3415
204.304	3146
204.372	3358
204.440	4284
204.508	4145
204.576	4040
204.644	3064
204.712	2722
204.780	3323
204.848	3070
204.916	2819
204.984	2407
205.052	3296
205.120	3154
205.188	2890
205.256	3683
205.324	4369
205.392	3336
205.460	4870
205.528	5917
205.596	4619
205.664	3938
205.732	6062
205.799	21016
205.867	36199
205.935	8767
206.003	5835
206.071	4646
206.139	6666
206.207	4337
206.275	3983
206.343	3212
206.411	4011
206.478	4552
206.546	5204
206.614	4111
206.682	4109
206.750	4497
206.818	6155
206.885	5774
206.953	3201
207.021	4662
207.089	3883
207.157	3660
207.225	4531
207.292	5435
207.360	5483
207.428	4603
207.496	3831
207.563	3153
207.631	4055
207.699	3580
207.767	3835
207.834	3320
207.902	3218
207.970	3779
208.038	3792
208.105	4204
208.173	4761
208.241	7953
208.309	6612
208.376	5745
208.444	9478
208.512	7677
208.579	4183
208.647	5605
208.715	5299
208.782	3954
208.850	4805
208.918	3590
208.985	4822
209.053	3796
209.120	4652
209.188	4601
209.256	5090
209.323	4325
209.391	4130
209.459	5778
209.526	5372
209.594	4390
209.661	5076
209.729	4821
209.796	5112
209.864	3978
209.932	4581
209.999	5329
210.067	3882
210.134	4617
210.202	5838
210.269	5167
210.337	6650
210.404	5217
210.472	5104
210.539	5213
210.607	4282
210.674	5319
210.742	5676
210.809	4703
210.877	5237
210.944	5618
211.012	4121
211.079	6394
211.146	4446
211.214	5299
211.281	8010
211.349	7994
211.416	6076
211.484	5523
211.551	5966
211.618	6460
211.686	5583
211.753	5271
211.821	6353
211.888	5295
211.955	6413
212.023	6309
212.090	7449
212.157	7217
212.225	9015
212.292	19753
212.359	42810
212.427	120770
212.494	53654
212.561	18215
212.629	12070
212.696	9892
212.763	8108
212.831	7746
212.898	7575
212.965	6769
213.032	6312
213.100	6180
213.167	6758
213.234	6637
213.301	7085
213.369	6868
213.436	5812
213.503	5870
213.570	6250
213.638	5320
213.705	5368
213.772	4934
213.839	5955
213.906	5347
213.973	5799
214.041	4987
214.108	5910
214.175	4932
214.242	5581
214.309	5502
214.376	7747
214.444	5961
214.511	6828
214.578	6371
214.645	7311
214.712	5901
214.779	7567
214.846	6468
214.913	7289
214.980	7461
215.048	8360
215.115	8382
215.182	6630
215.249	7258
215.316	6601
215.383	5405
215.450	5137
215.517	5110
215.584	5001
215.651	4255
215.718	4944
215.785	4804
215.852	4089
215.919	5064
215.986	5524
216.053	4182
216.120	4340
216.187	5195
216.254	4534
216.321	4609
216.388	6392
216.455	5520
216.522	6824
216.589	6443
216.656	8225
216.722	9382
216.789	11049
216.856	11587
216.923	10913
216.990	8645
217.057	8426
217.124	8874
217.191	9016
217.258	12893
217.324	15648
217.391	18068
217.458	13736
217.525	10385
217.592	8414
217.659	7447
217.725	8298
217.792	7403
217.859	7515
217.926	5492
217.993	5773
218.059	5525
218.126	5325
218.193	4556
218.260	4868
218.327	3432
218.393	4577
218.460	3892
218.527	3677
218.594	3759
218.660	5799
218.727	5377
218.794	3612
218.860	4650
218.927	3657
218.994	4609
219.061	3348
219.127	3433
219.194	4173
219.261	3517
219.327	3916
219.394	3118
219.461	3226
219.527	3608
219.594	4709
219.661	4115
219.727	3377
219.794	4725
219.860	4991
219.927	5512
219.994	5497
220.060	7070
220.127	7065
220.193	7822
220.260	9139
220.326	13495
220.393	22252
220.460	29183
220.526	20228
220.593	12336
220.659	13280
220.726	16229
220.792	46397
220.859	37461
220.925	38349
220.992	53900
221.058	58413
221.125	65577
221.191	51719
221.258	19096
221.324	12016
221.391	9531
221.457	8474
221.524	7509
221.590	14649
221.657	59007
221.723	42659
221.789	37488
221.856	33086
221.922	15374
221.989	8569
222.055	7538
222.121	5127
222.188	6205
222.254	6043
222.321	4261
222.387	4250
222.453	4209
222.520	4040
222.586	2756
222.652	4365
222.719	3453
222.785	4825
222.851	2954
222.918	3890
222.984	3529
223.050	3070
223.116	2601
223.183	4148
223.249	2889
223.315	3507
223.382	3665
223.448	2669
223.514	2474
223.580	2795
223.647	2574
223.713	3007
223.779	3420
223.845	3371
223.911	2714
223.978	2853
224.044	2536
224.110	2362
224.176	2785
224.242	3003
224.309	1997
224.375	2915
224.441	2128
224.507	3700
224.573	2143
224.639	2981
224.705	2431
224.772	2930
224.838	2451
224.904	2708
224.970	2329
225.036	2972
225.102	2379
225.168	3261
225.234	2419
225.300	2891
225.366	2601
225.432	3649
225.499	3297
225.565	2934
225.631	3508
225.697	4957
225.763	5529
225.829	7870
225.895	7097
225.961	10231
226.027	9578
226.093	8401
226.159	12367
226.225	21181
226.291	48558
226.357	82905
226.423	39019
226.489	19717
226.554	12885
226.620	13252
226.686	14555
226.752	21858
226.818	44820
226.884	108712
226.950	95802
227.016	37663
227.082	19927
227.148	13258
227.214	9885
227.279	8196
227.345	6546
227.411	5984
227.477	5478
227.543	9782
227.609	7400
227.674	5959
227.740	5039
227.806	6458
227.872	6368
227.938	4625
228.003	4556
228.069	3791
228.135	4220
228.201	4547
228.267	3972
228.332	3817
228.398	2444
228.464	3617
228.530	2393
228.595	3632
228.661	3406
228.727	3377
228.792	3572
228.858	3557
228.924	3586
228.990	8798
229.055	4324
229.121	5829
229.187	3007
229.252	2484
229.318	2273
229.384	2890
229.449	2576
229.515	1213
229.581	1349
229.646	4429
229.712	2383
229.777	3657
229.843	3431
229.909	4933
229.974	4736
230.040	4766
230.105	4665
230.171	6078
230.236	12620
230.302	22185
230.368	12557
230.433	13698
230.499	7795
230.564	5841
230.630	4493
230.695	4810
230.761	5056
230.826	3105
230.892	3838
230.957	3912
231.023	2931
231.088	4175
231.154	4016
231.219	3976
231.284	4014
231.350	5182
231.415	3201
231.481	4103
231.546	3992
231.612	3010
231.677	2606
231.742	3630
231.808	4391
231.873	3138
231.939	2126
232.004	3826
232.069	3833
232.135	4805
232.200	5261
232.265	3232
232.331	2610
232.396	3142
232.461	1592
232.527	2699
232.592	1232
232.657	3259
232.723	3635
232.788	3066
232.853	2869
232.918	3393
232.984	2520
233.049	2157
233.114	2709
233.179	3832
233.245	4589
233.310	5932
233.375	2796
233.440	3957
233.506	10867
233.571	9509
233.636	3377
233.701	3647
233.766	3971
233.832	4563
233.897	2316
233.962	1429
234.027	3222
234.092	2259
234.157	1938
234.222	2424
234.288	4360
234.353	11360
234.418	8598
234.483	6852
234.548	4658
234.613	3712
234.678	4786
234.743	5235
234.808	10502
234.873	8456
234.938	6119
235.004	4845
235.069	4196
235.134	4080
235.199	4184
235.264	4392
235.329	3287
235.394	4498
235.459	5569
235.524	3355
235.589	4335
235.654	4070
235.719	2975
235.784	5072
235.849	4668
235.913	7608
235.978	6872
236.043	7754
236.108	5526
236.173	4793
236.238	6662
236.303	5540
236.368	5472
236.433	8721
236.498	11420
236.563	14979
236.627	37205
236.692	142448
236.757	119831
236.822	41980
236.887	25175
236.952	24710
237.017	19389
237.081	19015
237.146	23978
237.211	65239
237.276	146580
237.341	243845
237.405	98942
237.470	38370
237.535	23088
237.600	16537
237.664	13040
237.729	9766
237.794	15677
237.859	31567
237.923	15566
237.988	9791
238.053	8550
238.118	9286
238.182	23838
238.247	23651
238.312	7423
238.376	7037
238.441	4427
238.506	6446
238.570	3614
238.635	5376
238.700	4531
238.764	4659
238.829	7087
238.893	8076
238.958	5193
239.023	4395
239.087	4274
239.152	5088
239.216	2734
239.281	4013
239.346	3004
239.410	4602
239.475	4413
239.539	18070
239.604	16319
239.668	6719
239.733	4231
239.797	5763
239.862	12322
239.926	13167
239.991	5539
240.055	3703
240.120	3373
240.184	3759
240.249	2665
240.313	2383
240.378	2966
240.442	8272
240.507	15318
240.571	5373
240.635	6221
240.700	7317
240.764	3072
240.829	3168
240.893	2478
240.957	3096
241.022	7201
241.086	11946
241.151	5579
241.215	2656
241.279	3535
241.344	6018
241.408	4976
241.472	4687
241.537	5848
241.601	5744
241.665	4316
241.730	5090
241.794	5271
241.858	4791
241.922	4499
241.987	5361
242.051	5257
242.115	3171
242.179	4701
242.244	3591
242.308	5475
242.372	5952
242.436	4747
242.501	4280
242.565	3395
242.629	3831
242.693	5873
242.757	4509
242.822	4536
242.886	5538
242.950	5150
243.014	4140
243.078	5051
243.142	5074
243.206	5697
243.271	8163
243.335	9517
243.399	22770
243.463	105102
243.527	298436
243.591	81956
243.655	25402
243.719	15436
243.783	13911
243.847	23992
243.911	31253
243.975	12139
244.040	6508
244.104	7015
244.168	5752
244.232	5727
244.296	12627
244.360	24551
244.424	7448
244.488	5915
244.552	4770
244.615	3597
244.679	4396
244.743	4349
244.807	3295
244.871	3085
244.935	3035
244.999	2190
245.063	4028
245.127	5344
245.191	17793
245.255	16642
245.319	5083
245.383	2160
245.446	4922
245.510	2538
245.574	3191
245.638	3445
245.702	1512
245.766	4151
245.829	4243
245.893	3452
245.957	5023
246.021	6397
246.085	3603
246.149	4259
246.212	6856
246.276	10459
246.340	4702
246.404	3387
246.467	4989
246.531	3373
246.595	6509
246.659	4506
246.722	3441
246.786	3981
246.850	3768
246.913	3265
246.977	2947
247.041	3829
247.104	3510
247.168	4010
247.232	6006
247.295	14428
247.359	6890
247.423	3144
247.486	4497
247.550	4340
247.614	3093
247.677	4384
247.741	4711
247.804	3189
247.868	6544
247.932	5859
247.995	14166
248.059	5567
248.122	3572
248.186	5058
248.249	8510
248.313	34056
248.376	27842
248.440	14149
248.503	5753
248.567	7127
248.630	5585
248.694	7812
248.757	13818
248.821	38856
248.884	19243
248.948	15088
249.011	21291
249.075	38663
249.138	30453
249.202	11690
249.265	8996
249.328	12908
249.392	9449
249.455	9269
249.519	7867
249.582	8104
249.645	9675
249.709	9446
249.772	11794
249.835	9875
249.899	9999
249.962	10049
250.025	9436
250.089	14321
250.152	16935
250.215	11155
250.279	11431
250.342	12370
250.405	13213
250.468	13862
250.532	20413
250.595	45875
250.658	245715
250.721	423831
250.785	108055
250.848	47781
250.911	32085
250.974	26855
251.038	25568
251.101	30983
251.164	22656
251.227	23018
251.290	31051
251.354	67431
251.417	348027
251.480	343496
251.543	216994
251.606	678559
251.669	486448
251.732	146225
251.795	91470
251.859	117871
251.922	400725
251.985	206766
252.048	61589
252.111	39754
252.174	31426
252.237	37898
252.300	73070
252.363	156796
252.426	470797
252.489	160904
252.552	55631
252.615	37856
252.678	37100
252.741	64167
252.804	171677
252.867	510155
252.930	184437
252.993	58974
253.056	37720
253.119	28413
253.182	28639
253.245	72005
253.308	42252
253.371	18762
253.434	15072
253.497	13227
253.559	15710
253.622	11745
253.685	10932
253.748	9394
253.811	7865
253.874	10576
253.937	9321
254.000	7133
254.062	10264
254.125	13086
254.188	9413
254.251	8157
254.314	6276
254.376	6749
254.439	7743
254.502	6620
254.565	8371
254.628	12811
254.690	6161
254.753	4407
254.816	4953
254.878	5599
254.941	9674
255.004	9471
255.067	5619
255.129	4472
255.192	4468
255.255	2572
255.317	3317
255.380	2914
255.443	3424
255.505	3587
255.568	2754
255.631	2213
255.693	3856
255.756	3538
255.819	4208
255.881	3330
255.944	3726
256.006	3362
256.069	3615
256.132	3200
256.194	4676
256.257	9288
256.319	7873
256.382	7458
256.444	7102
256.507	6386
256.569	6425
256.632	7897
256.694	16339
256.757	64528
256.819	209452
256.882	79950
256.944	25758
257.007	16859
257.069	12701
257.132	9102
257.194	10261
257.257	8066
257.319	7948
257.381	14696
257.444	47159
257.506	248748
257.569	240150
257.631	65441
257.693	28851
257.756	20990
257.818	13840
257.880	9843
257.943	8833
258.005	5801
258.067	5041
258.130	5083
258.192	5501
258.254	5709
258.317	5070
258.379	4863
258.441	5805
258.503	7282
258.566	12712
258.628	16887
258.690	5502
258.753	5815
258.815	6129
258.877	4166
258.939	4390
259.001	4650
259.064	4563
259.126	4316
259.188	6473
259.250	4952
259.312	5089
259.375	7383
259.437	6522
259.499	3890
259.561	4200
259.623	4174
259.685	3209
259.747	4140
259.809	12612
259.872	23192
259.934	44841
259.996	33618
260.058	8336
260.120	4823
260.182	4484
260.244	3988
260.306	3285
260.368	3103
260.430	3151
260.492	2962
260.554	6135
260.616	4791
260.678	9915
260.740	18402
260.802	5064
260.864	3433
260.926	3301
260.988	3534
261.050	3383
261.112	4100
261.174	18138
261.236	17909
261.298	5165
261.359	8488
261.421	11920
261.483	3822
261.545	4526
261.607	1826
261.669	4210
261.731	5593
261.793	10083
261.854	1995
261.916	4452
261.978	2852
262.040	3845
262.102	4029
262.164	4693
262.225	3676
262.287	2611
262.349	3438
262.411	2986
262.472	3731
262.534	5240
262.596	10404
262.658	4783
262.719	2792
262.781	5307
262.843	10147
262.904	7296
262.966	9596
263.028	20576
263.090	110879
263.151	335091
263.213	86407
263.275	25403
263.336	15141
263.398	11714
263.459	7979
263.521	5715
263.583	5421
263.644	5064
263.706	2455
263.767	2006
263.829	2812
263.891	3418
263.952	2870
264.014	2408
264.075	1712
264.137	2619
264.198	2574
264.260	1450
264.321	2363
264.383	2727
264.444	3227
264.506	2517
264.567	3185
264.629	3560
264.690	1166
264.752	2705
264.813	3266
264.875	2382
264.936	3395
264.998	3523
265.059	3504
265.120	6109
265.182	14862
265.243	95505
265.305	90510
265.366	20086
265.427	9652
265.489	8151
265.550	4752
265.611	4778
265.673	3324
265.734	3677
265.795	4179
265.857	3668
265.918	8090
265.979	27275
266.040	166343
266.102	131446
266.163	28878
266.224	13502
266.286	9206
266.347	6267
266.408	5104
266.469	4684
266.530	3695
266.592	1993
266.653	2287
266.714	3112
266.775	2061
266.836	1861
266.898	2172
266.959	3230
267.020	1885
267.081	3649
267.142	2551
267.203	1914
267.264	1111
267.326	3632
267.387	1667
267.448	1024
267.509	2361
267.570	2053
267.631	1660
267.692	1367
267.753	2120
267.814	1724
267.875	2558
267.936	4015
267.997	3089
268.058	3823
268.119	1918
268.180	1570
268.241	1092
268.302	1579
268.363	1458
268.424	1461
268.485	1429
268.546	1215
268.607	914
268.668	1405
268.729	911
268.790	1969
268.851	1017
268.912	2454
268.972	1942
269.033	1620
269.094	1367
269.155	1750
269.216	1531
269.277	1795
269.338	1587
269.398	1515
269.459	537
269.520	3151
269.581	2213
269.642	2029
269.702	1000
269.763	2383
269.824	1918
269.885	2489
269.945	1743
270.006	2384
270.067	650
270.128	1571
270.188	1658
270.249	1629
270.310	1091
270.370	2369
270.431	2167
270.492	1038
270.553	1521
270.613	2384
270.674	1833
270.734	1422
270.795	1262
270.856	1512
270.916	1168
270.977	1756
271.038	1587
271.098	1630
271.159	1569
271.219	1623
271.280	2008
271.340	1644
271.401	697
271.462	4404
271.522	1982
271.583	1243
271.643	1292
271.704	2121
271.764	1508
271.825	4107
271.885	20368
271.946	32587
272.006	6991
272.066	11175
272.127	20744
272.187	6175
272.248	3280
272.308	3606
272.369	8573
272.429	5036
272.489	1645
272.550	2164
272.610	2194
272.671	2259
272.731	3302
272.791	4454
272.852	1674
272.912	2088
272.972	980
273.033	1673
273.093	1371
273.153	1965
273.214	1415
273.274	2475
273.334	4804
273.394	8891
273.455	2563
273.515	2392
273.575	4683
273.635	3198
273.696	5700
273.756	12164
273.816	4501
273.876	2641
273.936	9612
273.997	17010
274.057	3036
274.117	2172
274.177	3425
274.237	11978
274.297	12624
274.358	9697
274.418	7439
274.478	4857
274.538	2146
274.598	2736
274.658	12461
274.718	16160
274.778	5616
274.838	2674
274.898	7306
274.958	24883
275.018	17386
275.078	7917
275.138	3257
275.198	1707
275.258	1392
275.318	2261
275.378	2563
275.438	2222
275.498	2909
275.558	11500
275.618	21654
275.678	6962
275.738	3461
275.798	2227
275.858	1299
275.918	1075
275.978	1838
276.038	1444
276.098	1000
276.157	1331
276.217	3254
276.277	2245
276.337	304
276.397	979
276.457	854
276.517	1193
276.576	1499
276.636	1220
276.696	628
276.756	3648
276.815	2842
276.875	1655
276.935	866
276.995	1889
277.055	57
277.114	1521
277.174	1849
277.234	2846
277.293	851
277.353	1411
277.413	1019
277.472	1281
277.532	1062
277.592	1981
277.651	2873
277.711	3965
277.771	1869
277.830	5635
277.890	5166
277.950	5572
278.009	16527
278.069	6401
278.128	4308
278.188	5477
278.248	2958
278.307	5841
278.367	4650
278.426	2053
278.486	1574
278.545	1227
278.605	1924
278.664	1468
278.724	2441
278.783	5550
278.843	12473
278.902	4046
278.962	1922
279.021	3659
279.081	5832
279.140	6528
279.199	3295
279.259	4849
279.318	5306
279.378	8117
279.437	15422
279.496	52002
279.556	292877
279.615	231871
279.675	42359
279.734	22159
279.793	22801
279.853	26649
279.912	10831
279.971	7876
280.031	5696
280.090	7420
280.149	13891
280.208	26139
280.268	176210
280.327	185960
280.386	30638
280.445	15438
280.505	10886
280.564	8167
280.623	5652
280.682	4684
280.742	4707
280.801	3342
280.860	1822
280.919	2437
280.978	1811
281.037	1654
281.097	488
281.156	2450
281.215	1804
281.274	1453
281.333	5841
281.392	4379
281.451	1885
281.510	1899
281.569	1556
281.628	7161
281.688	6247
281.747	3172
281.806	1768
281.865	1625
281.924	782
281.983	914
282.042	756
282.101	452
282.160	1248
282.219	934
282.278	263
282.337	1920
282.396	1591
282.454	1207
282.513	830
282.572	2547
282.631	1395
282.690	773
282.749	276
282.808	556
282.867	295
282.926	716
282.985	620
283.043	128
283.102	769
283.161	1240
283.220	2030
283.279	4666
283.338	1937
283.396	568
283.455	720
283.514	1030
283.573	949
283.631	1588
283.690	899
283.749	894
283.808	1604
283.866	2314
283.925	294
283.984	1283
284.043	1565
284.101	1659
284.160	376
284.219	2242
284.277	1080
284.336	1935
284.395	4189
284.453	3074
284.512	1470
284.570	1899
284.629	1345
284.688	1178
284.746	778
284.805	2535
284.863	1847
284.922	1680
284.981	2669
285.039	4803
285.098	10624
285.156	32785
285.215	173406
285.273	160191
285.332	44299
285.390	19205
285.449	11983
285.507	8339
285.566	5989
285.624	5453
285.683	3501
285.741	1970
285.799	2411
285.858	2734
285.916	1639
285.975	2146
286.033	2039
286.091	1910
286.150	1065
286.208	2026
286.267	1930
286.325	2506
286.383	1918
286.442	2910
286.500	1107
286.558	1341
286.616	2490
286.675	2229
286.733	1878
286.791	1966
286.850	2166
286.908	2704
286.966	3182
287.024	2305
287.083	2738
287.141	2621
287.199	3873
287.257	3503
287.315	3591
287.374	3779
287.432	4885
287.490	4893
287.548	4284
287.606	4579
287.664	4584
287.723	5852
287.781	6613
287.839	8217
287.897	11554
287.955	21078
288.013	43915
288.071	116634
288.129	442051
288.187	1137396
288.245	516760
288.303	159989
288.361	87936
288.419	59935
288.477	41942
288.535	30681
288.593	21770
288.651	14448
288.709	10724
288.767	8810
288.825	6617
288.883	5250
288.941	5113
288.999	4146
289.057	3692
289.115	3441
289.173	3900
289.231	3905
289.289	3340
289.346	4526
289.404	2655
289.462	2925
289.520	2980
289.578	2658
289.636	2440
289.694	2475
289.751	2693
289.809	2751
289.867	1937
289.925	3144
289.983	2319
290.040	2498
290.098	1859
290.156	1822
290.214	685
290.271	949
290.329	768
290.387	1660
290.444	1684
290.502	1257
290.560	1529
290.617	1742
290.675	776
290.733	705
290.790	1356
290.848	1679
290.906	435
290.963	547
291.021	493
291.078	817
291.136	404
291.194	701
291.251	1856
291.309	1327
291.366	445
291.424	823
291.481	-837
291.539	-14
291.596	1004
291.654	387
291.711	941
291.769	203
291.826	363
291.884	1378
291.941	-61
291.999	-168
292.056	-360
292.114	-585
292.171	-594
292.228	733
292.286	622
292.343	542
292.401	-101
292.458	100
292.515	-163
292.573	789
292.630	-244
292.687	955
292.745	690
292.802	1241
292.859	2131
292.917	2856
292.974	1047
293.031	553
293.089	6
293.146	53
293.203	276
293.260	-61
293.318	236
293.375	1160
293.432	-764
293.489	59
293.546	285
293.604	1866
293.661	4376
293.718	11498
293.775	3797
293.832	1642
293.889	910
293.947	2158
294.004	111
294.061	-673
294.118	212
294.175	1014
294.232	238
294.289	910
294.346	1630
294.403	2086
294.460	833
294.517	613
294.574	407
294.631	402
294.688	543
294.745	2705
294.802	9081
294.859	5550
294.916	1541
294.973	1957
295.030	755
295.087	1264
295.144	-308
295.201	501
295.258	401
295.315	1347
295.372	2974
295.429	5911
295.486	1593
295.542	-62
295.599	120
295.656	978
295.713	1589
295.770	4033
295.827	845
295.883	1279
295.940	-378
295.997	840
296.054	143
296.111	123
296.167	544
296.224	644
296.281	-149
296.338	261
296.394	667
296.451	70
296.508	1763
296.564	3645
296.621	4033
296.678	13662
296.734	19150
296.791	5954
296.848	1709
296.904	2909
296.961	3839
297.018	7179
297.074	7037
297.131	2934
297.187	1279
297.244	3371
297.301	9344
297.357	17787
297.414	5260
297.470	3115
297.527	366
297.583	1421
297.640	759
297.696	1271
297.753	-204
297.809	656
297.866	-539
297.922	743
297.979	-207
298.035	717
298.092	539
298.148	2539
298.204	3491
298.261	2568
298.317	4448
298.374	14591
298.430	7648
298.486	3038
298.543	2620
298.599	3230
298.656	7417
298.712	19221
298.768	80309
298.824	70771
298.881	17690
298.937	7327
298.993	5835
299.050	4577
299.106	2658
299.162	2559
299.218	2131
299.275	1530
299.331	1150
299.387	4286
299.443	12212
299.500	14897
299.556	6663
299.612	2548
299.668	2230
299.724	4646
299.780	4995
299.837	1856
299.893	1353
299.949	5743
300.005	8631
300.061	8350
300.117	17295
300.173	7956
300.229	2266
300.285	1651
300.341	1613
300.397	1072
300.453	594
300.510	714
300.566	1187
300.622	1817
300.678	9934
300.734	14283
300.790	8637
300.845	9208
300.901	5491
300.957	8423
301.013	3541
301.069	1294
301.125	1073
301.181	738
301.237	607
301.293	63
301.349	-528
301.405	-251
301.461	-680
301.516	-184
301.572	-961
301.628	-584
301.684	207
301.740	543
301.796	1605
301.851	1335
301.907	3352
301.963	6186
302.019	16232
302.074	53130
302.130	49660
302.186	19364
302.242	6465
302.297	4129
302.353	3202
302.409	4353
302.464	2943
302.520	2210
302.576	6820
302.631	8216
302.687	2373
302.743	1626
302.798	908
302.854	970
302.910	1605
302.965	1540
303.021	2239
303.076	2266
303.132	1013
303.187	2363
303.243	775
303.299	1274
303.354	692
303.410	1708
303.465	1139
303.521	1185
303.576	844
303.632	1588
303.687	3290
303.743	10526
303.798	8459
303.853	2529
303.909	1325
303.964	1478
304.020	1458
304.075	1091
304.130	1469
304.186	1620
304.241	3749
304.297	2249
304.352	419
304.358	476
304.407	931
304.449	936
304.463	943
304.518	842
304.539	916
304.573	1016
304.629	2327
304.630	2337
304.684	2925
304.720	6485
304.739	8216
304.794	11954
304.811	10146
304.850	5955
304.902	4065
304.905	3954
304.960	4116
304.992	6984
305.015	8936
305.071	7533
305.083	6503
305.126	2834
305.173	1395
305.181	1181
305.236	1274
305.264	1906
305.292	2505
305.347	1781
305.354	1934
305.402	3292
305.445	6539
305.457	7289
305.512	9097
305.535	7020
305.567	4519
305.622	5410
305.626	5670
305.678	10890
305.716	22286
305.733	26273
305.788	18711
305.807	15485
305.843	10409
305.897	12939
305.898	12962
305.953	13521
305.988	9589
306.008	7412
306.063	4318
306.078	3804
306.118	2662
306.168	2082
306.173	2032
306.228	2007
306.259	2328
306.283	2867
306.338	3739
306.349	4122
306.393	5441
306.440	9365
306.448	9950
306.503	7526
306.530	6860
306.558	6787
306.613	10865
306.620	10917
306.668	9996
306.711	8402
306.723	7958
306.778	5916
306.801	5030
306.833	4142
306.888	3180
306.892	3114
306.943	2461
306.982	2529
306.997	2514
307.052	2830
307.072	2877
307.107	3282
307.162	3352
307.163	3354
307.217	3297
307.253	3441
307.272	3522
307.327	3529
307.343	3557
307.381	3892
307.434	4389
307.436	4437
307.491	5603
307.524	6566
307.546	6807
307.600	7012
307.614	6683
307.655	5830
307.704	5924
307.710	6056
307.765	7196
307.795	8362
307.819	9344
307.874	11435
307.885	11930
307.929	15483
307.975	21482
307.984	24417
308.038	49118
308.065	68087
308.093	130434
308.148	282206
308.156	317403
308.202	454891
308.246	527538
308.257	514425
308.312	247461
308.336	151171
308.366	96772
308.421	49536
308.426	46794
308.475	33928
308.517	27377
308.530	25736
308.585	21030
308.607	19337
308.639	17493
308.694	14974
308.697	14957
308.748	15057
308.787	15835
308.803	16068
308.857	16043
308.877	16357
308.912	18367
308.967	22902
308.967	22982
309.021	36075
309.058	48872
309.076	69529
309.130	143911
309.148	174908
309.185	366274
309.238	701252
309.239	702168
309.293	714278
309.328	593968
309.348	499125
309.402	206173
309.418	139550
309.457	88672
309.508	50457
309.511	48968
309.566	36140
309.598	29860
309.620	26823
309.674	20683
309.688	19656
309.729	16877
309.778	13240
309.783	12876
309.837	10007
309.868	9354
309.892	9440
309.946	9492
309.959	9732
310.001	9617
310.049	8974
310.055	8751
310.109	6992
310.139	5690
310.163	4852
310.218	3963
310.229	3785
310.272	4264
310.319	5004
310.326	4872
310.381	3583
310.409	3097
310.435	3149
310.489	2902
310.499	2965
310.543	2967
310.589	2655
310.598	2665
310.652	2786
310.679	2913
310.706	2710
310.760	2143
310.769	2063
310.814	2258
310.859	2525
310.868	2539
310.923	2505
310.948	2568
310.977	2806
311.031	3028
311.038	3090
311.085	2716
311.128	2151
311.139	2259
311.193	2952
311.218	3238
311.247	2925
311.301	2375
311.308	2293
311.356	2155
311.398	2038
311.410	2041
311.464	2092
311.488	2093
311.518	2022
311.572	1902
311.578	1888
311.626	1783
311.668	1643
311.680	1779
311.734	2429
311.758	2697
311.788	2597
311.842	2455
311.847	2430
311.896	2856
311.937	3264
311.950	3073
312.004	2176
312.027	1799
312.058	2043
312.112	2455
312.117	2491
312.165	2193
312.207	1931
312.297	3097
312.386	2183
312.476	2530
312.566	2503
312.656	2952
312.745	2920
312.835	2841
312.925	2776
313.015	4334
313.104	3122
313.194	2371
313.284	1823
313.374	2460
313.463	2081
313.553	2064
313.643	2057
313.732	2591
313.822	2095
313.912	3895
314.001	2109
314.091	3209
314.180	2230
314.270	2588
314.360	2323
314.449	2844
314.539	1778
314.628	3172
314.718	2452
314.808	3199
314.897	2652
314.987	3539
315.076	2763
315.166	4232
315.255	3317
315.345	3979
315.434	3588
315.524	5204
315.613	6109
315.703	12085
315.792	43393
315.881	143545
315.971	42194
316.060	9369
316.150	4563
316.239	4122
316.328	3038
316.418	3589
316.507	2302
316.597	3538
316.686	2420
316.775	4216
316.865	3642
316.954	3306
317.043	2866
317.133	2469
317.222	2512
317.311	3819
317.400	3408
317.490	6620
317.579	6738
317.668	11720
317.757	22155
317.847	89351
317.936	259203
318.025	68811
318.114	39172
318.203	15735
318.293	3927
318.382	2589
318.471	3472
318.560	3447
318.649	3757
318.738	2815
318.828	2356
318.917	2231
319.006	2888
319.095	3312
319.184	4150
319.273	2896
319.362	2713
319.451	2433
319.540	1997
319.629	2941
319.718	2541
319.807	2584
319.896	3291
319.985	5801
320.074	3141
320.163	2263
320.252	2032
320.341	1516
320.430	1267
320.519	1689
320.608	1260
320.697	1764
320.786	1899
320.875	2765
320.964	2541
321.053	3327
321.142	3655
321.230	3603
321.319	3545
321.408	4724
321.497	2757
321.586	4113
321.675	3266
321.764	3062
321.852	2520
321.941	2877
322.030	2291
322.119	3095
322.207	5111
322.296	4838
322.385	2964
322.474	4322
322.562	5554
322.651	3808
322.740	3150
322.829	3896
322.917	3385
323.006	2477
323.095	2544
323.183	2083
323.272	2388
323.361	6560
323.449	10062
323.538	3657
323.626	7328
323.715	4786
323.804	2305
323.892	5886
323.981	3443
324.069	3164
324.158	4578
324.246	3516
324.335	2087
324.424	2650
324.512	2272
324.601	2863
324.689	6322
324.778	8457
324.866	3105
324.954	2190
325.043	1512
325.131	2293
325.220	3663
325.308	2989
325.397	2257
325.485	1670
325.574	768
325.662	1179
325.750	1352
325.839	1435
325.927	1331
326.015	1680
326.104	1754
326.192	2360
326.280	1245
326.369	1687
326.457	1140
326.545	2645
326.634	1238
326.722	1496
326.810	1142
326.898	1913
326.987	951
327.075	2297
327.163	2635
327.251	2612
327.340	4390
327.428	3988
327.516	939
327.604	2413
327.692	1514
327.781	1562
327.869	1358
327.957	1917
328.045	805
328.133	2288
328.221	1101
328.309	988
328.397	1102
328.485	2077
328.574	1729
328.662	4351
328.750	1661
328.838	1700
328.926	1591
329.014	1490
329.102	1724
329.190	2552
329.278	1865
329.366	1766
329.454	1187
329.542	2124
329.630	1326
329.718	2606
329.806	2069
329.893	2956
329.981	3625
330.069	13911
330.157	64516
330.245	149178
330.333	59904
330.421	9513
330.509	4383
330.597	5122
330.684	2324
330.772	2714
330.860	1298
330.948	1760
331.036	1274
331.123	742
331.211	1067
331.299	1477
331.387	1315
331.475	1616
331.562	808
331.650	1330
331.738	771
331.825	1463
331.913	683
332.001	1069
332.089	662
332.176	1426
332.264	3067
332.352	2228
332.439	1159
332.527	2249
332.614	723
332.702	2472
332.790	978
332.877	2179
332.965	2806
333.052	1733
333.140	1337
333.228	2702
333.315	1141
333.403	1810
333.490	1949
333.578	1826
333.665	2313
333.753	2268
333.840	1169
333.928	2755
334.015	1927
334.103	4646
334.190	6982
334.278	4269
334.365	3365
334.452	2721
334.540	1427
334.627	1764
334.715	2831
334.802	6783
334.889	18118
334.977	14766
335.064	4326
335.151	3251
335.239	1862
335.326	1780
335.413	3439
335.501	3104
335.588	875
335.675	1980
335.762	1771
335.850	3135
335.937	4711
336.024	10634
336.111	18637
336.199	10891
336.286	3803
336.373	2774
336.460	2152
336.547	2672
336.635	1240
336.722	1403
336.809	1086
336.896	1936
336.983	3117
337.070	5870
337.157	5622
337.245	9221
337.332	4374
337.419	1743
337.506	1447
337.593	1474
337.680	2333
337.767	2549
337.854	2097
337.941	2158
338.028	3656
338.115	2789
338.202	1673
338.289	3764
338.376	5819
338.463	2516
338.550	668
338.637	2332
338.724	1556
338.811	3061
338.898	824
338.984	1161
339.071	-30
339.158	1665
339.245	606
339.332	2254
339.419	1140
339.506	2669
339.593	-272
339.679	1749
339.766	633
339.853	820
339.940	1483
340.027	1919
340.113	1113
340.200	1885
340.287	698
340.374	796
340.460	732
340.547	510
340.634	1820
340.720	4048
340.807	1382
340.894	1658
340.980	833
341.067	558
341.154	1869
341.240	805
341.327	1789
341.414	1260
341.500	76
341.587	1430
341.674	934
341.760	1935
341.847	1546
341.933	1305
342.020	477
342.106	987
342.193	779
342.279	1352
342.366	1121
342.452	2099
342.539	1042
342.625	2145
342.712	3202
342.798	1889
342.885	1343
342.971	365
343.058	679
343.144	621
343.230	1029
343.317	1196
343.403	111
343.490	822
343.576	80
343.662	1276
343.749	882
343.835	2104
343.921	5184
344.008	27988
344.094	30472
344.180	5858
344.267	2436
344.353	6645
344.439	3956
344.525	1971
344.612	2997
344.698	2908
344.784	1262
344.870	1116
344.957	500
345.043	1191
345.129	590
345.215	1738
345.301	312
345.387	254
345.474	504
345.560	782
345.646	438
345.732	1635
345.818	290
345.904	813
345.990	1354
346.076	1199
346.162	342
346.249	862
346.335	1166
346.421	4878
346.507	6368
346.593	7207
346.679	413
346.765	1722
346.851	570
346.937	644
347.023	1628
347.108	1247
347.194	627
347.280	1159
347.366	1444
347.452	6163
347.538	11280
347.624	8348
347.710	4076
347.796	1018
347.882	579
347.967	1422
348.053	905
348.139	1205
348.225	327
348.311	741
348.397	244
348.482	1472
348.568	1021
348.654	1431
348.740	2275
348.825	1074
348.911	2824
348.997	7918
349.083	8323
349.168	1144
349.254	901
349.340	1597
349.425	687
349.511	1101
349.597	437
349.682	1711
349.768	4459
349.854	2087
349.939	173
350.025	1305
350.110	2561
350.196	1807
350.282	-575
350.367	1824
350.453	1136
350.538	612
350.624	105
350.709	1072
350.795	425
350.880	118
350.966	1259
351.051	671
351.137	381
351.222	755
351.308	1385
351.393	3041
351.479	548
351.564	1041
351.649	-306
351.735	1669
351.820	44
351.906	1383
351.991	1072
352.076	3191
352.162	2964
352.247	1028
352.332	657
352.418	1234
352.503	1483
352.588	4905
352.673	1583
352.759	1494
352.844	631
352.929	1487
353.014	-227
353.100	1127
353.185	1248
353.270	1563
353.355	1189
353.441	1799
353.526	959
353.611	1600
353.696	1003
353.781	1606
353.866	237
353.952	1026
354.037	1181
354.122	3141
354.207	1502
354.292	2281
354.377	1187
354.462	1383
354.547	117
354.632	1306
354.717	1440
354.802	2115
354.887	641
354.972	1377
355.057	171
355.142	1179
355.227	424
355.312	1750
355.397	2366
355.482	3504
355.567	1214
355.652	2610
355.737	2473
355.822	6850
355.907	2859
355.991	1835
356.076	488
356.161	1467
356.246	738
356.331	1070
356.416	2890
356.501	19094
356.585	9193
356.670	1037
356.755	2727
356.840	3952
356.924	19078
357.009	42075
357.094	10305
357.179	1786
357.263	715
357.348	2577
357.433	668
357.517	1111
357.602	605
357.687	1055
357.771	2043
357.856	3611
357.941	4122
358.025	26439
358.110	71839
358.195	20685
358.279	2339
358.364	1161
358.448	4563
358.533	8486
358.617	5581
358.702	6976
358.787	2021
358.871	1017
358.956	1121
359.040	1487
359.125	112
359.209	1555
359.294	1172
359.378	1209
359.462	730
359.547	676
359.631	54
359.716	-327
359.800	989
359.885	787
359.969	214
360.053	1302
360.138	-278
360.222	1163
360.306	1408
360.391	1932
360.475	3112
360.559	2914
360.644	3841
360.728	2491
360.812	12257
360.896	19285
360.981	4347
361.065	1325
361.149	1307
361.233	1044
361.318	41
361.402	821
361.486	1747
361.570	1562
361.654	1481
361.739	5060
361.823	19443
361.907	18480
361.991	1939
362.075	2022
362.159	1522
362.243	3885
362.327	5667
362.411	9505
362.495	2969
362.580	1972
362.664	1831
362.748	1361
362.832	2366
362.916	5243
363.000	22500
363.084	40666
363.168	26150
363.252	5363
363.336	2279
363.420	3000
363.503	4350
363.587	2470
363.671	1207
363.755	1026
363.839	1611
363.923	256
364.007	1890
364.091	2519
364.175	3243
364.258	12724
364.342	21074
364.426	41856
364.510	15306
364.594	5581
364.677	7952
364.761	21477
364.845	8113
364.929	2659
365.013	1137
365.096	2018
365.180	663
365.264	3389
365.347	6003
365.431	2306
365.515	19
365.598	-353
365.682	1427
365.766	142
365.849	428
365.933	1087
366.017	1883
366.100	171
366.184	-735
366.267	1662
366.351	-472
366.435	204
366.518	424
366.602	374
366.685	476
366.769	996
366.852	1338
366.936	1306
367.019	238
367.103	111
367.186	1301
367.270	862
367.353	-352
367.436	1535
367.520	751
367.603	1428
367.687	129
367.770	847
367.853	1587
367.937	5376
368.020	4302
368.104	740
368.187	1751
368.270	1876
368.353	872
368.437	3009
368.520	4682
368.603	2957
368.687	3722
368.770	4949
368.853	1080
368.936	1770
369.020	1241
369.103	379
369.186	-245
369.269	73
369.352	1239
369.436	1023
369.519	1534
369.602	-269
369.685	1333
369.768	-390
369.851	1295
369.934	262
370.018	549
370.101	737
370.184	1914
370.267	1461
370.350	2106
370.433	4336
370.516	21031
370.599	46574
370.682	16551
370.765	6419
370.848	6626
370.931	8256
371.014	3057
371.097	909
371.180	1950
371.263	1473
371.346	-665
371.429	1563
371.511	404
371.594	647
371.677	2172
371.760	2412
371.843	5259
371.926	38911
372.009	53678
372.091	11201
372.174	5029
372.257	10825
372.340	2200
372.423	1621
372.505	1547
372.588	1243
372.671	5094
372.754	8608
372.836	2498
372.919	2416
373.002	2586
373.085	959
373.167	2508
373.250	6320
373.332	12995
373.415	44967
373.498	68309
373.580	32961
373.663	102288
373.746	83250
373.828	10862
373.911	4543
373.993	1892
374.076	3840
374.159	2563
374.241	3571
374.324	7006
374.406	6716
374.489	20669
374.571	33862
374.654	7913
374.736	9601
374.819	23390
374.901	45316
374.983	33254
375.066	5251
375.148	1400
375.231	3684
375.313	3881
375.395	1219
375.478	537
375.560	2220
375.643	2185
375.725	11794
375.807	29642
375.890	15597
375.972	3484
376.054	3374
376.136	3384
376.219	1632
376.301	10238
376.383	16585
376.465	4497
376.548	3415
376.630	6252
376.712	13538
376.794	3621
376.877	1494
376.959	-106
377.041	1615
377.123	542
377.205	892
377.287	-253
377.369	1072
377.452	-232
377.534	1186
377.616	-48
377.698	619
377.780	-496
377.862	1673
377.944	1763
378.026	45
378.108	470
378.190	738
378.272	-81
378.354	654
378.436	-83
378.518	948
378.600	762
378.682	2667
378.764	3900
378.846	2457
378.928	274
379.010	455
379.091	936
379.173	267
379.255	-804
379.337	1018
379.419	3646
379.501	6870
379.583	1270
379.664	1562
379.746	1678
379.828	5710
379.910	5355
379.991	4560
380.073	458
380.155	933
380.237	645
380.318	442
380.400	530
380.482	1863
380.564	1324
380.645	1188
380.727	-9
380.809	2206
380.890	573
380.972	334
381.053	647
381.135	1409
381.217	1201
381.298	5597
381.380	1208
381.461	5467
381.543	17654
381.624	13241
381.706	2063
381.787	1683
381.869	2920
381.951	20579
382.032	48919
382.113	19403
382.195	961
382.276	3447
382.358	5726
382.439	13257
382.521	24466
382.602	31245
382.684	11033
382.765	15172
382.846	10449
382.928	12147
383.009	4589
383.090	7707
383.172	23375
383.253	23995
383.334	12609
383.416	19648
383.497	6756
383.578	3476
383.659	6761
383.741	25199
383.822	47610
383.903	16244
383.984	11464
384.066	19223
384.147	7425
384.228	2307
384.309	1681
384.390	1758
384.471	1922
384.553	1549
384.634	828
384.715	2503
384.796	833
384.877	2239
384.958	6058
385.039	4255
385.120	1736
385.201	2884
385.282	1355
385.363	3172
385.444	2625
385.525	7668
385.606	17972
385.687	10362
385.768	2981
385.849	5622
385.930	29583
386.011	35484
386.092	5540
386.173	3180
386.254	4997
386.335	5103
386.416	1358
386.496	4570
386.577	3878
386.658	1736
386.739	961
386.820	1929
386.901	1043
386.981	2639
387.062	1740
387.143	2891
387.224	5763
387.304	5566
387.385	2786
387.466	858
387.547	2811
387.627	2647
387.708	4867
387.789	11874
387.869	9492
387.950	4252
388.031	1665
388.111	630
388.192	3126
388.273	4076
388.353	2067
388.434	2321
388.514	5979
388.595	18560
388.676	12695
388.756	5497
388.837	4377
388.917	2809
388.998	-44
389.078	3381
389.159	7373
389.239	4502
389.320	3669
389.400	1216
389.480	4305
389.561	6484
389.641	3143
389.722	2842
389.802	2263
389.883	5531
389.963	8710
390.043	3824
390.124	2391
390.204	5048
390.284	7925
390.365	12716
390.445	85160
390.525	314581
390.605	202145
390.686	24357
390.766	7577
390.846	4763
390.927	2556
391.007	2985
391.087	3120
391.167	2698
391.247	2179
391.328	4670
391.408	3371
391.488	4240
391.568	1435
391.648	3255
391.728	3782
391.808	5440
391.888	3628
391.969	6665
392.049	5679
392.129	6404
392.209	7130
392.289	11917
392.369	7621
392.449	8200
392.529	7152
392.609	10255
392.689	11739
392.769	17777
392.849	17053
392.929	21387
393.009	32194
393.089	46375
393.169	109189
393.248	517840
393.328	1689481
393.408	1488716
393.488	280796
393.568	70832
393.648	35715
393.728	22654
393.807	18007
393.887	17335
393.967	16939
394.047	18403
394.127	24307
394.206	54531
394.286	285489
394.366	1005157
394.446	803765
394.525	143604
394.605	35242
394.685	19701
394.764	15749
394.844	14317
394.924	11792
395.003	9811
395.083	8960
395.163	8719
395.242	8692
395.322	9574
395.402	8782
395.481	12479
395.561	12009
395.640	19855
395.720	23425
395.799	25351
395.879	35370
395.958	84401
396.038	412764
396.117	1318827
396.197	1102704
396.276	227830
396.356	61715
396.435	35885
396.515	32157
396.594	40572
396.673	106683
396.753	569619
396.832	1470019
396.912	747206
396.991	105503
397.070	33919
397.150	17785
397.229	14738
397.308	16889
397.388	19498
397.467	10968
397.546	7739
397.625	5703
397.705	7627
397.784	5003
397.863	3842
397.942	3323
398.022	4119
398.101	3984
398.180	4984
398.259	2459
398.338	3956
398.417	2266
398.497	1899
398.576	2603
398.655	910
398.734	1916
398.813	1977
398.892	3809
398.971	4882
399.050	1442
399.129	790
399.208	1554
399.287	2033
399.366	865
399.445	1628
399.524	974
399.603	312
399.682	1690
399.761	2819
399.840	4806
399.919	3968
399.998	102
400.077	487
400.156	-1238
400.235	3021
400.313	-271
400.392	161
400.471	3363
400.550	3093
400.629	-677
400.708	2445
400.786	-55
400.865	906
400.944	-424
401.023	1916
401.102	-1
401.180	1251
401.259	375
401.338	278
401.416	366
401.495	8
401.574	1250
401.652	57
401.731	893
401.810	-650
401.888	-176
401.967	-448
402.046	-132
402.124	1512
402.203	-902
402.281	923
402.360	48
402.438	1959
402.517	-666
402.596	1620
402.674	-75
402.753	-126
402.831	345
402.910	1462
402.988	1777
403.066	4798
403.145	2815
403.223	4496
403.302	4448
403.380	3484
403.459	2197
403.537	881
403.615	613
403.694	256
403.772	516
403.850	1119
403.929	-342
404.007	484
404.085	1592
404.164	250
404.242	771
404.320	7115
404.398	20922
404.477	18969
404.555	25771
404.633	16670
404.711	12501
404.789	5896
404.868	661
404.946	116
405.024	898
405.102	640
405.180	-189
405.258	-774
405.336	757
405.415	334
405.493	847
405.571	1461
405.649	-214
405.727	-477
405.805	1025
405.883	857
405.961	-7
406.039	248
406.117	-1440
406.195	905
406.273	5086
406.351	14405
406.429	5450
406.507	720
406.585	-969
406.663	1010
406.740	496
406.818	4
406.896	85
406.974	1849
407.052	1343
407.130	9990
407.208	7773
407.285	3125
407.363	74
407.441	1395
407.519	1846
407.596	8580
407.674	70622
407.752	226400
407.830	114149
407.907	11645
407.985	1792
408.063	1654
408.141	675
408.218	1627
408.296	-1002
408.373	327
408.451	686
408.529	634
408.606	-583
408.684	108
408.762	475
408.839	866
408.917	18
408.994	833
409.072	4
409.149	593
409.227	1479
409.304	2275
409.382	1805
409.459	2835
409.537	3901
409.614	3742
409.692	1586
409.769	2530
409.846	3932
409.924	5070
410.001	568
410.079	1971
410.156	1869
410.233	2975
410.311	3346
410.388	1023
410.465	61
410.543	-56
410.620	248
410.697	979
410.775	654
410.852	-140
410.929	684
411.006	1650
411.083	268
411.161	1163
411.238	-232
411.315	14
411.392	-823
411.469	1314
411.547	-282
411.624	327
411.701	108
411.778	564
411.855	909
411.932	60
412.009	-187
412.086	893
412.163	-52
412.240	401
412.317	763
412.394	389
412.471	370
412.548	-401
412.625	117
412.702	989
412.779	1118
412.856	1546
412.933	244
413.010	5123
413.087	9480
413.164	6293
413.241	2592
413.318	365
413.395	390
413.471	-131
413.548	144
413.625	605
413.702	-1171
413.779	479
413.855	-262
413.932	-1261
414.009	-690
414.086	-96
414.162	-135
414.239	305
414.316	1940
414.393	4540
414.469	31
414.546	970
414.623	-127
414.699	548
414.776	116
414.853	-124
414.929	271
415.006	-248
415.082	-37
415.159	66
415.236	397
415.312	538
415.389	308
415.465	-462
415.542	-117
415.618	-493
415.695	439
415.771	-25
415.848	-650
415.924	516
416.000	-570
416.077	790
416.153	-1000
416.230	165
416.306	-173
416.383	-442
416.459	-1072
416.535	860
416.612	-155
416.688	569
416.764	-557
416.841	-582
416.917	-955
416.993	350
417.069	-170
417.146	1330
417.222	1181
417.298	668
417.374	-417
417.451	427
417.527	-1065
417.603	-754
417.679	-747
417.755	-325
417.831	-814
417.908	212
417.984	-645
418.060	-1101
418.136	371
418.212	-518
418.288	-459
418.364	184
418.440	-721
418.516	342
418.592	-176
418.668	254
418.744	260
418.820	454
418.896	225
418.972	-467
419.048	-297
419.124	1399
419.200	-1321
419.276	358
419.352	-1480
419.428	135
419.504	-1132
419.579	-46
419.655	-1050
419.731	336
419.807	567
419.883	524
419.959	610
420.034	722
420.110	125
420.186	1834
420.262	974
420.337	-42
420.413	-892
420.489	437
420.565	1001
420.640	484
420.716	683
420.792	-581
420.867	620
420.943	-224
421.019	27
421.094	967
421.170	956
421.245	721
421.321	2013
421.397	6781
421.472	48691
421.548	118799
421.623	43924
421.699	5164
421.774	2299
421.850	1293
421.925	1854
422.001	2934
422.076	1930
422.152	2800
422.227	4205
422.302	6767
422.378	10152
422.453	20821
422.529	79914
422.604	339160
422.679	562586
422.755	220310
422.830	44438
422.905	16271
422.981	7702
423.056	5846
423.131	3886
423.207	3105
423.282	1299
423.357	2168
423.432	1392
423.508	2136
423.583	432
423.658	1194
423.733	593
423.808	421
423.883	1145
423.959	1564
424.034	636
424.109	1849
424.184	583
424.259	285
424.334	-539
424.409	-5
424.484	-286
424.559	388
424.634	-552
424.709	-23
424.784	691
424.859	1176
424.934	-223
425.009	1597
425.084	1693
425.159	32
425.234	-538
425.309	-891
425.384	897
425.459	144
425.534	-579
425.609	-584
425.683	-997
425.758	-205
425.833	-121
425.908	556
425.983	-50
426.058	3441
426.132	81
426.207	-174
426.282	1065
426.357	-766
426.431	-657
426.506	161
426.581	-280
426.655	-237
426.730	-147
426.805	-244
426.879	-663
426.954	31
427.029	-3
427.103	5005
427.178	10080
427.253	2246
427.327	99
427.402	-1
427.476	-431
427.551	-172
427.625	-543
427.700	383
427.774	-991
427.849	539
427.923	-688
427.998	-690
428.072	-1393
428.147	3995
428.221	25952
428.296	67495
428.370	22894
428.444	1667
428.519	-338
428.593	-157
428.667	-235
428.742	1123
428.816	6741
428.890	40716
428.965	46078
429.039	6972
429.113	617
429.188	-842
429.262	-400
429.336	765
429.410	717
429.485	639
429.559	195
429.633	252
429.707	530
429.781	6474
429.855	34324
429.930	36027
430.004	6553
430.078	6238
430.152	34671
430.226	137306
430.300	91606
430.374	9478
430.448	2362
430.522	3792
430.596	3667
430.670	13604
430.744	54689
430.818	43625
430.892	4670
430.966	163
431.040	19
431.114	342
431.188	-1374
431.262	124
431.336	-1205
431.410	524
431.484	-1064
431.557	768
431.631	-1141
431.705	1631
431.779	19394
431.853	63792
431.927	28166
432.000	2638
432.074	-324
432.148	-115
432.222	-987
432.295	-349
432.369	-1291
432.443	297
432.516	5880
432.590	9643
432.664	1494
432.737	3
432.811	-1461
432.885	84
432.958	-469
433.032	-743
433.106	-1500
433.179	-336
433.253	-945
433.326	-276
433.400	-1212
433.473	-438
433.547	-1029
433.620	-23
433.694	-238
433.767	552
433.841	-1167
433.914	394
433.988	-726
434.061	-227
434.134	-1699
434.208	-633
434.281	-1481
434.355	-1348
434.428	-858
434.501	-915
434.575	-1780
434.648	-163
434.721	-1212
434.795	26
434.868	-1414
434.941	-1059
435.014	-762
435.088	-782
435.161	-931
435.234	532
435.307	-1206
435.381	144
435.454	-208
435.527	1637
435.600	1132
435.673	285
435.746	-1011
435.819	542
435.892	-324
435.966	-432
436.039	-1011
436.112	-135
436.185	-1340
436.258	-606
436.331	-1245
436.404	-379
436.477	-1371
436.550	-580
436.623	-1114
436.696	-889
436.769	-1240
436.842	-1077
436.915	-1160
436.987	-906
437.060	-1492
437.133	-370
437.206	-1616
437.279	-856
437.352	-1674
437.425	-3
437.498	-931
437.570	-264
437.643	-1505
437.716	-768
437.789	-916
437.861	-584
437.934	-1380
438.007	-932
438.080	-1157
438.152	-786
438.225	1259
438.298	11979
438.370	17326
438.443	3416
438.516	-737
438.588	-917
438.661	-1463
438.734	-1019
438.806	-1442
438.879	-173
438.951	-1294
439.024	-384
439.096	-1571
439.169	-125
439.241	-954
439.314	-352
439.386	-1036
439.459	-670
439.531	-670
439.604	-185
439.676	-333
439.749	-1353
439.821	-1111
439.893	-855
439.966	-776
440.038	-1048
440.110	-714
440.183	-1128
440.255	-2201
440.327	-207
440.400	1439
440.472	7633
440.544	1539
440.617	-1099
440.689	-614
440.761	-94
440.833	-372
440.905	-322
440.978	-1163
441.050	-699
441.122	-734
441.194	-692
441.266	-1553
441.338	-730
441.411	88
441.483	1333
441.555	1267
441.627	-188
441.699	-551
441.771	-819
441.843	-1227
441.915	-128
441.987	-903
442.059	-397
442.131	-374
442.203	69
442.275	-567
442.347	1286
442.419	3723
442.491	28077
442.563	46643
442.635	12434
442.706	1126
442.778	124
442.850	-1226
442.922	-529
442.994	-8
443.066	-143
443.137	-671
443.209	491
443.281	966
443.353	5893
443.425	39169
443.496	117040
443.568	76972
443.640	19419
443.711	2496
443.783	1219
443.855	-1036
443.926	151
443.998	-1002
444.070	-207
444.141	41
444.213	-250
444.285	-659
444.356	-1052
444.428	-1162
444.499	-926
444.571	-1596
444.642	-72
444.714	-1338
444.785	-580
444.857	-293
444.928	-383
445.000	-522
445.071	-69
445.143	181
445.214	1705
445.285	3020
445.357	15328
445.428	98891
445.500	170820
445.571	71223
445.642	29310
445.714	6146
445.785	1577
445.856	-2
445.928	584
445.999	-1126
446.070	-420
446.141	-796
446.213	-665
446.284	-1220
446.355	-5
446.426	-1013
446.497	-900
446.569	-1188
446.640	-763
446.711	-802
446.782	-506
446.853	-1313
446.924	-514
446.995	-630
447.066	-545
447.138	-1179
447.209	-296
447.280	-2054
447.351	-903
447.422	-1272
447.493	-385
447.564	-875
447.635	-471
447.706	-1032
447.777	-520
447.847	-844
447.918	-1684
447.989	-1466
448.060	-593
448.131	-739
448.202	-697
448.273	-1188
448.344	-701
448.414	-948
448.485	-903
448.556	-866
448.627	-1065
448.698	-531
448.768	-127
448.839	-1539
448.910	-859
448.981	-1134
449.051	-770
449.122	-1218
449.193	-1120
449.263	-1449
449.334	-340
449.405	-169
449.475	81
449.546	-150
449.616	244
449.687	-473
449.758	116
449.828	-901
449.899	-759
449.969	-1517
450.040	-572
450.110	-697
450.181	-340
450.251	-644
450.322	-648
450.392	-728
450.463	-179
450.533	-507
450.604	-340
450.674	-1371
450.744	-681
450.815	-775
450.885	-1069
450.955	-1517
451.026	-1037
451.096	-1608
451.166	-1434
451.237	-1114
451.307	-305
451.377	-1411
451.447	-1207
451.518	-549
451.588	-334
451.658	-554
451.728	-502
451.799	-1244
451.869	484
451.939	-882
452.009	-298
452.079	-1733
452.149	-113
452.219	-696
452.289	-485
452.360	-745
452.430	-589
452.500	518
452.570	61
452.640	1357
452.710	3240
452.780	1713
452.850	976
452.920	-333
452.990	-932
453.060	-960
453.129	-1048
453.199	-1829
453.269	182
453.339	311
453.409	449
453.479	490
453.549	1353
453.619	337
453.688	-178
453.758	-424
453.828	-143
453.898	-1446
453.968	-394
454.037	-1743
454.087	-556
454.107	-85
454.168	-423
454.177	-496
454.247	-501
454.249	-524
454.316	-1759
454.330	-1409
454.386	-100
454.411	-422
454.456	-1059
454.492	-346
454.525	269
454.574	16
454.595	-125
454.655	-714
454.665	-827
454.734	-1095
454.736	-1057
454.804	-288
454.817	-189
454.873	86
454.898	132
454.943	208
454.979	185
455.013	82
455.060	827
455.082	1240
455.141	1090
455.152	1396
455.221	6521
455.222	6759
455.291	26295
455.303	39352
455.360	89661
455.384	130247
455.430	192221
455.465	127119
455.499	68275
455.546	25725
455.569	7525
455.627	3141
455.638	2324
455.707	1245
455.708	1262
455.777	986
455.789	966
455.846	722
455.869	594
455.916	389
455.950	-0
455.985	-474
456.031	-123
456.054	17
456.112	-1085
456.124	-1310
456.193	498
456.193	488
456.262	241
456.274	412
456.332	953
456.355	689
456.401	254
456.436	300
456.470	207
456.516	77
456.540	-3
456.597	334
456.609	379
456.678	-464
456.678	-479
456.747	365
456.759	231
456.817	-481
456.840	-263
456.886	95
456.920	-118
456.955	-434
457.001	-77
457.024	176
457.082	94
457.093	28
457.162	673
457.163	686
457.232	472
457.243	550
457.301	669
457.324	290
457.370	-307
457.405	38
457.439	373
457.485	204
457.508	113
457.566	633
457.577	752
457.646	1151
457.647	1180
457.715	3294
457.727	3452
457.784	5042
457.808	7170
457.853	10056
457.889	10583
457.922	9227
457.969	6088
457.991	6356
458.050	8355
458.060	8776
458.129	16682
458.130	16822
458.198	13195
458.211	11932
458.267	5764
458.292	3417
458.336	2241
458.372	2520
458.405	4289
458.453	6840
458.474	8834
458.533	16881
458.543	17643
458.611	25793
458.614	25903
458.680	12538
458.694	9372
458.749	4199
458.775	2925
458.818	2004
458.855	1615
458.887	1418
458.936	1290
458.955	1131
459.016	495
459.024	472
459.093	1881
459.097	1841
459.162	1113
459.177	1386
459.230	1484
459.257	1146
459.299	1382
459.338	1992
459.368	2160
459.418	2185
459.437	2156
459.499	1828
459.505	1769
459.574	1597
459.579	1580
459.643	1848
459.659	1861
459.711	1350
459.740	1310
459.780	1543
459.820	1568
459.849	1522
459.900	1605
459.917	1665
459.981	1938
459.986	1941
460.054	2380
460.061	2352
460.123	2015
460.141	2156
460.191	2778
460.222	2785
460.260	2591
460.302	2955
460.328	3202
460.382	3261
460.397	3495
460.462	4614
460.465	4863
460.534	11233
460.543	12079
460.602	45425
460.623	58384
460.671	91934
460.703	123499
460.739	115968
460.783	87255
460.808	66412
460.864	10355
460.876	7025
460.944	2722
460.945	2683
461.013	3033
461.024	2972
461.081	2978
461.104	3144
461.150	2777
461.184	2357
461.218	2523
461.264	2787
461.286	2629
461.345	2091
461.355	2067
461.423	2448
461.425	2443
461.491	1723
461.505	1777
461.559	2499
461.585	2558
461.628	2493
461.665	2614
461.696	2680
461.745	2660
461.764	2574
461.825	2437
461.832	2515
461.901	2842
461.905	2885
461.969	1560
461.985	1218
462.037	2339
462.065	3061
462.105	2857
462.145	2317
462.173	2381
462.225	2766
462.241	2706
462.305	2266
462.310	2291
462.378	3100
462.385	3118
462.446	2342
462.465	2215
462.514	2811
462.545	3101
462.582	2747
462.625	2394
462.650	2399
462.705	2444
462.718	2456
462.785	2538
462.786	2544
462.854	2621
462.865	2640
462.922	2565
462.945	2550
462.990	2559
463.025	2632
463.058	2855
463.104	2886
463.126	2748
463.184	2892
463.194	2965
463.262	2516
463.264	2525
463.330	2812
463.344	2806
463.398	3116
463.424	3310
463.466	2825
463.504	2372
463.533	2663
463.583	2891
463.601	2853
463.663	2984
463.669	2926
463.737	2287
463.743	2203
463.805	3328
463.823	3743
463.873	3708
463.903	3534
463.940	3396
463.982	3301
464.008	3131
464.062	2698
464.076	2891
464.142	3903
464.144	3891
464.211	3035
464.221	2973
464.279	3179
464.301	3024
464.347	2599
464.381	2509
464.414	3018
464.461	3581
464.482	3531
464.540	3615
464.550	3748
464.617	4171
464.620	4194
464.685	5107
464.699	5223
464.753	7560
464.779	8800
464.820	10302
464.859	11683
464.888	10621
464.938	8619
464.956	8680
465.018	8727
465.023	8738
465.091	8865
465.098	8846
465.158	8296
465.177	8146
465.226	8232
465.257	8262
465.293	8146
465.336	7916
465.361	8264
465.416	8943
465.428	8852
465.495	8435
465.496	8454
465.563	8672
465.575	8735
465.631	8657
465.654	8587
465.698	9020
465.734	9299
465.765	9240
465.813	8941
465.833	9003
465.893	9387
465.900	9391
465.968	9199
465.972	9166
466.035	9271
466.052	9270
466.102	9847
466.131	10165
466.170	10318
466.210	10405
466.237	10958
466.290	12068
466.304	12158
466.369	12330
466.372	12364
466.439	12729
466.449	12743
466.506	13732
466.528	14094
466.573	14181
466.607	14131
466.641	13981
466.687	13822
466.708	14322
466.766	15469
466.775	15594
466.842	16410
466.845	16412
466.909	16568
466.925	16565
466.977	16548
467.004	16498
467.044	16495
467.083	16434
467.111	17437
467.163	19189
467.178	19631
467.242	21304
467.245	21206
467.312	18272
467.321	17849
467.379	16367
467.400	15776
467.446	15380
467.480	15040
467.559	14570
467.638	13448
467.717	12207
467.796	13093
467.875	11708
467.955	12347
468.034	12117
468.113	11571
468.192	12276
468.271	11792
468.350	13010
468.429	13897
468.508	14953
468.588	11985
468.667	10107
468.746	10956
468.825	9418
468.904	9855
468.983	9746
469.062	9650
469.141	10070
469.220	9942
469.299	8857
469.378	11299
469.456	16857
469.535	14354
469.614	11900
469.693	12051
469.772	11588
469.851	11436
469.930	10859
470.009	11698
470.088	10953
470.166	11022
470.245	10099
470.324	11616
470.403	10572
470.482	10656
470.560	9797
470.639	10135
470.718	10470
470.797	9323
470.875	9411
470.954	10051
471.033	9479
471.111	8924
471.190	9681
471.269	8904
471.347	7779
471.426	9137
471.505	10148
471.583	13487
471.662	12976
471.740	11443
471.819	9919
471.898	8978
471.976	11109
472.055	10090
472.133	10392
472.212	12676
472.290	9865
472.369	9286
472.447	9404
472.526	9267
472.604	9546
472.683	9382
472.761	8722
472.839	9804
472.918	9204
472.996	8404
473.075	8779
473.153	9485
473.231	8258
473.310	9293
473.388	7923
473.466	9786
473.545	9460
473.623	11159
473.701	9334
473.780	10138
473.858	8244
473.936	10122
474.014	8963
474.093	10119
474.171	10238
474.249	9829
474.327	8260
474.405	8983
474.484	7625
474.562	8535
474.640	7820
474.718	9455
474.796	10601
474.874	10690
474.952	8884
475.030	8829
475.108	9442
475.187	12291
475.265	11151
475.343	10707
475.421	10674
475.499	9165
475.577	8223
475.655	8697
475.733	7541
475.811	8374
475.889	7486
475.966	8515
476.044	7275
476.122	6696
476.200	6592
476.278	7446
476.356	6693
476.434	7047
476.512	6210
476.590	6923
476.667	7369
476.745	5809
476.823	7858
476.901	6588
476.979	5762
477.056	7090
477.134	6479
477.212	6989
477.290	5956
477.367	6308
477.445	6046
477.523	5762
477.601	5541
477.678	6289
477.756	6467
477.834	6771
477.911	5439
477.989	6442
478.066	5063
478.144	6064
478.222	6106
478.299	6709
478.377	7454
478.454	7756
478.532	5029
478.609	5958
478.687	5767
478.764	5427
478.842	5691
478.919	6438
478.997	5246
479.074	4920
479.152	5375
479.229	5919
479.307	5263
479.384	5280
479.461	4923
479.539	5335
479.616	5078
479.694	4194
479.771	4478
479.848	6024
479.926	3670
480.003	6735
480.080	4872
480.157	5383
480.235	4338
480.312	4989
480.389	3453
480.467	4157
480.544	6249
480.621	4870
480.698	4221
480.775	5234
480.853	4335
480.930	5282
481.007	5253
481.084	7594
481.161	13192
481.238	8731
481.315	3770
481.392	4990
481.470	4135
481.547	3791
481.624	4368
481.701	4732
481.778	3994
481.855	4382
481.932	4829
482.009	4964
482.086	5030
482.163	5458
482.240	5664
482.317	5572
482.393	5270
482.470	4998
482.547	3805
482.624	4012
482.701	3497
482.778	4356
482.855	4366
482.932	5209
483.009	4216
483.085	6033
483.162	8660
483.239	9474
483.316	4844
483.393	6028
483.469	4243
483.546	4687
483.623	4875
483.699	4539
483.776	4084
483.853	4618
483.930	5624
484.006	6895
484.083	11060
484.160	25963
484.236	51951
484.313	40627
484.389	27313
484.466	26346
484.543	23724
484.619	23813
484.696	25308
484.772	23024
484.849	21815
484.925	21599
485.002	21665
485.078	21833
485.155	20883
485.231	21064
485.308	20189
485.384	20909
485.461	21077
485.537	20468
485.614	19985
485.690	20850
485.766	20192
485.843	19340
485.919	19070
485.995	20836
486.072	18344
486.148	18182
486.224	17379
486.301	18323
486.377	18404
486.453	18061
486.530	21082
486.606	29872
486.682	31649
486.758	26733
486.835	24204
486.911	23408
486.987	22412
487.063	24965
487.139	27259
487.215	29034
487.292	23950
487.368	22158
487.444	22216
487.520	25000
487.596	27782
487.672	37993
487.748	72050
487.824	105749
487.900	44017
487.976	22018
488.052	18768
488.128	19365
488.204	17115
488.280	16945
488.356	16872
488.432	16950
488.508	17162
488.584	15912
488.660	15351
488.736	15610
488.812	15509
488.888	19655
488.964	18145
489.039	20018
489.115	22962
489.191	20757
489.267	15298
489.343	15724
489.418	14084
489.494	14846
489.570	14066
489.646	15157
489.722	14697
489.797	14623
489.873	15297
489.949	20172
490.024	19757
490.100	13220
490.176	12883
490.251	13869
490.327	12803
490.403	12441
490.478	12797
490.554	12189
490.629	11899
490.705	11334
490.781	13053
490.856	10123
490.932	11730
491.007	11875
491.083	11635
491.158	11295
491.234	12002
491.309	12440
491.385	10871
491.460	11520
491.536	11706
491.611	11264
491.686	10212
491.762	12496
491.837	10789
491.913	15017
491.988	14597
492.063	18433
492.139	9966
492.214	10601
492.289	9856
492.365	7978
492.440	9988
492.515	8363
492.590	9472
492.666	8355
492.741	10736
492.816	12004
492.891	10381
492.967	14276
493.042	15344
493.117	21015
493.192	25976
493.267	63624
493.342	294370
493.418	478313
493.493	77003
493.568	13122
493.643	10065
493.718	10443
493.793	7039
493.868	9913
493.943	7231
494.018	9203
494.093	6927
494.168	7704
494.243	7818
494.318	7008
494.393	6381
494.468	6377
494.543	6802
494.618	6595
494.693	6070
494.768	6685
494.842	6614
494.917	6103
494.992	6081
495.067	6466
495.142	6275
495.217	6761
495.292	5066
495.366	6847
495.441	6015
495.516	6847
495.591	6870
495.665	12471
495.740	21630
495.815	12740
495.890	6289
495.964	5210
496.039	8827
496.114	7892
496.188	14942
496.263	13943
496.338	6471
496.412	5782
496.487	8351
496.561	6478
496.636	8576
496.710	7803
496.785	8448
496.860	8499
496.934	8142
497.009	9325
497.083	9642
497.158	9470
497.232	9339
497.307	11933
497.381	12703
497.455	14197
497.530	14538
497.604	16401
497.679	16327
497.753	22928
497.827	30420
497.902	34739
497.976	34321
498.050	33073
498.125	38486
498.199	46034
498.273	47182
498.348	48179
498.422	39134
498.496	33004
498.570	26609
498.645	22352
498.719	18295
498.793	16609
498.867	14614
498.941	13740
499.016	14017
499.090	19383
499.164	12681
499.238	9419
499.312	7788
499.386	9115
499.460	7415
499.534	6209
499.609	7183
499.683	5510
499.757	5645
499.831	6386
499.905	11403
499.979	10854
500.053	5172
500.127	6203
500.201	5628
500.275	5999
500.349	5019
500.422	4691
500.496	5666
500.570	7252
500.644	9336
500.718	10880
500.792	5515
500.866	5179
500.940	5679
501.013	5349
501.087	3352
501.161	5134
501.235	3812
501.309	6576
501.382	8306
501.456	9206
501.530	3619
501.603	4056
501.677	4054
501.751	2377
501.825	4982
501.898	5412
501.972	5020
502.046	4246
502.119	3547
502.193	5974
502.266	4239
502.340	4069
502.413	3227
502.487	4672
502.561	3109
502.634	4229
502.708	4387
502.781	3232
502.855	4079
502.928	1839
503.002	3572
503.075	2801
503.149	2423
503.222	2861
503.295	2384
503.369	4129
503.442	2874
503.516	4729
503.589	5707
503.662	4677
503.736	4197
503.809	5981
503.882	5703
503.956	8673
504.029	12259
504.102	34108
504.175	50642
504.249	18609
504.322	8329
504.395	5650
504.468	4118
504.542	3291
504.615	2844
504.688	4575
504.761	1724
504.834	4410
504.907	2895
504.980	3849
505.053	2463
505.127	1742
505.200	4800
505.273	3420
505.346	2968
505.419	3465
505.492	4106
505.565	6055
505.638	7766
505.711	4498
505.784	2757
505.857	2079
505.930	2917
506.003	1741
506.076	3991
506.149	2323
506.221	416
506.294	3114
506.367	1437
506.440	4635
506.513	3880
506.586	1896
506.659	1913
506.731	2998
506.804	2345
506.877	1258
506.950	1516
507.022	2882
507.095	1450
507.168	2506
507.241	3539
507.313	2015
507.386	1320
507.459	3910
507.531	2159
507.604	2019
507.677	2256
507.749	2655
507.822	4579
507.894	10596
507.967	16996
508.040	10902
508.112	9042
508.185	7676
508.257	5424
508.330	7887
508.402	5531
508.475	6208
508.547	5366
508.620	5592
508.692	5658
508.765	7665
508.837	4967
508.909	6774
508.982	5802
509.054	6156
509.127	4626
509.199	4778
509.271	3638
509.344	5237
509.416	4944
509.488	5483
509.560	4857
509.633	5252
509.705	5458
509.777	5281
509.849	5698
509.922	5242
509.994	4571
510.066	7295
510.138	6331
510.210	19560
510.283	16642
510.355	13406
510.427	11111
510.499	10261
510.571	9033
510.643	8058
510.715	9700
510.787	7943
510.859	8900
510.931	8720
511.003	9104
511.076	9498
511.148	6982
511.219	8375
511.291	9021
511.363	8745
511.435	8246
511.507	6517
511.579	7736
511.651	7378
511.723	6565
511.795	7334
511.867	6665
511.939	7884
512.010	6275
512.082	7570
512.154	5499
512.226	7486
512.298	12837
512.369	18279
512.441	14360
512.513	12149
512.585	9911
512.656	11405
512.728	8464
512.800	9598
512.871	9091
512.943	9788
513.015	7939
513.086	9037
513.158	8183
513.230	7545
513.301	8078
513.373	9921
513.444	8287
513.516	7756
513.588	7763
513.659	8574
513.731	8381
513.802	6922
513.874	9117
513.945	10443
514.016	7118
514.088	8465
514.159	7966
514.231	9862
514.302	14509
514.374	13260
514.445	9908
514.516	13171
514.588	8915
514.659	9285
514.730	9447
514.802	12647
514.873	14965
514.944	19147
515.016	12938
515.087	10081
515.158	10458
515.229	13342
515.301	17689
515.372	28860
515.443	15791
515.514	11391
515.585	8628
515.656	10747
515.728	8621
515.799	8105
515.870	8664
515.941	8149
516.012	7708
516.083	12389
516.154	11025
516.225	10658
516.296	9488
516.367	9003
516.438	7570
516.509	7745
516.580	8543
516.651	14319
516.722	27101
516.793	18425
516.864	9234
516.935	8771
517.006	9431
517.077	9371
517.148	12396
517.219	31191
517.289	48646
517.360	12232
517.431	7813
517.502	6943
517.573	6907
517.643	7422
517.714	9458
517.785	9607
517.856	7085
517.926	9971
517.997	8564
518.068	8512
518.138	10738
518.209	11114
518.280	24158
518.350	81409
518.421	35491
518.492	11343
518.562	9526
518.633	11186
518.703	10173
518.774	24157
518.845	57379
518.915	61955
518.986	17784
519.056	11430
519.127	11879
519.197	11200
519.268	10461
519.338	9559
519.408	6673
519.479	7410
519.549	5723
519.620	7492
519.690	5431
519.760	6281
519.831	5000
519.901	4798
519.971	5403
520.042	5596
520.112	4103
520.182	5610
520.253	6354
520.323	5204
520.393	4463
520.463	8297
520.534	2195
520.604	7680
520.674	5152
520.744	4517
520.814	4577
520.885	6811
520.955	4007
521.025	7468
521.095	5136
521.165	6686
521.235	4049
521.305	5153
521.375	5066
521.445	5690
521.515	4242
521.585	6077
521.655	3279
521.725	4558
521.795	6382
521.865	3124
521.935	6231
522.005	3962
522.075	3819
522.145	6000
522.215	4269
522.285	4821
522.355	3577
522.424	5188
522.494	4532
522.564	5126
522.634	6039
522.704	10798
522.774	5277
522.843	4748
522.913	3682
522.983	5068
523.053	3069
523.122	4930
523.192	3125
523.262	5727
523.331	6597
523.401	4362
523.471	3381
523.540	3687
523.610	2995
523.680	3682
523.749	3823
523.819	5433
523.888	4427
523.958	3704
524.027	3221
524.097	4328
524.166	2365
524.236	2867
524.305	4699
524.375	2666
524.444	1830
524.514	5612
524.583	2699
524.653	2939
524.722	3329
524.791	2563
524.861	4103
524.930	2092
524.999	2542
525.069	4303
525.138	2715
525.207	2784
525.277	2928
525.346	3175
525.415	3961
525.484	4214
525.554	2102
525.623	5718
525.692	7873
525.761	7159
525.830	6011
525.900	8146
525.969	11369
526.038	19640
526.107	38207
526.176	122742
526.245	106471
526.314	30455
526.383	59518
526.452	86744
526.522	144761
526.591	153923
526.660	23983
526.729	15471
526.797	18165
526.867	22655
526.935	72127
527.004	299515
527.073	204303
527.142	18502
527.211	6683
527.280	5930
527.349	4431
527.418	2556
527.487	3476
527.555	2092
527.624	2855
527.693	1674
527.762	3851
527.831	1703
527.899	2564
527.968	2624
528.037	394
528.106	3628
528.174	3589
528.243	3059
528.312	2054
528.380	3135
528.449	1294
528.518	3857
528.586	510
528.655	2484
528.723	2166
528.792	1724
528.861	1087
528.929	-470
528.998	1572
529.066	2486
529.135	1731
529.203	1355
529.272	645
529.340	2353
529.409	2902
529.477	266
529.545	881
529.614	3231
529.682	473
529.751	1588
529.819	4298
529.887	1679
529.956	387
530.024	2586
530.092	-573
530.161	1775
530.229	1111
530.297	1289
530.365	2229
530.434	1873
530.502	834
530.570	2110
530.638	-569
530.707	1800
530.775	2521
530.843	1175
530.911	1463
530.979	1280
531.047	1158
531.115	2366
531.183	1017
531.252	2586
531.320	1483
531.388	481
531.456	1341
531.524	25
531.592	2448
531.660	3511
531.728	251
531.796	1695
531.864	1648
531.932	909
532.000	1439
532.067	1098
532.135	1254
532.203	1763
532.271	-443
532.339	3067
532.407	4527
532.475	3204
532.542	1151
532.610	2268
532.678	647
532.746	6627
532.814	13341
532.881	4245
532.949	2815
533.017	2179
533.084	1035
533.152	1523
533.220	1630
533.287	1308
533.355	1041
533.423	1989
533.490	248
533.558	1353
533.625	1859
533.693	2615
533.761	2893
533.828	2394
533.896	1244
533.963	4096
534.031	3734
534.098	4060
534.166	2933
534.233	2357
534.300	3511
534.368	3181
534.435	2222
534.503	3645
534.570	3478
534.637	3155
534.705	4361
534.772	5240
534.840	9896
534.907	53528
534.974	77250
535.041	9257
535.109	2982
535.176	2448
535.243	2096
535.310	2932
535.378	1289
535.445	3012
535.512	1574
535.579	2453
535.646	1127
535.714	2910
535.781	5697
535.848	4731
535.915	4131
535.982	3255
536.049	3343
536.116	4512
536.183	2062
536.250	2103
536.317	2047
536.384	3174
536.451	2344
536.518	3196
536.585	678
536.652	4149
536.719	4321
536.786	1413
536.853	2215
536.920	3821
536.987	3672
537.053	2513
537.120	7891
537.187	7407
537.254	1788
537.321	2189
537.388	2403
537.454	639
537.521	1784
537.588	2714
537.654	3677
537.721	6227
537.788	3839
537.855	3933
537.921	3215
537.988	3196
538.055	4240
538.121	2362
538.188	2183
538.254	3030
538.321	3890
538.388	4139
538.454	2063
538.521	3149
538.587	2500
538.654	2720
538.720	2569
538.787	3065
538.853	2698
538.920	3600
538.986	2203
539.053	3266
539.119	2764
539.185	2582
539.252	3527
539.318	3311
539.385	4936
539.451	4932
539.517	3747
539.583	5590
539.650	3523
539.716	6993
539.782	4396
539.849	2605
539.915	3287
539.981	2592
540.047	3437
540.114	3460
540.180	3892
540.246	2772
540.312	2852
540.378	4594
540.444	6480
540.510	4505
540.576	7288
540.643	3838
540.709	2175
540.775	3966
540.841	2864
540.907	4446
540.973	5508
541.039	6495
541.105	5725
541.171	4231
541.237	2976
541.303	5045
541.369	4664
541.435	5033
541.500	4766
541.566	2688
541.632	2244
541.698	2634
541.764	3796
541.830	2827
541.896	1774
541.961	3882
542.027	2416
542.093	3303
542.159	3554
542.224	3521
542.290	6624
542.356	5718
542.421	5694
542.487	6380
542.553	3435
542.618	4662
542.684	2755
542.750	2367
542.815	2877
542.881	3188
542.947	6211
543.012	6423
543.078	2433
543.143	2849
543.209	3336
543.274	2432
543.340	3850
543.405	5583
543.471	4053
543.536	4408
543.602	2900
543.667	2282
543.732	3845
543.798	3825
543.863	3707
543.928	4131
543.994	3415
544.059	3873
544.124	4725
544.190	3923
544.255	4333
544.320	3590
544.386	2874
544.451	4841
544.516	4283
544.581	3263
544.646	5205
544.712	8848
544.777	5043
544.842	4004
544.907	3639
544.972	3783
545.037	4409
545.102	5406
545.168	3041
545.233	4754
545.298	3809
545.363	4793
545.428	4946
545.493	5897
545.558	5868
545.623	4877
545.688	3334
545.753	4072
545.818	3775
545.883	5071
545.947	3949
546.012	4254
546.077	3070
546.142	5884
546.207	3336
546.272	5414
546.337	4983
546.401	6265
546.466	6089
546.531	5122
546.596	4354
546.661	5298
546.725	5749
546.790	5625
546.855	5514
546.919	5087
546.984	6139
547.049	5270
547.113	6273
547.178	6675
547.243	8676
547.307	10154
547.372	9371
547.436	9748
547.501	9503
547.565	11276
547.630	11178
547.695	10487
547.759	9573
547.823	9770
547.888	10319
547.952	11466
548.017	11361
548.081	16148
548.146	13235
548.210	11138
548.274	11216
548.339	11575
548.403	11912
548.468	9795
548.532	9486
548.596	10427
548.660	9594
548.725	11312
548.789	10866
548.853	11719
548.917	10605
548.982	10430
549.046	9612
549.110	9187
549.174	9327
549.238	10291
549.303	10490
549.367	12702
549.431	11385
549.495	10902
549.559	9731
549.623	12100
549.687	12886
549.751	12997
549.815	14660
549.879	15738
549.943	12487
550.007	15448
550.071	14293
550.135	13401
550.199	11615
550.263	13498
550.327	12287
550.391	13765
550.455	15451
550.519	14411
550.582	14607
550.646	16964
550.710	17139
550.774	17788
550.838	17542
550.901	18441
550.965	18993
551.029	19964
551.093	21978
551.156	24715
551.220	31474
551.284	41459
551.347	27946
551.411	19923
551.475	19223
551.538	18903
551.602	17385
551.666	16338
551.729	14728
551.793	14833
551.856	14607
551.920	16831
551.983	14856
552.047	14142
552.110	14330
552.174	15958
552.237	13740
552.301	13485
552.364	11797
552.428	12019
552.491	11865
552.554	12553
552.618	12420
552.681	13474
552.745	11975
552.808	13864
552.871	14902
552.934	14968
552.998	12838
553.061	14230
553.124	15019
553.187	15731
553.251	16583
553.314	18568
553.377	19557
553.440	31082
553.503	96067
553.567	196613
553.630	42568
553.693	16824
553.756	13515
553.819	13490
553.882	11172
553.945	12797
554.008	11975
554.071	12348
554.134	12548
554.197	11653
554.260	11504
554.323	12026
554.386	11064
554.449	12583
554.512	11717
554.575	11112
554.638	10925
554.701	11268
554.764	10120
554.827	10842
554.889	10031
554.952	9917
555.015	8792
555.078	9594
555.141	9230
555.203	9761
555.266	9434
555.329	9611
555.391	8073
555.454	10245
555.517	9763
555.580	9275
555.642	7826
555.705	8625
555.768	9529
555.830	9012
555.893	7485
555.955	7593
556.018	7144
556.080	7372
556.143	6858
556.206	6754
556.268	6829
556.330	7464
556.393	7496
556.455	6194
556.518	6247
556.580	6962
556.643	6300
556.705	6400
556.767	4948
556.830	6798
556.892	6220
556.955	6465
557.017	5813
557.079	6185
557.142	5798
557.204	4931
557.266	6744
557.328	6015
557.391	3410
557.453	4338
557.515	5371
557.577	5409
557.639	5329
557.701	5931
557.764	5666
557.826	6206
557.888	7245
557.950	7423
558.012	8004
558.074	11988
558.136	29500
558.198	87975
558.260	31230
558.322	8980
558.384	11635
558.446	13374
558.508	15987
558.570	20659
558.632	25565
558.694	32674
558.756	54235
558.818	190719
558.880	541826
558.942	168068
559.003	95629
559.065	49547
559.127	17495
559.189	17968
559.251	19992
559.312	28754
559.374	77286
559.436	303890
559.498	156227
559.559	22090
559.621	17092
559.683	19183
559.744	31400
559.806	116153
559.868	201651
559.929	34837
559.991	16699
560.052	24404
560.114	80708
560.176	53237
560.237	42346
560.299	76336
560.360	15090
560.422	4468
560.483	4169
560.545	3044
560.606	2437
560.667	1528
560.729	2428
560.790	2051
560.852	2311
560.913	2651
560.974	2062
561.036	1877
561.097	2308
561.158	2322
561.220	2068
561.281	1642
561.342	2138
561.403	3090
561.465	1825
561.526	4517
561.587	5132
561.648	2785
561.709	1025
561.771	3437
561.832	1323
561.893	1729
561.954	1329
562.015	2258
562.076	1606
562.137	1791
562.198	2069
562.259	2276
562.320	519
562.381	2401
562.442	1351
562.503	2621
562.564	1861
562.625	1985
562.686	1526
562.747	1205
562.808	1345
562.869	868
562.930	1800
562.991	1461
563.051	1764
563.112	2474
563.173	1198
563.234	1731
563.294	1562
563.355	1570
563.416	1429
563.477	1729
563.537	951
563.598	1911
563.659	1998
563.720	2583
563.780	1823
563.841	1545
563.901	1340
563.962	1463
564.023	1539
564.083	1007
564.144	1228
564.204	1995
564.265	803
564.325	1933
564.386	1244
564.446	1683
564.507	1699
564.567	2796
564.628	2202
564.688	1437
564.749	1292
564.809	2412
564.869	2065
564.930	745
564.990	2617
565.050	2855
565.111	1552
565.171	1946
565.231	1601
565.292	2889
565.352	856
565.412	2694
565.472	1789
565.532	3055
565.593	1830
565.653	2046
565.713	2401
565.773	2931
565.833	1712
565.893	4213
565.953	1973
566.013	2371
566.074	3012
566.134	4027
566.194	3526
566.254	4342
566.314	3353
566.374	3679
566.434	5293
566.494	5806
566.554	4984
566.614	6938
566.673	5230
566.733	7310
566.793	6246
566.853	6246
566.913	8126
566.973	8020
567.033	7906
567.092	6938
567.152	6912
567.212	7635
567.272	8638
567.331	9502
567.391	10023
567.451	11039
567.511	12565
567.570	11705
567.630	9594
567.690	9536
567.749	10517
567.809	11484
567.868	13407
567.928	16764
567.988	20818
568.047	26081
568.107	34160
568.166	52225
568.226	92496
568.285	140919
568.345	118698
568.404	87901
568.464	69086
568.523	58668
568.582	58666
568.642	64771
568.701	86804
568.761	139470
568.820	238777
568.879	243087
568.939	161495
568.998	108878
569.057	75292
569.116	55123
569.176	40479
569.235	32128
569.294	25962
569.353	20863
569.413	17946
569.472	15262
569.531	13301
569.590	12048
569.649	9447
569.708	9350
569.767	8693
569.827	7319
569.886	6037
569.945	6240
570.004	5366
570.063	6337
570.122	6052
570.181	5470
570.240	3721
570.299	4006
570.358	3553
570.417	3787
570.475	3125
570.534	4417
570.593	3171
570.652	4011
570.711	3118
570.770	4041
570.829	6070
570.887	6349
570.946	3205
571.005	2774
571.064	2399
571.122	3423
571.181	1931
571.240	2492
571.299	1869
571.357	3421
571.416	1634
571.475	2351
571.533	2050
571.592	2805
571.650	1733
571.709	2595
571.768	1037
571.826	2695
571.885	2534
571.943	1991
572.002	1399
572.060	1933
572.119	1147
572.177	1348
572.236	648
572.294	1505
572.352	1904
572.411	2039
572.469	581
572.528	632
572.586	938
572.644	1583
572.703	1170
572.761	1683
572.819	781
572.877	784
572.936	582
572.994	798
573.052	1228
573.110	2069
573.169	805
573.227	1345
573.285	1652
573.343	1036
573.401	702
573.459	1952
573.517	1249
573.576	1169
573.634	1470
573.692	1972
573.750	1760
573.808	1225
573.866	1001
573.924	2027
573.982	744
574.040	1214
574.098	1200
574.155	1501
574.213	1473
574.271	1094
574.329	956
574.387	1680
574.445	283
574.503	1098
574.560	279
574.618	950
574.676	793
574.734	1887
574.792	1105
574.849	1522
574.907	286
574.965	822
575.022	-187
575.080	998
575.138	733
575.195	1114
575.253	203
575.311	972
575.368	327
575.426	592
575.483	1655
575.541	1895
575.598	623
575.656	1108
575.713	131
575.771	1371
575.828	777
575.886	2096
575.943	169
576.001	931
576.058	575
576.115	814
576.173	137
576.230	966
576.287	643
576.345	927
576.402	643
576.459	1910
576.517	1105
576.574	1292
576.631	829
576.688	1504
576.746	195
576.803	1943
576.860	865
576.917	1072
576.974	694
577.031	1247
577.089	935
577.146	1212
577.203	650
577.260	2585
577.317	1425
577.374	1134
577.431	1146
577.488	1656
577.545	1223
577.602	2189
577.659	1781
577.716	4272
577.773	4642
577.830	2438
577.886	1761
577.943	820
578.000	1789
578.057	675
578.114	2049
578.171	2624
578.227	1477
578.284	3263
578.341	2025
578.398	1929
578.454	1971
578.511	1355
578.568	767
578.625	391
578.681	865
578.738	1328
578.794	459
578.851	232
578.908	17
578.964	1328
579.021	605
579.077	1016
579.134	569
579.190	1217
579.247	1641
579.303	1529
579.360	1671
579.416	1366
579.473	1276
579.529	727
579.586	1227
579.642	2357
579.698	1520
579.755	1709
579.811	1402
579.867	2197
579.924	572
579.980	2214
580.036	2546
580.093	3316
580.149	4167
580.205	4734
580.261	3913
580.317	2038
580.374	1685
580.430	2191
580.486	1223
580.542	1625
580.598	1040
580.619	1406
580.654	2040
580.692	1303
580.710	941
580.765	1040
580.767	1041
580.823	411
580.838	739
580.879	1597
580.911	1011
580.935	585
580.984	1175
580.991	1261
581.047	1530
581.057	1583
581.103	1768
581.130	1894
581.159	2032
581.203	2157
581.215	2202
581.270	1606
581.276	1660
581.326	2101
581.349	1925
581.382	1652
581.422	1713
581.438	1757
581.494	1087
581.494	1090
581.550	1337
581.567	1471
581.606	1754
581.640	1503
581.661	1362
581.713	1908
581.717	1955
581.773	1234
581.786	1136
581.829	722
581.859	1623
581.885	2453
581.932	1083
581.940	819
581.996	1622
582.004	1597
582.052	1427
582.077	1971
582.107	2608
582.150	1546
582.163	1234
582.219	1543
582.223	1552
582.274	1704
582.296	1777
582.330	1860
582.368	1628
582.386	1545
582.441	2217
582.441	2217
582.497	1890
582.514	2340
582.552	3543
582.587	4383
582.608	4734
582.659	3545
582.663	3459
582.719	1791
582.732	1875
582.774	2216
582.805	2137
582.830	2115
582.877	2557
582.885	2599
582.941	2120
582.950	2164
582.996	2411
583.023	2211
583.052	2168
583.095	2668
583.107	2774
583.162	3693
583.168	3801
583.218	4717
583.240	3993
583.273	2826
583.313	2679
583.328	2632
583.384	2974
583.385	2963
583.439	2833
583.458	2961
583.494	3042
583.531	2446
583.549	2250
583.603	2247
583.605	2240
583.660	2609
583.676	2349
583.715	1713
583.748	2396
583.770	3023
583.820	3027
583.825	2973
583.881	2787
583.893	2547
583.936	2189
583.965	2834
583.991	3215
584.038	3185
584.046	3191
584.101	3161
584.110	3277
584.156	3890
584.183	3967
584.211	3953
584.255	3803
584.266	3822
584.321	3524
584.328	3514
584.376	3228
584.400	3514
584.431	3943
584.472	3244
584.486	2988
584.541	3619
584.545	3614
584.596	3528
584.617	3677
584.651	4271
584.689	4610
584.706	4586
584.761	4462
584.762	4458
584.816	4338
584.834	4729
584.871	5518
584.906	5047
584.926	4766
584.978	5293
584.980	5326
585.035	5312
585.051	5726
585.090	6683
585.123	6737
585.145	6936
585.195	8701
585.200	9048
585.254	12957
585.267	14873
585.309	22557
585.340	29284
585.364	31376
585.412	21854
585.419	20253
585.473	12913
585.484	12207
585.528	13680
585.556	16047
585.583	19649
585.628	29741
585.637	33145
585.692	69009
585.700	76077
585.747	106318
585.772	85999
585.801	52200
585.845	20800
585.856	16060
585.910	11154
585.917	10695
585.965	9361
585.989	9130
586.019	8928
586.061	8726
586.074	8700
586.128	7814
586.133	7868
586.183	8291
586.205	8101
586.237	8302
586.277	8813
586.292	8895
586.346	9105
586.349	9142
586.401	9972
586.421	9972
586.455	9641
586.493	9921
586.509	10341
586.564	10309
586.565	10327
586.618	10826
586.637	11010
586.672	11628
586.709	12340
586.727	12549
586.781	12478
586.781	12482
586.835	12657
586.853	12689
586.889	12666
586.925	12441
586.944	12511
586.996	13091
586.998	13114
587.052	14052
587.068	14158
587.106	14764
587.140	15559
587.161	15768
587.212	16225
587.215	16281
587.269	17443
587.284	17534
587.323	17791
587.356	18703
587.377	19286
587.427	20296
587.431	20410
587.485	21943
587.499	22273
587.539	23323
587.571	24187
587.593	24972
587.643	27384
587.648	27654
587.702	29925
587.715	30536
587.755	31952
587.786	33368
587.810	35136
587.858	38592
587.864	39029
587.917	43795
587.930	44749
587.971	48816
588.001	52194
588.025	55202
588.073	61850
588.079	62947
588.133	72722
588.145	75170
588.187	84706
588.217	91386
588.241	98311
588.288	113457
588.295	115865
588.348	137367
588.360	142064
588.402	162457
588.431	178501
588.456	194527
588.503	226869
588.510	232536
588.564	282587
588.575	294034
588.617	347851
588.646	389100
588.671	441456
588.718	554871
588.725	583293
588.778	828417
588.789	886685
588.832	1295028
588.861	1595609
588.886	1929514
588.932	2505024
588.939	2522107
588.993	2473842
589.004	2474988
589.047	2101130
589.075	1760777
589.100	1462545
589.147	907517
589.154	869714
589.207	635411
589.218	594153
589.261	542540
589.290	518881
589.314	536086
589.361	587928
589.368	614321
589.421	861064
589.433	921861
589.475	1397586
589.504	1748115
589.528	2003969
589.576	2391177
589.582	2339490
589.635	1796044
589.647	1654161
589.689	1065990
589.718	667039
589.742	539409
589.790	327356
589.795	315518
589.849	224033
589.861	204567
589.902	168046
589.932	143702
589.955	132121
590.004	109961
590.009	108286
590.062	91512
590.075	87625
590.115	79343
590.146	73365
590.168	69961
590.218	62212
590.222	61644
590.275	54758
590.289	52856
590.328	49680
590.360	47469
590.381	46139
590.431	42570
590.435	42366
590.488	38894
590.503	37867
590.541	35752
590.574	34041
590.594	33206
590.645	30940
590.647	30912
590.700	29598
590.716	29178
590.753	27704
590.787	26423
590.806	25931
590.859	24446
590.859	24454
590.912	23630
590.930	23409
590.965	23280
591.001	23123
591.018	22607
591.071	20806
591.072	20764
591.124	20354
591.143	20127
591.177	18950
591.214	17761
591.230	18011
591.283	18738
591.285	18742
591.336	17166
591.356	16425
591.389	16699
591.427	17081
591.442	16894
591.495	16050
591.498	15961
591.547	15849
591.569	15841
591.600	15434
591.640	14707
591.653	14669
591.706	14445
591.711	14407
591.759	14332
591.782	14188
591.811	13788
591.853	13268
591.864	13295
591.917	13215
591.924	13193
591.969	13299
591.995	13270
592.022	13286
592.066	13352
592.075	13355
592.127	13140
592.137	13080
592.180	12404
592.208	11930
592.233	11745
592.279	11332
592.285	11438
592.338	12177
592.350	12327
592.390	12080
592.421	11854
592.443	11983
592.491	12213
592.495	12186
592.548	11554
592.562	11370
592.600	10954
592.633	10557
592.653	10581
592.704	10564
592.705	10630
592.775	10887
592.846	10710
592.916	9765
592.987	10614
593.058	10032
593.128	9920
593.199	10195
593.270	9400
593.341	9962
593.411	8860
593.482	9180
593.553	10395
593.623	9696
593.694	8933
593.764	9203
593.835	9396
593.906	9399
593.976	9748
594.047	9337
594.117	9483
594.188	9357
594.258	9440
594.329	9286
594.399	10106
594.470	9689
594.540	9565
594.611	9737
594.681	9001
594.751	9480
594.822	12516
594.892	12427
594.963	10847
595.033	10363
595.103	9719
595.174	9923
595.244	10315
595.314	9975
595.384	9590
595.455	9513
595.525	11081
595.595	10022
595.665	9926
595.736	10482
595.806	10109
595.876	9962
595.946	9927
596.016	9850
596.087	9627
596.157	10196
596.227	10094
596.297	10002
596.367	10785
596.437	11363
596.507	12407
596.577	11688
596.647	11678
596.717	12037
596.787	12150
596.857	12519
596.927	11309
596.997	12541
597.067	13824
597.137	17163
597.207	14079
597.277	12354
597.347	12109
597.417	11311
597.487	11631
597.557	11694
597.626	11843
597.696	11430
597.766	12458
597.836	12494
597.906	11667
597.975	11322
598.045	10725
598.115	10492
598.185	11547
598.254	12489
598.324	13618
598.394	13454
598.464	13138
598.533	12782
598.603	13119
598.672	12433
598.742	11850
598.812	12521
598.881	12110
598.951	12767
599.020	12505
599.090	13372
599.159	14316
599.229	12164
599.299	12662
599.368	12778
599.437	12091
599.507	11657
599.576	12565
599.646	14672
599.715	16191
599.785	11157
599.854	11394
599.924	10760
599.993	10379
600.062	9765
600.132	10729
600.201	11218
600.270	12572
600.340	14045
600.409	13159
600.478	12732
600.547	12850
600.617	12217
600.686	10237
600.755	9620
600.824	9230
600.894	9579
600.963	8863
601.032	8954
601.101	8141
601.170	8342
601.239	7964
601.308	8263
601.378	8830
601.447	8178
601.516	7442
601.585	8248
601.654	8439
601.723	8264
601.792	9285
601.861	10443
601.930	15275
601.999	9437
602.068	8611
602.137	8141
602.206	8189
602.275	8719
602.343	8505
602.412	9479
602.481	9621
602.550	8091
602.619	9818
602.688	9434
602.756	9584
602.825	8991
602.894	10216
602.963	10119
603.032	9469
603.100	9789
603.169	9917
603.238	9303
603.307	9751
603.375	10463
603.444	10587
603.513	10257
603.581	10674
603.650	10297
603.719	10016
603.787	9993
603.856	10742
603.924	10845
603.993	11850
604.061	11851
604.130	12401
604.198	13294
604.267	12185
604.335	13066
604.404	12470
604.472	12536
604.541	13816
604.609	13474
604.678	13228
604.746	13557
604.815	13332
604.883	12785
604.951	14780
605.020	14045
605.088	15071
605.156	13977
605.225	14499
605.293	14652
605.361	15157
605.429	15800
605.498	15281
605.566	16142
605.634	16198
605.702	17055
605.771	17348
605.839	17268
605.907	16752
605.975	16396
606.043	16714
606.111	16481
606.180	18302
606.248	23340
606.316	25086
606.384	15766
606.452	16457
606.520	16080
606.588	15990
606.656	16850
606.724	16542
606.792	16252
606.860	14570
606.928	12358
606.996	12567
607.064	12448
607.132	12222
607.200	13099
607.267	14196
607.335	13721
607.403	15599
607.471	13727
607.539	14372
607.607	13856
607.674	12316
607.742	11871
607.810	11847
607.878	12389
607.946	12597
608.013	12839
608.081	12792
608.149	13800
608.216	13566
608.284	13585
608.352	13188
608.419	12217
608.487	13585
608.555	12613
608.622	14122
608.690	14467
608.757	15532
608.825	15976
608.893	16254
608.960	14754
609.028	14093
609.095	14832
609.163	13773
609.230	13008
609.298	13121
609.365	12850
609.432	13446
609.500	14051
609.567	17281
609.635	19150
609.702	19675
609.769	18860
609.837	15588
609.904	13464
609.971	13558
610.039	18142
610.106	23289
610.173	43563
610.241	103919
610.308	56333
610.375	18541
610.442	14045
610.509	13973
610.577	13819
610.644	14219
610.711	14186
610.778	15365
610.845	15052
610.912	17274
610.980	21385
611.047	33051
611.114	23463
611.181	15724
611.248	14778
611.315	17524
611.382	16308
611.449	17270
611.516	18343
611.583	16751
611.650	17866
611.717	17757
611.784	19135
611.851	21406
611.918	22981
611.984	29534
612.051	47237
612.118	99642
612.185	257854
612.252	151454
612.319	31220
612.386	24492
612.452	21501
612.519	20145
612.586	19626
612.653	19705
612.719	20066
612.786	19549
612.853	17897
612.919	17508
612.986	18940
613.053	17403
613.120	16033
613.186	14952
613.253	17073
613.319	15714
613.386	16559
613.453	16327
613.519	15930
613.586	16481
613.652	17543
613.719	17243
613.785	18397
613.852	21440
613.918	25042
613.985	39093
614.051	82649
614.118	225734
614.184	218668
614.250	35171
614.317	21665
614.383	19472
614.449	18894
614.516	17832
614.582	17708
614.648	17292
614.715	16999
614.781	15761
614.847	15576
614.914	15522
614.980	15199
615.046	15994
615.112	16385
615.179	17729
615.245	20453
615.311	24185
615.377	38296
615.443	40262
615.509	24980
615.575	21270
615.642	20358
615.708	22622
615.774	24186
615.840	28552
615.906	36156
615.972	55851
616.038	105375
616.104	173030
616.170	357100
616.236	287577
616.302	53539
616.368	34345
616.434	23171
616.500	23374
616.565	24488
616.631	30320
616.697	24542
616.763	25800
616.829	38762
616.895	67003
616.961	61322
617.026	25708
617.092	17361
617.158	16222
617.224	16735
617.289	15286
617.355	14259
617.421	12335
617.487	14026
617.552	13102
617.618	12034
617.684	11894
617.749	14986
617.815	12539
617.880	12371
617.946	12235
618.012	11904
618.077	13121
618.143	12785
618.208	11842
618.274	12923
618.339	12841
618.405	9739
618.470	11410
618.536	10021
618.601	11006
618.667	9470
618.732	10069
618.798	8918
618.863	8724
618.928	8793
618.994	9835
619.059	9678
619.124	9730
619.190	9443
619.255	8675
619.320	8760
619.386	8979
619.451	8958
619.516	9678
619.581	8845
619.647	8420
619.712	8661
619.777	8430
619.842	8316
619.907	8549
619.972	8829
620.038	9033
620.103	8441
620.168	8138
620.233	8285
620.298	8706
620.363	8361
620.428	9791
620.493	9595
620.558	9201
620.623	9307
620.688	9349
620.753	9021
620.818	9096
620.883	10216
620.948	9690
621.013	8723
621.078	9570
621.143	8160
621.207	10187
621.272	8999
621.337	9958
621.402	8592
621.467	9207
621.532	8849
621.596	9149
621.661	8527
621.726	8955
621.791	8686
621.855	8932
621.920	8184
621.985	8032
622.049	8977
622.114	8846
622.179	9281
622.243	9447
622.308	9224
622.373	11159
622.437	9526
622.502	8036
622.566	8997
622.631	8144
622.695	10154
622.760	9400
622.824	9710
622.889	9090
622.953	8546
623.018	10185
623.082	10291
623.147	10628
623.211	9890
623.276	10317
623.340	8396
623.404	9078
623.469	9046
623.533	9100
623.597	8056
623.662	8712
623.726	7495
623.790	7480
623.854	6806
623.919	7774
623.983	6725
624.047	8110
624.111	8377
624.176	7407
624.240	7867
624.304	9150
624.368	7881
624.432	8569
624.496	8572
624.560	9468
624.625	8034
624.689	10160
624.753	8913
624.817	8898
624.881	8032
624.945	7676
625.009	7181
625.073	8162
625.137	6944
625.201	7548
625.265	8371
625.329	8129
625.393	7770
625.456	8490
625.520	8552
625.584	7716
625.648	8484
625.712	8187
625.776	8569
625.839	8648
625.903	7103
625.967	5709
626.031	8594
626.095	8984
626.158	7536
626.222	5620
626.286	6745
626.349	4111
626.413	3934
626.477	5946
626.540	4763
626.604	4409
626.668	5786
626.731	4811
626.795	4625
626.858	5163
626.922	4064
626.986	5708
627.049	3333
627.113	4715
627.176	4848
627.240	4826
627.303	4287
627.366	4166
627.430	4499
627.493	5117
627.557	4216
627.620	6082
627.684	4892
627.747	4085
627.810	2671
627.874	4235
627.937	2693
628.000	5575
628.064	4685
628.127	1976
628.190	4159
628.253	3687
628.317	3454
628.380	3777
628.443	2513
628.506	2979
628.569	2459
628.632	2931
628.696	2853
628.759	2806
628.822	1952
628.885	3408
628.948	2207
629.011	2297
629.074	2484
629.137	2051
629.200	1090
629.263	3289
629.326	1175
629.389	2302
629.452	2667
629.515	2461
629.578	2409
629.641	2086
629.704	2107
629.767	1828
629.830	1933
629.892	2581
629.955	2049
630.018	3558
630.081	1027
630.144	2321
630.207	1248
630.269	3195
630.332	1416
630.395	2781
630.458	2689
630.520	1908
630.583	2234
630.646	2379
630.708	1363
630.771	2090
630.834	2379
630.896	1316
630.959	1792
631.021	1411
631.084	1503
631.146	2651
631.209	1728
631.272	1288
631.334	2450
631.397	2359
631.459	2445
631.522	2930
631.584	2655
631.646	2922
631.709	2082
631.771	2993
631.834	2031
631.896	3128
631.958	1998
632.021	2572
632.083	1470
632.145	2248
632.208	2111
632.270	3043
632.332	1137
632.395	1564
632.457	2200
632.519	1725
632.581	3088
632.643	1527
632.706	1946
632.768	1817
632.830	2710
632.892	2110
632.954	849
633.016	2557
633.078	1657
633.141	1854
633.203	1740
633.265	2438
633.327	1782
633.389	1371
633.451	2823
633.513	982
633.575	2624
633.637	835
633.698	2216
633.760	1735
633.822	1956
633.884	1892
633.946	2181
634.008	3519
634.070	3738
634.132	6799
634.193	5258
634.255	4534
634.317	3431
634.379	4687
634.441	3804
634.502	4231
634.564	6278
634.626	10427
634.687	13701
634.749	6313
634.811	3240
634.873	2686
634.934	2746
634.996	2976
635.057	2233
635.119	2263
635.181	2738
635.242	2968
635.304	335
635.365	4193
635.427	1805
635.488	2016
635.550	1426
635.611	2792
635.673	897
635.734	2533
635.796	1453
635.857	4190
635.918	1848
635.980	3917
636.041	2175
636.102	4285
636.164	3414
636.225	4219
636.286	1732
636.348	2704
636.409	2568
636.470	1331
636.531	2041
636.593	1523
636.654	2953
636.715	2383
636.776	1342
636.838	1417
636.899	2654
636.960	2573
637.021	4310
637.082	6821
637.143	5772
637.204	1905
637.265	1250
637.326	2140
637.387	2318
637.448	913
637.509	2662
637.570	2112
637.631	2270
637.692	1074
637.753	1114
637.814	1951
637.875	822
637.936	2077
637.997	965
638.058	1738
638.119	1720
638.179	1376
638.240	850
638.301	1991
638.362	202
638.423	729
638.483	2396
638.544	27
638.605	1302
638.666	1732
638.726	1860
638.787	1501
638.848	721
638.908	1828
638.969	1864
639.030	1496
639.090	9
639.151	813
639.211	2117
639.272	997
639.332	1461
639.393	2248
639.453	60
639.514	1621
639.574	1835
639.635	953
639.695	1861
639.756	121
639.816	1542
639.877	1055
639.937	1772
639.997	1946
640.058	114
640.118	529
640.178	2458
640.239	704
640.299	604
640.359	1311
640.420	1956
640.480	1617
640.540	1834
640.600	1682
640.661	2287
640.721	1503
640.781	4414
640.841	3240
640.901	2494
640.961	2343
641.021	2155
641.082	1110
641.142	1368
641.202	2576
641.262	-942
641.322	2124
641.382	-50
641.442	1553
641.502	681
641.562	970
641.622	40
641.682	2047
641.742	1139
641.802	2319
641.861	1662
641.921	820
641.981	1095
642.041	1331
642.101	1379
642.161	-403
642.221	936
642.280	613
642.340	1476
642.400	832
642.460	1656
642.519	1199
642.579	703
642.639	1248
642.698	-1401
642.758	3255
642.818	1696
642.877	434
642.937	772
642.997	1248
643.056	890
643.116	101
643.175	3538
643.235	1267
643.294	741
643.354	2475
643.414	2506
643.473	4418
643.532	4016
643.592	7610
643.651	13912
643.711	24798
643.770	47178
643.830	108589
643.889	250684
643.948	63190
644.008	7695
644.067	4102
644.126	2701
644.186	3311
644.245	3384
644.304	480
644.363	3455
644.423	859
644.482	1129
644.541	2337
644.600	-37
644.659	3131
644.719	2726
644.778	4819
644.837	7554
644.896	17402
644.955	41575
645.014	16180
645.073	5999
645.132	1893
645.191	1581
645.250	1672
645.309	2793
645.368	1748
645.427	2976
645.486	4258
645.545	8583
645.604	2645
645.663	2647
645.722	1449
645.781	3460
645.840	3474
645.898	4787
645.957	7450
646.016	10360
646.075	20474
646.134	38460
646.192	101848
646.251	164707
646.310	24556
646.369	5014
646.427	3704
646.486	1484
646.545	2059
646.603	2245
646.662	2057
646.721	1729
646.779	1087
646.838	124
646.896	2659
646.955	3190
647.014	5056
647.072	7958
647.131	24595
647.189	12565
647.248	1358
647.306	1979
647.365	2329
647.423	-433
647.481	2626
647.540	86
647.598	1180
647.657	1157
647.715	1653
647.773	-505
647.832	1581
647.890	-754
647.948	913
648.007	1449
648.065	162
648.123	980
648.181	3514
648.240	5638
648.298	4566
648.356	1714
648.414	2051
648.472	1830
648.531	2962
648.589	1315
648.647	1968
648.705	1390
648.763	1349
648.821	1332
648.879	1521
648.937	2444
648.995	2639
649.053	2876
649.111	5858
649.169	8666
649.227	14748
649.285	28985
649.343	81888
649.401	47286
649.459	12865
649.516	17839
649.574	30128
649.632	86711
649.690	112385
649.748	20099
649.806	13808
649.863	24179
649.921	20104
649.979	12823
650.037	2554
650.094	-33
650.152	1353
650.210	702
650.268	2197
650.325	2168
650.383	2446
650.440	348
650.498	1338
650.556	264
650.613	602
650.671	1335
650.728	216
650.786	218
650.843	1012
650.901	-821
650.958	760
651.016	550
651.073	711
651.131	31
651.188	-345
651.246	-82
651.303	-217
651.360	250
651.418	-108
651.475	413
651.532	-324
651.590	506
651.647	-418
651.704	186
651.762	-124
651.819	697
651.876	-40
651.933	-374
651.990	1156
652.048	-1575
652.105	-799
652.162	634
652.219	472
652.276	1021
652.333	980
652.390	-886
652.448	333
652.505	0
652.562	1286
652.619	1694
652.676	5960
652.733	8149
652.790	638
652.847	-1033
652.904	619
652.961	-163
653.017	-852
653.074	136
653.131	90
653.188	-539
653.245	29
653.302	-146
653.359	-225
653.415	547
653.472	-39
653.529	1441
653.586	-1002
653.642	-553
653.699	492
653.756	-1251
653.813	84
653.869	376
653.926	-210
653.983	-816
654.039	922
654.096	12
654.152	1230
654.209	-832
654.266	323
654.322	-1560
654.379	-343
654.435	1276
654.492	-141
654.548	83
654.605	-428
654.661	1335
654.717	535
654.774	411
654.830	455
654.887	501
654.943	429
655.000	688
655.056	1883
655.112	239
655.168	221
655.225	301
655.281	468
655.337	1197
655.394	310
655.450	1557
655.506	1027
655.562	955
655.618	3243
655.675	1342
655.731	3145
655.787	2719
655.843	4524
655.899	4343
655.955	6332
656.011	6760
656.067	7564
656.123	10591
656.179	11064
656.235	14016
656.291	10994
656.347	11711
656.403	8665
656.459	7375
656.515	4755
656.571	4099
656.627	3927
656.683	2790
656.739	3520
656.795	1326
656.850	2680
656.906	2540
656.962	2780
657.018	-373
657.074	848
657.129	995
657.185	1465
657.241	1563
657.297	1379
657.352	512
657.408	774
657.464	759
657.519	-621
657.575	-88
657.630	115
657.686	28
657.742	-554
657.797	385
657.853	-32
657.908	212
657.964	-919
658.019	422
658.075	-98
658.130	245
658.186	84
658.241	-138
658.297	108
658.352	132
658.407	228
658.463	-674
658.518	216
658.573	-554
658.629	-569
658.684	761
658.739	667
658.795	-405
658.850	240
658.905	-1442
658.960	96
659.016	-67
659.071	-558
659.126	-81
659.181	-234
659.236	301
659.291	1546
659.346	203
659.401	988
659.457	2735
659.512	4501
659.567	2533
659.622	-24
659.677	-905
659.732	-1334
659.787	-671
659.842	-591
659.897	-116
659.952	-407
660.007	-35
660.061	-375
660.116	-972
660.171	-459
660.226	578
660.281	764
660.336	-762
660.391	229
660.445	-836
660.500	3
660.555	-280
660.610	-351
660.664	44
660.719	-244
660.774	-16
660.828	301
660.883	-621
660.938	423
660.992	-1622
661.047	544
661.101	241
661.156	-1222
661.211	-785
661.265	43
661.320	-466
661.374	-296
661.429	-418
661.483	210
661.538	-930
661.592	-529
661.647	-149
661.701	849
661.755	-56
661.810	-57
661.864	-1076
661.919	-1456
661.973	-434
662.027	-1033
662.081	-1080
662.136	-365
662.190	-456
662.244	381
662.299	-1473
662.353	-592
662.407	-956
662.461	-906
662.515	-829
662.569	-1417
662.624	156
662.678	-502
662.732	-931
662.786	-659
662.840	-102
662.894	-413
662.948	-346
663.002	-486
663.056	-652
663.110	-608
663.164	-548
663.218	-533
663.272	-1003
663.326	-1
663.380	-728
663.434	-615
663.488	-623
663.542	-230
663.595	-850
663.649	-929
663.703	-444
663.757	-1235
663.811	-1313
663.864	-751
663.918	-291
663.972	-335
664.026	-167
664.079	-1346
664.133	104
664.187	-216
664.240	-1300
664.294	752
664.348	-251
664.401	-357
664.455	120
664.508	-791
664.562	278
664.615	-316
664.669	-691
664.722	-318
664.776	-520
664.829	542
664.883	-591
664.936	-745
664.990	-863
665.043	-291
665.097	-543
665.150	94
665.203	-1577
665.257	-499
665.310	64
665.363	-657
665.417	-317
665.470	-342
665.523	-816
665.576	-451
665.630	-833
665.683	-118
665.736	-192
665.789	-448
665.842	-841
665.895	-72
665.949	-185
666.002	-889
666.055	-880
666.108	69
666.161	-430
666.214	-510
666.267	-339
666.320	-133
666.373	-601
666.426	-978
666.479	-477
666.532	-966
666.585	-841
666.638	-58
666.691	-832
666.744	-488
666.796	-344
666.849	-754
666.902	-842
666.955	-329
667.008	-1466
667.060	-426
667.113	-944
667.166	-1270
667.219	427
667.271	-470
667.324	154
667.377	388
667.430	-309
667.482	1615
667.535	610
667.587	-557
667.640	-325
667.693	-673
667.745	-932
667.798	-359
667.850	-35
667.903	-603
667.955	-1151
668.008	-1162
668.060	-835
668.113	-919
668.165	-591
668.218	-976
668.270	-730
668.322	-334
668.375	-1410
668.427	-598
668.479	-947
668.532	-653
668.584	-968
668.636	-935
668.689	-435
668.741	-608
668.793	-725
668.845	-1193
668.898	-602
668.950	-102
669.002	-783
669.054	-499
669.106	-839
669.158	277
669.211	-305
669.263	-108
669.315	826
669.367	2023
669.419	130
669.471	1053
669.523	1461
669.575	2702
669.627	1404
669.679	25
669.731	-455
669.783	-168
669.835	1161
669.886	802
669.938	-407
669.990	264
670.042	-1417
670.094	-731
670.146	-509
670.197	15
670.249	230
670.301	-208
670.353	139
670.404	911
670.456	760
670.508	2440
670.560	4131
670.611	6465
670.663	10471
670.715	27390
670.766	49740
670.818	17932
670.869	1242
670.921	442
670.972	339
671.024	-89
671.075	-830
671.127	383
671.178	-1076
671.230	154
671.281	-180
671.333	-272
671.384	-80
671.436	613
671.487	473
671.538	273
671.590	1525
671.641	3261
671.692	5225
671.744	12539
671.795	9180
671.846	2297
671.897	964
671.949	133
672.000	107
672.051	-708
672.102	-98
672.153	-139
672.204	-1133
672.256	94
672.307	38
672.358	-128
672.409	-566
672.460	-108
672.511	-1045
672.562	-719
672.613	-1628
672.664	-639
672.715	-943
672.766	-650
672.817	-919
672.868	-822
672.919	-1538
672.970	-200
673.021	-1442
673.071	-1875
673.122	-699
673.173	-596
673.224	-904
673.275	-1052
673.326	-512
673.376	-360
673.427	-1420
673.478	-509
673.528	-511
673.579	-1136
673.630	-1356
673.680	-37
673.731	-321
673.782	-808
673.832	-1943
673.883	-422
673.934	-961
673.984	-567
674.035	-2175
674.085	-645
674.136	-377
674.186	-693
674.237	-894
674.287	-1156
674.338	-466
674.388	-677
674.438	-1481
674.489	-1350
674.539	-1295
674.589	-259
674.640	-898
674.690	-634
674.740	-1292
674.791	-614
674.841	-1582
674.891	-512
674.942	-979
674.992	-1371
675.042	-1234
675.092	-904
675.142	-1150
675.193	-538
675.243	-1623
675.293	-1028
675.343	-1528
675.393	-1419
675.443	-762
675.493	-1155
675.543	-698
675.593	-882
675.643	-335
675.693	-768
675.743	-1549
675.793	165
675.843	-570
675.893	-904
675.943	-191
675.993	-1230
676.043	-962
676.093	-1187
676.142	-799
676.192	-595
676.242	-1440
676.292	-442
676.341	-1056
676.391	-1094
676.441	-1745
676.491	-1720
676.540	-1515
676.590	-1249
676.640	-1586
676.689	-532
676.739	-719
676.789	-550
676.838	-1490
676.888	-866
676.937	-1339
676.987	-981
677.037	-1421
677.086	-746
677.136	-1201
677.185	-928
677.235	-1830
677.284	-509
677.333	-962
677.383	-869
677.432	-2142
677.482	-544
677.531	-578
677.580	-1014
677.630	-564
677.679	-1460
677.728	-655
677.778	163
677.827	-1201
677.876	-834
677.925	-1047
677.975	-715
678.024	-1384
678.073	-1451
678.122	-1356
678.171	-1367
678.220	-857
678.269	-1555
678.319	-1175
678.368	-1012
678.417	-1215
678.466	-935
678.515	-1378
678.564	-1054
678.613	-1070
678.662	-1494
678.711	-1391
678.760	-960
678.809	-1662
678.857	-611
678.906	-1034
678.955	-1469
679.004	-1057
679.053	-404
679.102	-209
679.151	-1012
679.199	-1630
679.248	-1481
679.297	-1307
679.346	-965
679.394	-2477
679.443	-1205
679.492	-1049
679.540	-1442
679.589	-1005
679.638	-375
679.686	-916
679.735	-712
679.784	-1268
679.832	-1334
679.881	-1489
679.929	-1290
679.978	-1469
680.026	-1029
680.075	-1405
680.123	-1054
680.172	-1777
680.220	-981
680.268	-947
680.317	-796
680.365	-1066
680.414	-915
680.462	-1263
680.510	-660
680.559	-1207
680.607	-1175
680.655	-1351
680.703	-1524
680.752	-639
680.800	-1361
680.848	-1194
680.896	-1252
680.945	-330
680.993	-908
681.041	-1734
681.089	-470
681.137	-1040
681.185	-991
681.233	-1035
681.258	-981
681.281	-937
681.329	-880
681.377	-2455
681.380	-2376
681.425	-1010
681.473	-1025
681.502	-1505
681.521	-1857
681.569	-1285
681.617	-1470
681.624	-1374
681.665	-768
681.713	-1808
681.745	-1092
681.761	-771
681.809	-1487
681.857	-248
681.867	-563
681.904	-1652
681.952	-690
681.989	-875
682.000	-942
682.048	-1212
682.096	-1482
682.111	-1410
682.143	-1252
682.191	-856
682.233	-793
682.239	-794
682.286	-848
682.334	-887
682.354	-1000
682.382	-1141
682.430	-1424
682.476	-812
682.477	-804
682.525	-1060
682.572	-1225
682.598	-1187
682.620	-1146
682.667	-709
682.715	-740
682.720	-790
682.763	-1376
682.810	-761
682.841	-757
682.857	-749
682.905	-770
682.952	-519
682.963	-543
683.000	-689
683.047	-1281
683.085	-326
683.095	-62
683.142	-787
683.190	-1272
683.206	-1164
683.237	-1017
683.284	-670
683.328	-1203
683.332	-1246
683.379	-1100
683.426	-1443
683.449	-922
683.473	-407
683.521	-975
683.568	-319
683.571	-373
683.615	-1165
683.662	-256
683.693	-597
683.709	-815
683.757	-493
683.804	-925
683.814	-995
683.851	-1169
683.898	-498
683.936	-69
683.945	20
683.992	-499
684.039	-607
684.057	-528
684.086	-408
684.133	-524
684.179	155
684.180	174
684.227	-116
684.274	118
684.300	-342
684.321	-710
684.368	-566
684.415	-79
684.422	-146
684.462	-583
684.509	-622
684.543	-500
684.556	-442
684.603	-304
684.649	-1086
684.665	-762
684.696	-141
684.743	-329
684.786	-285
684.790	-274
684.837	-814
684.883	189
684.908	-3
684.930	-295
684.977	-594
685.023	-678
685.029	-682
685.070	-660
685.117	-783
685.150	-898
685.164	-932
685.210	-1097
685.257	110
685.272	-4
685.303	-275
685.350	-399
685.393	-831
685.396	-872
685.443	-508
685.490	-308
685.514	-264
685.536	-149
685.583	-645
685.629	-207
685.636	-181
685.675	-215
685.722	-112
685.757	-381
685.768	-441
685.815	-319
685.861	692
685.878	501
685.908	170
685.954	-289
686.000	-238
686.000	-239
686.047	297
686.093	206
686.121	252
686.139	246
686.185	-170
686.232	-591
686.242	-510
686.278	-30
686.324	229
686.363	-20
686.370	-99
686.416	-190
686.463	174
686.484	285
686.509	527
686.555	689
686.601	768
686.606	815
686.647	870
686.693	482
686.727	64
686.739	-26
686.785	261
686.831	630
686.848	432
686.877	35
686.923	310
686.969	-537
686.969	-541
687.015	-233
687.061	-369
687.090	-19
687.107	163
687.153	-15
687.199	409
687.211	303
687.245	47
687.291	630
687.332	-57
687.336	-120
687.382	83
687.428	64
687.453	470
687.474	830
687.520	549
687.565	906
687.574	864
687.611	519
687.657	464
687.695	886
687.702	1061
687.748	1455
687.794	2824
687.816	2928
687.839	2442
687.885	1070
687.931	225
687.937	119
687.976	197
688.022	553
688.058	892
688.067	933
688.113	392
688.158	748
688.179	871
688.204	1009
688.249	473
688.295	661
688.300	663
688.340	686
688.386	388
688.421	400
688.431	457
688.477	447
688.522	854
688.542	1251
688.567	1571
688.613	323
688.658	504
688.663	493
688.703	612
688.749	996
688.784	947
688.794	901
688.839	518
688.884	647
688.905	592
688.930	627
688.975	912
689.020	914
689.026	939
689.065	972
689.110	356
689.146	405
689.155	463
689.201	1382
689.246	947
689.267	1049
689.291	1018
689.336	886
689.381	805
689.388	780
689.426	820
689.471	892
689.509	1105
689.516	1143
689.561	1323
689.606	837
689.630	739
689.651	660
689.696	606
689.741	1297
689.750	1290
689.785	1185
689.830	857
689.871	962
689.875	994
689.920	899
689.965	935
689.992	1175
690.010	1248
690.054	906
690.099	1072
690.112	976
690.144	810
690.189	841
690.233	614
690.233	617
690.278	817
690.323	1242
690.354	1097
690.367	1028
690.412	971
690.457	1703
690.474	1572
690.501	1248
690.546	1131
690.590	1006
690.595	967
690.635	1033
690.680	1516
690.716	1851
690.724	1873
690.769	1432
690.813	2057
690.836	1859
690.857	2119
690.902	3234
690.946	4198
690.957	4471
690.991	5831
691.035	7639
691.077	9591
691.080	9605
691.124	8194
691.168	7284
691.198	6657
691.213	6049
691.257	4721
691.301	2789
691.318	2313
691.346	2447
691.390	1899
691.434	1881
691.439	1838
691.478	1510
691.522	1730
691.559	1362
691.567	1363
691.611	2004
691.655	1813
691.680	1969
691.699	1904
691.743	1689
691.787	1807
691.800	1595
691.831	1283
691.875	1484
691.919	1438
691.921	1434
691.964	1641
692.008	2075
692.041	1902
692.052	1830
692.096	1868
692.139	2447
692.162	2226
692.183	1801
692.227	1497
692.271	903
692.282	826
692.315	1230
692.359	1603
692.402	2159
692.403	2168
692.447	1850
692.490	2418
692.523	2499
692.534	2505
692.578	2535
692.622	2290
692.643	2409
692.666	2383
692.709	2094
692.753	1469
692.763	1431
692.797	1857
692.840	2281
692.884	2519
692.884	2526
692.928	2498
692.971	2346
693.004	2467
693.015	2499
693.059	2571
693.102	2349
693.124	2293
693.146	2297
693.189	2308
693.233	2426
693.245	2368
693.276	2313
693.320	2494
693.363	2479
693.365	2476
693.407	2581
693.450	2712
693.485	2690
693.493	2871
693.537	4059
693.580	4703
693.605	5381
693.624	5913
693.667	7149
693.710	8093
693.725	8533
693.753	11630
693.797	16562
693.840	21970
693.845	22409
693.883	19871
693.926	16768
693.966	14394
693.970	14090
694.013	10674
694.056	7579
694.086	5232
694.099	5011
694.142	4433
694.185	3841
694.206	3515
694.229	3488
694.272	3356
694.315	3546
694.326	3483
694.358	3081
694.401	2724
694.444	2335
694.446	2304
694.487	2500
694.530	2978
694.566	3205
694.573	3184
694.616	2830
694.659	2614
694.686	2511
694.702	2596
694.745	2755
694.787	2688
694.806	2787
694.830	2721
694.873	2469
694.916	2207
694.926	2140
694.959	2260
695.002	2551
695.044	2583
695.046	2586
695.087	2789
695.130	2569
695.166	2632
695.172	2662
695.215	2677
695.258	2922
695.286	2919
695.301	2896
695.343	2902
695.386	2916
695.406	2777
695.428	2727
695.471	2971
695.514	3095
695.526	3095
695.556	2950
695.599	2940
695.641	2706
695.646	2673
695.684	2666
695.726	2818
695.766	2815
695.769	2815
695.811	2688
695.854	2560
695.886	2537
695.896	2611
695.938	2761
695.981	2781
696.005	2932
696.023	2911
696.065	2610
696.108	2600
696.125	2483
696.150	2488
696.192	2518
696.235	2532
696.245	2533
696.277	2636
696.319	2695
696.361	3027
696.365	3013
696.404	3109
696.446	3375
696.485	3619
696.488	3638
696.530	3804
696.572	3782
696.604	3806
696.614	3812
696.656	3817
696.698	3816
696.724	3726
696.740	3614
696.783	3439
696.825	3151
696.844	3053
696.867	3059
696.909	2968
696.951	2931
696.964	2886
696.992	2862
697.034	2909
697.076	2793
697.083	2790
697.118	2964
697.160	3120
697.202	3202
697.203	3192
697.244	2903
697.286	2682
697.323	2504
697.327	2549
697.369	2709
697.411	2963
697.442	3204
697.453	3244
697.494	3191
697.536	3285
697.562	3249
697.578	3359
697.620	3772
697.661	4034
697.682	4200
697.703	4097
697.744	3758
697.786	3638
697.801	3509
697.828	3567
697.869	3659
697.911	3773
697.921	3786
697.952	3610
697.994	3405
698.035	3154
698.040	3114
698.077	3277
698.118	3430
698.160	3608
698.160	3597
698.201	3545
698.243	3453
698.279	3453
698.284	3493
698.325	3667
698.367	3897
698.399	4019
698.408	3984
698.449	3776
698.491	3586
698.518	3450
698.532	3592
698.573	3954
698.614	4348
698.638	4542
698.656	4377
698.697	3978
698.738	3571
698.757	3367
698.779	3563
698.820	3913
698.862	4253
698.877	4368
698.903	4451
698.944	4568
698.985	4668
698.996	4684
699.026	4587
699.067	4437
699.116	4246
699.235	3900
699.354	4793
699.474	3169
699.593	4724
699.713	3677
699.832	4933
699.951	4505
700.070	5012
700.190	4734
700.309	5065
700.428	4871
700.547	4927
700.667	4636
700.786	4197
700.905	3808
701.024	4406
701.143	3703
701.262	4976
701.381	3590
701.500	5119
701.619	3115
701.738	4759
701.857	3598
701.976	4267
702.095	3797
702.214	4554
702.333	3542
702.452	4096
702.571	3549
702.690	4165
702.809	3089
702.928	4130
703.047	3697
703.165	4565
703.284	2887
703.403	4290
703.522	3345
703.640	4516
703.759	4000
703.878	3804
703.997	3794
704.115	5656
704.234	4109
704.353	3967
704.471	3661
704.590	3120
704.708	3410
704.827	3544
704.946	3117
705.064	3367
705.183	2795
705.301	3895
705.420	3491
705.538	4641
705.656	4184
705.775	7250
705.893	17785
706.012	21947
706.130	4328
706.249	4419
706.367	4104
706.485	4867
706.604	2550
706.722	4586
706.840	3325
706.958	7875
707.077	4289
707.195	3379
707.313	3129
707.431	3555
707.549	2719
707.668	3645
707.786	2917
707.904	3382
708.022	2420
708.140	3190
708.258	3361
708.376	3507
708.494	2842
708.612	3917
708.730	2594
708.848	3872
708.966	3385
709.084	3313
709.202	3379
709.320	3092
709.438	2538
709.556	3399
709.674	2553
709.791	3936
709.909	3160
710.027	3678
710.145	3030
710.263	3492
710.380	2204
710.498	3097
710.616	2461
710.733	2975
710.851	2501
710.969	3183
711.086	2878
711.204	3718
711.322	2585
711.439	3670
711.557	2790
711.674	4133
711.792	2603
711.909	5555
712.027	5511
712.144	3628
712.262	3177
712.379	3782
712.497	2555
712.614	2955
712.732	1686
712.849	3594
712.966	3148
713.084	2573
713.201	2619
713.318	2925
713.436	2028
713.553	2998
713.670	2611
713.787	3909
713.905	2684
714.022	3038
714.139	2264
714.256	4416
714.373	3967
714.490	7613
714.608	18514
714.725	78061
714.842	64498
714.959	5881
715.076	3255
715.193	3978
715.310	3172
715.427	3539
715.544	4549
715.661	7427
715.778	3279
715.895	2955
716.011	2191
716.128	3551
716.245	2574
716.362	3633
716.479	3228
716.596	4211
716.713	3453
716.829	4004
716.946	3739
717.063	2885
717.180	2860
717.296	2868
717.413	2601
717.530	3917
717.646	2344
717.763	3180
717.880	2679
717.996	2874
718.113	2565
718.229	3141
718.346	2674
718.462	2934
718.579	2206
718.695	4292
718.812	2039
718.928	3162
719.045	2385
719.161	2773
719.277	2510
719.394	3278
719.510	3244
719.626	3420
719.743	2824
719.859	3979
719.975	6724
720.092	20179
720.208	38144
720.324	6761
720.440	2994
720.557	3050
720.673	2589
720.789	3548
720.905	1992
721.021	3389
721.137	2527
721.253	3142
721.369	2501
721.486	2812
721.602	2185
721.718	2544
721.834	2338
721.950	3329
722.066	2213
722.181	2486
722.297	1882
722.413	3927
722.529	2290
722.645	3151
722.761	1717
722.877	3687
722.993	1917
723.108	3360
723.224	3264
723.340	2484
723.456	2784
723.571	3810
723.687	2091
723.803	3036
723.918	3108
724.034	2139
724.150	2119
724.265	2079
724.381	1844
724.497	2264
724.612	2289
724.728	2828
724.843	1521
724.959	3520
725.074	2744
725.190	3511
725.305	2208
725.421	2629
725.536	2104
725.651	3649
725.767	2887
725.882	2385
725.997	1740
726.113	3142
726.228	1781
726.343	3024
726.459	2600
726.574	2458
726.689	2191
726.804	1779
726.920	1213
727.035	2935
727.150	2320
727.265	1832
727.380	2231
727.495	3207
727.610	2692
727.725	3240
727.841	4930
727.956	13419
728.071	7409
728.186	2699
728.301	1686
728.416	2303
728.531	2411
728.645	2385
728.760	3620
728.875	4444
728.990	3422
729.105	3037
729.220	1741
729.335	2923
729.449	2219
729.564	2978
729.679	2173
729.794	2151
729.908	1274
730.023	2977
730.138	2192
730.253	2487
730.367	1505
730.482	2499
730.596	2539
730.711	3075
730.826	3311
730.940	3642
731.055	1300
731.169	2165
731.284	1513
731.398	2325
731.513	1937
731.627	2843
731.742	2315
731.856	2837
731.970	2192
732.085	2117
732.199	2282
732.313	3844
732.428	8422
732.542	22402
732.656	10427
732.771	3929
732.885	3038
732.999	2471
733.113	2428
733.227	3118
733.342	1012
733.456	2869
733.570	1877
733.684	3340
733.798	1433
733.912	2421
734.026	1702
734.140	2346
734.254	1636
734.368	2380
734.482	1953
734.596	2336
734.710	2291
734.824	2478
734.938	2481
735.052	2100
735.166	2025
735.280	3001
735.393	1592
735.507	2094
735.621	1107
735.735	2464
735.849	1765
735.962	3161
736.076	2105
736.190	2730
736.303	2020
736.417	3316
736.531	980
736.644	2145
736.758	1885
736.872	2596
736.985	2163
737.099	1756
737.212	1741
737.326	2823
737.439	1703
737.553	3629
737.666	1955
737.780	2704
737.893	2304
738.007	2375
738.120	1044
738.233	3034
738.347	2715
738.460	2656
738.573	1227
738.687	1957
738.800	2141
738.913	2339
739.026	2560
739.140	3775
739.253	2515
739.366	2598
739.479	1432
739.592	1909
739.705	1625
739.818	2274
739.932	2349
740.045	2244
740.158	1676
740.271	2977
740.384	2389
740.497	3028
740.610	3192
740.723	3550
740.836	2634
740.949	3320
741.062	2387
741.174	2864
741.287	2051
741.400	2904
741.513	3145
741.626	3928
741.739	2000
741.851	3088
741.964	2585
742.077	3186
742.189	5057
742.302	14494
742.415	9704
742.527	4441
742.640	1850
742.753	3204
742.865	1571
742.978	2392
743.090	1445
743.203	2331
743.316	1736
743.428	2390
743.541	1659
743.653	2556
743.766	2153
743.878	2729
743.990	4115
744.103	11669
744.215	23594
744.327	8197
744.440	2787
744.552	3092
744.664	1811
744.777	2683
744.889	854
745.001	1920
745.113	1142
745.226	2430
745.338	1264
745.450	1884
745.562	1821
745.674	2524
745.786	1286
745.898	2353
746.010	1622
746.122	1530
746.234	1493
746.347	2844
746.459	2641
746.570	5126
746.682	12495
746.794	36594
746.906	15758
747.018	3240
747.130	1762
747.242	2384
747.354	1284
747.466	2591
747.577	1775
747.689	2930
747.801	1822
747.913	2206
748.024	1297
748.136	2386
748.248	1534
748.359	2150
748.471	1052
748.583	1256
748.694	1720
748.806	3102
748.918	1037
749.029	2145
749.141	1817
749.252	1919
749.364	544
749.475	2273
749.587	854
749.698	1856
749.809	1090
749.921	2567
750.032	859
750.144	1110
750.255	1251
750.366	1137
750.478	663
750.589	1790
750.700	474
750.811	2023
750.923	2024
751.034	1238
751.145	670
751.256	1748
751.367	1401
751.479	1605
751.590	1175
751.701	1340
751.812	857
751.923	2134
752.034	1173
752.145	1482
752.256	565
752.367	1247
752.478	1133
752.589	1702
752.700	1302
752.811	2000
752.922	663
753.032	1705
753.143	781
753.254	828
753.365	1148
753.476	772
753.586	621
753.697	1880
753.808	1513
753.919	1479
754.029	1131
754.140	1999
754.251	1074
754.361	1431
754.472	1487
754.582	1559
754.693	1071
754.804	1750
754.914	745
755.025	1923
755.135	1139
755.246	1705
755.356	891
755.466	1941
755.577	1317
755.687	1081
755.798	711
755.908	2489
756.018	909
756.129	1692
756.239	1429
756.349	1258
756.460	401
756.570	1094
756.680	751
756.790	1420
756.900	1552
757.011	1207
757.121	1428
757.231	1901
757.341	1186
757.451	1116
757.561	725
757.671	1200
757.781	470
757.891	1942
758.001	646
758.111	1654
758.221	552
758.331	1558
758.441	1184
758.551	1795
758.661	1402
758.771	1501
758.880	703
758.990	1719
759.100	1761
759.210	943
759.320	1600
759.429	1404
759.539	1116
759.649	1143
759.758	1471
759.868	1750
759.978	382
760.087	2214
760.197	862
760.307	1233
760.416	854
760.526	1368
760.635	1120
760.745	1520
760.854	1382
760.964	2977
761.073	1582
761.182	2391
761.292	888
761.401	2585
761.511	1328
761.620	2046
761.729	671
761.839	1605
761.948	1339
762.057	605
762.166	1599
762.276	916
762.385	2733
762.494	2211
762.603	860
762.712	1915
762.822	934
762.931	1690
763.040	553
763.149	2082
763.258	1792
763.367	3065
763.476	2256
763.585	2707
763.694	1857
763.803	2351
763.912	2411
764.021	3182
764.130	2040
764.238	2997
764.347	2373
764.456	2908
764.565	2924
764.674	3581
764.783	2602
764.891	2930
765.000	4588
765.109	5408
765.217	3963
765.326	6164
765.435	6568
765.543	9510
765.652	10352
765.761	13662
765.869	20266
765.978	34143
766.086	59828
766.195	122411
766.303	294680
766.412	597285
766.520	446971
766.629	170200
766.737	70143
766.846	40160
766.954	26391
767.062	21008
767.171	17270
767.279	12038
767.387	8589
767.496	8260
767.604	6279
767.712	5836
767.820	5122
767.928	5305
768.037	4180
768.145	5150
768.253	4724
768.361	4475
768.469	3548
768.577	3885
768.685	4637
768.793	5085
768.901	4510
769.009	5804
769.117	6790
769.225	9745
769.333	13639
769.441	23843
769.549	46346
769.657	109803
769.765	313147
769.873	466780
769.981	183835
770.088	54811
770.196	25544
770.304	17536
770.412	12192
770.519	8872
770.627	6435
770.735	6387
770.842	4670
770.950	4713
771.058	3300
771.165	3439
771.273	2967
771.380	3363
771.488	2041
771.595	2789
771.703	1549
771.810	2985
771.918	1429
772.025	2306
772.133	1768
772.240	2434
772.348	1296
772.455	2248
772.562	946
772.670	2013
772.777	1827
772.884	2730
772.991	779
773.099	1223
773.206	1186
773.313	1972
773.420	1341
773.528	1191
773.635	1032
773.742	2089
773.849	1394
773.956	1004
774.063	918
774.170	1950
774.277	1232
774.384	1199
774.491	1169
774.598	2249
774.705	1034
774.812	1272
774.919	1648
775.026	1779
775.133	921
775.239	1544
775.346	1414
775.453	1676
775.560	314
775.667	1685
775.773	-148
775.880	1969
775.987	286
776.093	2134
776.200	1031
776.307	1614
776.413	833
776.520	1444
776.627	2218
776.733	2717
776.840	2161
776.946	8615
777.053	23837
777.159	68359
777.266	37575
777.372	54609
777.478	45375
777.585	20626
777.691	2827
777.798	3109
777.904	2536
778.010	3027
778.117	1586
778.223	2075
778.329	455
778.435	1658
778.542	1322
778.648	800
778.754	-475
778.860	369
778.966	54
779.072	1268
779.178	115
779.284	1289
779.391	180
779.497	378
779.603	2228
779.708	670
779.815	3776
779.920	9803
780.026	13524
780.132	2924
780.238	324
780.344	1134
780.450	661
780.556	1107
780.661	-432
780.767	942
780.873	-3
780.979	1551
781.085	-145
781.190	1135
781.296	130
781.402	655
781.507	-372
781.613	1007
781.719	-932
781.824	1083
781.930	855
782.035	1498
782.141	1140
782.246	525
782.352	442
782.457	292
782.563	-153
782.668	736
782.773	63
782.879	727
782.984	998
783.090	905
783.195	336
783.300	1353
783.405	-433
783.511	510
783.616	73
783.721	1668
783.826	205
783.932	1477
784.037	857
784.142	167
784.247	536
784.352	828
784.457	-171
784.562	916
784.667	886
784.772	-156
784.877	-224
784.982	1228
785.087	-287
785.192	1726
785.297	84
785.402	936
785.507	71
785.611	593
785.716	330
785.821	762
785.926	166
786.031	875
786.135	-271
786.240	214
786.345	-1547
786.450	928
786.554	151
786.659	255
786.763	-1276
786.868	832
786.973	788
787.077	-39
787.182	174
787.286	1424
787.391	247
787.495	-394
787.600	-268
787.704	319
787.809	-229
787.913	-403
788.017	162
788.122	399
788.226	-459
788.330	799
788.435	-985
788.539	792
788.643	-366
788.747	199
788.852	-145
788.956	-390
789.060	292
789.164	481
789.268	533
789.372	963
789.476	218
789.580	296
789.684	208
789.788	486
789.892	-418
789.996	1036
790.100	-819
790.204	-437
790.308	-287
790.412	622
790.516	1102
790.620	457
790.724	1076
790.828	519
790.931	-645
791.035	1530
791.139	17
791.242	318
791.346	619
791.450	738
791.554	-143
791.657	-187
791.761	1063
791.864	877
791.968	299
792.072	700
792.175	-376
792.279	456
792.382	-179
792.486	693
792.589	-409
792.693	1091
792.796	-437
792.899	1038
793.003	520
793.106	-1013
793.209	-626
793.313	1930
793.416	-1694
793.519	1613
793.623	181
793.726	265
793.829	31
793.932	1134
794.035	-109
794.138	664
794.242	532
794.345	133
794.448	673
794.551	655
794.654	5607
794.757	9119
794.860	841
794.963	2566
795.066	568
795.169	2349
795.272	-303
795.375	684
795.477	-184
795.580	242
795.683	-871
795.786	1133
795.889	-1569
795.991	1531
796.094	668
796.197	-1281
796.300	492
796.402	193
796.505	-458
796.608	-414
796.710	405
796.813	139
796.915	-540
797.018	894
797.120	-512
797.223	-177
797.326	433
797.428	420
797.530	-515
797.633	312
797.735	5
797.838	-937
797.940	95
798.042	-541
798.145	-1033
798.247	432
798.349	-1349
798.452	662
798.554	-965
798.656	-811
798.758	355
798.860	-784
798.962	-1208
799.065	57
799.167	-1016
799.269	809
799.371	583
799.473	145
799.575	-1291
799.677	360
799.779	20
799.881	-1583
799.983	-329
800.085	220
800.187	-65
800.289	-510
800.390	-770
800.492	-27
800.594	330
800.696	1
800.798	-443
800.899	266
801.001	-293
801.103	-547
801.205	-1555
801.306	4
801.408	-866
801.509	611
801.611	96
801.713	625
801.814	-810
801.916	691
802.017	-625
802.119	-454
802.220	-177
802.322	-1288
802.423	1280
802.525	-1057
802.626	-642
802.727	574
802.829	244
802.930	-1763
803.031	426
803.133	-134
803.234	-510
803.335	614
803.436	-925
803.538	405
803.639	-1753
803.740	924
803.841	-1122
803.942	683
804.043	-233
804.144	-759
804.245	-1282
804.346	-14
804.447	-1302
804.548	-575
804.649	-678
804.750	-190
804.851	-1672
804.952	-186
805.053	-389
805.154	-1551
805.255	330
805.355	2
805.456	-1173
805.557	168
805.658	-625
805.758	877
805.859	-491
805.960	-295
806.061	-225
806.161	-690
806.262	-1011
806.362	183
806.463	-693
806.564	325
806.664	-1111
806.765	77
806.865	-662
806.966	-268
807.066	-759
807.166	906
807.267	-213
807.367	-427
807.468	-494
807.568	-305
807.668	-100
807.769	546
807.869	-337
807.969	68
808.069	-33
808.170	32
808.270	-1732
808.370	-167
808.470	-1066
808.570	-984
808.670	-217
808.770	24
808.870	-1116
808.970	26
809.070	-817
809.170	-85
809.271	-40
809.370	-694
809.470	-901
809.570	-1208
809.670	-876
809.770	360
809.870	-289
809.970	-394
810.070	328
810.169	498
810.269	-1829
810.369	1023
810.469	-1204
810.568	-124
810.668	-896
810.768	-86
810.867	-1212
810.967	-408
811.066	-586
811.166	-65
811.265	-389
811.365	-449
811.464	-530
811.564	323
811.663	-900
811.763	-1386
811.862	-38
811.962	305
812.061	-307
812.160	-1118
812.260	-1530
812.359	-625
812.458	-1219
812.557	29
812.657	-928
812.756	17
812.855	-1313
812.954	-108
813.053	-690
813.153	-170
813.252	-1098
813.351	641
813.450	-319
813.549	-1107
813.648	-39
813.747	-90
813.846	-521
813.945	-768
814.044	-1241
814.143	141
814.242	-589
814.341	-50
814.439	-713
814.538	-102
814.637	-435
814.736	173
814.835	-371
814.933	-496
815.032	-376
815.131	106
815.229	-617
815.328	695
815.427	-580
815.525	837
815.624	-95
815.722	-509
815.821	-254
815.919	193
816.018	-232
816.116	547
816.215	-983
816.313	660
816.412	261
816.510	401
816.609	1592
816.707	1095
816.805	19
816.904	178
817.002	255
817.100	951
817.198	1027
817.296	309
817.395	965
817.493	2217
817.591	1720
817.689	4686
817.787	3740
817.885	10463
817.983	19963
818.081	45864
818.179	113401
818.277	267157
818.375	183378
818.473	51774
818.571	21224
818.669	15562
818.767	18266
818.865	15684
818.963	13336
819.061	21608
819.158	39714
819.256	92276
819.354	222029
819.452	423138
819.549	218022
819.647	57860
819.745	24031
819.842	15527
819.940	10271
820.038	8223
820.135	4933
820.233	5084
820.330	2606
820.428	2022
820.525	3022
820.623	2597
820.720	1323
820.818	2420
820.915	2476
821.012	5054
821.110	2404
821.207	2980
821.304	1252
821.402	4624
821.499	10133
821.596	23424
821.693	11904
821.791	3159
821.888	1261
821.985	1831
822.082	1751
822.179	6162
822.276	8180
822.373	5303
822.470	495
822.567	637
822.664	-732
822.761	1103
822.858	-1325
822.955	1122
823.052	233
823.149	-595
823.246	-582
823.343	480
823.440	282
823.536	-254
823.633	47
823.730	-544
823.827	764
823.923	1098
824.020	2057
824.117	3757
824.213	7382
824.310	3657
824.407	-135
824.503	394
824.600	-253
824.696	-389
824.793	-257
824.889	-634
824.986	-400
825.082	-248
825.179	-346
825.275	-516
825.371	-1350
825.468	-337
825.564	-2159
825.660	-958
825.757	-843
825.853	250
825.949	-1732
826.045	-109
826.142	-635
826.238	9
826.334	-550
826.430	-640
826.526	-1146
826.622	-374
826.718	-1282
826.814	-1342
826.910	-287
827.006	-643
827.102	-1821
827.198	603
827.294	-1348
827.390	-346
827.486	-908
827.582	-1485
827.678	-2347
827.774	368
827.869	-1376
827.965	1317
828.061	-828
828.157	-272
828.252	-885
828.348	-1293
828.444	97
828.539	-611
828.635	-1961
828.731	248
828.826	-1732
828.922	104
829.017	-1645
829.113	97
829.208	-1531
829.304	-758
829.399	301
829.495	-609
829.590	-443
829.685	-739
829.781	-1461
829.876	-432
829.971	-1331
830.066	8
830.162	-1570
830.257	-350
830.352	-1558
830.447	785
830.543	-349
830.638	-1602
830.733	-760
830.828	-967
830.923	-777
831.018	-139
831.113	-1139
831.208	-757
831.303	-1519
831.398	-873
831.493	-866
831.588	54
831.683	-1507
831.778	-516
831.873	-1192
831.967	-253
832.062	-1870
832.157	-911
832.252	-456
832.346	-277
832.441	-338
832.536	-411
832.631	-495
832.725	-542
832.820	-1495
832.914	-1238
833.009	-1909
833.104	-723
833.198	-840
833.293	-988
833.387	-996
833.482	-874
833.576	-1043
833.670	-271
833.765	-1124
833.859	-1208
833.954	-630
834.048	-260
834.142	-1354
834.237	-1399
834.331	-1153
834.425	-745
834.519	-2105
834.613	-53
834.708	-1694
834.802	168
834.896	-1524
834.990	1
835.084	-991
835.178	-12
835.272	-1052
835.366	-621
835.460	-749
835.554	-880
835.648	-1227
835.742	-365
835.836	-1086
835.930	-633
836.024	-907
836.117	-220
836.211	-880
836.305	165
836.399	-193
836.493	-2145
836.586	-1100
836.680	-1588
836.774	-1175
836.867	189
836.961	-1701
837.055	-765
837.148	-1045
837.242	-948
837.335	-1881
837.429	-568
837.522	-1619
837.616	-870
837.709	-1424
837.803	-274
837.896	-1146
837.989	-1498
838.083	-454
838.176	-472
838.269	-1385
838.363	404
838.456	-1321
838.549	-577
838.642	-1973
838.735	-817
838.829	-868
838.922	-747
839.015	-1481
839.108	-1412
839.201	-1156
839.294	-583
839.387	-622
839.480	-1215
839.573	-219
839.666	-407
839.759	-1666
839.852	-1365
839.945	-1240
840.038	-730
840.131	-750
840.223	-1400
840.316	-865
840.409	-344
840.502	-2205
840.594	956
840.687	-1053
840.780	-204
840.873	-1391
840.965	-944
841.058	-970
841.150	-864
841.243	-1535
841.336	-504
841.428	-860
841.521	-937
841.613	-1758
841.706	-815
841.798	-1091
841.890	-628
841.983	-1695
842.075	-378
842.167	-1269
842.260	-1250
842.352	-567
842.444	-1406
842.537	-1349
842.629	-623
842.721	-1217
842.813	-31
842.905	-2053
842.997	-427
843.090	-1940
843.182	-849
843.274	-2199
843.366	-118
843.458	-724
843.550	116
843.642	-1712
843.734	-29
843.826	-1914
843.918	-30
844.009	-778
844.101	121
844.193	-1135
844.285	679
844.377	3645
844.469	9091
844.560	15547
844.652	15852
844.744	3607
844.835	430
844.927	-1012
845.019	-1278
845.110	-1329
845.202	-220
845.293	-1620
845.385	-1430
845.476	-1311
845.568	-457
845.659	-1730
845.751	-183
845.842	-900
845.934	-1546
846.025	-1515
846.116	-165
846.208	-1869
846.299	-1083
846.390	-1036
846.482	-348
846.573	-1118
846.664	-1111
846.755	-1448
846.846	-451
846.937	-2406
847.029	-677
847.120	-2179
847.211	-1140
847.302	-538
847.393	-931
847.484	-1049
847.575	-1073
847.666	-1518
847.757	-468
847.847	-889
847.938	-198
848.029	-1036
848.120	-729
848.211	-1509
848.302	-1024
848.392	-1803
848.483	-237
848.574	-2071
848.664	-415
848.755	-890
848.846	-189
848.936	-1299
849.027	-109
849.118	-1288
849.208	-512
849.299	-51
849.389	470
849.480	1203
849.570	5283
849.661	10623
849.751	16961
849.841	3574
849.932	390
850.022	-1840
850.112	-186
850.203	-1425
850.293	-380
850.383	-910
850.474	-1542
850.564	-987
850.654	-566
850.744	-1269
850.834	-646
850.924	-948
851.014	-131
851.104	-1527
851.194	-1859
851.284	-1152
851.374	-182
851.464	-1189
851.554	-842
851.644	-2233
851.734	-532
851.824	-2345
851.914	-1173
852.004	-1459
852.094	-560
852.183	-2149
852.273	-104
852.363	-1200
852.452	-1359
852.542	-983
852.632	-1102
852.721	-971
852.811	-1159
852.901	-992
852.990	-416
853.080	-1065
853.169	-825
853.259	-1031
853.348	-283
853.438	-502
853.527	820
853.617	181
853.706	5039
853.795	9121
853.885	24968
853.974	45137
854.063	87897
854.152	115682
854.242	32249
854.331	3746
854.420	1544
854.509	547
854.598	1060
854.687	-1102
854.777	-408
854.866	-1316
854.955	-315
855.044	-1286
855.133	-281
855.222	-931
855.311	-530
855.400	-869
855.488	-301
855.577	-1068
855.666	-315
855.755	-665
855.844	241
855.933	-494
856.021	-1272
856.110	-1028
856.199	-1104
856.288	-1627
856.376	-634
856.465	-1338
856.554	-612
856.642	-792
856.731	1073
856.819	466
856.908	-987
856.996	-1148
857.085	-1257
857.173	-1568
857.262	-114
857.350	-840
857.438	-996
857.527	-1818
857.615	-1520
857.703	-1458
857.792	-1011
857.880	-1511
857.968	-1797
858.056	-1501
858.145	-1020
858.233	-1215
858.321	-1122
858.409	-718
858.497	-1571
858.585	-1588
858.673	465
858.761	-1468
858.849	-809
858.937	-1081
859.025	-1
859.113	-419
859.201	-244
859.289	1605
859.377	1586
859.465	-580
859.552	-700
859.640	-1530
859.728	-497
859.816	-2147
859.903	-647
859.991	-1572
860.079	-1235
860.166	-1238
860.254	-961
860.342	-964
860.429	-800
860.517	-2558
860.604	-437
860.692	-2395
860.779	-1275
860.867	-1516
860.954	-539
861.042	-1788
861.129	-973
861.216	-1230
861.304	-735
861.391	-1050
861.478	-911
861.565	-1506
861.653	-663
861.740	-1895
861.827	-587
861.914	-1391
862.001	-1322
862.089	-1641
862.176	-703
862.263	-1777
862.350	-504
862.437	-1187
862.524	-191
862.611	253
862.698	1667
862.785	4523
862.871	5824
862.958	1613
863.045	-749
863.132	-861
863.219	-35
863.306	-1917
863.392	-297
863.479	-1713
863.566	-1075
863.652	-1224
863.739	-831
863.826	-1560
863.912	-1225
863.999	-1900
864.086	-840
864.172	-1531
864.259	-931
864.345	-1626
864.432	-146
864.518	-1245
864.604	-584
864.691	-2042
864.777	-1045
864.863	-522
864.950	-994
865.036	-909
865.122	130
865.209	-200
865.295	956
865.381	892
865.467	1310
865.553	1707
865.639	2064
865.726	4449
865.812	10843
865.898	21711
865.984	29404
866.070	62088
866.156	54503
866.242	9372
866.328	1931
866.414	-654
866.499	406
866.585	-634
866.671	-102
866.757	-646
866.843	-376
866.928	-1454
867.014	-420
867.100	-1094
867.186	-709
867.271	-598
867.357	-40
867.442	13
867.528	416
867.614	1579
867.699	4370
867.785	8193
867.870	14809
867.956	18723
868.041	10782
868.127	6182
868.212	11409
868.297	9493
868.383	4614
868.468	3339
868.553	4422
868.639	342
868.724	-340
868.809	-996
868.894	-476
868.979	-1342
869.065	415
869.150	-1942
869.235	-534
869.320	-1250
869.405	-516
869.490	-781
869.575	-1345
869.660	-1485
869.745	-210
869.830	-689
869.915	-787
870.000	-117
870.085	386
870.169	2041
870.254	2972
870.339	-132
870.424	-669
870.509	-1642
870.593	-525
870.678	-744
870.763	506
870.847	906
870.932	873
871.016	3066
871.101	3510
871.186	-377
871.270	-262
871.355	-1357
871.439	69
871.523	-537
871.608	529
871.692	828
871.777	2894
871.861	1607
871.945	-269
872.030	-1152
872.114	-845
872.198	-2194
872.282	-1202
872.367	-1356
872.451	-1305
872.535	-1021
872.619	-372
872.703	-1189
872.787	799
872.871	-1104
872.955	-1366
873.039	-1734
873.123	-844
873.207	-1371
873.291	-996
873.375	-2033
873.459	-986
873.543	-1981
873.627	-583
873.711	-1426
873.794	-263
873.878	-1704
873.962	-118
874.045	-1133
874.129	-708
874.137	-819
874.213	-1925
874.245	-1815
874.296	-1646
874.352	-2025
874.380	-2204
874.460	-474
874.464	-406
874.547	-318
874.568	-349
874.631	-437
874.676	-830
874.714	-1168
874.784	-765
874.798	-683
874.881	-204
874.892	-259
874.965	-628
874.999	-651
875.048	-681
875.107	-333
875.131	-204
875.215	-1056
875.215	-1056
875.298	-837
875.323	-973
875.381	-1225
875.430	-732
875.465	-413
875.538	-1330
875.548	-1469
875.631	-1301
875.646	-1373
875.714	-1582
875.753	-1183
875.798	-736
875.861	-1561
875.881	-1821
875.964	-450
875.968	-498
876.047	-1407
876.076	-1019
876.130	-291
876.183	-838
876.213	-1096
876.291	-1046
876.296	-1052
876.379	-1369
876.398	-1191
876.462	-609
876.506	-776
876.545	-859
876.613	-269
876.628	-167
876.711	-1053
876.721	-890
876.794	464
876.828	-264
876.877	-1318
876.935	-614
876.960	-322
877.043	237
877.043	238
877.125	581
877.150	497
877.208	317
877.258	625
877.291	809
877.365	295
877.374	246
877.456	1086
877.472	906
877.539	-128
877.579	111
877.622	437
877.687	295
877.704	294
877.787	96
877.794	34
877.869	-777
877.901	-549
877.952	-183
878.008	-230
878.034	-169
878.115	17
878.117	16
878.199	154
878.222	199
878.282	516
878.329	424
878.364	277
878.437	117
878.447	111
878.529	-76
878.544	-60
878.611	-103
878.651	-441
878.694	-705
878.758	-335
878.776	-270
878.858	-805
878.865	-788
878.941	-553
878.972	-695
879.023	-769
879.078	-311
879.105	-98
879.185	-295
879.187	-298
879.269	32
879.292	-46
879.351	-329
879.399	-489
879.433	-559
879.506	208
879.516	316
879.598	184
879.613	23
879.680	-707
879.720	-460
879.762	-260
879.827	-696
879.844	-761
879.926	-450
879.933	-475
880.007	-698
880.040	-545
880.089	-571
880.147	-1184
880.171	-1246
880.253	-289
880.254	-292
880.335	-774
880.360	-668
880.417	-147
880.467	-202
880.499	-151
880.574	683
880.580	677
880.662	-856
880.680	-958
880.744	-894
880.787	-928
880.825	-923
880.893	-486
880.907	-411
880.989	-617
881.000	-571
881.070	-101
881.106	-509
881.152	-965
881.213	-401
881.233	-293
881.315	-1004
881.319	-968
881.396	13
881.426	-156
881.478	-422
881.532	-47
881.559	47
881.639	-415
881.641	-423
881.722	202
881.745	-39
881.803	-296
881.852	139
881.885	263
881.958	-336
881.966	-418
882.047	-438
882.064	-580
882.129	-601
882.171	-345
882.210	-357
882.277	-785
882.291	-781
882.372	17
882.383	9
882.454	-156
882.489	-99
882.535	-54
882.596	-325
882.616	-442
882.697	-136
882.702	-151
882.778	-64
882.808	-39
882.859	-31
882.914	214
882.940	210
883.020	-26
883.021	-24
883.102	-571
883.127	-537
883.183	-55
883.233	146
883.264	-9
883.339	17
883.345	23
883.426	-850
883.445	-806
883.507	-217
883.551	-295
883.587	-460
883.657	-179
883.668	-118
883.749	-92
883.763	-52
883.830	317
883.869	359
883.910	-90
883.975	-445
883.991	-321
884.072	-243
884.081	-183
884.152	143
884.187	-12
884.233	-261
884.292	-78
884.314	-138
884.394	-915
884.398	-926
884.475	-137
884.504	-24
884.555	-310
884.610	-368
884.636	-184
884.716	18
884.716	20
884.797	3
884.821	-166
884.877	-254
884.927	-221
884.958	-185
885.033	-283
885.038	-285
885.118	165
885.139	99
885.199	-495
885.244	-663
885.279	-408
885.350	-280
885.359	-299
885.439	137
885.456	13
885.520	-420
885.561	-104
885.600	111
885.667	-334
885.680	-303
885.760	636
885.773	660
885.840	174
885.878	213
885.920	323
885.984	7
886.000	-52
886.080	74
886.089	36
886.160	15
886.195	183
886.240	362
886.300	349
886.320	309
886.400	641
886.406	616
886.480	34
886.511	-85
886.560	215
886.616	489
886.640	442
886.720	350
886.722	333
886.800	163
886.827	333
886.879	167
886.932	-411
886.959	-338
887.038	278
887.039	287
887.119	211
887.143	304
887.198	504
887.248	398
887.278	232
887.354	20
887.358	32
887.437	-67
887.459	32
887.517	698
887.564	869
887.596	448
887.669	7
887.676	29
887.755	-209
887.774	-225
887.835	91
887.880	346
887.914	333
887.985	282
887.994	248
888.073	-273
888.090	-339
888.153	-203
888.195	-181
888.232	173
888.300	897
888.311	859
888.391	397
888.405	335
888.470	296
888.510	149
888.549	336
888.615	855
888.628	837
888.708	430
888.720	405
888.787	465
888.825	399
888.866	376
888.930	364
888.945	433
889.024	739
889.035	782
889.103	608
889.140	476
889.182	323
889.245	164
889.261	327
889.340	1007
889.349	1086
889.419	1199
889.454	1229
889.498	949
889.559	574
889.577	544
889.656	378
889.664	360
889.735	810
889.768	1016
889.814	680
889.873	230
889.978	-178
890.083	450
890.187	154
890.292	146
890.397	363
890.501	123
890.606	747
890.710	1143
890.815	1565
890.919	1200
891.024	1322
891.128	2182
891.233	1356
891.337	797
891.442	14
891.546	-302
891.650	376
891.755	198
891.859	1685
891.963	832
892.068	1338
892.172	563
892.276	701
892.380	854
892.484	1716
892.589	1908
892.693	2069
892.797	1505
892.901	951
893.005	450
893.109	708
893.213	553
893.317	911
893.421	383
893.525	494
893.629	11
893.733	458
893.837	218
893.941	119
894.045	1052
894.148	625
894.252	452
894.356	596
894.460	30
894.564	647
894.667	-156
894.771	25
894.875	-37
894.978	-189
895.082	-277
895.186	273
895.289	599
895.393	33
895.496	-400
895.600	-13
895.703	1005
895.807	575
895.910	728
896.014	725
896.117	768
896.221	-58
896.324	426
896.427	1213
896.531	391
896.634	398
896.737	183
896.840	-291
896.944	-162
897.047	353
897.150	160
897.253	589
897.356	162
897.460	-456
897.563	314
897.666	674
897.769	-447
897.872	522
897.975	518
898.078	337
898.181	61
898.284	184
898.387	225
898.490	596
898.593	533
898.695	337
898.798	-631
898.901	288
899.004	194
899.107	836
899.209	80
899.312	410
899.415	441
899.518	265
899.620	177
899.723	16
899.826	145
899.928	424
900.031	685
900.133	974
900.236	22
900.338	262
900.441	323
900.543	718
900.646	564
900.748	389
900.851	929
900.953	-190
901.055	133
901.158	221
901.260	967
901.362	313
901.465	122
901.567	860
901.669	-289
901.771	609
901.873	297
901.976	551
902.078	732
902.180	1169
902.282	581
902.384	545
902.486	770
902.588	1133
902.690	-191
902.792	1520
902.894	2408
902.996	1802
903.098	391
903.200	688
903.302	300
903.404	214
903.505	397
903.607	636
903.709	339
903.811	1073
903.913	346
904.014	755
904.116	783
904.218	932
904.319	1485
904.421	2874
904.523	4170
904.624	2679
904.726	1713
904.827	1602
904.929	2880
905.030	1690
905.132	725
905.233	859
905.335	493
905.436	798
905.537	290
905.639	729
905.740	1117
905.841	1330
905.943	2497
906.044	3232
906.145	1774
906.247	1056
906.348	644
906.449	550
906.550	706
906.651	671
906.752	-214
906.854	266
906.955	309
907.056	320
907.157	-245
907.258	1089
907.359	213
907.460	1669
907.561	-321
907.662	225
907.762	527
907.863	-220
907.964	477
908.065	298
908.166	612
908.267	783
908.367	138
908.468	547
908.569	762
908.670	536
908.770	284
908.871	-273
908.971	394
909.072	418
909.173	80
909.273	300
909.374	615
909.474	200
909.575	543
909.675	276
909.776	522
909.876	490
909.977	192
910.077	179
910.177	516
910.278	437
910.378	178
910.478	392
910.579	198
910.679	1187
910.779	-29
910.879	942
910.980	905
911.080	85
911.180	1222
911.280	860
911.380	29
911.480	624
911.580	659
911.680	974
911.780	-95
911.880	1155
911.980	528
912.080	921
912.180	866
912.280	1013
912.380	94
912.480	55
912.580	667
912.679	98
912.779	1039
912.879	247
912.979	325
913.078	88
913.178	184
913.278	974
913.377	-268
913.477	431
913.577	-62
913.676	340
913.776	137
913.875	1107
913.975	283
914.074	380
914.174	-206
914.273	398
914.373	467
914.472	373
914.572	517
914.671	691
914.770	260
914.870	890
914.969	-632
915.068	296
915.167	201
915.267	695
915.366	295
915.465	495
915.564	932
915.663	231
915.763	886
915.862	254
915.961	246
916.060	-253
916.159	269
916.258	65
916.357	-51
916.456	1191
916.555	-217
916.654	805
916.752	481
916.851	-60
916.950	1729
917.049	273
917.148	-919
917.247	328
917.345	335
917.444	531
917.543	1039
917.642	244
917.740	361
917.839	514
917.937	-93
918.036	780
918.135	627
918.233	723
918.332	719
918.430	-93
918.529	872
918.627	524
918.726	1014
918.824	790
918.923	330
919.021	107
919.119	-346
919.218	188
919.316	-85
919.414	1197
919.512	520
919.611	560
919.709	117
919.807	697
919.905	388
920.003	681
920.102	463
920.200	587
920.298	-235
920.396	574
920.494	1361
920.592	654
920.690	737
920.788	895
920.886	423
920.984	352
921.082	208
921.180	767
921.277	866
921.375	344
921.473	598
921.571	401
921.669	74
921.766	495
921.864	432
921.962	221
922.060	-62
922.157	50
922.255	632
922.352	425
922.450	776
922.548	301
922.645	668
922.743	573
922.840	1295
922.938	864
923.035	841
923.133	849
923.230	421
923.327	868
923.425	1330
923.522	198
923.619	1217
923.717	61
923.814	790
923.911	775
924.008	1981
924.106	813
924.203	589
924.300	958
924.397	491
924.494	1261
924.591	810
924.688	1017
924.786	571
924.883	915
924.979	658
925.077	840
925.173	1316
925.270	1114
925.367	1083
925.464	1843
925.561	1249
925.658	1383
925.755	1957
925.852	1633
925.948	3266
926.045	4186
926.142	6060
926.239	6661
926.335	5638
926.432	5757
926.529	6422
926.625	7684
926.722	5526
926.818	3316
926.915	2202
927.011	1469
927.108	1681
927.204	923
927.301	965
927.397	832
927.494	1067
927.590	555
927.687	89
927.783	1528
927.879	-774
927.976	1090
928.072	729
928.168	529
928.264	977
928.361	567
928.457	128
928.553	315
928.649	451
928.745	910
928.841	95
928.937	-10
929.033	450
929.129	1077
929.225	203
929.321	673
929.417	-112
929.513	1183
929.609	388
929.705	614
929.801	-403
929.897	-121
929.993	83
930.089	135
930.184	283
930.280	653
930.376	759
930.471	-274
930.567	737
930.663	126
930.758	-268
930.854	126
930.950	788
931.045	-293
931.141	-186
931.236	742
931.332	57
931.427	-93
931.523	349
931.618	558
931.714	-707
931.809	430
931.905	378
932.000	629
932.095	263
932.191	448
932.286	620
932.381	-692
932.476	-474
932.572	-271
932.667	-148
932.762	665
932.857	-342
932.952	-405
933.047	322
933.142	195
933.237	-154
933.332	484
933.427	688
933.522	-37
933.617	-525
933.712	273
933.807	-152
933.902	5
933.997	-406
934.092	376
934.187	-75
934.282	286
934.376	541
934.471	259
934.566	-430
934.661	47
934.755	394
934.850	-373
934.945	81
935.039	-449
935.134	75
935.228	-351
935.323	129
935.417	-502
935.512	-179
935.606	-971
935.701	349
935.795	453
935.890	-59
935.984	-244
936.079	-343
936.173	-264
936.267	-638
936.362	-466
936.456	-303
936.550	482
936.644	-222
936.738	60
936.833	-153
936.927	73
937.021	-346
937.115	-661
937.209	-68
937.303	320
937.397	-716
937.491	55
937.585	-182
937.679	-262
937.773	-473
937.867	-394
937.961	-382
938.055	-155
938.149	1202
938.243	-147
938.337	206
938.430	1829
938.524	3111
938.618	8090
938.712	6894
938.805	1163
938.899	1031
938.993	1467
939.086	3894
939.180	10800
939.274	14105
939.367	4808
939.461	1041
939.554	-515
939.648	294
939.741	22
939.835	-686
939.928	52
940.022	584
940.115	-412
940.208	-470
940.302	983
940.395	-557
940.488	-409
940.582	-66
940.675	-558
940.768	175
940.861	-632
940.954	165
941.048	161
941.141	555
941.234	2447
941.327	4852
941.420	3976
941.513	1191
941.606	606
941.699	1328
941.792	261
941.885	-643
941.978	-658
942.071	-46
942.164	-28
942.257	-242
942.349	-439
942.442	-399
942.535	-35
942.628	-199
942.721	-517
942.813	-1196
942.906	-208
942.999	-911
943.091	-904
943.184	-1155
943.277	-574
943.369	251
943.462	-365
943.554	-738
943.647	-1036
943.739	310
943.832	-800
943.924	-747
944.017	-464
944.109	-1087
944.201	-115
944.294	-68
944.386	-269
944.478	-1205
944.571	-647
944.663	-554
944.755	320
944.847	-247
944.940	59
945.032	-1552
945.124	-1546
945.216	-629
945.308	-473
945.400	-469
945.492	-736
945.584	-434
945.676	253
945.768	269
945.860	-8
945.952	295
946.044	646
946.136	-111
946.228	-590
946.320	-774
946.412	-620
946.503	-450
946.595	-233
946.687	-805
946.779	-625
946.870	-476
946.962	-1187
947.054	-54
947.145	31
947.237	-894
947.329	269
947.420	-663
947.512	-731
947.603	-555
947.695	-370
947.786	-981
947.878	-320
947.969	154
948.061	-717
948.152	-1333
948.243	91
948.335	-760
948.426	-979
948.517	-1020
948.609	-561
948.700	-3
948.791	-479
948.882	-307
948.973	-1378
949.065	-881
949.156	-659
949.247	-1125
949.338	-649
949.429	-1456
949.520	-605
949.611	-1620
949.702	-543
949.793	164
949.884	-1357
949.975	-386
950.066	-512
950.157	-1217
950.247	-355
950.338	-1515
950.429	-240
950.520	-673
950.611	211
950.701	-1294
950.792	-1243
950.883	-738
950.973	-675
951.064	-1326
951.155	-288
951.245	-489
951.336	-918
951.427	-1669
951.517	542
951.608	-431
951.698	-1247
951.788	-1271
951.879	-371
951.969	-1257
952.060	-134
952.150	-1328
952.240	17
952.331	-2235
952.421	25
952.511	-520
952.602	-1262
952.692	-1080
952.782	-242
952.872	-569
952.962	-901
953.052	-935
953.143	-1252
953.233	-376
953.323	-428
953.413	-1191
953.503	-421
953.593	-1155
953.683	-720
953.773	-1827
953.863	-1292
953.953	-998
954.042	-327
954.132	-741
954.222	-108
954.312	-1899
954.402	-737
954.492	-835
954.581	-1341
954.671	-1259
954.761	-1562
954.850	83
954.940	-1325
955.030	-253
955.119	-753
955.209	-1483
955.298	-1205
955.388	-1183
955.477	-165
955.567	-1767
955.656	-527
955.746	-994
955.835	-1423
955.925	-1796
956.014	-876
956.103	-1175
956.193	-952
956.282	-1090
956.371	-940
956.461	-863
956.550	-824
956.639	-764
956.728	-959
956.817	-656
956.906	-1450
956.995	-621
957.085	-1654
957.174	-420
957.263	-964
957.352	-1166
957.441	-660
957.530	-816
957.619	-302
957.708	-275
957.796	-954
957.885	-1331
957.974	-808
958.063	-1132
958.152	-1504
958.241	-1444
958.329	-613
958.418	-641
958.507	-1062
958.596	-582
958.684	-934
958.773	-660
958.861	-352
958.950	-426
959.039	-910
959.127	-1584
959.216	-123
959.304	-1444
959.393	-214
959.481	-230
959.570	-328
959.658	-1177
959.746	-506
959.835	-299
959.923	-1117
960.011	-1566
960.100	-603
960.188	-1590
960.276	-623
960.365	-925
960.453	-794
960.541	-1189
960.629	-585
960.717	-398
960.805	-1490
960.893	-832
960.981	-1582
961.069	-418
961.158	-1125
961.245	-538
961.333	-1562
961.421	-883
961.509	-1254
961.597	-1021
961.685	-534
961.773	-1599
961.861	-984
961.949	-532
962.036	-1516
962.124	113
962.212	-1439
962.299	-1384
962.387	-1188
962.475	-1154
962.562	-1378
962.650	-984
962.738	-585
962.825	-1193
962.913	-870
963.000	-1298
963.088	-879
963.175	-1514
963.263	-964
963.350	-1166
963.438	-1924
963.525	-1485
963.612	-1007
963.700	-931
963.787	-559
963.874	-1034
963.962	-359
964.049	-1535
964.136	-1091
964.223	-1924
964.310	-1315
964.398	-1787
964.485	-968
964.572	-1432
964.659	-1339
964.746	-1275
964.833	-1310
964.920	-1195
965.007	-1088
965.094	-1312
965.181	-1058
965.268	-1653
965.355	-756
965.441	-1435
965.528	-1199
965.615	-637
965.702	-1096
965.789	-2083
965.875	-1312
965.962	-1012
966.049	-775
966.136	-1465
966.222	-1262
966.309	-1466
966.395	-2010
966.482	-1025
966.569	-1674
966.655	-1781
966.742	-1836
966.828	-1512
966.915	-1555
967.001	-1226
967.087	-2199
967.174	-1573
967.260	-2128
967.347	-1031
967.433	-920
967.519	-1099
967.605	-1033
967.692	-728
967.778	-1315
967.864	-1242
967.950	-1060
968.036	-1447
968.123	-374
968.209	-481
968.295	-2427
968.381	261
968.467	-74
968.553	-2509
968.639	-245
968.725	-1372
968.811	-254
968.897	-328
968.983	-1177
969.069	-1520
969.154	-1206
969.240	-118
969.326	-1785
969.412	-1555
969.497	-794
969.583	-1476
969.669	290
969.755	-1609
969.840	-1244
969.926	-634
970.012	-1548
970.097	41
970.183	-382
970.268	-1289
970.354	-825
970.439	-2024
970.525	-692
970.610	-1984
970.696	-889
970.781	-1963
970.866	-1701
970.952	-1168
971.037	-1534
971.122	-1523
971.208	-1169
971.293	-1709
971.378	-2088
971.463	-1125
971.549	-1111
971.634	-799
971.719	-1434
971.804	-2150
971.889	-1459
971.974	-2749
972.059	-1232
972.144	-1437
972.229	-922
972.314	-1960
972.399	-1167
972.484	-1515
972.569	-1373
972.654	-1691
972.739	-921
972.824	-1291
972.908	129
972.993	-1602
973.078	-1733
973.163	-587
973.247	-497
973.332	-2028
973.417	-610
973.501	-2091
973.586	-633
973.671	-973
973.755	-1020
973.840	-1081
973.924	-298
974.009	-1932
974.093	-1341
974.178	-194
974.262	-1574
974.346	-1767
974.431	-1025
974.515	-1604
974.600	-1124
974.684	-552
974.768	-1202
974.852	-817
974.937	-1918
975.021	-1088
975.105	-649
975.189	-1347
975.273	-931
975.358	-2268
975.442	-1471
975.526	-501
975.610	-1593
975.694	-1468
975.778	-225
975.862	-1844
975.946	-3078
976.030	-692
976.114	-1596
976.198	-338
976.281	-1197
976.365	-1772
976.449	-1561
976.533	-1075
976.617	-1812
976.700	-2171
976.784	-1104
976.868	-1546
976.951	-212
977.035	-903
977.119	-1277
977.202	-1133
977.286	-1356
977.369	-1696
977.453	-669
977.536	-1527
977.620	-1378
977.703	-745
977.787	-2486
977.870	-1157
977.953	-702
978.037	-1712
978.120	-123
978.203	-2308
978.287	-1441
978.370	-1164
978.453	-718
978.536	-1226
978.620	-185
978.703	-1552
978.786	-1401
978.869	-1549
978.952	-1599
979.035	-707
979.118	-693
979.201	-2331
979.284	-1382
979.367	-1245
979.450	-1166
979.533	-2198
979.616	-1311
979.699	-2091
979.782	-819
979.865	-1546
979.948	-746
980.030	-2286
980.113	-1485
980.196	-1827
980.279	-962
980.361	-943
980.444	-981
980.526	-1194
980.609	-1327
980.692	-1834
980.774	-943
980.857	-2182
980.939	112
981.022	-1708
981.104	-1815
981.187	-1474
981.269	-435
981.352	-846
981.434	-1450
981.516	-1335
981.599	-663
981.681	-1537
981.763	-1455
981.846	-1489
981.928	-1137
982.010	-1891
982.092	-1678
982.174	-878
982.256	-1188
982.339	-1244
982.421	-1528
982.503	-703
982.585	-1117
982.667	-929
982.749	-1092
982.831	-1865
982.913	-2925
982.995	-498
983.077	-1699
983.158	-181
983.240	-1338
983.322	-1586
983.404	-887
983.486	-1305
983.568	-676
983.649	-1592
983.731	-1476
983.813	-1604
983.894	-1075
983.976	-1389
984.058	-1205
984.139	-766
984.221	-1840
984.302	-653
984.384	-1075
984.465	-1915
984.547	-1025
984.628	-1410
984.710	20
984.791	-1228
984.872	-1822
984.954	-1428
985.035	-1626
985.116	-2585
985.198	-1928
985.279	-1267
985.360	-1652
985.441	-1363
985.522	-715
985.604	-1142
985.685	-3005
985.766	-237
985.847	-423
985.928	-2213
986.009	-1097
986.090	-1226
986.171	-131
986.252	-957
986.333	-806
986.414	-1291
986.495	-1067
986.576	-1597
986.656	-300
986.737	-900
986.818	-1570
986.899	-1699
986.980	-864
987.060	-1305
987.141	-743
987.222	-1421
987.302	-1908
987.383	-1314
987.464	-1694
987.544	-1500
987.625	-1905
987.705	-1314
987.786	-1312
987.866	-1183
987.947	-1252
988.027	-1788
988.108	-1546
988.188	-1196
988.268	-1068
988.349	-2273
988.429	-1963
988.509	-821
988.589	-1525
988.670	-2997
988.750	-486
988.830	-2555
988.910	-1184
988.990	-2257
989.070	-1925
989.151	-1161
989.231	-2449
989.311	-446
989.391	-963
989.471	-1842
989.551	-1294
989.631	-1514
989.711	-886
989.791	-2106
989.870	-1619
989.950	-352
990.030	-1206
990.110	-2307
990.190	-1539
990.269	-1041
990.349	-1416
990.429	-1400
990.509	-823
990.588	-1628
990.668	-1367
990.747	-1375
990.827	-1460
990.907	-1687
990.986	-2302
991.066	-1525
991.145	-1712
991.225	-1165
991.304	-1732
991.383	-1283
991.463	-1466
991.542	-1638
991.622	-1381
991.701	-2220
991.780	-1822
991.859	-1150
991.939	-821
992.018	-1291
992.097	-633
992.176	-1669
992.256	-1658
992.335	-1962
992.414	-1021
992.493	-2204
992.572	-1576
992.651	-422
992.730	-1149
992.809	-1387
992.888	-2171
992.967	-855
993.046	-623
993.125	-2163
993.203	-1577
993.282	-872
993.361	-610
993.440	-1696
993.519	-1804
993.597	-1275
993.676	-1533
993.755	-215
993.834	-1429
993.912	-1896
993.991	-655
994.069	-2059
994.148	-1056
994.226	-1656
994.305	-1470
994.384	-2181
994.462	-949
994.540	-1991
994.619	-2505
994.697	-1398
994.776	-1352
994.854	-916
994.932	-2426
995.011	-1361
995.089	-1787
995.167	-1841
995.245	-778
995.324	-1885
995.402	-789
995.480	-1919
995.558	-1054
995.636	-2009
995.714	-2518
995.792	-1398
995.870	-1752
995.948	-2047
996.026	-923
996.104	-2155
996.182	-677
996.260	-1829
996.338	-1166
996.416	-2647
996.494	-1899
996.572	-881
996.649	-1988
996.727	-1881
996.805	-1255
996.883	-1375
996.960	-1433
997.038	-1528
997.116	-532
997.193	-2367
997.271	-1573
997.348	-2484
997.426	-1067
997.504	-2342
997.581	-1533
997.658	-1687
997.736	-2583
997.813	-3233
997.891	-1870
997.968	-1960
998.046	-795
998.123	-1908
998.200	-1056
998.277	-2299
998.355	-2181
998.432	-2526
998.509	-1568
998.586	-1341
998.663	-1320
998.741	-1319
998.818	-1995
998.895	-1698
998.972	-1799
999.049	-1638
999.126	-1976
999.203	-1251
999.280	-2065
999.357	-2264
999.434	-1949
999.511	-1656
999.587	-283
999.664	-2329
999.741	-1686
999.818	-1748
999.895	-1758
999.971	-2014
1000.048	-1453
1000.125	-1118
1000.202	-1763
1000.278	-1468
1000.355	-2168
1000.431	-2429
1000.508	-2538
1000.584	-1874
1000.661	-1214
1000.738	-2399
1000.814	-830
1000.890	-1208
1000.967	-2585
1001.043	-1788
1001.120	-2276
1001.196	-2155
1001.272	-2435
1001.349	-1410
1001.425	-1722
1001.501	-2101
1001.577	-1747
1001.654	-1688
1001.730	-2479
1001.806	-1082
1001.882	-2205
1001.958	-2155
1002.034	-1174
1002.110	-1598
1002.186	-1628
1002.262	-2500
1002.338	-1261
1002.414	-1381
1002.490	-368
1002.566	-2410
1002.642	-2468
1002.718	-1552
1002.794	-1634
1002.870	-1948
1002.945	-1901
1003.021	-2166
1003.097	-2163
1003.173	-1442
1003.248	-2391
1003.324	-1632
1003.400	-1512
1003.475	-2249
1003.551	-1715
1003.626	-2072
1003.702	-1752
1003.777	-2267
1003.853	-2311
1003.928	-2908
1004.004	-1353
1004.079	-2157
1004.155	-2124
1004.230	-3367
1004.305	-1115
1004.381	-2096
1004.456	-2584
1004.531	-1526
1004.607	-1681
1004.682	-2162
1004.757	-1711
1004.832	-1889
1004.907	-2729
1004.982	-1805
1005.057	-1872
1005.133	-2396
1005.208	-1151
1005.283	-1644
1005.358	-1247
1005.433	-3366
1005.508	-1759
1005.583	-1352
1005.657	-2324
1005.732	-1600
1005.807	-2346
1005.882	-2310
1005.957	-2820
1006.032	-2150
1006.106	-1815
1006.181	-1513
1006.256	-2143
1006.331	-2114
1006.405	-2227
1006.480	-2042
1006.554	-2467
1006.629	-2040
1006.704	-3133
1006.778	-1575
1006.853	-1768
1006.927	-1844
1007.002	-2677
1007.076	-1699
1007.150	-2219
1007.225	-2059
1007.299	-1710
1007.373	-3075
1007.448	-1328
1007.522	-1610
1007.596	-1998
1007.671	-1898
1007.745	-1623
1007.819	-3597
1007.893	-1843
1007.967	-1491
1008.041	-3646
1008.115	-2037
1008.190	-2645
1008.264	-1969
1008.338	-3073
1008.412	-2152
1008.486	-1912
1008.560	-1857
1008.633	-2252
1008.707	-2319
1008.781	-1993
1008.855	-1840
1008.929	-1847
1009.003	-2334
1009.076	-2401
1009.150	-1226
1009.224	-2089
1009.298	-1472
1009.371	-2213
1009.445	-1967
1009.519	-1725
1009.592	-2474
1009.666	-1287
1009.739	-1764
1009.813	-3034
1009.886	-1181
1009.960	-2190
1010.033	-1575
1010.107	-1429
1010.180	-2368
1010.253	-1182
1010.327	-1481
1010.400	-1772
1010.473	-2100
1010.547	-708
1010.620	-2045
1010.693	-1189
1010.766	-2023
1010.840	-687
1010.913	-1467
1010.986	-1381
1011.059	-932
1011.132	-1119
1011.205	397
1011.278	-1252
1011.351	-339
1011.424	-498
1011.497	-1230
1011.570	-1794
1011.643	-2013
1011.716	-2020
1011.789	-1254
1011.862	-1943
1011.934	-2422
1012.007	-2646
1012.080	-2156
1012.153	-1937
1012.225	-769
1012.298	-2267
1012.371	-2507
1012.443	-1460
1012.516	-2868
1012.588	-1232
1012.661	-1995
1012.733	-2792
1012.806	-1468
1012.879	-2322
1012.951	-2120
1013.023	-2081
1013.096	-1504
1013.168	-1841
1013.241	-1871
1013.313	-1984
1013.385	-1896
1013.458	-3022
1013.530	-2050
1013.602	-2830
1013.674	-2107
1013.746	-2517
1013.819	-2367
1013.891	-1595
1013.963	-2814
1014.035	-1825
1014.107	-1301
1014.179	-1861
1014.251	-2783
1014.323	-1932
1014.395	-2318
1014.467	-2267
1014.539	-2316
1014.611	-1973
1014.683	-1632
1014.754	-1259
1014.826	-2980
1014.898	-2194
1014.970	-2923
1015.042	-1615
1015.113	-2014
1015.185	-1564
1015.257	-1927
1015.328	-2341
1015.400	-2737
1015.471	-2448
1015.543	-3273
1015.615	-1586
1015.686	-1784
1015.757	-2441
1015.829	-2080
1015.901	-3039
1015.972	-2409
1016.043	-2216
1016.115	-1410
1016.186	-2181
1016.257	-2609
1016.328	-1961
1016.400	-1615
1016.471	-1872
1016.542	-1900
1016.613	-1739
1016.685	-1578
1016.756	-2429
1016.827	-2530
1016.898	-3211
1016.969	-2125
1017.040	-1371
1017.111	-3324
1017.182	-2147
1017.253	-1560
1017.324	-2782
1017.395	-2388
1017.466	-1913
1017.537	-2352
1017.608	-2186
1017.678	-2179
1017.749	-2234
1017.820	-2353
1017.891	-2045
1017.961	-2530
1018.032	-2373
1018.103	-2343
1018.173	-1712
1018.244	-2944
1018.315	-1177
1018.385	-1595
1018.456	-2263
1018.526	-2276
1018.597	-1477
1018.667	-2361
1018.738	-2522
1018.808	-2525
1018.878	-2084
1018.949	-2217
1019.019	-2203
1019.089	-2114
1019.160	-2176
1019.230	-2588
1019.300	-2158
1019.371	-3165
1019.441	-2144
1019.511	-2674
1019.581	-2192
1019.651	-2148
1019.721	-2198
1019.791	-2493
1019.861	-1914
1019.931	-2171
1020.001	-2073
1020.071	-2043
1020.141	-2432
1020.211	-2114
1020.281	-2288
1020.351	-2722
1020.421	-2141
1020.491	-1911
1020.560	-2600
1020.630	-2370
1020.700	-2703
1020.770	-2863
1020.839	-1984
1020.909	-2933
1020.979	-2662
1021.048	-3032
1021.118	-3117
1021.187	-2432
1021.257	-2546
1021.326	-2393
1021.396	-2228
1021.465	-2355
1021.535	-2086
1021.604	-2101
1021.674	-2717
1021.743	-1581
1021.812	-2413
1021.882	-1838
1021.951	-1615
1022.020	-2785
1022.089	-1854
1022.159	-2591
1022.228	-2182
1022.297	-1895
1022.366	-2142
1022.435	-2554
1022.504	-2755
1022.573	-2132
1022.642	-2222
1022.711	-2766
1022.781	-2210
1022.849	-2066
1022.918	-2108
1022.987	-2119
1023.056	-2703
1023.125	-2147
1023.194	-2188
1023.263	-2741
1023.331	-2528
1023.400	-2335
1023.469	-2862
1023.538	-2554
1023.606	-2252
1023.675	-2386
1023.744	-2153
1023.812	-2811
1023.881	-2495
1023.949	-1834
1024.018	-2258
1024.086	-2120
1024.155	-2028
1024.223	-2009
1024.292	-2240
1024.360	-2362
1024.429	-2482
1024.497	-2319
1024.565	-2001
1024.634	-1927
1024.702	-2783
1024.770	-2216
1024.838	-2167
1024.907	-2369
1024.975	-2419
1025.043	-1324
1025.111	-2687
1025.179	-2430
1025.247	-3341
1025.315	-2535
1025.383	-1813
1025.451	-2941
1025.519	-2785
1025.587	-2627
1025.655	-2018
1025.723	-2655
1025.791	-1762
1025.859	-2072
1025.927	-1795
1025.995	-2625
1026.062	-1963
1026.130	-2021
1026.198	-2652
1026.266	-3079
1026.333	-1412
1026.401	-2448
1026.469	-2717
1026.536	-2479
1026.604	-2906
1026.671	-2313
1026.739	-2247
1026.806	-1860
1026.874	-2291
1026.941	-1940
1027.009	-3110
1027.076	-2744
1027.144	-2307
1027.211	-2570
1027.278	-2425
1027.345	-2988
1027.413	-2510
1027.480	-2739
1027.547	-2713
1027.614	-3004
1027.682	-1793
1027.749	-1906
1027.816	-2539
1027.883	-2454
1027.950	-2020
1028.017	-2627
1028.084	-2092
1028.151	-2538
1028.218	-2514
1028.285	-1988
1028.352	-2908
1028.419	-2341
1028.486	-2178
1028.553	-2627
1028.619	-2397
1028.686	-2084
1028.753	-2937
1028.820	-2417
1028.886	-2494
1028.953	-2136
1029.020	-2059
1029.086	-2260
1029.153	-2692
1029.220	-2817
1029.286	-2381
1029.353	-2413
1029.419	-2104
1029.486	-3208
1029.552	-2862
1029.619	-2020
1029.685	-3241
1029.751	-2726
1029.818	-1926
1029.884	-2501
1029.951	-2736
1030.017	-2929
1030.083	-2146
1030.149	-2986
1030.216	-2540
1030.282	-1824
1030.348	-2520
1030.414	-1893
1030.480	-3360
1030.546	-2194
1030.612	-3008
1030.678	-3040
1030.744	-2303
1030.810	-2531
1030.876	-2285
1030.942	-2651
1031.008	-2773
1031.074	-3028
1031.140	-2399
1031.206	-2398
1031.272	-3048
1031.337	-2474
1031.403	-2010
1031.469	-2401
1031.534	-2923
1031.600	-2520
1031.666	-2491
1031.731	-2802
1031.797	-2594
1031.863	-2643
1031.928	-1774
1031.994	-2564
1032.059	-2285
1032.125	-2534
1032.190	-2507
1032.256	-2055
1032.321	-1905
1032.386	-1800
1032.452	-1714
1032.517	-3151
1032.582	-1948
1032.647	-1793
1032.713	-2382
1032.778	-2741
1032.843	-2428
1032.908	-2853
1032.974	-2891
1033.039	-2660
1033.104	-1720
1033.169	-2357
1033.234	-2614
1033.299	-2292
1033.364	-1874
1033.429	-2812
1033.494	-2788
1033.559	-2282
1033.624	-2067
1033.688	-2866
1033.753	-2847
1033.818	-2641
1033.883	-2851
1033.948	-2488
1034.013	-1346
1034.077	-1847
1034.142	-1847
1034.207	-2419
1034.271	-1567
1034.336	-2127
1034.400	-2354
1034.465	-1850
1034.530	-2109
1034.594	-2638
1034.658	-2790
1034.723	-2984
1034.787	-2361
1034.852	-2748
1034.916	-2558
1034.981	-3078
1035.045	-2625
1035.109	-3324
1035.173	-1945
1035.238	-2918
1035.302	-2445
1035.366	-2531
1035.430	-2481
1035.495	-2250
1035.559	-1747
1035.623	-2323
1035.687	-2798
1035.751	-2388
1035.815	-2489
1035.879	-3191
1035.943	-2210
1036.007	-1996
1036.071	-1906
1036.135	-2647
1036.198	-2725
1036.262	-2384
1036.326	-2520
1036.390	-2911
1036.454	-1937
1036.517	-2228
1036.581	-3049
1036.645	-2301
1036.709	-2563
1036.772	-2260
1036.836	-2147
1036.900	-2663
1036.963	-2544
1037.026	-3010
1037.090	-1852
1037.154	-2825
1037.217	-2678
1037.280	-3319
1037.344	-3344
1037.407	-2465
1037.471	-2455
1037.534	-2539
1037.597	-3621
1037.661	-2844
1037.724	-2975
1037.787	-2950
1037.850	-2301
1037.913	-2832
1037.977	-1916
1038.040	-2286
1038.103	-2571
1038.166	-3057
1038.229	-2030
1038.292	-2766
1038.355	-2548
1038.418	-2339
1038.481	-1889
1038.544	-3055
1038.607	-1800
1038.670	-3179
1038.732	-2879
1038.795	-3689
1038.858	-2700
1038.921	-2977
1038.984	-1634
1039.046	-2889
1039.109	-3448
1039.172	-2575
1039.234	-2297
1039.297	-2385
1039.360	-2420
1039.422	-2637
1039.485	-2967
1039.547	-3647
1039.610	-2750
1039.672	-2675
1039.734	-2339
1039.797	-2919
1039.859	-2217
1039.922	-3425
1039.984	-2553
1040.046	-3392
1040.109	-2622
1040.171	-2333
1040.233	-2809
1040.295	-2444
1040.358	-2689
1040.420	-2529
1040.482	-3135
1040.544	-2021
1040.606	-2526
1040.668	-2725
1040.730	-1857
1040.792	-3170
1040.854	-2440
1040.916	-2693
1040.978	-2487
1041.040	-2630
1041.102	-2278
1041.164	-2765
1041.225	-2900
1041.287	-2406
1041.349	-2226
1041.411	-3105
1041.472	-2687
1041.534	-2344
1041.596	-2659
1041.657	-2994
1041.719	-2404
1041.781	-3288
1041.842	-3147
1041.904	-3200
1041.965	-2707
1042.027	-2826
1042.088	-2086
1042.150	-2796
1042.211	-3369
1042.272	-1550
1042.334	-2791
1042.395	-2616
1042.456	-2037
1042.518	-2410
1042.579	-2226
1042.640	-3130
1042.701	-1769
1042.763	-2887
1042.824	-3417
1042.885	-3126
1042.946	-2066
1043.007	-3267
1043.068	-2628
1043.129	-2981
1043.190	-1667
1043.251	-2640
1043.312	-2135
1043.373	-2503
1043.434	-2906
1043.495	-2531
1043.556	-2485
1043.616	-2152
1043.677	-2477
1043.738	-2633
1043.799	-2819
1043.859	-2133
1043.920	-2408
1043.981	-2029
1044.041	-2767
1044.102	-2903
1044.162	-2563
1044.223	-3111
1044.284	-2533
1044.344	-2688
1044.405	-2918
1044.465	-2961
1044.525	-2860
1044.586	-2444
1044.646	-2690
1044.707	-3268
1044.767	-2558
1044.827	-2508
1044.887	-2016
1044.948	-2782
1045.008	-2506
1045.068	-2396
1045.128	-2223
1045.188	-3238
1045.249	-2181
1045.309	-3108
1045.369	-2470
1045.429	-2799
1045.489	-2674
1045.549	-2670
1045.609	-3182
1045.669	-2819
1045.729	-2225
1045.789	-3130
1045.848	-2512
1045.908	-2244
1045.968	-2687
1046.028	-2864
1046.088	-2682
1046.147	-2322
1046.207	-2540
1046.267	-2978
1046.326	-1658
1046.386	-2216
1046.446	-2267
1046.505	-2252
1046.565	-2077
1046.624	-833
1046.684	-1802
1046.743	-1712
1046.803	-1160
1046.862	-1140
1046.922	0
