'Start Wavelength	183.907
'End Wavelength	1046.922
'Gate Delay	5.000
'Gate Width (ms)	1.050
'Laser Output Level	0.000
'X Position	0.000
'Y Position	0.000
'Z Position	0.000
'Grid Point Number	1.000
'Shot Number	100.000
183.907	680.000
183.977	83.000
184.047	-338
184.116	1078
184.186	-412
184.256	-298
184.325	-325
184.395	-743
184.465	70
184.534	-283
184.604	-147
184.674	-223
184.743	-274
184.813	600
184.883	-293
184.952	312
185.022	-266
185.092	-163
185.161	-273
185.231	-104
185.301	532
185.370	1084
185.440	-67
185.509	41
185.579	-359
185.649	-393
185.718	-210
185.788	279
185.857	112
185.927	110
185.996	-443
186.066	-487
186.136	-405
186.205	182
186.275	504
186.344	730
186.414	-611
186.483	-409
186.553	-99
186.622	921
186.692	-348
186.761	241
186.831	-150
186.900	-722
186.970	-12
187.039	-62
187.109	500
187.178	491
187.248	134
187.317	25
187.387	448
187.456	723
187.526	439
187.595	348
187.664	-646
187.734	926
187.803	488
187.873	260
187.942	796
188.012	404
188.081	218
188.150	81
188.220	22
188.289	19
188.358	70
188.428	-59
188.497	-362
188.567	739
188.636	-341
188.705	322
188.775	427
188.844	-522
188.913	-72
188.983	386
189.052	107
189.121	447
189.191	-496
189.260	164
189.329	453
189.399	-193
189.468	1
189.537	-391
189.606	-203
189.676	390
189.745	491
189.814	750
189.883	434
189.953	368
190.022	1032
190.091	2066
190.161	3057
190.230	435
190.299	49
190.368	24
190.437	-141
190.507	-118
190.576	-726
190.645	38
190.714	-759
190.783	426
190.853	805
190.922	630
190.991	-552
191.060	1005
191.129	-761
191.198	706
191.268	41
191.337	514
191.406	219
191.475	154
191.544	-249
191.613	287
191.682	-38
191.752	-82
191.821	-144
191.890	636
191.959	-97
192.028	334
192.097	185
192.166	292
192.235	-262
192.304	455
192.373	150
192.442	510
192.511	173
192.580	507
192.650	-634
192.719	203
192.788	7
192.857	30
192.926	-928
192.995	280
193.064	726
193.133	963
193.202	1217
193.271	1112
193.340	1522
193.409	699
193.478	1526
193.547	885
193.615	1730
193.684	2088
193.753	1639
193.822	1479
193.891	-43
193.960	139
194.029	-175
194.098	226
194.167	-11
194.236	765
194.305	355
194.374	677
194.443	894
194.512	1038
194.580	911
194.649	1034
194.718	228
194.787	491
194.856	-102
194.925	379
194.994	-259
195.062	1116
195.131	532
195.200	751
195.269	741
195.338	758
195.407	846
195.475	385
195.544	615
195.613	1558
195.682	513
195.751	1033
195.819	408
195.888	517
195.957	1490
196.026	1480
196.094	1039
196.163	823
196.232	837
196.301	29
196.369	931
196.438	1122
196.507	475
196.576	181
196.644	276
196.713	573
196.782	244
196.850	933
196.919	680
196.988	433
197.056	-102
197.125	1033
197.194	619
197.262	599
197.331	203
197.400	297
197.468	152
197.537	259
197.606	341
197.674	1338
197.743	3070
197.812	1077
197.880	3419
197.949	1758
198.017	2663
198.086	1597
198.155	631
198.223	1385
198.292	2972
198.360	1326
198.429	724
198.497	702
198.566	1398
198.635	3548
198.703	707
198.772	1250
198.840	3613
198.909	4313
198.977	424
199.046	1145
199.114	1029
199.183	901
199.251	500
199.320	-169
199.388	406
199.457	157
199.525	717
199.594	373
199.662	596
199.731	873
199.799	144
199.867	332
199.936	-82
200.004	837
200.073	649
200.141	531
200.210	-280
200.278	-27
200.346	596
200.415	759
200.483	427
200.552	767
200.620	321
200.688	336
200.757	318
200.825	667
200.893	960
200.962	4
201.030	443
201.098	18
201.167	330
201.235	537
201.303	410
201.372	999
201.440	986
201.508	812
201.577	750
201.645	492
201.713	274
201.781	251
201.850	340
201.918	696
201.986	869
202.055	1106
202.123	327
202.191	1208
202.259	786
202.327	433
202.396	965
202.464	877
202.532	367
202.600	3815
202.669	1389
202.737	959
202.805	603
202.873	952
202.941	-46
203.009	1247
203.078	224
203.146	1005
203.214	1267
203.282	402
203.350	1215
203.418	293
203.487	649
203.555	705
203.623	668
203.691	1348
203.759	465
203.827	189
203.895	174
203.963	1172
204.031	413
204.099	11
204.168	265
204.236	1229
204.304	553
204.372	260
204.440	930
204.508	787
204.576	791
204.644	806
204.712	245
204.780	1063
204.848	677
204.916	167
204.984	698
205.052	35
205.120	1606
205.188	842
205.256	679
205.324	934
205.392	479
205.460	1732
205.528	713
205.596	1166
205.664	740
205.732	1587
205.799	3647
205.867	6168
205.935	584
206.003	2413
206.071	732
206.139	1821
206.207	659
206.275	1425
206.343	918
206.411	1323
206.478	678
206.546	1787
206.614	804
206.682	1245
206.750	1183
206.818	1201
206.885	974
206.953	74
207.021	1568
207.089	1088
207.157	137
207.225	1759
207.292	370
207.360	125
207.428	728
207.496	981
207.563	1079
207.631	864
207.699	309
207.767	1040
207.834	428
207.902	1499
207.970	1888
208.038	956
208.105	1268
208.173	1976
208.241	1713
208.309	2272
208.376	1662
208.444	3802
208.512	1974
208.579	707
208.647	1256
208.715	1756
208.782	1155
208.850	1847
208.918	1002
208.985	1854
209.053	1531
209.120	743
209.188	995
209.256	1488
209.323	995
209.391	2221
209.459	2215
209.526	1411
209.594	756
209.661	1621
209.729	1864
209.796	1961
209.864	1559
209.932	472
209.999	1813
210.067	1804
210.134	1773
210.202	1601
210.269	1245
210.337	2596
210.404	713
210.472	1326
210.539	1213
210.607	1238
210.674	1486
210.742	2230
210.809	2305
210.877	2303
210.944	2260
211.012	449
211.079	2502
211.146	1369
211.214	1114
211.281	1836
211.349	977
211.416	1579
211.484	2327
211.551	1222
211.618	1700
211.686	1255
211.753	730
211.821	2088
211.888	995
211.955	1776
212.023	1232
212.090	1276
212.157	1493
212.225	2708
212.292	4230
212.359	7988
212.427	22697
212.494	9227
212.561	3368
212.629	3016
212.696	2348
212.763	2743
212.831	1229
212.898	2288
212.965	1728
213.032	2450
213.100	1726
213.167	1817
213.234	2501
213.301	1157
213.369	2207
213.436	2273
213.503	1599
213.570	2650
213.638	1534
213.705	1315
213.772	629
213.839	2458
213.906	3320
213.973	2920
214.041	1283
214.108	2370
214.175	2312
214.242	2212
214.309	1768
214.376	2079
214.444	1760
214.511	1916
214.578	2223
214.645	2522
214.712	2870
214.779	2634
214.846	1955
214.913	3183
214.980	2199
215.048	3666
215.115	3334
215.182	3127
215.249	2696
215.316	1949
215.383	2282
215.450	2440
215.517	1492
215.584	2113
215.651	1623
215.718	2634
215.785	1779
215.852	1838
215.919	1963
215.986	2111
216.053	1245
216.120	787
216.187	1499
216.254	1904
216.321	2510
216.388	1978
216.455	2434
216.522	2118
216.589	3094
216.656	5919
216.722	5397
216.789	3342
216.856	4342
216.923	3561
216.990	3418
217.057	3210
217.124	3344
217.191	2989
217.258	3987
217.324	5284
217.391	6428
217.458	3803
217.525	2572
217.592	3409
217.659	1925
217.725	3402
217.792	4372
217.859	4778
217.926	1741
217.993	1715
218.059	1991
218.126	1788
218.193	964
218.260	2025
218.327	1492
218.393	2061
218.460	2067
218.527	1719
218.594	1836
218.660	4172
218.727	3904
218.794	1763
218.860	2186
218.927	1349
218.994	1607
219.061	2604
219.127	2083
219.194	4107
219.261	2710
219.327	1922
219.394	2626
219.461	668
219.527	1200
219.594	2674
219.661	2294
219.727	991
219.794	1457
219.860	1294
219.927	1947
219.994	3012
220.060	4142
220.127	2340
220.193	2220
220.260	2102
220.326	4091
220.393	6810
220.460	8639
220.526	5395
220.593	3381
220.659	3723
220.726	4119
220.792	11224
220.859	7842
220.925	10247
220.992	15041
221.058	15435
221.125	15135
221.191	11100
221.258	4182
221.324	3149
221.391	2633
221.457	2344
221.524	2451
221.590	3548
221.657	14855
221.723	9389
221.789	8500
221.856	7931
221.922	4008
221.989	3353
222.055	2610
222.121	2097
222.188	3963
222.254	2080
222.321	1498
222.387	1033
222.453	2042
222.520	1794
222.586	1391
222.652	2642
222.719	1902
222.785	2093
222.851	1616
222.918	1279
222.984	1813
223.050	2498
223.116	706
223.183	2187
223.249	849
223.315	1321
223.382	1318
223.448	1128
223.514	796
223.580	1368
223.647	907
223.713	1003
223.779	1436
223.845	2051
223.911	1463
223.978	1017
224.044	1615
224.110	1391
224.176	1945
224.242	1709
224.309	981
224.375	1296
224.441	2015
224.507	1045
224.573	806
224.639	1869
224.705	50
224.772	2740
224.838	1566
224.904	2336
224.970	816
225.036	1635
225.102	520
225.168	2640
225.234	1355
225.300	2467
225.366	1993
225.432	2490
225.499	743
225.565	1673
225.631	2337
225.697	1831
225.763	2261
225.829	3600
225.895	2471
225.961	5667
226.027	4019
226.093	3217
226.159	4088
226.225	5647
226.291	12864
226.357	22385
226.423	10553
226.489	5918
226.554	5173
226.620	4023
226.686	4587
226.752	8122
226.818	10498
226.884	28786
226.950	24407
227.016	9069
227.082	5034
227.148	3923
227.214	4101
227.279	3712
227.345	2053
227.411	3559
227.477	2870
227.543	3687
227.609	4902
227.674	4609
227.740	2448
227.806	3602
227.872	2463
227.938	1605
228.003	4093
228.069	2059
228.135	1814
228.201	2516
228.267	1668
228.332	2790
228.398	3070
228.464	2710
228.530	2113
228.595	2293
228.661	1065
228.727	3679
228.792	2865
228.858	1721
228.924	1147
228.990	4009
229.055	1900
229.121	3550
229.187	1380
229.252	2597
229.318	975
229.384	2174
229.449	2336
229.515	177
229.581	464
229.646	2998
229.712	1458
229.777	6505
229.843	6453
229.909	4401
229.974	4960
230.040	4726
230.105	2984
230.171	3391
230.236	4481
230.302	7879
230.368	5381
230.433	3251
230.499	2842
230.564	4760
230.630	2170
230.695	2474
230.761	3864
230.826	1053
230.892	4692
230.957	2079
231.023	2171
231.088	2293
231.154	2084
231.219	2850
231.284	3236
231.350	4344
231.415	2390
231.481	1748
231.546	1394
231.612	2184
231.677	1104
231.742	1138
231.808	3465
231.873	1439
231.939	390
232.004	4584
232.069	4198
232.135	2081
232.200	1553
232.265	2012
232.331	1165
232.396	1962
232.461	971
232.527	1592
232.592	1114
232.657	2438
232.723	4380
232.788	3225
232.853	1983
232.918	2143
232.984	1131
233.049	1339
233.114	3099
233.179	2667
233.245	4808
233.310	7256
233.375	1833
233.440	2546
233.506	1778
233.571	2510
233.636	2266
233.701	1965
233.766	4479
233.832	5678
233.897	2550
233.962	1786
234.027	3451
234.092	3208
234.157	2361
234.222	2094
234.288	4052
234.353	13490
234.418	10947
234.483	6933
234.548	4001
234.613	4285
234.678	3508
234.743	4304
234.808	14389
234.873	8561
234.938	4245
235.004	3598
235.069	2441
235.134	2282
235.199	2768
235.264	3221
235.329	1460
235.394	3514
235.459	4776
235.524	3281
235.589	3694
235.654	2974
235.719	975
235.784	3278
235.849	2836
235.913	7530
235.978	7418
236.043	9075
236.108	4000
236.173	3662
236.238	4101
236.303	2850
236.368	2992
236.433	5242
236.498	8609
236.563	5952
236.627	10759
236.692	38325
236.757	28715
236.822	11001
236.887	7964
236.952	7464
237.017	5587
237.081	6699
237.146	6847
237.211	15861
237.276	36755
237.341	63082
237.405	26023
237.470	11676
237.535	8785
237.600	6381
237.664	5241
237.729	4101
237.794	5233
237.859	11622
237.923	7604
237.988	4729
238.053	7458
238.118	7645
238.182	20680
238.247	16775
238.312	7006
238.376	5228
238.441	3819
238.506	4832
238.570	2174
238.635	4651
238.700	2709
238.764	3216
238.829	7581
238.893	10124
238.958	5118
239.023	4585
239.087	2964
239.152	4491
239.216	1971
239.281	3190
239.346	2558
239.410	2501
239.475	3345
239.539	18432
239.604	13976
239.668	4296
239.733	3412
239.797	2663
239.862	4795
239.926	12731
239.991	5387
240.055	4015
240.120	2228
240.184	3101
240.249	2119
240.313	2460
240.378	3581
240.442	10775
240.507	17669
240.571	5738
240.635	8091
240.700	9917
240.764	3694
240.829	2981
240.893	1876
240.957	3035
241.022	9682
241.086	17210
241.151	6769
241.215	2262
241.279	5128
241.344	9364
241.408	5123
241.472	2349
241.537	5246
241.601	3801
241.665	2307
241.730	2491
241.794	5135
241.858	3711
241.922	3600
241.987	4018
242.051	2941
242.115	2765
242.179	3521
242.244	2729
242.308	3884
242.372	4314
242.436	3900
242.501	4167
242.565	3333
242.629	2201
242.693	3567
242.757	2320
242.822	2712
242.886	4086
242.950	3437
243.014	3351
243.078	2919
243.142	4034
243.206	3403
243.271	5009
243.335	4018
243.399	6818
243.463	23389
243.527	62836
243.591	18150
243.655	7579
243.719	4382
243.783	5532
243.847	8940
243.911	10654
243.975	10846
244.040	7572
244.104	5415
244.168	4006
244.232	5398
244.296	7534
244.360	9518
244.424	5510
244.488	4106
244.552	4646
244.615	2003
244.679	2703
244.743	3535
244.807	3660
244.871	3441
244.935	3285
244.999	1625
245.063	2471
245.127	3883
245.191	7437
245.255	6890
245.319	4911
245.383	2769
245.446	4557
245.510	2912
245.574	3419
245.638	3799
245.702	2892
245.766	9003
245.829	5487
245.893	3541
245.957	2985
246.021	4204
246.085	3298
246.149	4520
246.212	13758
246.276	20413
246.340	8029
246.404	5984
246.467	7193
246.531	7463
246.595	6613
246.659	6150
246.722	4623
246.786	6019
246.850	7116
246.913	8674
246.977	3725
247.041	4667
247.104	5381
247.168	5003
247.232	11475
247.295	29094
247.359	12825
247.423	5778
247.486	10580
247.550	6376
247.614	5641
247.677	7012
247.741	4512
247.804	3947
247.868	6803
247.932	10541
247.995	25158
248.059	8452
248.122	4823
248.186	7489
248.249	10965
248.313	44776
248.376	43295
248.440	26974
248.503	9028
248.567	9043
248.630	10973
248.694	15282
248.757	20335
248.821	48504
248.884	25333
248.948	24088
249.011	34382
249.075	54131
249.138	45009
249.202	15951
249.265	10846
249.328	13496
249.392	9252
249.455	8680
249.519	6489
249.582	8452
249.645	12158
249.709	8944
249.772	7677
249.835	7318
249.899	7239
249.962	7017
250.025	6036
250.089	16953
250.152	23793
250.215	10348
250.279	6892
250.342	9170
250.405	7901
250.468	7125
250.532	10948
250.595	16124
250.658	65442
250.721	102914
250.785	31494
250.848	17129
250.911	10332
250.974	9985
251.038	13729
251.101	28570
251.164	14748
251.227	15091
251.290	14514
251.354	20109
251.417	93181
251.480	84175
251.543	54729
251.606	174409
251.669	113850
251.732	41036
251.795	40710
251.859	42592
251.922	104351
251.985	52950
252.048	20558
252.111	15185
252.174	13435
252.237	23982
252.300	57787
252.363	58888
252.426	132419
252.489	48589
252.552	24902
252.615	16605
252.678	17499
252.741	43256
252.804	58087
252.867	135722
252.930	69407
252.993	36697
253.056	19932
253.119	15010
253.182	11964
253.245	21779
253.308	14622
253.371	13483
253.434	12869
253.497	12627
253.559	25490
253.622	15305
253.685	17449
253.748	17868
253.811	8364
253.874	11533
253.937	10011
254.000	7921
254.062	16861
254.125	26117
254.188	21011
254.251	16410
254.314	8428
254.376	15641
254.439	16355
254.502	12488
254.565	16988
254.628	29820
254.690	15539
254.753	7254
254.816	7203
254.878	7692
254.941	18206
255.004	18239
255.067	8407
255.129	6675
255.192	4532
255.255	3049
255.317	4876
255.380	3486
255.443	3377
255.505	2685
255.568	3555
255.631	3360
255.693	3960
255.756	2295
255.819	4116
255.881	2703
255.944	3172
256.006	2806
256.069	2650
256.132	2477
256.194	5020
256.257	13994
256.319	10811
256.382	8453
256.444	5994
256.507	3956
256.569	4034
256.632	5039
256.694	7474
256.757	20627
256.819	56491
256.882	19510
256.944	8782
257.007	7706
257.069	8116
257.132	5805
257.194	5493
257.257	5454
257.319	4442
257.381	5961
257.444	15266
257.506	71224
257.569	69387
257.631	37053
257.693	18337
257.756	8278
257.818	7883
257.880	4892
257.943	6372
258.005	3814
258.067	4649
258.130	4440
258.192	6289
258.254	10743
258.317	6580
258.379	4958
258.441	15053
258.503	13472
258.566	18672
258.628	23697
258.690	5440
258.753	5997
258.815	10221
258.877	5533
258.939	4501
259.001	4522
259.064	4278
259.126	4938
259.188	7481
259.250	5934
259.312	7355
259.375	20658
259.437	11564
259.499	4821
259.561	5356
259.623	5313
259.685	4293
259.747	5636
259.809	18707
259.872	32155
259.934	51597
259.996	41755
260.058	11259
260.120	5538
260.182	4625
260.244	4448
260.306	3129
260.368	4170
260.430	3780
260.492	10206
260.554	19768
260.616	14873
260.678	23686
260.740	33232
260.802	8627
260.864	7101
260.926	3995
260.988	5696
261.050	5691
261.112	13935
261.174	36217
261.236	26053
261.298	7474
261.359	14775
261.421	20279
261.483	5396
261.545	5869
261.607	2750
261.669	3830
261.731	9382
261.793	21333
261.854	8200
261.916	6221
261.978	5408
262.040	5857
262.102	4395
262.164	8109
262.225	6276
262.287	4224
262.349	10666
262.411	8661
262.472	4731
262.534	8882
262.596	20417
262.658	6530
262.719	3645
262.781	5941
262.843	19253
262.904	8461
262.966	6554
263.028	8019
263.090	39602
263.151	99908
263.213	29531
263.275	14182
263.336	5842
263.398	5306
263.459	2849
263.521	3102
263.583	10192
263.644	7192
263.706	3666
263.767	2474
263.829	3012
263.891	1989
263.952	1747
264.014	2596
264.075	5692
264.137	13993
264.198	6262
264.260	2731
264.321	2302
264.383	8647
264.444	21870
264.506	5979
264.567	4029
264.629	9343
264.690	17945
264.752	6606
264.813	3086
264.875	3421
264.936	3425
264.998	2396
265.059	2907
265.120	3059
265.182	5219
265.243	28538
265.305	25156
265.366	5897
265.427	3666
265.489	3839
265.550	1763
265.611	3606
265.673	3128
265.734	2966
265.795	2294
265.857	2414
265.918	2793
265.979	7724
266.040	48003
266.102	34420
266.163	9538
266.224	7461
266.286	4680
266.347	2939
266.408	3373
266.469	4199
266.530	2588
266.592	1488
266.653	6326
266.714	9769
266.775	3855
266.836	3058
266.898	2545
266.959	5119
267.020	3008
267.081	3318
267.142	2499
267.203	1777
267.264	1312
267.326	2591
267.387	2596
267.448	2122
267.509	2305
267.570	2509
267.631	1631
267.692	2336
267.753	2115
267.814	2168
267.875	5694
267.936	13152
267.997	6982
268.058	4726
268.119	3204
268.180	3165
268.241	2617
268.302	2389
268.363	1253
268.424	3136
268.485	3375
268.546	1932
268.607	1871
268.668	1857
268.729	1816
268.790	2407
268.851	2385
268.912	8478
268.972	10132
269.033	5274
269.094	2859
269.155	2170
269.216	1935
269.277	2304
269.338	1453
269.398	2457
269.459	2955
269.520	4044
269.581	5678
269.642	6646
269.702	4939
269.763	3072
269.824	2965
269.885	4286
269.945	4880
270.006	2955
270.067	1489
270.128	1453
270.188	1983
270.249	1605
270.310	1488
270.370	2536
270.431	1682
270.492	1927
270.553	2846
270.613	6724
270.674	13760
270.734	5815
270.795	3004
270.856	5684
270.916	3916
270.977	3152
271.038	4228
271.098	3531
271.159	6536
271.219	5664
271.280	3155
271.340	2895
271.401	3276
271.462	10434
271.522	5487
271.583	3801
271.643	3666
271.704	3114
271.764	4170
271.825	10282
271.885	39141
271.946	53249
272.006	15254
272.066	24070
272.127	42145
272.187	10141
272.248	5788
272.308	7013
272.369	30039
272.429	14490
272.489	10189
272.550	10169
272.610	8987
272.671	7012
272.731	7729
272.791	13432
272.852	6417
272.912	5464
272.972	2937
273.033	3764
273.093	6152
273.153	5991
273.214	4436
273.274	4124
273.334	19445
273.394	38200
273.455	13637
273.515	13638
273.575	30735
273.635	12047
273.696	17357
273.756	38379
273.816	13615
273.876	7523
273.936	18748
273.997	32682
274.057	8545
274.117	6968
274.177	9178
274.237	48604
274.297	39782
274.358	25712
274.418	30853
274.478	20993
274.538	8189
274.598	6411
274.658	26577
274.718	34571
274.778	12044
274.838	7006
274.898	15598
274.958	47573
275.018	42146
275.078	24531
275.138	9163
275.198	5271
275.258	3490
275.318	5678
275.378	10111
275.438	10805
275.498	7857
275.558	23434
275.618	44015
275.678	26097
275.738	13232
275.798	10812
275.858	6224
275.918	4059
275.978	4615
276.038	4619
276.098	2360
276.157	7614
276.217	22148
276.277	9878
276.337	6995
276.397	4140
276.457	4899
276.517	4028
276.576	2758
276.636	2150
276.696	5033
276.756	14028
276.815	9046
276.875	4338
276.935	5843
276.995	4527
277.055	2901
277.114	3410
277.174	5334
277.234	19530
277.293	7452
277.353	4628
277.413	3248
277.472	3376
277.532	3838
277.592	4463
277.651	11486
277.711	18859
277.771	7312
277.830	28416
277.890	19487
277.950	15980
278.009	47488
278.069	16137
278.128	15069
278.188	19388
278.248	8438
278.307	21178
278.367	12722
278.426	4688
278.486	3726
278.545	2816
278.605	3351
278.664	2707
278.724	3343
278.783	14801
278.843	38917
278.902	10654
278.962	4921
279.021	5436
279.081	6378
279.140	4699
279.199	5531
279.259	5269
279.318	6481
279.378	8669
279.437	15394
279.496	64399
279.556	173884
279.615	118478
279.675	26519
279.734	15707
279.793	26091
279.853	50359
279.912	17398
279.971	9218
280.031	8588
280.090	21099
280.149	36897
280.208	21820
280.268	114787
280.327	105424
280.386	22537
280.445	17961
280.505	16170
280.564	8532
280.623	6799
280.682	10665
280.742	15546
280.801	5595
280.860	3592
280.919	3971
280.978	3403
281.037	2948
281.097	2706
281.156	3341
281.215	3122
281.274	4708
281.333	23832
281.392	17344
281.451	4468
281.510	2619
281.569	1929
281.628	2358
281.688	1580
281.747	3423
281.806	2645
281.865	2308
281.924	2483
281.983	2194
282.042	1281
282.101	1379
282.160	1756
282.219	1846
282.278	2569
282.337	11519
282.396	7210
282.454	3115
282.513	4101
282.572	18217
282.631	9312
282.690	3133
282.749	1845
282.808	4050
282.867	2982
282.926	2999
282.985	1626
283.043	2369
283.102	1746
283.161	3367
283.220	9735
283.279	22272
283.338	5504
283.396	3271
283.455	3075
283.514	2864
283.573	6287
283.631	3484
283.690	2559
283.749	2717
283.808	7385
283.866	8084
283.925	2312
283.984	3005
284.043	3409
284.101	4765
284.160	3080
284.219	5075
284.277	4353
284.336	6070
284.395	23964
284.453	19438
284.512	5163
284.570	7977
284.629	5812
284.688	5507
284.746	5312
284.805	5473
284.863	8009
284.922	8550
284.981	10172
285.039	14599
285.098	25226
285.156	70966
285.215	228432
285.273	203133
285.332	74008
285.390	35712
285.449	21076
285.507	13091
285.566	9933
285.624	8261
285.683	6886
285.741	5174
285.799	4858
285.858	5496
285.916	3875
285.975	3615
286.033	2206
286.091	2538
286.150	2411
286.208	2757
286.267	3302
286.325	3339
286.383	6221
286.442	4601
286.500	2782
286.558	2036
286.616	1643
286.675	4025
286.733	2512
286.791	2684
286.850	3762
286.908	5218
286.966	9158
287.024	3770
287.083	1978
287.141	2331
287.199	2332
287.257	3832
287.315	3637
287.374	3606
287.432	10631
287.490	6744
287.548	3789
287.606	3053
287.664	3171
287.723	5404
287.781	7204
287.839	5336
287.897	5071
287.955	8372
288.013	11983
288.071	27726
288.129	117222
288.187	314105
288.245	126787
288.303	39615
288.361	21895
288.419	14798
288.477	9963
288.535	7389
288.593	5825
288.651	4705
288.709	3832
288.767	4242
288.825	2712
288.883	3683
288.941	2356
288.999	1802
289.057	1384
289.115	2364
289.173	1756
289.231	2439
289.289	1776
289.346	1964
289.404	2591
289.462	4295
289.520	4918
289.578	2206
289.636	1291
289.694	1080
289.751	1199
289.809	1163
289.867	2086
289.925	2045
289.983	3448
290.040	1130
290.098	1098
290.156	2622
290.214	2721
290.271	827
290.329	1286
290.387	515
290.444	93
290.502	598
290.560	913
290.617	1099
290.675	1633
290.733	1664
290.790	2291
290.848	2048
290.906	1217
290.963	2031
291.021	1736
291.078	1851
291.136	2509
291.194	10335
291.251	23102
291.309	6151
291.366	2530
291.424	2063
291.481	1006
291.539	1418
291.596	1655
291.654	1197
291.711	1175
291.769	2287
291.826	5603
291.884	3823
291.941	1416
291.999	1424
292.056	1677
292.114	2914
292.171	1130
292.228	1897
292.286	2101
292.343	5769
292.401	6169
292.458	3410
292.515	2232
292.573	3817
292.630	3200
292.687	3510
292.745	2394
292.802	3899
292.859	11963
292.917	23960
292.974	12258
293.031	3539
293.089	1973
293.146	2095
293.203	1574
293.260	1744
293.318	4413
293.375	6325
293.432	2225
293.489	2845
293.546	2168
293.604	4260
293.661	14947
293.718	42038
293.775	18972
293.832	8483
293.889	4903
293.947	7135
294.004	4504
294.061	4750
294.118	10052
294.175	21911
294.232	27046
294.289	9121
294.346	4060
294.403	4688
294.460	3198
294.517	3458
294.574	1869
294.631	2898
294.688	3960
294.745	12569
294.802	49912
294.859	47662
294.916	18213
294.973	10807
295.030	7165
295.087	6491
295.144	3744
295.201	4122
295.258	2602
295.315	4644
295.372	18212
295.429	35214
295.486	13101
295.542	7132
295.599	20032
295.656	32189
295.713	22572
295.770	31321
295.827	11450
295.883	5899
295.940	4879
295.997	9351
296.054	7855
296.111	3571
296.167	3013
296.224	2456
296.281	2062
296.338	2295
296.394	2490
296.451	3760
296.508	14972
296.564	26477
296.621	16947
296.678	39977
296.734	55482
296.791	18963
296.848	9153
296.904	10515
296.961	20187
297.018	37950
297.074	26624
297.131	10074
297.187	7495
297.244	10784
297.301	40801
297.357	71111
297.414	23015
297.470	8254
297.527	6584
297.583	4329
297.640	4595
297.696	3935
297.753	2724
297.809	2648
297.866	1694
297.922	2710
297.979	2518
298.035	2759
298.092	6051
298.148	21520
298.204	18173
298.261	8728
298.317	16744
298.374	48982
298.430	26436
298.486	11687
298.543	8118
298.599	6459
298.656	6162
298.712	13434
298.768	36878
298.824	25763
298.881	8172
298.937	4560
298.993	4148
299.050	5292
299.106	4656
299.162	3687
299.218	4603
299.275	4250
299.331	5038
299.387	9119
299.443	40881
299.500	37668
299.556	11753
299.612	5386
299.668	5385
299.724	3530
299.780	3113
299.837	3882
299.893	7182
299.949	28737
300.005	30944
300.061	28338
300.117	54361
300.173	25447
300.229	9272
300.285	11351
300.341	13321
300.397	6630
300.453	3662
300.510	3095
300.566	3840
300.622	4067
300.678	7650
300.734	20159
300.790	28145
300.845	38702
300.901	19672
300.957	25472
301.013	20288
301.069	7446
301.125	5789
301.181	5797
301.237	3697
301.293	3109
301.349	2895
301.405	2418
301.461	2449
301.516	3591
301.572	4605
301.628	8085
301.684	7682
301.740	13751
301.796	20649
301.851	13054
301.907	22390
301.963	22308
302.019	39965
302.074	121817
302.130	114312
302.186	47944
302.242	19427
302.297	12627
302.353	11454
302.409	21870
302.464	17858
302.520	15799
302.576	39659
302.631	43740
302.687	22337
302.743	9865
302.798	4998
302.854	5033
302.910	4450
302.965	5953
303.021	9867
303.076	9529
303.132	13624
303.187	14550
303.243	8070
303.299	4440
303.354	3655
303.410	3094
303.465	2811
303.521	3290
303.576	3571
303.632	4936
303.687	10770
303.743	37410
303.798	31422
303.853	11257
303.909	5941
303.964	5235
304.020	7531
304.075	11691
304.130	9428
304.186	18274
304.241	18533
304.297	14754
304.352	7524
304.358	7198
304.407	4550
304.449	4878
304.463	4994
304.518	5073
304.539	4894
304.573	4595
304.629	5340
304.630	5422
304.684	9729
304.720	23009
304.739	29449
304.794	43421
304.811	36624
304.850	20439
304.902	8879
304.905	8161
304.960	6145
304.992	5495
305.015	4964
305.071	4928
305.083	4658
305.126	3714
305.173	2967
305.181	2855
305.236	2955
305.264	3407
305.292	3880
305.347	4101
305.354	4087
305.402	4067
305.445	5081
305.457	5318
305.512	7160
305.535	6804
305.567	6501
305.622	6762
305.626	7047
305.678	15006
305.716	32344
305.733	37939
305.788	40518
305.807	35010
305.843	27537
305.897	40505
305.898	40604
305.953	38082
305.988	23911
306.008	16859
306.063	9329
306.078	8097
306.118	5444
306.168	3416
306.173	3245
306.228	3646
306.259	3689
306.283	3815
306.338	3845
306.349	3970
306.393	4547
306.440	5580
306.448	5804
306.503	5861
306.530	6784
306.558	10591
306.613	23912
306.620	25499
306.668	31191
306.711	37559
306.723	37683
306.778	27021
306.801	19693
306.833	12909
306.888	6647
306.892	6433
306.943	4984
306.982	4265
306.997	4104
307.052	4394
307.072	4562
307.107	6350
307.162	10346
307.163	10397
307.217	17635
307.253	21943
307.272	21953
307.327	20651
307.343	18540
307.381	14792
307.434	11848
307.436	12325
307.491	28842
307.524	42305
307.546	42809
307.600	33737
307.614	28665
307.655	17258
307.704	9989
307.710	10194
307.765	15007
307.795	19742
307.819	23862
307.874	38582
307.885	38819
307.929	27618
307.975	15923
307.984	16008
308.038	21901
308.065	26482
308.093	52404
308.148	116795
308.156	131572
308.202	192998
308.246	222328
308.257	213838
308.312	106670
308.336	68687
308.366	50995
308.421	31854
308.426	30100
308.475	19548
308.517	13371
308.530	12286
308.585	10610
308.607	10305
308.639	11752
308.694	14705
308.697	15013
308.748	35433
308.787	54699
308.803	52473
308.857	33926
308.877	25858
308.912	20899
308.967	17483
308.967	17449
309.021	23195
309.058	27644
309.076	36429
309.130	67866
309.148	80166
309.185	166932
309.238	317727
309.239	318163
309.293	311580
309.328	258688
309.348	216132
309.402	91879
309.418	62001
309.457	42248
309.508	25652
309.511	25196
309.566	21561
309.598	20556
309.620	22773
309.674	30650
309.688	32692
309.729	29559
309.778	22878
309.783	22460
309.837	17375
309.868	15182
309.892	21682
309.946	39182
309.959	44229
310.001	55089
310.049	63472
310.055	61056
310.109	33563
310.139	18070
310.163	14203
310.218	9060
310.229	8178
310.272	7515
310.319	7361
310.326	7364
310.381	7256
310.409	7355
310.435	7390
310.489	7440
310.499	7453
310.543	8759
310.589	9939
310.598	9900
310.652	9840
310.679	9528
310.706	8093
310.760	5135
310.769	4680
310.814	4117
310.859	3722
310.868	3904
310.923	4827
310.948	5324
310.977	5793
311.031	6513
311.038	6632
311.085	6126
311.128	5302
311.139	5353
311.193	5789
311.218	5925
311.247	5627
311.301	5056
311.308	4974
311.356	5301
311.398	5579
311.410	5468
311.464	4872
311.488	4616
311.518	4738
311.572	4827
311.578	4840
311.626	6871
311.668	8644
311.680	9152
311.734	11224
311.758	12146
311.788	11369
311.842	9804
311.847	9618
311.896	14184
311.937	18135
311.950	17459
312.004	14173
312.027	12694
312.058	10212
312.112	5737
312.117	5284
312.165	5979
312.207	6564
312.297	11861
312.386	8849
312.476	8128
312.566	12889
312.656	6199
312.745	5152
312.835	7167
312.925	7469
313.015	8027
313.104	9451
313.194	4608
313.284	4554
313.374	7855
313.463	6152
313.553	5693
313.643	4348
313.732	4775
313.822	4723
313.912	5577
314.001	6631
314.091	9233
314.180	13163
314.270	9092
314.360	11962
314.449	8016
314.539	4919
314.628	5132
314.718	7853
314.808	11446
314.897	4577
314.987	4581
315.076	6385
315.166	10385
315.255	10422
315.345	9300
315.434	10907
315.524	9609
315.613	9554
315.703	8927
315.792	7997
315.881	7155
315.971	7485
316.060	21742
316.150	43107
316.239	44889
316.328	11858
316.418	5957
316.507	4976
316.597	7660
316.686	6990
316.775	19859
316.865	44556
316.954	6786
317.043	3302
317.133	5318
317.222	4502
317.311	4469
317.400	2853
317.490	7901
317.579	7043
317.668	4358
317.757	6393
317.847	8237
317.936	13027
318.025	15689
318.114	7705
318.203	7734
318.293	11373
318.382	18112
318.471	16638
318.560	32376
318.649	80396
318.738	13197
318.828	9717
318.917	10418
319.006	16936
319.095	50442
319.184	102491
319.273	42403
319.362	18308
319.451	6919
319.540	7015
319.629	18173
319.718	25865
319.807	12822
319.896	35018
319.985	120798
320.074	30843
320.163	13819
320.252	27701
320.341	19647
320.430	14439
320.519	14747
320.608	8467
320.697	7623
320.786	7076
320.875	9390
320.964	11042
321.053	17079
321.142	27034
321.230	24061
321.319	23971
321.408	54298
321.497	20795
321.586	21339
321.675	42075
321.764	32535
321.852	20376
321.941	30847
322.030	15498
322.119	25107
322.207	57808
322.296	58074
322.385	25073
322.474	22058
322.562	64073
322.651	29542
322.740	24492
322.829	41571
322.917	61940
323.006	22869
323.095	16901
323.183	17639
323.272	24089
323.361	51640
323.449	155507
323.538	44536
323.626	123662
323.715	57330
323.804	28286
323.892	113724
323.981	44068
324.069	15889
324.158	68432
324.246	48150
324.335	14077
324.424	18244
324.512	6016
324.601	9081
324.689	12351
324.778	23364
324.866	41669
324.954	8323
325.043	8571
325.131	26769
325.220	52553
325.308	56065
325.397	39529
325.485	18339
325.574	6315
325.662	5019
325.750	6139
325.839	5218
325.927	5205
326.015	8645
326.104	23257
326.192	28660
326.280	5477
326.369	6608
326.457	9189
326.545	14942
326.634	5752
326.722	3342
326.810	4131
326.898	4486
326.987	5244
327.075	15566
327.163	21755
327.251	9728
327.340	6155
327.428	8132
327.516	3893
327.604	5354
327.692	7073
327.781	11979
327.869	21997
327.957	10892
328.045	7742
328.133	5325
328.221	10769
328.309	5865
328.397	4936
328.485	5907
328.574	9261
328.662	31901
328.750	23960
328.838	11572
328.926	5105
329.014	4103
329.102	8516
329.190	27104
329.278	11908
329.366	4319
329.454	3958
329.542	3967
329.630	3844
329.718	5026
329.806	5052
329.893	7093
329.981	5042
330.069	4360
330.157	14424
330.245	36147
330.333	14978
330.421	5256
330.509	9633
330.597	38019
330.684	23030
330.772	11311
330.860	22451
330.948	28155
331.036	8093
331.123	3845
331.211	5394
331.299	7533
331.387	23745
331.475	37169
331.562	10944
331.650	4082
331.738	8972
331.825	14271
331.913	3865
332.001	3640
332.089	9032
332.176	24367
332.264	68987
332.352	40656
332.439	9783
332.527	6947
332.614	7869
332.702	11426
332.790	5787
332.877	28491
332.965	53801
333.052	8558
333.140	10918
333.228	20922
333.315	5259
333.403	7573
333.490	38392
333.578	23553
333.665	14392
333.753	7883
333.840	4746
333.928	10062
334.015	38902
334.103	50808
334.190	145286
334.278	26900
334.365	13729
334.452	7276
334.540	4428
334.627	10665
334.715	14145
334.802	31710
334.889	214090
334.977	151741
335.064	12900
335.151	6283
335.239	8752
335.326	12383
335.413	69015
335.501	74636
335.588	8654
335.675	5503
335.762	11186
335.850	19586
335.937	9448
336.024	40648
336.111	189365
336.199	52660
336.286	7092
336.373	4052
336.460	3049
336.547	4870
336.635	7432
336.722	6124
336.809	6146
336.896	9560
336.983	39113
337.070	95655
337.157	129914
337.245	130375
337.332	75783
337.419	9526
337.506	5952
337.593	8132
337.680	35781
337.767	94922
337.854	23844
337.941	32954
338.028	47816
338.115	12752
338.202	16243
338.289	36723
338.376	129128
338.463	30198
338.550	62489
338.637	52661
338.724	29669
338.811	42870
338.898	7116
338.984	5613
339.071	7857
339.158	7226
339.245	20611
339.332	12028
339.419	32712
339.506	25473
339.593	3124
339.679	4274
339.766	3919
339.853	6989
339.940	13209
340.027	5048
340.113	4936
340.200	7741
340.287	5651
340.374	7255
340.460	11795
340.547	5321
340.634	9984
340.720	36885
340.807	17544
340.894	3966
340.980	4752
341.067	3680
341.154	5343
341.240	8671
341.327	16041
341.414	5626
341.500	4871
341.587	4448
341.674	4291
341.760	11899
341.847	13258
341.933	4061
342.020	1800
342.106	2108
342.193	4792
342.279	8351
342.366	6607
342.452	10774
342.539	6084
342.625	16876
342.712	36708
342.798	14202
342.885	6106
342.971	2140
343.058	1860
343.144	2777
343.230	3022
343.317	3231
343.403	2427
343.490	2543
343.576	1830
343.662	3884
343.749	3745
343.835	5824
343.921	13784
344.008	100946
344.094	186394
344.180	32435
344.267	13658
344.353	55050
344.439	58172
344.525	19621
344.612	7771
344.698	7648
344.784	4477
344.870	3388
344.957	3337
345.043	6707
345.129	4725
345.215	11165
345.301	5783
345.387	3567
345.474	2590
345.560	4159
345.646	6723
345.732	4740
345.818	4085
345.904	4339
345.990	5329
346.076	8849
346.162	20049
346.249	5364
346.335	3262
346.421	4907
346.507	23736
346.593	69228
346.679	13313
346.765	5383
346.851	3180
346.937	3360
347.023	2966
347.108	3326
347.194	3475
347.280	3366
347.366	4464
347.452	22236
347.538	84921
347.624	59686
347.710	50511
347.796	8422
347.882	3886
347.967	4682
348.053	7921
348.139	5549
348.225	3102
348.311	3114
348.397	2299
348.482	5496
348.568	4905
348.654	3075
348.740	1395
348.825	1773
348.911	8256
348.997	45470
349.083	81022
349.168	12310
349.254	3677
349.340	4023
349.425	2354
349.511	5888
349.597	6684
349.682	14367
349.768	45333
349.854	18995
349.939	4952
350.025	3311
350.110	3143
350.196	2637
350.282	1427
350.367	3206
350.453	13230
350.538	11736
350.624	5674
350.709	6258
350.795	2736
350.880	3465
350.966	4692
351.051	12322
351.137	8224
351.222	4451
351.308	15787
351.393	36639
351.479	7490
351.564	2795
351.649	4078
351.735	3397
351.820	1698
351.906	3672
351.991	6563
352.076	27679
352.162	33883
352.247	6575
352.332	5216
352.418	8895
352.503	12753
352.588	56778
352.673	38581
352.759	9001
352.844	4327
352.929	6464
353.014	6520
353.100	5303
353.185	9712
353.270	14349
353.355	12092
353.441	4358
353.526	8046
353.611	13749
353.696	13258
353.781	8124
353.866	2887
353.952	4145
354.037	12334
354.122	26398
354.207	22960
354.292	8124
354.377	3419
354.462	4004
354.547	5201
354.632	5672
354.717	9474
354.802	10725
354.887	4048
354.972	3030
355.057	2101
355.142	2153
355.227	3842
355.312	7696
355.397	18276
355.482	42039
355.567	18269
355.652	14950
355.737	16501
355.822	53993
355.907	37393
355.991	6347
356.076	3050
356.161	4544
356.246	2822
356.331	3208
356.416	14046
356.501	98351
356.585	84475
356.670	10000
356.755	6929
356.840	12508
356.924	73041
357.009	223985
357.094	70491
357.179	14447
357.263	8336
357.348	10617
357.433	10294
357.517	8948
357.602	6243
357.687	5054
357.771	9430
357.856	25178
357.941	16374
358.025	58093
358.110	223286
358.195	87796
358.279	10983
358.364	8863
358.448	36594
358.533	93682
358.617	65319
358.702	64561
358.787	20984
358.871	12498
358.956	8898
359.040	3460
359.125	1742
359.209	3212
359.294	12248
359.378	18822
359.462	9801
359.547	7178
359.631	6975
359.716	2473
359.800	4083
359.885	9513
359.969	3891
360.053	3686
360.138	2497
360.222	6403
360.306	11715
360.391	9613
360.475	17575
360.559	35371
360.644	34501
360.728	24945
360.812	56644
360.896	132786
360.981	53819
361.065	26804
361.149	6611
361.233	6180
361.318	4710
361.402	6246
361.486	5848
361.570	3422
361.654	5468
361.739	19728
361.823	95585
361.907	129017
361.991	18443
362.075	11088
362.159	23232
362.243	15176
362.327	9127
362.411	8418
362.495	8685
362.580	4692
362.664	3734
362.748	2955
362.832	2161
362.916	3174
363.000	13460
363.084	83917
363.168	143743
363.252	28389
363.336	10507
363.420	18924
363.503	86715
363.587	91334
363.671	12576
363.755	8639
363.839	12458
363.923	4545
364.007	12346
364.091	15907
364.175	33730
364.258	125194
364.342	52478
364.426	13941
364.510	8957
364.594	14444
364.677	29208
364.761	120066
364.845	74846
364.929	21778
365.013	17038
365.096	15425
365.180	17515
365.264	40611
365.347	133251
365.431	54339
365.515	13541
365.598	4616
365.682	5233
365.766	15365
365.849	18050
365.933	7713
366.017	12340
366.100	9858
366.184	3892
366.267	5511
366.351	3082
366.435	1834
366.518	2460
366.602	2551
366.685	3733
366.769	4346
366.852	13509
366.936	20347
367.019	8012
367.103	10759
367.186	21415
367.270	4902
367.353	1917
367.436	3215
367.520	2057
367.603	3916
367.687	7625
367.770	13786
367.853	9474
367.937	36346
368.020	51420
368.104	10659
368.187	11297
368.270	16404
368.353	14332
368.437	33915
368.520	90774
368.603	42084
368.687	42027
368.770	66400
368.853	14767
368.936	18668
369.020	19295
369.103	5296
369.186	3001
369.269	3974
369.352	10776
369.436	15845
369.519	7935
369.602	2485
369.685	5803
369.768	5223
369.851	5123
369.934	2851
370.018	6246
370.101	12122
370.184	11810
370.267	8312
370.350	11915
370.433	22232
370.516	59301
370.599	62370
370.682	16632
370.765	36735
370.848	48840
370.931	86935
371.014	32572
371.097	5725
371.180	3983
371.263	3182
371.346	602
371.429	2865
371.511	3505
371.594	8130
371.677	16713
371.760	21328
371.843	15172
371.926	89263
372.009	180548
372.091	49894
372.174	39286
372.257	87276
372.340	30750
372.423	28509
372.505	35409
372.588	12708
372.671	28889
372.754	83943
372.836	39810
372.919	42197
373.002	76205
373.085	19618
373.167	13778
373.250	37292
373.332	82236
373.415	126444
373.498	233947
373.580	78447
373.663	108569
373.746	139554
373.828	27101
373.911	13480
373.993	18508
374.076	78978
374.159	72439
374.241	28981
374.324	69928
374.406	45584
374.489	79357
374.571	194518
374.654	70691
374.736	41268
374.819	125421
374.901	174698
374.983	165034
375.066	25017
375.148	11979
375.231	64412
375.313	114830
375.395	41039
375.478	8016
375.560	4347
375.643	7995
375.725	43789
375.807	155739
375.890	140695
375.972	75324
376.054	39255
376.136	72609
376.219	28601
376.301	47779
376.383	122726
376.465	43890
376.548	24125
376.630	38426
376.712	100551
376.794	43453
376.877	4982
376.959	2734
377.041	5918
377.123	18356
377.205	20612
377.287	2441
377.369	3017
377.452	2091
377.534	3217
377.616	3107
377.698	2406
377.780	1592
377.862	3132
377.944	3369
378.026	1307
378.108	2643
378.190	2689
378.272	2506
378.354	1086
378.436	2615
378.518	10589
378.600	33857
378.682	26680
378.764	48412
378.846	36255
378.928	11705
379.010	14304
379.091	7000
379.173	3243
379.255	2354
379.337	5872
379.419	25977
379.501	67171
379.583	26188
379.664	7353
379.746	17564
379.828	48533
379.910	65196
379.991	52978
380.073	7648
380.155	6169
380.237	3961
380.318	2331
380.400	3162
380.482	10423
380.564	15486
380.645	15610
380.727	13446
380.809	7490
380.890	4450
380.972	3310
381.053	3135
381.135	5514
381.217	17841
381.298	47051
381.380	21615
381.461	25440
381.543	105064
381.624	116583
381.706	18596
381.787	9968
381.869	12014
381.951	54057
382.032	180210
382.113	102611
382.195	17990
382.276	12710
382.358	34870
382.439	91988
382.521	113088
382.602	160454
382.684	69895
382.765	118218
382.846	103462
382.928	92622
383.009	47698
383.090	37910
383.172	145352
383.253	207165
383.334	94510
383.416	129858
383.497	61595
383.578	17208
383.659	35476
383.741	138345
383.822	324881
383.903	160209
383.984	82972
384.066	157420
384.147	90708
384.228	16778
384.309	12035
384.390	7554
384.471	5706
384.553	8500
384.634	12203
384.715	12449
384.796	4767
384.877	9978
384.958	42441
385.039	49015
385.120	15301
385.201	8510
385.282	11739
385.363	13562
385.444	8289
385.525	20082
385.606	72274
385.687	59931
385.768	15214
385.849	22601
385.930	92722
386.011	145132
386.092	35182
386.173	8070
386.254	7403
386.335	7897
386.416	7590
386.496	29893
386.577	47276
386.658	20855
386.739	12109
386.820	13424
386.901	10798
386.981	8803
387.062	4259
387.143	12055
387.224	45708
387.304	41513
387.385	13865
387.466	9676
387.547	13581
387.627	6161
387.708	19482
387.789	87438
387.869	100918
387.950	25888
388.031	4902
388.111	6263
388.192	25273
388.273	37610
388.353	18958
388.434	8277
388.514	20695
388.595	92630
388.676	106914
388.756	47564
388.837	42452
388.917	24397
388.998	3898
389.078	5358
389.159	3673
389.239	3212
389.320	7587
389.400	6878
389.480	23465
389.561	52595
389.641	23788
389.722	7950
389.802	13087
389.883	25743
389.963	63752
390.043	47102
390.124	17022
390.204	19384
390.284	49742
390.365	36170
390.445	64906
390.525	155279
390.605	118881
390.686	27859
390.766	7473
390.846	4604
390.927	3567
391.007	4012
391.087	5622
391.167	5001
391.247	4914
391.328	15760
391.408	21565
391.488	13177
391.568	2171
391.648	4983
391.728	7419
391.808	8087
391.888	8644
391.969	28016
392.049	42789
392.129	20886
392.209	25083
392.289	54867
392.369	31594
392.449	32979
392.529	18287
392.609	10093
392.689	17345
392.769	53251
392.849	41729
392.929	35474
393.009	80385
393.089	45500
393.169	12359
393.248	44849
393.328	207072
393.408	206046
393.488	32223
393.568	8584
393.648	6126
393.728	4541
393.807	3269
393.887	4794
393.967	4266
394.047	8220
394.127	9673
394.206	21978
394.286	106495
394.366	418127
394.446	412793
394.525	85720
394.605	19463
394.685	18997
394.764	49277
394.844	81041
394.924	51066
395.003	11702
395.083	7405
395.163	6921
395.242	6205
395.322	6480
395.402	4065
395.481	9508
395.561	34952
395.640	82148
395.720	57686
395.799	92835
395.879	73838
395.958	37364
396.038	154736
396.117	546208
396.197	555440
396.276	154027
396.356	48297
396.435	35334
396.515	17580
396.594	12146
396.673	17866
396.753	59513
396.832	185649
396.912	153581
396.991	42266
397.070	9391
397.150	5233
397.229	3681
397.308	2847
397.388	3723
397.467	3491
397.546	3033
397.625	1781
397.705	6438
397.784	6386
397.863	2512
397.942	1933
398.022	4271
398.101	32186
398.180	85586
398.259	44774
398.338	9939
398.417	4965
398.497	4595
398.576	4680
398.655	2167
398.734	2918
398.813	4708
398.892	29727
398.971	90919
399.050	44137
399.129	3244
399.208	2753
399.287	2738
399.366	1531
399.445	2397
399.524	2258
399.603	1201
399.682	7818
399.761	29787
399.840	96191
399.919	73515
399.998	8866
400.077	1237
400.156	1496
400.235	5151
400.313	2850
400.392	5922
400.471	25616
400.550	38834
400.629	10215
400.708	5647
400.786	7258
400.865	23313
400.944	22215
401.023	10469
401.102	1144
401.180	1836
401.259	3461
401.338	5526
401.416	6176
401.495	4691
401.574	5451
401.652	3787
401.731	6348
401.810	4116
401.888	1426
401.967	1167
402.046	1716
402.124	5502
402.203	6794
402.281	4548
402.360	7848
402.438	27737
402.517	19729
402.596	6126
402.674	6037
402.753	3575
402.831	2312
402.910	5417
402.988	23869
403.066	64292
403.145	35305
403.223	22314
403.302	49938
403.380	38247
403.459	34954
403.537	13165
403.615	5110
403.694	-85
403.772	1475
403.850	1330
403.929	384
404.007	1782
404.085	6625
404.164	7313
404.242	2920
404.320	10766
404.398	31343
404.477	48190
404.555	129289
404.633	110414
404.711	27999
404.789	12202
404.868	4591
404.946	1581
405.024	1213
405.102	578
405.180	431
405.258	841
405.336	1968
405.415	2935
405.493	8161
405.571	7424
405.649	1284
405.727	835
405.805	5560
405.883	4539
405.961	5083
406.039	8011
406.117	2319
406.195	5886
406.273	32604
406.351	105345
406.429	61930
406.507	12009
406.585	3876
406.663	3142
406.740	4096
406.818	3123
406.896	2341
406.974	3422
407.052	10601
407.130	63698
407.208	82375
407.285	15342
407.363	1780
407.441	2352
407.519	773
407.596	2583
407.674	7023
407.752	17567
407.830	25793
407.907	14887
407.985	3738
408.063	2090
408.141	1439
408.218	7005
408.296	6588
408.373	3188
408.451	2956
408.529	3023
408.606	542
408.684	510
408.762	-367
408.839	-11
408.917	372
408.994	89
409.072	-863
409.149	-223
409.227	580
409.304	759
409.382	-446
409.459	448
409.537	1551
409.614	1344
409.692	678
409.769	643
409.846	1735
409.924	3211
410.001	857
410.079	461
410.156	1484
410.233	1585
410.311	705
410.388	912
410.465	1027
410.543	755
410.620	931
410.697	2076
410.775	2279
410.852	-407
410.929	2856
411.006	3356
411.083	826
411.161	4436
411.238	7071
411.315	4302
411.392	645
411.469	2760
411.547	1744
411.624	-407
411.701	811
411.778	2294
411.855	6444
411.932	3142
412.009	1055
412.086	1766
412.163	2983
412.240	4316
412.317	4954
412.394	4479
412.471	1123
412.548	786
412.625	1383
412.702	3975
412.779	6738
412.856	3342
412.933	1400
413.010	1978
413.087	4892
413.164	22517
413.241	30003
413.318	6930
413.395	3836
413.471	5408
413.548	2436
413.625	1965
413.702	3076
413.779	3034
413.855	668
413.932	281
414.009	365
414.086	1274
414.162	1450
414.239	5052
414.316	24641
414.393	48240
414.469	16301
414.546	1089
414.623	1104
414.699	1346
414.776	2245
414.853	1475
414.929	1642
415.006	1884
415.082	4192
415.159	2709
415.236	2071
415.312	1349
415.389	4891
415.465	5694
415.542	2392
415.618	1181
415.695	3868
415.771	2226
415.848	2282
415.924	2881
416.000	1920
416.077	2136
416.153	-480
416.230	-654
416.306	1091
416.383	1679
416.459	1727
416.535	539
416.612	261
416.688	-61
416.764	862
416.841	301
416.917	898
416.993	1365
417.069	2719
417.146	4753
417.222	4890
417.298	2680
417.374	739
417.451	1636
417.527	2302
417.603	2781
417.679	1911
417.755	1578
417.831	802
417.908	306
417.984	430
418.060	311
418.136	5124
418.212	7062
418.288	1887
418.364	1848
418.440	384
418.516	3400
418.592	8308
418.668	12289
418.744	14027
418.820	9555
418.896	1502
418.972	-223
419.048	1109
419.124	6776
419.200	3731
419.276	284
419.352	-762
419.428	444
419.504	1186
419.579	2509
419.655	1671
419.731	2247
419.807	8385
419.883	16538
419.959	10253
420.034	3166
420.110	8193
420.186	29805
420.262	22629
420.337	3935
420.413	2454
420.489	673
420.565	1012
420.640	960
420.716	583
420.792	-558
420.867	1185
420.943	243
421.019	3357
421.094	1969
421.170	187
421.245	-135
421.321	62
421.397	217
421.472	1597
421.548	5799
421.623	4155
421.699	2323
421.774	1552
421.850	1326
421.925	3956
422.001	2540
422.076	724
422.152	1050
422.227	2980
422.302	2274
422.378	2521
422.453	5024
422.529	13876
422.604	69786
422.679	148366
422.755	68512
422.830	11365
422.905	3262
422.981	602
423.056	526
423.131	919
423.207	855
423.282	1351
423.357	7066
423.432	4266
423.508	5081
423.583	11740
423.658	10354
423.733	2963
423.808	3638
423.883	3115
423.959	1740
424.034	1268
424.109	500
424.184	-199
424.259	79
424.334	-35
424.409	198
424.484	640
424.559	398
424.634	1075
424.709	2245
424.784	2936
424.859	1677
424.934	5060
425.009	21683
425.084	33262
425.159	11766
425.234	731
425.309	902
425.384	4497
425.459	7268
425.534	2980
425.609	2329
425.683	1277
425.758	951
425.833	1748
425.908	3299
425.983	13516
426.058	34303
426.132	14294
426.207	3767
426.282	7704
426.357	6475
426.431	1685
426.506	1404
426.581	1414
426.655	1857
426.730	446
426.805	224
426.879	1119
426.954	1470
427.029	6840
427.103	38803
427.178	85533
427.253	37062
427.327	4124
427.402	7427
427.476	15990
427.551	7006
427.625	3648
427.700	2779
427.774	1226
427.849	2667
427.923	1324
427.998	545
428.072	1085
428.147	5486
428.221	13492
428.296	17276
428.370	5563
428.444	3056
428.519	9555
428.593	20940
428.667	17313
428.742	21184
428.816	16728
428.890	27220
428.965	28560
429.039	19036
429.113	23583
429.188	7334
429.262	1384
429.336	5953
429.410	17189
429.485	12717
429.559	16588
429.633	12971
429.707	1663
429.781	9308
429.855	40772
429.930	50479
430.004	54634
430.078	93558
430.152	63564
430.226	21577
430.300	13980
430.374	1989
430.448	5161
430.522	31729
430.596	82393
430.670	44086
430.744	53984
430.818	82288
430.892	19279
430.966	2024
431.040	1450
431.114	-77
431.188	208
431.262	1402
431.336	1479
431.410	9572
431.484	25262
431.557	14602
431.631	685
431.705	804
431.779	2742
431.853	10531
431.927	6371
432.000	875
432.074	1057
432.148	2749
432.222	3143
432.295	1495
432.369	1200
432.443	5339
432.516	40240
432.590	88380
432.664	31557
432.737	2724
432.811	285
432.885	344
432.958	-161
433.032	-54
433.106	-47
433.179	-43
433.253	-374
433.326	-492
433.400	-303
433.473	622
433.547	-468
433.620	975
433.694	2499
433.767	3980
433.841	1915
433.914	212
433.988	216
434.061	108
434.134	-486
434.208	-66
434.281	-631
434.355	-282
434.428	470
434.501	-89
434.575	722
434.648	1339
434.721	-420
434.795	-498
434.868	-963
434.941	-1063
435.014	-657
435.088	-602
435.161	561
435.234	1798
435.307	2310
435.381	722
435.454	13
435.527	-559
435.600	-431
435.673	-107
435.746	-1187
435.819	-308
435.892	-712
435.966	-216
436.039	235
436.112	478
436.185	-125
436.258	-843
436.331	-1056
436.404	-866
436.477	-1513
436.550	-199
436.623	-1296
436.696	15
436.769	207
436.842	-371
436.915	767
436.987	2705
437.060	168
437.133	21
437.206	-850
437.279	816
437.352	-259
437.425	-405
437.498	694
437.570	4729
437.643	2602
437.716	136
437.789	-1184
437.861	1468
437.934	4477
438.007	1689
438.080	-253
438.152	949
438.225	5945
438.298	53934
438.370	123263
438.443	44233
438.516	5617
438.588	716
438.661	-110
438.734	26
438.806	1150
438.879	1780
438.951	525
439.024	1729
439.096	267
439.169	220
439.241	-682
439.314	78
439.386	2672
439.459	6340
439.531	8028
439.604	2313
439.676	224
439.749	-590
439.821	-1033
439.893	-189
439.966	1363
440.038	1352
440.110	254
440.183	777
440.255	-420
440.327	2099
440.400	22971
440.472	78838
440.544	44740
440.617	4311
440.689	1786
440.761	2603
440.833	3902
440.905	2197
440.978	197
441.050	-570
441.122	739
441.194	-577
441.266	-371
441.338	-652
441.411	3139
441.483	22819
441.555	29758
441.627	5221
441.699	5364
441.771	5512
441.843	421
441.915	-305
441.987	-109
442.059	-1038
442.131	1116
442.203	3578
442.275	3621
442.347	2683
442.419	-24
442.491	2645
442.563	6407
442.635	9448
442.706	21063
442.778	14946
442.850	724
442.922	-55
442.994	2001
443.066	3146
443.137	1487
443.209	408
443.281	354
443.353	3866
443.425	7629
443.496	10491
443.568	7896
443.640	2695
443.711	1026
443.783	377
443.855	-546
443.926	107
443.998	1137
444.070	2696
444.141	1259
444.213	3180
444.285	4287
444.356	5171
444.428	5213
444.499	494
444.571	-720
444.642	-612
444.714	591
444.785	2921
444.857	5807
444.928	17671
445.000	9000
445.071	11461
445.143	11449
445.214	3006
445.285	7944
445.357	22091
445.428	19852
445.500	29187
445.571	25917
445.642	8386
445.714	16451
445.785	24745
445.856	3984
445.928	3426
445.999	1544
446.070	611
446.141	2362
446.213	3917
446.284	1184
446.355	3047
446.426	1290
446.497	2298
446.569	4868
446.640	6862
446.711	2937
446.782	1132
446.853	4428
446.924	3402
446.995	247
447.066	2153
447.138	6135
447.209	2872
447.280	-677
447.351	-56
447.422	505
447.493	1589
447.564	2300
447.635	2723
447.706	69
447.777	-435
447.847	-438
447.918	397
447.989	2452
448.060	4896
448.131	12120
448.202	8810
448.273	4390
448.344	1616
448.414	441
448.485	513
448.556	444
448.627	163
448.698	110
448.768	-225
448.839	455
448.910	5175
448.981	3436
449.051	590
449.122	517
449.193	-1196
449.263	-165
449.334	-401
449.405	998
449.475	4892
449.546	3310
449.616	6140
449.687	4612
449.758	1026
449.828	-199
449.899	-228
449.969	-294
450.040	-287
450.110	1451
450.181	4012
450.251	218
450.322	403
450.392	385
450.463	409
450.533	-394
450.604	265
450.674	53
450.744	-14
450.815	-474
450.885	-174
450.955	-149
451.026	465
451.096	22
451.166	1606
451.237	7443
451.307	18046
451.377	4994
451.447	-90
451.518	-619
451.588	374
451.658	346
451.728	4438
451.799	21162
451.869	19892
451.939	1948
452.009	163
452.079	222
452.149	700
452.219	5907
452.289	23882
452.360	13090
452.430	1373
452.500	406
452.570	2243
452.640	3187
452.710	11051
452.780	17505
452.850	9806
452.920	7231
452.990	2509
453.060	1736
453.129	2566
453.199	5025
453.269	27523
453.339	48305
453.409	69130
453.479	80587
453.549	113331
453.619	117245
453.688	35452
453.758	3543
453.828	2118
453.898	1071
453.968	1338
454.037	723
454.087	280
454.107	85
454.168	124
454.177	118
454.247	-353
454.249	-292
454.316	717
454.330	1040
454.386	2055
454.411	5385
454.456	10818
454.492	12643
454.525	14326
454.574	6266
454.595	2789
454.655	1405
454.665	1201
454.734	1841
454.736	2007
454.804	5986
454.817	9059
454.873	21142
454.898	21587
454.943	22428
454.979	14850
455.013	8194
455.060	4531
455.082	3003
455.141	4132
455.152	4261
455.221	16105
455.222	16339
455.291	27971
455.303	26735
455.360	20778
455.384	27998
455.430	39468
455.465	29351
455.499	20393
455.546	19691
455.569	19052
455.627	10046
455.638	8515
455.707	1140
455.708	1157
455.777	1306
455.789	1234
455.846	577
455.869	573
455.916	776
455.950	933
455.985	1036
456.031	1330
456.054	1402
456.112	388
456.124	187
456.193	497
456.193	480
456.262	953
456.274	1432
456.332	3488
456.355	3898
456.401	4424
456.436	3155
456.470	1979
456.516	920
456.540	379
456.597	197
456.609	140
456.678	913
456.678	904
456.747	777
456.759	646
456.817	115
456.840	286
456.886	621
456.920	401
456.955	243
457.001	553
457.024	734
457.082	1925
457.093	2153
457.162	4812
457.163	4836
457.232	5880
457.243	5269
457.301	2597
457.324	1908
457.370	902
457.405	1265
457.439	1597
457.485	966
457.508	644
457.566	1136
457.577	1208
457.646	1254
457.647	1266
457.715	1398
457.727	1346
457.784	1157
457.808	1441
457.853	2000
457.889	2199
457.922	2254
457.969	2099
457.991	1990
458.050	2342
458.060	2397
458.129	2981
458.130	2978
458.198	1658
458.211	1553
458.267	1099
458.292	918
458.336	1198
458.372	1621
458.405	1828
458.453	1726
458.474	1683
458.533	2607
458.543	2788
458.611	4187
458.614	4223
458.680	2877
458.694	2419
458.749	1776
458.775	1769
458.818	1652
458.855	1820
458.887	1979
458.936	1886
458.955	1792
459.016	1733
459.024	1775
459.093	2745
459.097	2777
459.162	2571
459.177	2611
459.230	3350
459.257	3564
459.299	3294
459.338	2955
459.368	2871
459.418	3059
459.437	2962
459.499	2640
459.505	2624
459.574	2253
459.579	2232
459.643	2141
459.659	2233
459.711	2793
459.740	2834
459.780	2531
459.820	2491
459.849	2628
459.900	3246
459.917	3390
459.981	3912
459.986	3915
460.054	3359
460.061	3312
460.123	3505
460.141	3610
460.191	4242
460.222	4945
460.260	5370
460.302	5954
460.328	5613
460.382	4122
460.397	4027
460.462	3536
460.465	3570
460.534	4916
460.543	5091
460.602	7851
460.623	9004
460.671	12842
460.703	16648
460.739	14678
460.783	10080
460.808	8908
460.864	4297
460.876	3809
460.944	3197
460.945	3186
461.013	2915
461.024	2897
461.081	3342
461.104	3719
461.150	3586
461.184	3139
461.218	3209
461.264	3085
461.286	3004
461.345	3099
461.355	3133
461.423	3692
461.425	3699
461.491	4364
461.505	4550
461.559	9141
461.585	11386
461.628	15674
461.665	20760
461.696	22057
461.745	26703
461.764	24683
461.825	7490
461.832	6921
461.901	4463
461.905	4479
461.969	3323
461.985	3066
462.037	3875
462.065	4417
462.105	5488
462.145	6309
462.173	8016
462.225	11683
462.241	12568
462.305	18223
462.310	17814
462.378	9621
462.385	8204
462.446	3703
462.465	3321
462.514	3586
462.545	3621
462.582	3593
462.625	3922
462.650	3907
462.705	3531
462.718	3739
462.785	4915
462.786	4950
462.854	7078
462.865	7489
462.922	8700
462.945	9313
462.990	7560
463.025	5109
463.058	4483
463.104	4072
463.126	3904
463.184	3951
463.194	4080
463.262	4193
463.264	4232
463.330	4038
463.344	3846
463.398	4789
463.424	5360
463.466	5287
463.504	5188
463.533	5473
463.583	5919
463.601	6009
463.663	6188
463.669	6385
463.737	8704
463.743	8929
463.805	14773
463.823	16394
463.873	22146
463.903	26299
463.940	26531
463.982	27366
464.008	22729
464.062	9005
464.076	8126
464.142	4660
464.144	4631
464.211	4517
464.221	4603
464.279	5131
464.301	5283
464.347	5953
464.381	6412
464.414	6976
464.461	7800
464.482	7748
464.540	7808
464.550	7747
464.617	6652
464.620	6610
464.685	8009
464.699	8336
464.753	9575
464.779	10189
464.820	10345
464.859	10429
464.888	9955
464.938	9231
464.956	9517
465.018	10340
465.023	10220
465.091	8406
465.098	8192
465.158	7588
465.177	7476
465.226	7714
465.257	7795
465.293	8280
465.336	8776
465.361	9453
465.416	11086
465.428	12244
465.495	18365
465.496	18448
465.563	26708
465.575	28214
465.631	31543
465.654	33056
465.698	20755
465.734	9155
465.765	7842
465.813	6486
465.833	6751
465.893	8081
465.900	7995
465.968	7153
465.972	7083
466.035	7232
466.052	7234
466.102	7566
466.131	7749
466.170	7323
466.210	6865
466.237	7327
466.290	8217
466.304	8252
466.369	8192
466.372	8228
466.439	8959
466.449	9038
466.506	10294
466.528	10774
466.573	17585
466.607	22622
466.641	29307
466.687	38601
466.708	41019
466.766	47928
466.775	44078
466.842	13969
466.845	12518
466.909	10402
466.925	10013
466.977	10362
467.004	10555
467.044	10901
467.083	11220
467.111	12057
467.163	13534
467.178	13759
467.242	14617
467.245	14574
467.312	13128
467.321	12916
467.379	13206
467.400	13270
467.446	14081
467.480	14624
467.559	12409
467.638	11586
467.717	11551
467.796	12966
467.875	13353
467.955	12926
468.034	26630
468.113	45571
468.192	60375
468.271	13275
468.350	10791
468.429	10147
468.508	9897
468.588	9954
468.667	9472
468.746	9692
468.825	10058
468.904	10198
468.983	13710
469.062	19337
469.141	20483
469.220	9616
469.299	10011
469.378	10076
469.456	13516
469.535	11937
469.614	10990
469.693	12787
469.772	16741
469.851	21508
469.930	13958
470.009	10777
470.088	10679
470.166	12144
470.245	15007
470.324	13827
470.403	11850
470.482	10855
470.560	9601
470.639	11352
470.718	12963
470.797	11473
470.875	14074
470.954	17030
471.033	16301
471.111	8379
471.190	9201
471.269	8648
471.347	9255
471.426	9553
471.505	11383
471.583	11494
471.662	11750
471.740	9992
471.819	10258
471.898	9674
471.976	9639
472.055	9754
472.133	11449
472.212	14404
472.290	14007
472.369	9802
472.447	9311
472.526	8570
472.604	10153
472.683	10439
472.761	9965
472.839	9165
472.918	9652
472.996	10445
473.075	11933
473.153	10328
473.231	8960
473.310	11745
473.388	9492
473.466	10615
473.545	11999
473.623	14776
473.701	12162
473.780	9520
473.858	8158
473.936	11219
474.014	9238
474.093	10951
474.171	16218
474.249	21551
474.327	13098
474.405	8640
474.484	9198
474.562	7896
474.640	8324
474.718	9542
474.796	8917
474.874	8366
474.952	8150
475.030	7804
475.108	8011
475.187	9257
475.265	11905
475.343	17048
475.421	16352
475.499	9143
475.577	10347
475.655	15805
475.733	27315
475.811	44653
475.889	37386
475.966	21125
476.044	10482
476.122	14140
476.200	15540
476.278	10898
476.356	9481
476.434	10572
476.512	13256
476.590	16462
476.667	12159
476.745	8923
476.823	9722
476.901	9581
476.979	9362
477.056	8543
477.134	10250
477.212	8962
477.290	9850
477.367	7909
477.445	8483
477.523	8176
477.601	8902
477.678	9306
477.756	11284
477.834	12446
477.911	7782
477.989	9086
478.066	8638
478.144	11192
478.222	14495
478.299	19871
478.377	14192
478.454	8021
478.532	8633
478.609	8064
478.687	9388
478.764	7879
478.842	8730
478.919	9408
478.997	9052
479.074	8531
479.152	10150
479.229	12778
479.307	8890
479.384	7175
479.461	7181
479.539	8754
479.616	10297
479.694	8316
479.771	9351
479.848	9938
479.926	14208
480.003	14193
480.080	7505
480.157	7840
480.235	7123
480.312	8102
480.389	10640
480.467	15672
480.544	18265
480.621	7988
480.698	9192
480.775	11231
480.853	10375
480.930	9424
481.007	10062
481.084	11153
481.161	10638
481.238	11364
481.315	7541
481.392	6963
481.470	8284
481.547	9021
481.624	8919
481.701	8102
481.778	8410
481.855	10432
481.932	16491
482.009	24435
482.086	14503
482.163	9823
482.240	14508
482.317	24874
482.393	15029
482.470	8532
482.547	8370
482.624	8222
482.701	8640
482.778	7988
482.855	7349
482.932	6902
483.009	7385
483.085	8279
483.162	7147
483.239	7938
483.316	7229
483.393	6462
483.469	7712
483.546	8923
483.623	10240
483.699	7895
483.776	8968
483.853	9430
483.930	17542
484.006	41033
484.083	64369
484.160	30850
484.236	40929
484.313	29929
484.389	23215
484.466	21200
484.543	20116
484.619	19224
484.696	22272
484.772	22832
484.849	23978
484.925	19347
485.002	19799
485.078	21271
485.155	20257
485.231	19094
485.308	18481
485.384	19415
485.461	27402
485.537	40440
485.614	44502
485.690	18057
485.766	18280
485.843	21096
485.919	26441
485.995	24896
486.072	17058
486.148	17555
486.224	16924
486.301	18395
486.377	19989
486.453	19234
486.530	21721
486.606	26463
486.682	29076
486.758	35013
486.835	38303
486.911	32907
486.987	54019
487.063	51642
487.139	56175
487.215	36641
487.292	19918
487.368	17963
487.444	18795
487.520	20976
487.596	17621
487.672	19758
487.748	26555
487.824	28456
487.900	18299
487.976	17591
488.052	19531
488.128	21484
488.204	19337
488.280	17330
488.356	25711
488.432	48648
488.508	66349
488.584	20435
488.660	16507
488.736	15545
488.812	18167
488.888	22984
488.964	32457
489.039	63514
489.115	82591
489.191	40144
489.267	17569
489.343	16827
489.418	14712
489.494	13961
489.570	12628
489.646	14836
489.722	14324
489.797	16457
489.873	29027
489.949	52349
490.024	36954
490.100	13455
490.176	15420
490.251	18518
490.327	20516
490.403	13096
490.478	12605
490.554	11485
490.629	11745
490.705	12217
490.781	13068
490.856	13159
490.932	14868
491.007	15660
491.083	13857
491.158	13734
491.234	22532
491.309	41680
491.385	36220
491.460	13115
491.536	15536
491.611	11989
491.686	14456
491.762	21084
491.837	41100
491.913	65864
491.988	90214
492.063	93034
492.139	27626
492.214	18505
492.289	11694
492.365	11636
492.440	14060
492.515	13276
492.590	12746
492.666	11406
492.741	16515
492.816	23044
492.891	12725
492.967	11063
493.042	9857
493.117	10515
493.192	12343
493.267	29163
493.342	70020
493.418	76740
493.493	12954
493.568	9174
493.643	10469
493.718	13900
493.793	20451
493.868	20035
493.943	12361
494.018	10736
494.093	9994
494.168	11212
494.243	8767
494.318	8830
494.393	8736
494.468	8096
494.543	8234
494.618	11426
494.693	8962
494.768	9310
494.842	10037
494.917	8596
494.992	10638
495.067	8745
495.142	7708
495.217	9672
495.292	9894
495.366	11596
495.441	13356
495.516	17344
495.591	31768
495.665	97493
495.740	175838
495.815	50807
495.890	13942
495.964	10352
496.039	13059
496.114	11873
496.188	12251
496.263	11406
496.338	11469
496.412	13434
496.487	16350
496.561	16024
496.636	15961
496.710	12900
496.785	14567
496.860	16026
496.934	11008
497.009	12530
497.083	11837
497.158	13568
497.232	15033
497.307	18297
497.381	13925
497.455	18679
497.530	24370
497.604	14826
497.679	18691
497.753	27803
497.827	30612
497.902	23493
497.976	37009
498.050	126365
498.125	361453
498.199	283863
498.273	35994
498.348	27312
498.422	22000
498.496	22991
498.570	19139
498.645	15727
498.719	16522
498.793	21418
498.867	35652
498.941	57262
499.016	178568
499.090	362636
499.164	87988
499.238	14705
499.312	14181
499.386	18207
499.460	15717
499.534	14892
499.609	18393
499.683	26651
499.757	29535
499.831	90606
499.905	264136
499.979	193803
500.053	33986
500.127	32937
500.201	21432
500.275	14955
500.349	14502
500.422	17441
500.496	27498
500.570	65340
500.644	159629
500.718	240958
500.792	37909
500.866	16035
500.940	21762
501.013	16071
501.087	18363
501.161	29405
501.235	40999
501.309	106928
501.382	241626
501.456	167995
501.530	47274
501.603	72642
501.677	23465
501.751	12101
501.825	17770
501.898	41281
501.972	93392
502.046	46075
502.119	18524
502.193	49088
502.266	98371
502.340	43004
502.413	52226
502.487	84838
502.561	42723
502.634	13472
502.708	12877
502.781	10705
502.855	10111
502.928	9135
503.002	9324
503.075	8756
503.149	10917
503.222	10402
503.295	10597
503.369	13253
503.442	25173
503.516	85126
503.589	173088
503.662	93387
503.736	36696
503.809	79820
503.882	62509
503.956	96772
504.029	65247
504.102	23729
504.175	19382
504.249	9246
504.322	12762
504.395	11934
504.468	9086
504.542	9446
504.615	6864
504.688	8289
504.761	6877
504.834	11572
504.907	13966
504.980	17256
505.053	10286
505.127	12759
505.200	16726
505.273	14660
505.346	9115
505.419	7680
505.492	7635
505.565	5770
505.638	7756
505.711	7814
505.784	6849
505.857	7345
505.930	8176
506.003	6408
506.076	10035
506.149	11944
506.221	12457
506.294	15803
506.367	49452
506.440	126050
506.513	51394
506.586	13607
506.659	8955
506.731	7769
506.804	11103
506.877	12618
506.950	9541
507.022	8182
507.095	9896
507.168	12525
507.241	8535
507.313	6679
507.386	8034
507.459	11433
507.531	7085
507.604	5693
507.677	6651
507.749	5378
507.822	10508
507.894	19592
507.967	19297
508.040	11131
508.112	10296
508.185	9199
508.257	9826
508.330	13811
508.402	8825
508.475	9831
508.547	10573
508.620	10507
508.692	17569
508.765	10544
508.837	8088
508.909	8127
508.982	8270
509.054	9456
509.127	8111
509.199	7143
509.271	6699
509.344	6941
509.416	6714
509.488	7405
509.560	9214
509.633	8125
509.705	10821
509.777	10744
509.849	14840
509.922	8685
509.994	7019
510.066	9969
510.138	9555
510.210	18420
510.283	14833
510.355	12249
510.427	11128
510.499	11536
510.571	10311
510.643	10896
510.715	17221
510.787	11833
510.859	12032
510.931	13426
511.003	17086
511.076	13638
511.148	8824
511.219	11369
511.291	18837
511.363	20248
511.435	9714
511.507	8112
511.579	9014
511.651	9031
511.723	8693
511.795	8065
511.867	9399
511.939	12624
512.010	24253
512.082	16975
512.154	8589
512.226	10310
512.298	15358
512.369	19518
512.441	14855
512.513	14809
512.585	10450
512.656	13464
512.728	13139
512.800	10029
512.871	10268
512.943	10120
513.015	8118
513.086	10279
513.158	10967
513.230	11037
513.301	16150
513.373	17091
513.444	10073
513.516	8903
513.588	8919
513.659	11390
513.731	13270
513.802	11789
513.874	26672
513.945	34701
514.016	11518
514.088	9507
514.159	9997
514.231	15385
514.302	17167
514.374	13175
514.445	13695
514.516	29389
514.588	17650
514.659	14135
514.730	25614
514.802	17175
514.873	9224
514.944	12404
515.016	11923
515.087	14007
515.158	19961
515.229	22451
515.301	10918
515.372	12792
515.443	8431
515.514	8623
515.585	7734
515.656	9265
515.728	8457
515.799	7655
515.870	9715
515.941	9800
516.012	9733
516.083	13584
516.154	14860
516.225	18196
516.296	16064
516.367	13431
516.438	13822
516.509	16970
516.580	28961
516.651	88895
516.722	222830
516.793	73084
516.864	23904
516.935	23159
517.006	24259
517.077	37123
517.148	89435
517.219	259626
517.289	280807
517.360	131113
517.431	40175
517.502	14455
517.573	15029
517.643	14661
517.714	16317
517.785	16481
517.856	14847
517.926	17969
517.997	19049
518.068	20002
518.138	26509
518.209	50707
518.280	207341
518.350	498845
518.421	118652
518.492	20789
518.562	16314
518.633	16081
518.703	11675
518.774	16575
518.845	19621
518.915	18066
518.986	14896
519.056	20884
519.127	38209
519.197	66624
519.268	140757
519.338	69598
519.408	20827
519.479	23390
519.549	15545
519.620	13579
519.690	10339
519.760	10758
519.831	11406
519.901	10298
519.971	9868
520.042	11014
520.112	13042
520.182	15363
520.253	14749
520.323	11673
520.393	14165
520.463	18771
520.534	14782
520.604	26507
520.674	15006
520.744	16232
520.814	31248
520.885	27401
520.955	62478
521.025	161981
521.095	45172
521.165	11780
521.235	11334
521.305	8665
521.375	9220
521.445	11273
521.515	13165
521.585	15868
521.655	12727
521.725	12857
521.795	11352
521.865	8219
521.935	17207
522.005	12404
522.075	8682
522.145	11036
522.215	11278
522.285	17114
522.355	26166
522.424	45957
522.494	32585
522.564	17853
522.634	42922
522.704	87042
522.774	24150
522.843	10967
522.913	10605
522.983	11533
523.053	9119
523.122	11218
523.192	17495
523.262	54692
523.331	34291
523.401	9266
523.471	8179
523.540	9186
523.610	6228
523.680	7667
523.749	8653
523.819	11136
523.888	9211
523.958	7895
524.027	8666
524.097	8953
524.166	7912
524.236	8357
524.305	10938
524.375	6985
524.444	6876
524.514	10127
524.583	8595
524.653	10641
524.722	12359
524.791	7913
524.861	9422
524.930	6971
524.999	8220
525.069	12553
525.138	11111
525.207	12190
525.277	8506
525.346	7944
525.415	8471
525.484	9092
525.554	10027
525.623	8082
525.692	7316
525.761	7369
525.830	6800
525.900	7811
525.969	9740
526.038	9441
526.107	10291
526.176	17731
526.245	14493
526.314	17436
526.383	18602
526.452	14524
526.522	28892
526.591	40909
526.660	35975
526.729	15816
526.797	23782
526.867	73357
526.935	238700
527.004	130586
527.073	36906
527.142	9355
527.211	8699
527.280	10958
527.349	9633
527.418	5241
527.487	7946
527.555	5751
527.624	5453
527.693	4619
527.762	6791
527.831	5165
527.899	6052
527.968	5665
528.037	5919
528.106	9281
528.174	16340
528.243	14614
528.312	22084
528.380	21652
528.449	7801
528.518	6756
528.586	4554
528.655	6617
528.723	6760
528.792	5528
528.861	5283
528.929	4606
528.998	6079
529.066	5300
529.135	5611
529.203	4377
529.272	4191
529.340	5746
529.409	7412
529.477	5540
529.545	7967
529.614	10587
529.682	9084
529.751	10945
529.819	13010
529.887	7398
529.956	5392
530.024	7008
530.092	4739
530.161	8642
530.229	10723
530.297	5844
530.365	6071
530.434	4556
530.502	4832
530.570	6023
530.638	3770
530.707	6642
530.775	7432
530.843	5651
530.911	5136
530.979	5483
531.047	4552
531.115	6229
531.183	5417
531.252	5580
531.320	6060
531.388	4500
531.456	6164
531.524	3142
531.592	6158
531.660	8098
531.728	4592
531.796	4799
531.864	5728
531.932	6467
532.000	5085
532.067	6492
532.135	6873
532.203	8600
532.271	8240
532.339	18543
532.407	39353
532.475	15907
532.542	9936
532.610	12943
532.678	21589
532.746	101030
532.814	153984
532.881	27747
532.949	8797
533.017	7258
533.084	6847
533.152	6742
533.220	6829
533.287	6917
533.355	5989
533.423	6093
533.490	5421
533.558	5744
533.625	6395
533.693	6967
533.761	7845
533.828	7304
533.896	7654
533.963	17785
534.031	18640
534.098	23758
534.166	9583
534.233	5740
534.300	8556
534.368	7474
534.435	6108
534.503	6382
534.570	6569
534.637	4215
534.705	6418
534.772	5954
534.840	5950
534.907	11512
534.974	9573
535.041	7019
535.109	8987
535.176	6048
535.243	5734
535.310	6539
535.378	4552
535.445	6258
535.512	5267
535.579	5466
535.646	6253
535.714	6538
535.781	8861
535.848	8475
535.915	9881
535.982	9472
536.049	7652
536.116	8243
536.183	7555
536.250	7187
536.317	7018
536.384	9856
536.451	14096
536.518	12537
536.585	8042
536.652	13971
536.719	17712
536.786	10418
536.853	9665
536.920	17020
536.987	24909
537.053	28480
537.120	101892
537.187	51341
537.254	7968
537.321	6794
537.388	7310
537.454	4975
537.521	5746
537.588	6200
537.654	9310
537.721	9799
537.788	8956
537.855	5967
537.921	7020
537.988	6181
538.055	7495
538.121	7953
538.188	7962
538.254	13920
538.321	24749
538.388	11614
538.454	6974
538.521	5981
538.587	6183
538.654	6246
538.720	6863
538.787	6996
538.853	8290
538.920	10627
538.986	9719
539.053	7784
539.119	8434
539.185	7271
539.252	11407
539.318	13121
539.385	11196
539.451	8877
539.517	9461
539.583	14081
539.650	36236
539.716	59345
539.782	13427
539.849	7474
539.915	7959
539.981	7588
540.047	9630
540.114	8586
540.180	8507
540.246	7951
540.312	11801
540.378	25676
540.444	23084
540.510	36198
540.576	68760
540.643	13938
540.709	7086
540.775	7513
540.841	7130
540.907	13378
540.973	16931
541.039	15071
541.105	13740
541.171	8090
541.237	7149
541.303	8408
541.369	11115
541.435	14175
541.500	21373
541.566	11401
541.632	6714
541.698	7135
541.764	7282
541.830	6627
541.896	5934
541.961	8439
542.027	7693
542.093	8086
542.159	7911
542.224	8897
542.290	14477
542.356	23236
542.421	22053
542.487	11069
542.553	8525
542.618	9667
542.684	7623
542.750	8598
542.815	12016
542.881	24822
542.947	72418
543.012	32212
543.078	7358
543.143	7530
543.209	9194
543.274	8363
543.340	12194
543.405	31047
543.471	31417
543.536	8400
543.602	7865
543.667	6384
543.732	7370
543.798	7545
543.863	7597
543.928	6462
543.994	6044
544.059	7166
544.124	7375
544.190	6641
544.255	8036
544.320	8117
544.386	6797
544.451	12278
544.516	12833
544.581	15532
544.646	52521
544.712	50075
544.777	11135
544.842	10411
544.907	10807
544.972	9402
545.037	8671
545.102	11591
545.168	10353
545.233	10824
545.298	11750
545.363	12702
545.428	15286
545.493	32031
545.558	49284
545.623	16519
545.688	9935
545.753	10244
545.818	9223
545.883	10526
545.947	9443
546.012	11631
546.077	10510
546.142	10482
546.207	10276
546.272	14392
546.337	12097
546.401	10135
546.466	9575
546.531	9612
546.596	10760
546.661	10579
546.725	9704
546.790	8319
546.855	8683
546.919	7959
546.984	9109
547.049	10387
547.113	12621
547.178	9578
547.243	11239
547.307	11783
547.372	13768
547.436	14844
547.501	9207
547.565	10389
547.630	13902
547.695	12628
547.759	16468
547.823	10805
547.888	8320
547.952	8291
548.017	10114
548.081	12882
548.146	18385
548.210	13043
548.274	9085
548.339	8435
548.403	8549
548.468	7954
548.532	9233
548.596	9213
548.660	9337
548.725	10990
548.789	12749
548.853	12889
548.917	11389
548.982	18645
549.046	15775
549.110	9087
549.174	8940
549.238	8199
549.303	8265
549.367	9477
549.431	8896
549.495	9028
549.559	8149
549.623	10357
549.687	12760
549.751	15748
549.815	10491
549.879	10427
549.943	8205
550.007	11128
550.071	11938
550.135	13607
550.199	10185
550.263	9882
550.327	14316
550.391	15892
550.455	10715
550.519	10304
550.582	12740
550.646	15368
550.710	13649
550.774	10401
550.838	9570
550.901	11825
550.965	11275
551.029	10863
551.093	14499
551.156	19991
551.220	42447
551.284	34433
551.347	21226
551.411	57319
551.475	44302
551.538	11840
551.602	9018
551.666	9580
551.729	7152
551.793	9725
551.856	10092
551.920	9708
551.983	9965
552.047	8759
552.110	9466
552.174	9023
552.237	8411
552.301	9056
552.364	9877
552.428	9135
552.491	8397
552.554	9374
552.618	9609
552.681	9942
552.745	10538
552.808	17330
552.871	18116
552.934	11766
552.998	10586
553.061	11602
553.124	10111
553.187	9309
553.251	10555
553.314	11636
553.377	12149
553.440	19545
553.503	53935
553.567	52740
553.630	11907
553.693	10396
553.756	10095
553.819	9314
553.882	8486
553.945	9221
554.008	8383
554.071	7627
554.134	9091
554.197	8615
554.260	8167
554.323	9290
554.386	9783
554.449	8456
554.512	9100
554.575	8519
554.638	9746
554.701	8445
554.764	8205
554.827	8082
554.889	7642
554.952	7767
555.015	7631
555.078	8169
555.141	7944
555.203	7151
555.266	8381
555.329	9216
555.391	7900
555.454	9039
555.517	8903
555.580	7882
555.642	7793
555.705	8177
555.768	8421
555.830	8665
555.893	6627
555.955	7888
556.018	7993
556.080	8327
556.143	8949
556.206	7832
556.268	8612
556.330	9110
556.393	8946
556.455	10779
556.518	16042
556.580	14376
556.643	7325
556.705	8932
556.767	6908
556.830	9022
556.892	11028
556.955	14824
557.017	9121
557.079	8722
557.142	9102
557.204	10906
557.266	23487
557.328	14251
557.391	7735
557.453	7476
557.515	8728
557.577	11685
557.639	9654
557.701	7379
557.764	7107
557.826	7689
557.888	7359
557.950	7314
558.012	6981
558.074	8206
558.136	10529
558.198	12319
558.260	8813
558.322	8224
558.384	7442
558.446	9046
558.508	10317
558.570	13455
558.632	25872
558.694	28015
558.756	15676
558.818	30791
558.880	45398
558.942	14674
559.003	14071
559.065	8823
559.127	7517
559.189	8213
559.251	8195
559.312	8985
559.374	15951
559.436	31619
559.498	13414
559.559	7412
559.621	8312
559.683	10251
559.744	17504
559.806	28141
559.868	22474
559.929	10735
559.991	10433
560.052	12302
560.114	15460
560.176	11565
560.237	14820
560.299	16298
560.360	10123
560.422	9231
560.483	10148
560.545	9432
560.606	10239
560.667	9104
560.729	9175
560.790	9340
560.852	8948
560.913	9421
560.974	9254
561.036	8693
561.097	9435
561.158	9493
561.220	9744
561.281	9315
561.342	10185
561.403	13052
561.465	17418
561.526	40082
561.587	34187
561.648	10360
561.709	9283
561.771	10075
561.832	9149
561.893	9983
561.954	9687
562.015	9174
562.076	10252
562.137	8727
562.198	9349
562.259	8840
562.320	8953
562.381	11041
562.442	14397
562.503	11205
562.564	9136
562.625	8774
562.686	9101
562.747	9408
562.808	9430
562.869	9529
562.930	13706
562.991	11668
563.051	10532
563.112	9746
563.173	10428
563.234	8966
563.294	10025
563.355	9981
563.416	10098
563.477	9372
563.537	10112
563.598	11148
563.659	9843
563.720	9788
563.780	10112
563.841	10916
563.901	10416
563.962	10795
564.023	10483
564.083	10102
564.144	10863
564.204	10200
564.265	10973
564.325	14586
564.386	27680
564.446	18566
564.507	9899
564.567	9808
564.628	10128
564.688	9303
564.749	9897
564.809	11883
564.869	13528
564.930	9768
564.990	9844
565.050	9366
565.111	8981
565.171	9451
565.231	9225
565.292	9951
565.352	8274
565.412	9904
565.472	9401
565.532	10815
565.593	9246
565.653	8975
565.713	9121
565.773	9749
565.833	12070
565.893	13946
565.953	9415
566.013	9770
566.074	10818
566.134	16385
566.194	24334
566.254	20563
566.314	12806
566.374	10178
566.434	10236
566.494	10029
566.554	10298
566.614	10216
566.673	8656
566.733	10747
566.793	10487
566.853	10755
566.913	10359
566.973	10282
567.033	10923
567.092	9475
567.152	10058
567.212	10321
567.272	10653
567.331	11460
567.391	11483
567.451	12558
567.511	18277
567.570	15857
567.630	10798
567.690	10554
567.749	10158
567.809	10715
567.868	11585
567.928	12672
567.988	13212
568.047	12137
568.107	13818
568.166	18213
568.226	25853
568.285	30699
568.345	23421
568.404	19876
568.464	16463
568.523	15762
568.582	16681
568.642	18448
568.701	23135
568.761	34379
568.820	48388
568.879	42790
568.939	34225
568.998	22489
569.057	17460
569.116	14753
569.176	12108
569.235	11746
569.294	11034
569.353	9864
569.413	11159
569.472	9731
569.531	9241
569.590	8587
569.649	7995
569.708	8525
569.767	9759
569.827	10167
569.886	9044
569.945	9321
570.004	9102
570.063	9122
570.122	9901
570.181	9709
570.240	12645
570.299	10047
570.358	10353
570.417	8770
570.475	8338
570.534	9524
570.593	9208
570.652	8804
570.711	9148
570.770	9167
570.829	11166
570.887	9868
570.946	9677
571.005	8066
571.064	8177
571.122	9672
571.181	10384
571.240	8310
571.299	9088
571.357	10110
571.416	10459
571.475	11841
571.533	11374
571.592	8568
571.650	9633
571.709	7337
571.768	7720
571.826	7765
571.885	7103
571.943	7890
572.002	7927
572.060	8125
572.119	7439
572.177	7522
572.236	7251
572.294	6428
572.352	6570
572.411	6463
572.469	7511
572.528	6231
572.586	6977
572.644	7694
572.703	9306
572.761	7291
572.819	7681
572.877	7245
572.936	6453
572.994	6779
573.052	6863
573.110	6710
573.169	7445
573.227	6664
573.285	6187
573.343	8078
573.401	7074
573.459	7379
573.517	7207
573.576	6015
573.634	6647
573.692	6918
573.750	6142
573.808	6065
573.866	8125
573.924	11173
573.982	9480
574.040	6598
574.098	6792
574.155	6187
574.213	6123
574.271	6076
574.329	6457
574.387	6431
574.445	6523
574.503	6051
574.560	4614
574.618	5517
574.676	5661
574.734	6216
574.792	6552
574.849	6007
574.907	5655
574.965	5263
575.022	5550
575.080	5294
575.138	6366
575.195	5727
575.253	6854
575.311	6467
575.368	6304
575.426	5193
575.483	6608
575.541	6128
575.598	5751
575.656	5758
575.713	6196
575.771	6608
575.828	7000
575.886	7002
575.943	6587
576.001	6580
576.058	6636
576.115	7676
576.173	9484
576.230	10307
576.287	10838
576.345	8243
576.402	6350
576.459	7807
576.517	7753
576.574	8865
576.631	9366
576.688	7673
576.746	7224
576.803	7812
576.860	5487
576.917	6548
576.974	6005
577.031	6477
577.089	6575
577.146	6968
577.203	6572
577.260	7484
577.317	8463
577.374	9485
577.431	8211
577.488	8543
577.545	6511
577.602	6905
577.659	7176
577.716	6561
577.773	7581
577.830	6529
577.886	6944
577.943	7118
578.000	7052
578.057	7298
578.114	8227
578.171	8008
578.227	10476
578.284	8768
578.341	7798
578.398	7873
578.454	8052
578.511	8761
578.568	10470
578.625	8037
578.681	7448
578.738	5574
578.794	5975
578.851	7550
578.908	6574
578.964	6334
579.021	6867
579.077	6255
579.134	6836
579.190	5421
579.247	6208
579.303	6120
579.360	5834
579.416	6210
579.473	6071
579.529	5555
579.586	6147
579.642	6625
579.698	6253
579.755	6645
579.811	7040
579.867	6121
579.924	6680
579.980	6988
580.036	8039
580.093	9860
580.149	13353
580.205	13717
580.261	9682
580.317	8315
580.374	8519
580.430	9868
580.486	9246
580.542	6904
580.598	6804
580.619	6827
580.654	6869
580.692	6572
580.710	6435
580.765	6286
580.767	6284
580.823	7275
580.838	7036
580.879	6425
580.911	6789
580.935	7064
580.984	5814
580.991	5648
581.047	6824
581.057	6950
581.103	7513
581.130	7850
581.159	8244
581.203	8381
581.215	8399
581.270	8330
581.276	8176
581.326	6736
581.349	7189
581.382	7889
581.422	7394
581.438	7200
581.494	7379
581.494	7375
581.550	7111
581.567	7239
581.606	7533
581.640	6908
581.661	6521
581.713	7510
581.717	7593
581.773	7447
581.786	7282
581.829	6692
581.859	7019
581.885	7364
581.932	7115
581.940	7054
581.996	7472
582.004	7413
582.052	7049
582.077	7049
582.107	7092
582.150	7158
582.163	7192
582.219	7307
582.223	7329
582.274	7548
582.296	7667
582.330	7810
582.368	7433
582.386	7286
582.441	6988
582.441	6987
582.497	7501
582.514	7455
582.552	7480
582.587	8003
582.608	8233
582.659	7809
582.663	7771
582.719	7966
582.732	7684
582.774	7065
582.805	7759
582.830	8233
582.877	7340
582.885	7194
582.941	7590
582.950	7703
582.996	8338
583.023	8442
583.052	8744
583.095	9021
583.107	9010
583.162	11360
583.168	11344
583.218	11201
583.240	10354
583.273	8946
583.313	8737
583.328	8780
583.384	8790
583.385	8798
583.439	8591
583.458	8172
583.494	7424
583.531	7713
583.549	8054
583.603	7751
583.605	7725
583.660	7479
583.676	7582
583.715	8061
583.748	8290
583.770	8502
583.820	8589
583.825	8560
583.881	8174
583.893	8168
583.936	8378
583.965	8189
583.991	7841
584.038	8021
584.046	8148
584.101	7901
584.110	8019
584.156	8316
584.183	8372
584.211	8376
584.255	8165
584.266	8135
584.321	7826
584.328	7808
584.376	8097
584.400	8256
584.431	8168
584.472	7907
584.486	7791
584.541	7546
584.545	7578
584.596	8310
584.617	8096
584.651	8229
584.689	9161
584.706	9248
584.761	8770
584.762	8763
584.816	8918
584.834	8978
584.871	8987
584.906	8915
584.926	8844
584.978	8670
584.980	8681
585.035	9213
585.051	9499
585.090	10534
585.123	10987
585.145	10885
585.195	10756
585.200	10871
585.254	11838
585.267	12295
585.309	13842
585.340	14686
585.364	14481
585.412	12536
585.419	12261
585.473	11186
585.484	11061
585.528	11591
585.556	12079
585.583	12755
585.628	13584
585.637	13930
585.692	18098
585.700	18532
585.747	19766
585.772	18182
585.801	15075
585.845	12581
585.856	12340
585.910	11967
585.917	11830
585.965	11504
585.989	11820
586.019	12028
586.061	12083
586.074	12281
586.128	13141
586.133	13172
586.183	13426
586.205	13496
586.237	13624
586.277	14308
586.292	14455
586.346	13223
586.349	13241
586.401	13909
586.421	14029
586.455	15338
586.493	17223
586.509	19500
586.564	29056
586.565	29310
586.618	46353
586.637	47575
586.672	33831
586.709	21720
586.727	18830
586.781	14009
586.781	14025
586.835	13628
586.853	13738
586.889	14144
586.925	14003
586.944	13945
586.996	14370
586.998	14412
587.052	15126
587.068	15403
587.106	15748
587.140	15537
587.161	15479
587.212	15820
587.215	15888
587.269	16944
587.284	17119
587.323	16721
587.356	16407
587.377	16750
587.427	17650
587.431	17681
587.485	17944
587.499	17849
587.539	18148
587.571	18778
587.593	19276
587.643	20127
587.648	20267
587.702	21684
587.715	21974
587.755	22401
587.786	22695
587.810	23091
587.858	23715
587.864	23889
587.917	25764
587.930	26283
587.971	29714
588.001	31801
588.025	31957
588.073	32654
588.079	32987
588.133	35278
588.145	36071
588.187	39747
588.217	41711
588.241	44222
588.288	50503
588.295	51426
588.348	58213
588.360	59898
588.402	67643
588.431	72991
588.456	77939
588.503	88594
588.510	90499
588.564	107422
588.575	111334
588.617	129950
588.646	145241
588.671	162716
588.718	203775
588.725	214545
588.778	316998
588.789	343574
588.832	550207
588.861	715163
588.886	961175
588.932	1451073
588.939	1488762
588.993	1619963
589.004	1611102
589.047	1035384
589.075	679264
589.100	515164
589.147	268765
589.154	258271
589.207	195920
589.218	184977
589.261	176363
589.290	174216
589.314	184410
589.361	213932
589.368	225809
589.421	341215
589.433	371632
589.475	645800
589.504	863580
589.528	1085008
589.576	1450054
589.582	1407983
589.635	842834
589.647	731379
589.689	399764
589.718	194928
589.742	160223
589.790	101137
589.795	99141
589.849	83522
589.861	80378
589.902	77642
589.932	74421
589.955	64996
590.004	45722
590.009	45207
590.062	40123
590.075	38911
590.115	36117
590.146	33637
590.168	32783
590.218	31195
590.222	31230
590.275	31029
590.289	30990
590.328	30357
590.360	29537
590.381	29116
590.431	27972
590.435	27949
590.488	26799
590.503	26457
590.541	26277
590.574	26054
590.594	25717
590.645	24377
590.647	24400
590.700	23851
590.716	23577
590.753	22813
590.787	22293
590.806	22365
590.859	22092
590.859	22134
590.912	21726
590.930	21607
590.965	21854
591.001	21878
591.018	21822
591.071	21372
591.072	21318
591.124	21845
591.143	21975
591.177	21786
591.214	21334
591.230	21496
591.283	22082
591.285	22048
591.336	23400
591.356	23905
591.389	23900
591.427	23593
591.442	23077
591.495	20991
591.498	20781
591.547	20642
591.569	20588
591.600	20398
591.640	19865
591.653	20237
591.706	21770
591.711	21871
591.759	23056
591.782	23640
591.811	25800
591.853	28578
591.864	27713
591.917	22963
591.924	22218
591.969	22104
591.995	21993
592.022	22105
592.066	22016
592.075	22812
592.127	27460
592.137	28264
592.180	32032
592.208	34203
592.233	30461
592.279	23139
592.285	23055
592.338	21851
592.350	21524
592.390	21064
592.421	20617
592.443	20749
592.491	20865
592.495	20908
592.548	20757
592.562	20663
592.600	20367
592.633	20025
592.653	20000
592.704	19703
592.705	19833
592.775	20694
592.846	20864
592.916	21441
592.987	22204
593.058	20869
593.128	19996
593.199	19263
593.270	19275
593.341	18704
593.411	20834
593.482	18920
593.553	20251
593.623	18452
593.694	20179
593.764	23027
593.835	19800
593.906	18425
593.976	18627
594.047	21043
594.117	27541
594.188	27159
594.258	18660
594.329	17767
594.399	18132
594.470	17419
594.540	17229
594.611	18339
594.681	17992
594.751	18425
594.822	20681
594.892	20798
594.963	20784
595.033	20085
595.103	20756
595.174	23246
595.244	39708
595.314	52228
595.384	22375
595.455	20118
595.525	20247
595.595	18913
595.665	20547
595.736	18940
595.806	18544
595.876	18216
595.946	18242
596.016	16683
596.087	18329
596.157	18297
596.227	19272
596.297	19798
596.367	20733
596.437	22922
596.507	35656
596.577	47344
596.647	23487
596.717	18166
596.787	17662
596.857	17552
596.927	17912
596.997	18014
597.067	18890
597.137	20838
597.207	20176
597.277	18443
597.347	18050
597.417	18441
597.487	19805
597.557	19175
597.626	20032
597.696	22681
597.766	29214
597.836	43581
597.906	24439
597.975	18010
598.045	18057
598.115	17239
598.185	17832
598.254	19566
598.324	19503
598.394	18507
598.464	19709
598.533	18590
598.603	16569
598.672	18156
598.742	17789
598.812	16407
598.881	17759
598.951	16503
599.020	16725
599.090	16903
599.159	16592
599.229	16676
599.299	15006
599.368	16071
599.437	15673
599.507	17320
599.576	19061
599.646	18230
599.715	18159
599.785	17177
599.854	20479
599.924	23539
599.993	20824
600.062	17211
600.132	16749
600.201	17745
600.270	18882
600.340	17842
600.409	15556
600.478	16268
600.547	15737
600.617	17078
600.686	16608
600.755	16999
600.824	17318
600.894	16607
600.963	16814
601.032	15052
601.101	16389
601.170	15585
601.239	16424
601.308	18432
601.378	17394
601.447	16036
601.516	14996
601.585	16922
601.654	19533
601.723	16509
601.792	16478
601.861	16829
601.930	19254
601.999	18936
602.068	16448
602.137	18202
602.206	17859
602.275	16144
602.343	19787
602.412	19197
602.481	15684
602.550	14856
602.619	15195
602.688	15631
602.756	14635
602.825	15181
602.894	13810
602.963	13408
603.032	13677
603.100	14472
603.169	14588
603.238	14211
603.307	14819
603.375	13754
603.444	14758
603.513	14476
603.581	14028
603.650	12944
603.719	14246
603.787	12924
603.856	13650
603.924	13546
603.993	14513
604.061	13353
604.130	13611
604.198	13817
604.267	14096
604.335	13346
604.404	13432
604.472	12371
604.541	13447
604.609	13374
604.678	13445
604.746	12092
604.815	13356
604.883	12990
604.951	14408
605.020	13045
605.088	14373
605.156	13622
605.225	13741
605.293	12244
605.361	13705
605.429	13370
605.498	14404
605.566	14905
605.634	14026
605.702	13902
605.771	13862
605.839	14627
605.907	13824
605.975	13443
606.043	13242
606.111	13482
606.180	14857
606.248	17225
606.316	19227
606.384	16215
606.452	21961
606.520	21281
606.588	14900
606.656	12710
606.724	14193
606.792	12347
606.860	12822
606.928	11503
606.996	11253
607.064	11774
607.132	11475
607.200	12864
607.267	12646
607.335	12543
607.403	11711
607.471	12377
607.539	12330
607.607	12182
607.674	11697
607.742	12865
607.810	14280
607.878	12322
607.946	11869
608.013	11498
608.081	13278
608.149	12341
608.216	11183
608.284	12313
608.352	12355
608.419	14204
608.487	25977
608.555	16656
608.622	12157
608.690	11849
608.757	11435
608.825	12020
608.893	13042
608.960	14929
609.028	19822
609.095	28577
609.163	15549
609.230	13871
609.298	14439
609.365	10813
609.432	11611
609.500	12980
609.567	11645
609.635	13068
609.702	12852
609.769	14367
609.837	18385
609.904	13999
609.971	11933
610.039	15761
610.106	19950
610.173	30640
610.241	66838
610.308	109407
610.375	78736
610.442	22408
610.509	14249
610.577	14355
610.644	12265
610.711	11897
610.778	12517
610.845	12214
610.912	13581
610.980	14843
611.047	21091
611.114	16315
611.181	11763
611.248	9944
611.315	12510
611.382	11121
611.449	10729
611.516	11516
611.583	12218
611.650	11109
611.717	11790
611.784	12183
611.851	11931
611.918	13492
611.984	13449
612.051	17443
612.118	26708
612.185	50164
612.252	35479
612.319	14857
612.386	13035
612.452	13052
612.519	16534
612.586	28440
612.653	18607
612.719	11695
612.786	11348
612.853	10854
612.919	10922
612.986	10652
613.053	10556
613.120	10012
613.186	10509
613.253	11913
613.319	11277
613.386	10070
613.453	11289
613.519	13140
613.586	17573
613.652	26057
613.719	20649
613.785	17647
613.852	13436
613.918	11395
613.985	15754
614.051	25361
614.118	62418
614.184	61647
614.250	15457
614.317	10927
614.383	10710
614.449	10776
614.516	11545
614.582	12750
614.648	10496
614.715	9827
614.781	11234
614.847	11539
614.914	12555
614.980	12321
615.046	11190
615.112	11408
615.179	10904
615.245	10162
615.311	12426
615.377	15064
615.443	15356
615.509	13007
615.575	12720
615.642	11989
615.708	13991
615.774	14421
615.840	16544
615.906	17989
615.972	20839
616.038	28398
616.104	42919
616.170	74752
616.236	63369
616.302	22763
616.368	16621
616.434	15393
616.500	17170
616.565	16701
616.631	16982
616.697	13490
616.763	15097
616.829	16990
616.895	22853
616.961	22559
617.026	16809
617.092	13791
617.158	14345
617.224	13837
617.289	14684
617.355	14462
617.421	14537
617.487	15316
617.552	14853
617.618	13387
617.684	13110
617.749	15536
617.815	12172
617.880	12444
617.946	13426
618.012	13674
618.077	12054
618.143	13812
618.208	14069
618.274	13868
618.339	15886
618.405	14462
618.470	15986
618.536	15090
618.601	18389
618.667	17096
618.732	16710
618.798	15261
618.863	15659
618.928	14402
618.994	17810
619.059	19614
619.124	26387
619.190	19185
619.255	15998
619.320	16284
619.386	15961
619.451	14166
619.516	15173
619.581	14762
619.647	15054
619.712	15558
619.777	14633
619.842	15479
619.907	16225
619.972	15044
620.038	15678
620.103	15110
620.168	13869
620.233	15368
620.298	14626
620.363	13730
620.428	14552
620.493	14555
620.558	14532
620.623	15125
620.688	14127
620.753	13593
620.818	14401
620.883	14260
620.948	14618
621.013	14783
621.078	15393
621.143	14589
621.207	18598
621.272	16489
621.337	18980
621.402	20393
621.467	30172
621.532	31427
621.596	21970
621.661	19882
621.726	17645
621.791	18307
621.855	19291
621.920	21785
621.985	22719
622.049	29705
622.114	25605
622.179	21883
622.243	21571
622.308	20231
622.373	22300
622.437	20706
622.502	19226
622.566	20485
622.631	19808
622.695	21006
622.760	20606
622.824	19443
622.889	20424
622.953	21751
623.018	31112
623.082	29676
623.147	18947
623.211	19105
623.276	19884
623.340	17528
623.404	18559
623.469	18078
623.533	17799
623.597	17732
623.662	18201
623.726	17878
623.790	17270
623.854	17453
623.919	18654
623.983	18235
624.047	18175
624.111	17296
624.176	18356
624.240	18967
624.304	21237
624.368	17585
624.432	18374
624.496	18922
624.560	19497
624.625	20603
624.689	18825
624.753	17213
624.817	18193
624.881	16142
624.945	17444
625.009	17013
625.073	17678
625.137	18289
625.201	22071
625.265	21470
625.329	18385
625.393	18775
625.456	18807
625.520	19586
625.584	23534
625.648	29606
625.712	52250
625.776	132141
625.839	152716
625.903	54889
625.967	26483
626.031	49637
626.095	82812
626.158	25318
626.222	15959
626.286	15621
626.349	15080
626.413	15098
626.477	18699
626.540	14349
626.604	14677
626.668	15136
626.731	14395
626.795	16050
626.858	17218
626.922	13883
626.986	15856
627.049	13541
627.113	15967
627.176	14941
627.240	13435
627.303	14083
627.366	14281
627.430	14387
627.493	15516
627.557	14211
627.620	16223
627.684	13657
627.747	15195
627.810	12507
627.874	14461
627.937	12637
628.000	16760
628.064	14549
628.127	11839
628.190	13779
628.253	13971
628.317	13246
628.380	13787
628.443	13031
628.506	13955
628.569	13917
628.632	11959
628.696	12914
628.759	12329
628.822	11590
628.885	12310
628.948	12672
629.011	12901
629.074	12601
629.137	12745
629.200	11800
629.263	13945
629.326	10990
629.389	12680
629.452	12626
629.515	13723
629.578	12357
629.641	14075
629.704	13029
629.767	12869
629.830	11922
629.892	11774
629.955	11096
630.018	13565
630.081	13037
630.144	16681
630.207	12469
630.269	15055
630.332	16547
630.395	14096
630.458	10629
630.520	10964
630.583	12089
630.646	10993
630.708	10675
630.771	10253
630.834	10981
630.896	10650
630.959	10357
631.021	10544
631.084	10966
631.146	13127
631.209	16721
631.272	11172
631.334	10389
631.397	10002
631.459	9751
631.522	11038
631.584	10356
631.646	10557
631.709	10946
631.771	14992
631.834	12260
631.896	10910
631.958	9205
632.021	10487
632.083	8249
632.145	10479
632.208	9654
632.270	10846
632.332	8834
632.395	8586
632.457	11144
632.519	9413
632.581	10371
632.643	9337
632.706	9780
632.768	8346
632.830	9495
632.892	8624
632.954	8564
633.016	10901
633.078	8374
633.141	8939
633.203	8243
633.265	8937
633.327	9513
633.389	8734
633.451	12137
633.513	13029
633.575	13129
633.637	11472
633.698	11019
633.760	9589
633.822	9046
633.884	8564
633.946	8167
634.008	8882
634.070	8955
634.132	10374
634.193	9160
634.255	8951
634.317	7680
634.379	9449
634.441	8810
634.502	8488
634.564	8716
634.626	9156
634.687	8942
634.749	8518
634.811	9262
634.873	7695
634.934	8239
634.996	8926
635.057	7882
635.119	8087
635.181	8546
635.242	8916
635.304	6434
635.365	10183
635.427	7163
635.488	8814
635.550	6990
635.611	8831
635.673	6004
635.734	10244
635.796	7221
635.857	9865
635.918	7321
635.980	8903
636.041	6886
636.102	8707
636.164	7354
636.225	8642
636.286	6885
636.348	7903
636.409	8201
636.470	7827
636.531	7884
636.593	10973
636.654	9555
636.715	7298
636.776	7291
636.838	6705
636.899	8311
636.960	7113
637.021	6826
637.082	7477
637.143	9048
637.204	6106
637.265	6017
637.326	7557
637.387	6557
637.448	5997
637.509	7381
637.570	7005
637.631	7700
637.692	5770
637.753	5581
637.814	7221
637.875	6729
637.936	7557
637.997	6256
638.058	7065
638.119	7440
638.179	6697
638.240	5567
638.301	7347
638.362	5581
638.423	6415
638.483	7771
638.544	5603
638.605	6166
638.666	5240
638.726	7151
638.787	7503
638.848	6774
638.908	6727
638.969	6419
639.030	7024
639.090	4446
639.151	6312
639.211	7017
639.272	10391
639.332	14847
639.393	8339
639.453	5335
639.514	7074
639.574	6960
639.635	5840
639.695	7446
639.756	5931
639.816	7530
639.877	8491
639.937	12553
639.997	16968
640.058	6264
640.118	6222
640.178	7266
640.239	5355
640.299	5478
640.359	5689
640.420	5825
640.480	5844
640.540	5711
640.600	4954
640.661	5917
640.721	5441
640.781	8084
640.841	6100
640.901	6333
640.961	6692
641.021	6898
641.082	7254
641.142	11002
641.202	8390
641.262	4692
641.322	5929
641.382	4805
641.442	6946
641.502	5846
641.562	6938
641.622	5366
641.682	6148
641.742	6340
641.802	5953
641.861	7058
641.921	5938
641.981	7881
642.041	7887
642.101	8274
642.161	5976
642.221	5272
642.280	5673
642.340	5538
642.400	4488
642.460	6360
642.519	5991
642.579	5212
642.639	5860
642.698	3101
642.758	7929
642.818	5553
642.877	4782
642.937	5716
642.997	6559
643.056	9664
643.116	5152
643.175	6760
643.235	4861
643.294	5356
643.354	5560
643.414	5574
643.473	5640
643.532	5861
643.592	4748
643.651	7030
643.711	9125
643.770	13049
643.830	24440
643.889	47336
643.948	14353
644.008	5974
644.067	5066
644.126	4659
644.186	5266
644.245	5347
644.304	3289
644.363	5638
644.423	4345
644.482	5637
644.541	5194
644.600	2326
644.659	4395
644.719	4607
644.778	5897
644.837	6211
644.896	8223
644.955	11032
645.014	7811
645.073	6537
645.132	5647
645.191	6037
645.250	4403
645.309	6554
645.368	4785
645.427	5800
645.486	3989
645.545	7245
645.604	3997
645.663	5040
645.722	4323
645.781	4680
645.840	5191
645.898	4455
645.957	6539
646.016	6151
646.075	7510
646.134	10598
646.192	22339
646.251	31687
646.310	6777
646.369	4460
646.427	4254
646.486	3264
646.545	4777
646.603	4821
646.662	5147
646.721	4681
646.779	3952
646.838	2228
646.896	5392
646.955	4289
647.014	5033
647.072	4495
647.131	8416
647.189	5292
647.248	2658
647.306	4298
647.365	5062
647.423	2347
647.481	5323
647.540	2631
647.598	4494
647.657	3651
647.715	4904
647.773	3501
647.832	4838
647.890	3467
647.948	4138
648.007	6278
648.065	4582
648.123	5003
648.181	6502
648.240	6677
648.298	5260
648.356	5447
648.414	4910
648.472	5421
648.531	6128
648.589	4886
648.647	4027
648.705	4415
648.763	4430
648.821	5177
648.879	4812
648.937	4838
648.995	4494
649.053	4539
649.111	5962
649.169	6205
649.227	7274
649.285	9434
649.343	19928
649.401	15667
649.459	19509
649.516	16623
649.574	10890
649.632	27159
649.690	33402
649.748	11805
649.806	9024
649.863	14432
649.921	9061
649.979	5123
650.037	5009
650.094	2776
650.152	4630
650.210	3468
650.268	5114
650.325	3849
650.383	3387
650.440	3323
650.498	3990
650.556	4064
650.613	3202
650.671	4519
650.728	4638
650.786	4281
650.843	3828
650.901	1640
650.958	3860
651.016	3629
651.073	3748
651.131	2754
651.188	3425
651.246	4371
651.303	2856
651.360	3523
651.418	3880
651.475	3867
651.532	3147
651.590	3619
651.647	2882
651.704	3133
651.762	3248
651.819	4187
651.876	3480
651.933	3533
651.990	4245
652.048	2445
652.105	3044
652.162	3856
652.219	3886
652.276	3307
652.333	2765
652.390	2734
652.448	4015
652.505	4445
652.562	4593
652.619	3932
652.676	6468
652.733	6911
652.790	3635
652.847	1815
652.904	3382
652.961	3094
653.017	2492
653.074	3829
653.131	3622
653.188	2311
653.245	3343
653.302	3587
653.359	2164
653.415	3345
653.472	3082
653.529	2965
653.586	2934
653.642	2722
653.699	4187
653.756	2568
653.813	2650
653.869	3361
653.926	2830
653.983	3178
654.039	3192
654.096	3077
654.152	4010
654.209	1441
654.266	4466
654.322	3415
654.379	5513
654.435	5211
654.492	5183
654.548	6841
654.605	12644
654.661	6516
654.717	3790
654.774	4155
654.830	4236
654.887	4338
654.943	3545
655.000	4460
655.056	3867
655.112	4598
655.168	3461
655.225	4608
655.281	5810
655.337	7323
655.394	14251
655.450	9753
655.506	8780
655.562	13321
655.618	11793
655.675	4113
655.731	4313
655.787	4614
655.843	5914
655.899	4505
655.955	5826
656.011	5983
656.067	4869
656.123	6650
656.179	7715
656.235	8578
656.291	6980
656.347	7769
656.403	7082
656.459	6655
656.515	7485
656.571	6544
656.627	6218
656.683	5019
656.739	5534
656.795	4624
656.850	4871
656.906	6011
656.962	4579
657.018	3593
657.074	4126
657.129	4298
657.185	3875
657.241	3779
657.297	3073
657.352	4490
657.408	3007
657.464	4065
657.519	4093
657.575	2782
657.630	3089
657.686	3357
657.742	3203
657.797	3228
657.853	3478
657.908	3992
657.964	3455
658.019	3444
658.075	4117
658.130	4145
658.186	2556
658.241	4174
658.297	3244
658.352	3253
658.407	4221
658.463	2239
658.518	3356
658.573	3091
658.629	2643
658.684	2362
658.739	4202
658.795	2271
658.850	3533
658.905	2236
658.960	2564
659.016	3519
659.071	3228
659.126	3785
659.181	3750
659.236	6690
659.291	6590
659.346	4680
659.401	4881
659.457	4459
659.512	6264
659.567	4761
659.622	4000
659.677	3607
659.732	2304
659.787	3938
659.842	4629
659.897	5834
659.952	4444
660.007	2912
660.061	3682
660.116	2890
660.171	3024
660.226	3222
660.281	4531
660.336	3031
660.391	3982
660.445	1600
660.500	4202
660.555	2522
660.610	2424
660.664	2341
660.719	3523
660.774	3490
660.828	3536
660.883	3583
660.938	3742
660.992	1750
661.047	3427
661.101	2486
661.156	2207
661.211	2407
661.265	3307
661.320	2938
661.374	2757
661.429	2438
661.483	3718
661.538	1193
661.592	3421
661.647	3045
661.701	3014
661.755	2744
661.810	3635
661.864	1895
661.919	3018
661.973	3410
662.027	3484
662.081	2048
662.136	2853
662.190	4006
662.244	3487
662.299	3292
662.353	3362
662.407	2406
662.461	4022
662.515	3279
662.569	3069
662.624	3795
662.678	2689
662.732	3858
662.786	2938
662.840	3421
662.894	3990
662.948	2279
663.002	1889
663.056	3017
663.110	2639
663.164	2963
663.218	3566
663.272	3324
663.326	4158
663.380	2792
663.434	3132
663.488	3139
663.542	3743
663.595	3079
663.649	3087
663.703	3259
663.757	3444
663.811	1667
663.864	2143
663.918	4011
663.972	2270
664.026	2632
664.079	3507
664.133	3265
664.187	2729
664.240	2761
664.294	3079
664.348	3486
664.401	3878
664.455	2335
664.508	3110
664.562	3880
664.615	3789
664.669	2627
664.722	3350
664.776	3015
664.829	3353
664.883	3212
664.936	2772
664.990	3944
665.043	4771
665.097	3369
665.150	5146
665.203	3087
665.257	3763
665.310	3335
665.363	4296
665.417	3726
665.470	3949
665.523	3787
665.576	3990
665.630	4172
665.683	4121
665.736	4108
665.789	3621
665.842	3959
665.895	3503
665.949	3822
666.002	3347
666.055	3156
666.108	4266
666.161	4239
666.214	4770
666.267	3441
666.320	5357
666.373	3840
666.426	3985
666.479	3701
666.532	4626
666.585	5391
666.638	6827
666.691	4725
666.744	6413
666.796	5117
666.849	5841
666.902	4366
666.955	3760
667.008	3212
667.060	2586
667.113	2911
667.166	2429
667.219	3211
667.271	3463
667.324	3040
667.377	3091
667.430	3441
667.482	4367
667.535	4220
667.587	3841
667.640	3696
667.693	5437
667.745	6500
667.798	7523
667.850	3965
667.903	3857
667.955	3522
668.008	4287
668.060	4281
668.113	4070
668.165	4797
668.218	4669
668.270	4147
668.322	4730
668.375	3689
668.427	4127
668.479	3763
668.532	4181
668.584	4210
668.636	3654
668.689	4409
668.741	4101
668.793	3591
668.845	4310
668.898	3765
668.950	3660
669.002	3640
669.054	3782
669.106	3881
669.158	4719
669.211	3358
669.263	4779
669.315	5290
669.367	5615
669.419	5341
669.471	5742
669.523	5708
669.575	6851
669.627	6255
669.679	4415
669.731	4805
669.783	5024
669.835	6246
669.886	5052
669.938	4883
669.990	4548
670.042	4390
670.094	5188
670.146	5190
670.197	6304
670.249	8297
670.301	9236
670.353	13260
670.404	18459
670.456	26983
670.508	39694
670.560	64070
670.611	104087
670.663	178485
670.715	403469
670.766	658147
670.818	239846
670.869	42770
670.921	20322
670.972	14837
671.024	10536
671.075	8821
671.127	8573
671.178	6944
671.230	6406
671.281	5572
671.333	6567
671.384	5011
671.436	5501
671.487	5998
671.538	5871
671.590	5421
671.641	6461
671.692	5617
671.744	7883
671.795	6653
671.846	6094
671.897	5490
671.949	4682
672.000	4737
672.051	4252
672.102	5385
672.153	4443
672.204	4237
672.256	5275
672.307	5410
672.358	5194
672.409	4739
672.460	4496
672.511	3677
672.562	3988
672.613	4143
672.664	4005
672.715	4724
672.766	4486
672.817	4074
672.868	3735
672.919	3848
672.970	3372
673.021	3549
673.071	3976
673.122	3507
673.173	4579
673.224	4795
673.275	3709
673.326	3345
673.376	3861
673.427	3433
673.478	3330
673.528	3700
673.579	3801
673.630	3289
673.680	4538
673.731	4073
673.782	3487
673.832	3236
673.883	4592
673.934	3155
673.984	3872
674.035	4544
674.085	4043
674.136	4396
674.186	4795
674.237	5679
674.287	9657
674.338	5367
674.388	3659
674.438	3182
674.489	3519
674.539	4356
674.589	4416
674.640	3987
674.690	3909
674.740	4553
674.791	4715
674.841	4260
674.891	3995
674.942	3588
674.992	3462
675.042	3350
675.092	3823
675.142	3982
675.193	3423
675.243	2258
675.293	3656
675.343	3936
675.393	3922
675.443	3490
675.493	3257
675.543	2851
675.593	3431
675.643	3167
675.693	2747
675.743	3992
675.793	3080
675.843	2339
675.893	3407
675.943	2823
675.993	2997
676.043	2767
676.093	3671
676.142	3343
676.192	2690
676.242	2688
676.292	2740
676.341	3915
676.391	4047
676.441	3321
676.491	3733
676.540	2996
676.590	3750
676.640	2781
676.689	3202
676.739	2238
676.789	2563
676.838	1955
676.888	2430
676.937	2768
676.987	2870
677.037	2545
677.086	2265
677.136	3122
677.185	2085
677.235	2586
677.284	2790
677.333	2629
677.383	2548
677.432	2251
677.482	2302
677.531	2697
677.580	2673
677.630	1663
677.679	1994
677.728	2548
677.778	3325
677.827	2608
677.876	2559
677.925	2113
677.975	1923
678.024	1743
678.073	2500
678.122	2531
678.171	3158
678.220	2126
678.269	3855
678.319	4073
678.368	3197
678.417	2516
678.466	3683
678.515	3457
678.564	3630
678.613	2661
678.662	2775
678.711	3063
678.760	3522
678.809	2057
678.857	3055
678.906	2938
678.955	2542
679.004	2882
679.053	3068
679.102	1902
679.151	3696
679.199	2504
679.248	2828
679.297	2482
679.346	3459
679.394	2197
679.443	2930
679.492	2903
679.540	3137
679.589	2918
679.638	3237
679.686	2820
679.735	2639
679.784	2501
679.832	2902
679.881	2208
679.929	2335
679.978	1944
680.026	2104
680.075	2193
680.123	2389
680.172	3102
680.220	1997
680.268	2446
680.317	2111
680.365	2330
680.414	1952
680.462	2331
680.510	2967
680.559	2290
680.607	2831
680.655	1930
680.703	1849
680.752	2101
680.800	2162
680.848	2062
680.896	2359
680.945	1511
680.993	1457
681.041	2554
681.089	2215
681.137	1878
681.185	1464
681.233	1556
681.258	1924
681.281	2253
681.329	2062
681.377	1849
681.380	1889
681.425	2280
681.473	2695
681.502	2294
681.521	1973
681.569	3183
681.617	2726
681.624	2702
681.665	2427
681.713	3405
681.745	3125
681.761	2959
681.809	1952
681.857	4086
681.867	3697
681.904	2267
681.952	2652
681.989	2767
682.000	2776
682.048	3291
682.096	2559
682.111	2760
682.143	3128
682.191	1630
682.233	3522
682.239	3789
682.286	2418
682.334	2883
682.354	2657
682.382	2328
682.430	3625
682.476	2614
682.477	2573
682.525	2909
682.572	2344
682.598	2510
682.620	2644
682.667	3234
682.715	3268
682.720	3276
682.763	3167
682.810	2700
682.841	2843
682.857	2900
682.905	3177
682.952	2939
682.963	3000
683.000	3091
683.047	3924
683.085	4195
683.095	4249
683.142	3523
683.190	2862
683.206	3100
683.237	3556
683.284	4098
683.328	3450
683.332	3370
683.379	3341
683.426	3251
683.449	3482
683.473	3760
683.521	3501
683.568	3704
683.571	3724
683.615	3714
683.662	3767
683.693	3399
683.709	3187
683.757	3369
683.804	3987
683.814	3866
683.851	3370
683.898	3927
683.936	3708
683.945	3645
683.992	4077
684.039	3821
684.057	3874
684.086	3943
684.133	4171
684.179	4022
684.180	4002
684.227	4773
684.274	3867
684.300	4405
684.321	4794
684.368	3887
684.415	4321
684.422	4272
684.462	3979
684.509	3503
684.543	4013
684.556	4177
684.603	3920
684.649	3661
684.665	3846
684.696	4271
684.743	4481
684.786	4947
684.790	4980
684.837	4448
684.883	5143
684.908	5582
684.930	5912
684.977	6383
685.023	5836
685.029	5777
685.070	5104
685.117	4550
685.150	5183
685.164	5500
685.210	5299
685.257	6467
685.272	6294
685.303	5722
685.350	5529
685.393	5086
685.396	5064
685.443	5914
685.490	5694
685.514	5947
685.536	6076
685.583	5697
685.629	5333
685.636	5425
685.675	5773
685.722	6059
685.757	5937
685.768	5944
685.815	5741
685.861	6076
685.878	6153
685.908	6253
685.954	5857
686.000	6274
686.000	6280
686.047	6465
686.093	8405
686.121	8073
686.139	7676
686.185	6396
686.232	5961
686.242	6104
686.278	6542
686.324	6114
686.363	5808
686.370	5769
686.416	5748
686.463	6361
686.484	6083
686.509	5809
686.555	5701
686.601	5089
686.606	5192
686.647	6028
686.693	6346
686.727	5914
686.739	5771
686.785	6029
686.831	5973
686.848	6131
686.877	6414
686.923	6511
686.969	5168
686.969	5160
687.015	5965
687.061	5954
687.090	6020
687.107	6044
687.153	5826
687.199	6452
687.211	6292
687.245	5928
687.291	6301
687.332	6345
687.336	6349
687.382	6726
687.428	6605
687.453	6559
687.474	6402
687.520	6119
687.565	6027
687.574	5977
687.611	6029
687.657	6333
687.695	6203
687.702	6190
687.748	6664
687.794	6545
687.816	6984
687.839	7227
687.885	6239
687.931	6289
687.937	6203
687.976	6104
688.022	6175
688.058	6505
688.067	6545
688.113	6658
688.158	6555
688.179	6702
688.204	6819
688.249	6222
688.295	6533
688.300	6492
688.340	6661
688.386	7750
688.421	7574
688.431	7432
688.477	7025
688.522	7331
688.542	7322
688.567	7410
688.613	6835
688.658	7121
688.663	7111
688.703	7046
688.749	7563
688.784	7324
688.794	7268
688.839	7278
688.884	7556
688.905	7529
688.930	7377
688.975	7074
689.020	6789
689.026	6729
689.065	6557
689.110	6835
689.146	6739
689.155	6711
689.201	7094
689.246	6594
689.267	6674
689.291	6877
689.336	7016
689.381	7417
689.388	7347
689.426	6842
689.471	6934
689.509	6980
689.516	7027
689.561	7231
689.606	7014
689.630	7328
689.651	7515
689.696	6633
689.741	7006
689.750	7031
689.785	7388
689.830	7550
689.871	7192
689.875	7138
689.920	7380
689.965	7210
689.992	7195
690.010	7288
690.054	7315
690.099	7070
690.112	7156
690.144	7387
690.189	7604
690.233	7598
690.233	7608
690.278	7883
690.323	7231
690.354	7193
690.367	7292
690.412	7740
690.457	8087
690.474	8209
690.501	8286
690.546	8243
690.590	8146
690.595	8147
690.635	8576
690.680	9043
690.716	9156
690.724	9211
690.769	9559
690.813	10740
690.836	10774
690.857	11487
690.902	13598
690.946	15590
690.957	16083
690.991	20923
691.035	28539
691.077	34844
691.080	34898
691.124	33337
691.168	31621
691.198	30548
691.213	28319
691.257	22806
691.301	16329
691.318	14077
691.346	13234
691.390	11324
691.434	9896
691.439	9669
691.478	9289
691.522	9719
691.559	9171
691.567	9119
691.611	9512
691.655	9159
691.680	9201
691.699	9065
691.743	8694
691.787	8536
691.800	8263
691.831	8104
691.875	8626
691.919	8853
691.921	8840
691.964	9047
692.008	9600
692.041	9802
692.052	9844
692.096	9949
692.139	10264
692.162	10202
692.183	9923
692.227	9719
692.271	9296
692.282	9108
692.315	8852
692.359	9011
692.402	9290
692.403	9311
692.447	9346
692.490	9459
692.523	9581
692.534	9645
692.578	9742
692.622	9887
692.643	9931
692.666	9844
692.709	9675
692.753	9483
692.763	9379
692.797	9200
692.840	9119
692.884	9055
692.884	9076
692.928	9245
692.971	9646
693.004	9673
693.015	9699
693.059	9971
693.102	9889
693.124	9853
693.146	9986
693.189	10411
693.233	10714
693.245	10878
693.276	11139
693.320	11155
693.363	11101
693.365	11078
693.407	11989
693.450	13132
693.485	13670
693.493	13898
693.537	15411
693.580	16509
693.605	17339
693.624	19380
693.667	24083
693.710	28961
693.725	30734
693.753	40356
693.797	55586
693.840	71113
693.845	72682
693.883	70160
693.926	66048
693.966	62696
693.970	61361
694.013	47147
694.056	32811
694.086	22749
694.099	21712
694.142	18497
694.185	15492
694.206	13971
694.229	13747
694.272	12954
694.315	12635
694.326	12408
694.358	12150
694.401	12099
694.444	11930
694.446	11894
694.487	11728
694.530	11338
694.566	11270
694.573	11196
694.616	10388
694.659	9655
694.686	9072
694.702	9114
694.745	9111
694.787	9251
694.806	9429
694.830	9656
694.873	9575
694.916	9712
694.926	9633
694.959	9398
695.002	9385
695.044	9330
695.046	9304
695.087	9703
695.130	10164
695.166	10560
695.172	10557
695.215	10179
695.258	9994
695.286	9603
695.301	9590
695.343	10038
695.386	9906
695.406	9964
695.428	10027
695.471	10017
695.514	10274
695.526	10161
695.556	9885
695.599	10005
695.641	9950
695.646	9913
695.684	9884
695.726	9649
695.766	9680
695.769	9719
695.811	9894
695.854	9984
695.886	10045
695.896	10045
695.938	9698
695.981	9574
696.005	9540
696.023	9632
696.065	9525
696.108	9802
696.125	9786
696.150	9844
696.192	9875
696.235	9930
696.245	9919
696.277	9798
696.319	9642
696.361	9546
696.365	9504
696.404	9724
696.446	10008
696.485	10119
696.488	10148
696.530	10250
696.572	10295
696.604	10338
696.614	10218
696.656	9661
696.698	9058
696.724	8594
696.740	8682
696.783	9066
696.825	9280
696.844	9394
696.867	9560
696.909	9684
696.951	9921
696.964	9946
696.992	9808
697.034	9675
697.076	9422
697.083	9360
697.118	9403
697.160	9464
697.202	9565
697.203	9540
697.244	9350
697.286	9188
697.323	8926
697.327	8951
697.369	9162
697.411	9164
697.442	9194
697.453	9290
697.494	9556
697.536	9872
697.562	10064
697.578	10142
697.620	10129
697.661	10186
697.682	10211
697.703	10238
697.744	10152
697.786	10195
697.801	10154
697.828	10302
697.869	10471
697.911	10570
697.921	10599
697.952	10237
697.994	9664
698.035	9138
698.040	9030
698.077	9143
698.118	9429
698.160	9647
698.160	9622
698.201	9493
698.243	9338
698.279	9192
698.284	9228
698.325	9311
698.367	9421
698.399	9427
698.408	9404
698.449	9219
698.491	9015
698.518	8886
698.532	9040
698.573	9395
698.614	9781
698.638	9948
698.656	9992
698.697	10061
698.738	10125
698.757	10121
698.779	10330
698.820	10693
698.862	11043
698.877	11150
698.903	11196
698.944	11205
698.985	11217
698.996	11192
699.026	11111
699.067	10954
699.116	10739
699.235	9134
699.354	9792
699.474	11026
699.593	11501
699.713	10712
699.832	9886
699.951	10260
700.070	10193
700.190	9634
700.309	10418
700.428	10682
700.547	10969
700.667	10144
700.786	11195
700.905	9534
701.024	10971
701.143	9940
701.262	9181
701.381	9282
701.500	9231
701.619	9759
701.738	8909
701.857	8840
701.976	8872
702.095	8841
702.214	10287
702.333	9658
702.452	8382
702.571	9035
702.690	9261
702.809	8608
702.928	7806
703.047	8665
703.165	9023
703.284	7814
703.403	8595
703.522	9553
703.640	9475
703.759	11081
703.878	14119
703.997	7999
704.115	8203
704.234	8002
704.353	7663
704.471	8105
704.590	8541
704.708	7220
704.827	7961
704.946	8406
705.064	8793
705.183	8744
705.301	11081
705.420	15400
705.538	14827
705.656	12192
705.775	12517
705.893	18566
706.012	23888
706.130	12220
706.249	12019
706.367	11434
706.485	12880
706.604	11948
706.722	12352
706.840	13759
706.958	13512
707.077	10692
707.195	10983
707.313	11431
707.431	10968
707.549	11385
707.668	10505
707.786	11339
707.904	10025
708.022	9887
708.140	10209
708.258	9879
708.376	11523
708.494	10831
708.612	12266
708.730	17415
708.848	15857
708.966	15068
709.084	14044
709.202	14097
709.320	14110
709.438	13291
709.556	13714
709.674	13578
709.791	13852
709.909	13397
710.027	14518
710.145	13052
710.263	14230
710.380	13629
710.498	13706
710.616	13066
710.733	13618
710.851	14140
710.969	13614
711.086	12978
711.204	12959
711.322	12038
711.439	12764
711.557	13388
711.674	12227
711.792	12774
711.909	13624
712.027	14015
712.144	12381
712.262	11968
712.379	13839
712.497	20227
712.614	20722
712.732	16826
712.849	15175
712.966	15997
713.084	19004
713.201	16916
713.318	16509
713.436	15692
713.553	16512
713.670	16368
713.787	17527
713.905	17720
714.022	15492
714.139	15277
714.256	16011
714.373	15812
714.490	15832
714.608	15726
714.725	23673
714.842	24300
714.959	14504
715.076	14162
715.193	13970
715.310	12971
715.427	14074
715.544	13071
715.661	13752
715.778	13049
715.895	15718
716.011	14708
716.128	14356
716.245	13445
716.362	14101
716.479	14688
716.596	13586
716.713	13118
716.829	12855
716.946	13286
717.063	12065
717.180	12569
717.296	11223
717.413	12580
717.530	13126
717.646	11999
717.763	12466
717.880	10609
717.996	11654
718.113	11229
718.229	11691
718.346	10269
718.462	11449
718.579	13098
718.695	17753
718.812	16113
718.928	15899
719.045	11884
719.161	10537
719.277	10559
719.394	10221
719.510	11478
719.626	10691
719.743	12596
719.859	10941
719.975	11259
720.092	13117
720.208	15116
720.324	11486
720.440	11211
720.557	12793
720.673	16597
720.789	23708
720.905	48813
721.021	17734
721.137	10369
721.253	10936
721.369	11226
721.486	13331
721.602	16225
721.718	11066
721.834	9236
721.950	10119
722.066	8723
722.181	9346
722.297	9769
722.413	9911
722.529	9246
722.645	10067
722.761	8805
722.877	9733
722.993	8922
723.108	9263
723.224	8875
723.340	9575
723.456	8520
723.571	10153
723.687	9499
723.803	8821
723.918	8130
724.034	8408
724.150	8961
724.265	10732
724.381	19669
724.497	23226
724.612	8193
724.728	8780
724.843	8186
724.959	10010
725.074	19784
725.190	20470
725.305	9982
725.421	8791
725.536	7387
725.651	7244
725.767	7876
725.882	7991
725.997	6759
726.113	7838
726.228	7862
726.343	8123
726.459	6927
726.574	8013
726.689	7256
726.804	7888
726.920	7441
727.035	7563
727.150	7453
727.265	7145
727.380	7618
727.495	7997
727.610	6314
727.725	7030
727.841	7958
727.956	12393
728.071	11427
728.186	6708
728.301	6169
728.416	6620
728.531	6939
728.645	6128
728.760	7409
728.875	7364
728.990	6827
729.105	7309
729.220	6329
729.335	6167
729.449	7422
729.564	6669
729.679	5573
729.794	5542
729.908	6833
730.023	6840
730.138	5995
730.253	6606
730.367	5637
730.482	5849
730.596	5347
730.711	6914
730.826	5748
730.940	4951
731.055	5545
731.169	5473
731.284	5977
731.398	6071
731.513	7327
731.627	6098
731.742	7115
731.856	7198
731.970	4349
732.085	5492
732.199	5432
732.313	5420
732.428	6164
732.542	8077
732.656	6513
732.771	5443
732.885	5267
732.999	4932
733.113	5999
733.227	5825
733.342	4651
733.456	4712
733.570	4415
733.684	4943
733.798	4070
733.912	4374
734.026	3882
734.140	4987
734.254	5700
734.368	11093
734.482	12307
734.596	4853
734.710	4412
734.824	5255
734.938	5036
735.052	4573
735.166	6047
735.280	4537
735.393	4848
735.507	4887
735.621	7214
735.735	12634
735.849	5439
735.962	4761
736.076	4740
736.190	5298
736.303	6554
736.417	9127
736.531	4565
736.644	5251
736.758	3958
736.872	4023
736.985	3886
737.099	4799
737.212	3831
737.326	4504
737.439	4025
737.553	4619
737.666	4274
737.780	3447
737.893	4133
738.007	4002
738.120	3609
738.233	3866
738.347	4276
738.460	4323
738.573	3596
738.687	3655
738.800	4677
738.913	4685
739.026	3565
739.140	4939
739.253	3199
739.366	3864
739.479	4577
739.592	3459
739.705	3644
739.818	4292
739.932	3480
740.045	4760
740.158	4070
740.271	3234
740.384	3268
740.497	4074
740.610	4458
740.723	3947
740.836	3502
740.949	5072
741.062	5394
741.174	4519
741.287	4114
741.400	3569
741.513	3552
741.626	4804
741.739	4004
741.851	3869
741.964	3484
742.077	4050
742.189	5534
742.302	9725
742.415	6627
742.527	3906
742.640	4216
742.753	3034
742.865	3454
742.978	3514
743.090	3354
743.203	3985
743.316	3878
743.428	3678
743.541	3711
743.653	3433
743.766	2934
743.878	4301
743.990	6139
744.103	9174
744.215	13603
744.327	5353
744.440	4656
744.552	5496
744.664	4135
744.777	3963
744.889	2883
745.001	4016
745.113	2007
745.226	3383
745.338	3552
745.450	3342
745.562	2742
745.674	2653
745.786	2280
745.898	3516
746.010	3152
746.122	2737
746.234	3138
746.347	3390
746.459	3788
746.570	4372
746.682	8680
746.794	19402
746.906	8152
747.018	3623
747.130	3672
747.242	2943
747.354	3091
747.466	3709
747.577	3544
747.689	3804
747.801	3408
747.913	3477
748.024	2733
748.136	3159
748.248	2732
748.359	3378
748.471	2821
748.583	3365
748.694	3902
748.806	4140
748.918	4403
749.029	3596
749.141	4160
749.252	3320
749.364	3536
749.475	6373
749.587	5578
749.698	3031
749.809	3486
749.921	3007
750.032	2043
750.144	3101
750.255	2601
750.366	1657
750.478	2891
750.589	2653
750.700	2831
750.811	2939
750.923	3998
751.034	6433
751.145	5702
751.256	2869
751.367	2968
751.479	3074
751.590	2348
751.701	2939
751.812	2362
751.923	2781
752.034	2236
752.145	2947
752.256	3539
752.367	1943
752.478	2736
752.589	2925
752.700	2460
752.811	2416
752.922	1912
753.032	2758
753.143	3714
753.254	2184
753.365	3075
753.476	2708
753.586	2517
753.697	3171
753.808	2823
753.919	3496
754.029	2399
754.140	3175
754.251	3064
754.361	2309
754.472	2291
754.582	3051
754.693	2640
754.804	2477
754.914	2593
755.025	2662
755.135	2625
755.246	3158
755.356	2861
755.466	3192
755.577	2698
755.687	3400
755.798	2715
755.908	3140
756.018	2377
756.129	3022
756.239	2515
756.349	2429
756.460	3272
756.570	2048
756.680	2578
756.790	2666
756.900	3554
757.011	2179
757.121	2829
757.231	3224
757.341	2876
757.451	2018
757.561	2276
757.671	3625
757.781	1779
757.891	3621
758.001	2758
758.111	3833
758.221	3613
758.331	2956
758.441	3549
758.551	3777
758.661	3659
758.771	3560
758.880	3052
758.990	4367
759.100	3587
759.210	3486
759.320	4150
759.429	3303
759.539	3777
759.649	3372
759.758	4507
759.868	3623
759.978	3636
760.087	3321
760.197	3799
760.307	3667
760.416	4069
760.526	3638
760.635	4296
760.745	4564
760.854	4838
760.964	4598
761.073	4873
761.182	4923
761.292	4859
761.401	4778
761.511	4283
761.620	5080
761.729	5221
761.839	5096
761.948	5379
762.057	5596
762.166	5456
762.276	4778
762.385	5914
762.494	6008
762.603	5274
762.712	6379
762.822	6718
762.931	7171
763.040	6663
763.149	7537
763.258	7492
763.367	7788
763.476	7627
763.585	8337
763.694	8657
763.803	9031
763.912	9264
764.021	10303
764.130	11001
764.238	11409
764.347	11731
764.456	13197
764.565	13248
764.674	14477
764.783	15436
764.891	16228
765.000	19650
765.109	21943
765.217	24846
765.326	30149
765.435	36090
765.543	42263
765.652	54193
765.761	68929
765.869	96832
765.978	143285
766.086	225111
766.195	380664
766.303	695121
766.412	1013802
766.520	910564
766.629	555057
766.737	301052
766.846	183858
766.954	123101
767.062	90326
767.171	68767
767.279	53002
767.387	40995
767.496	34991
767.604	31734
767.712	26679
767.820	23479
767.928	21951
768.037	19992
768.145	19701
768.253	18799
768.361	17838
768.469	18740
768.577	18478
768.685	20302
768.793	21397
768.901	22556
769.009	26264
769.117	30534
769.225	41042
769.333	58680
769.441	90000
769.549	157213
769.657	310791
769.765	661515
769.873	868924
769.981	539094
770.088	238292
770.196	128306
770.304	80825
770.412	58469
770.519	43598
770.627	32882
770.735	28294
770.842	22945
770.950	20949
771.058	17158
771.165	15463
771.273	14426
771.380	14132
771.488	11503
771.595	11026
771.703	9634
771.810	10330
771.918	8667
772.025	8655
772.133	8315
772.240	7805
772.348	8529
772.455	7467
772.562	6794
772.670	6397
772.777	6777
772.884	5600
772.991	5829
773.099	5565
773.206	4959
773.313	6333
773.420	5152
773.528	4572
773.635	4205
773.742	4690
773.849	5262
773.956	4744
774.063	3962
774.170	4563
774.277	4927
774.384	4089
774.491	3899
774.598	4004
774.705	4586
774.812	4524
774.919	4217
775.026	4758
775.133	4296
775.239	3694
775.346	4248
775.453	3602
775.560	3231
775.667	4136
775.773	3219
775.880	3813
775.987	3928
776.093	3742
776.200	4248
776.307	3539
776.413	3972
776.520	3515
776.627	4351
776.733	4009
776.840	4108
776.946	6909
777.053	14147
777.159	32591
777.266	17169
777.372	28058
777.478	21886
777.585	10129
777.691	4052
777.798	3856
777.904	4693
778.010	4442
778.117	4149
778.223	3604
778.329	3130
778.435	3111
778.542	3023
778.648	3173
778.754	2520
778.860	3181
778.966	2446
779.072	2865
779.178	2833
779.284	2780
779.391	2840
779.497	3155
779.603	5524
779.708	5557
779.815	14313
779.920	52396
780.026	91292
780.132	13844
780.238	3156
780.344	3546
780.450	3525
780.556	3127
780.661	2408
780.767	2992
780.873	2307
780.979	3409
781.085	1331
781.190	2694
781.296	2407
781.402	1889
781.507	1908
781.613	2200
781.719	1833
781.824	2478
781.930	2024
782.035	2513
782.141	2792
782.246	2528
782.352	1693
782.457	2143
782.563	2160
782.668	1874
782.773	2585
782.879	2033
782.984	2698
783.090	3029
783.195	3138
783.300	2497
783.405	2317
783.511	2427
783.616	3510
783.721	2712
783.826	2730
783.932	2871
784.037	2330
784.142	2804
784.247	2006
784.352	2672
784.457	2228
784.562	2990
784.667	2356
784.772	1659
784.877	1938
784.982	1633
785.087	1278
785.192	2335
785.297	1890
785.402	1708
785.507	1391
785.611	1763
785.716	1928
785.821	1013
785.926	1235
786.031	1703
786.135	1467
786.240	1889
786.345	506
786.450	2196
786.554	1197
786.659	1306
786.763	1196
786.868	1712
786.973	1988
787.077	1317
787.182	1262
787.286	1619
787.391	913
787.495	1309
787.600	1381
787.704	1234
787.809	822
787.913	985
788.017	1180
788.122	1470
788.226	874
788.330	1635
788.435	950
788.539	1394
788.643	729
788.747	903
788.852	1320
788.956	630
789.060	1866
789.164	1853
789.268	1208
789.372	2003
789.476	810
789.580	1567
789.684	-146
789.788	1961
789.892	738
789.996	2257
790.100	1869
790.204	1056
790.308	1392
790.412	1160
790.516	1937
790.620	1015
790.724	1544
790.828	686
790.931	764
791.035	2723
791.139	960
791.242	285
791.346	1343
791.450	945
791.554	1722
791.657	-601
791.761	1667
791.864	1785
791.968	1603
792.072	839
792.175	1529
792.279	989
792.382	1630
792.486	1094
792.589	1625
792.693	2289
792.796	-161
792.899	747
793.003	1366
793.106	-329
793.209	109
793.313	1971
793.416	-476
793.519	2575
793.623	2124
793.726	1633
793.829	1773
793.932	1156
794.035	-118
794.138	2081
794.242	1660
794.345	2398
794.448	4610
794.551	7974
794.654	26403
794.757	49329
794.860	10066
794.963	2311
795.066	705
795.169	1414
795.272	85
795.375	1482
795.477	210
795.580	1117
795.683	-219
795.786	744
795.889	-245
795.991	1929
796.094	2246
796.197	138
796.300	1421
796.402	574
796.505	440
796.608	14
796.710	1777
796.813	656
796.915	827
797.018	1437
797.120	814
797.223	-826
797.326	1622
797.428	472
797.530	594
797.633	1251
797.735	1462
797.838	3120
797.940	2531
798.042	570
798.145	-128
798.247	1056
798.349	-1108
798.452	909
798.554	110
798.656	-16
798.758	2012
798.860	741
798.962	-575
799.065	700
799.167	151
799.269	1542
799.371	1108
799.473	301
799.575	573
799.677	830
799.779	2232
799.881	139
799.983	1174
800.085	412
800.187	1072
800.289	-306
800.390	-98
800.492	805
800.594	576
800.696	-293
800.798	1232
800.899	-44
801.001	239
801.103	251
801.205	-541
801.306	-380
801.408	-754
801.509	397
801.611	52
801.713	534
801.814	403
801.916	268
802.017	493
802.119	582
802.220	-266
802.322	-1790
802.423	2217
802.525	52
802.626	352
802.727	619
802.829	558
802.930	-1643
803.031	1805
803.133	484
803.234	-904
803.335	285
803.436	-163
803.538	645
803.639	-1005
803.740	550
803.841	-650
803.942	192
804.043	478
804.144	-620
804.245	-713
804.346	-311
804.447	-652
804.548	1675
804.649	1407
804.750	112
804.851	86
804.952	-354
805.053	-148
805.154	-1095
805.255	594
805.355	284
805.456	-795
805.557	-912
805.658	-1381
805.758	117
805.859	36
805.960	-151
806.061	-781
806.161	5
806.262	30
806.362	-360
806.463	-7
806.564	241
806.664	192
806.765	-78
806.865	886
806.966	-314
807.066	-213
807.166	759
807.267	654
807.367	-523
807.468	264
807.568	-1274
807.668	270
807.769	280
807.869	31
807.969	284
808.069	-302
808.170	88
808.270	-572
808.370	35
808.470	527
808.570	-1069
808.670	-484
808.770	645
808.870	-514
808.970	-833
809.070	-343
809.170	-746
809.271	11
809.370	231
809.470	662
809.570	-764
809.670	-21
809.770	480
809.870	807
809.970	-428
810.070	243
810.169	110
810.269	-1134
810.369	831
810.469	-396
810.568	-337
810.668	-837
810.768	-463
810.867	-389
810.967	-568
811.066	201
811.166	-419
811.265	200
811.365	126
811.464	-124
811.564	580
811.663	164
811.763	-915
811.862	-272
811.962	-84
812.061	-711
812.160	-849
812.260	-319
812.359	355
812.458	26
812.557	3934
812.657	4840
812.756	1387
812.855	-26
812.954	-291
813.053	100
813.153	-597
813.252	-1514
813.351	380
813.450	-1420
813.549	-1329
813.648	89
813.747	-1294
813.846	474
813.945	-1017
814.044	-8
814.143	-234
814.242	-570
814.341	-1415
814.439	-107
814.538	-226
814.637	-37
814.736	-45
814.835	-375
814.933	-563
815.032	-66
815.131	-291
815.229	-543
815.328	-249
815.427	-479
815.525	-102
815.624	-301
815.722	-745
815.821	-1151
815.919	-34
816.018	-693
816.116	-408
816.215	-588
816.313	-426
816.412	-571
816.510	-295
816.609	-37
816.707	56
816.805	-114
816.904	-550
817.002	-637
817.100	18
817.198	271
817.296	-802
817.395	-512
817.493	767
817.591	-594
817.689	569
817.787	226
817.885	2012
817.983	4241
818.081	11599
818.179	30000
818.277	74321
818.375	61210
818.473	15453
818.571	5461
818.669	4035
818.767	5755
818.865	3819
818.963	3531
819.061	4509
819.158	9557
819.256	25614
819.354	62449
819.452	142933
819.549	83636
819.647	18192
819.745	6264
819.842	3881
819.940	1855
820.038	1578
820.135	1698
820.233	1567
820.330	-256
820.428	240
820.525	771
820.623	249
820.720	280
820.818	287
820.915	662
821.012	1608
821.110	290
821.207	602
821.304	-40
821.402	2127
821.499	4390
821.596	9984
821.693	4196
821.791	1145
821.888	613
821.985	2369
822.082	1449
822.179	3036
822.276	3511
822.373	1606
822.470	-368
822.567	-278
822.664	-1060
822.761	823
822.858	-898
822.955	-550
823.052	-877
823.149	-618
823.246	-643
823.343	-1186
823.440	-706
823.536	-357
823.633	-1082
823.730	-696
823.827	-243
823.923	425
824.020	1521
824.117	1507
824.213	3004
824.310	779
824.407	-646
824.503	71
824.600	-744
824.696	-493
824.793	-778
824.889	-315
824.986	-210
825.082	-504
825.179	-134
825.275	-712
825.371	-689
825.468	171
825.564	-1070
825.660	-412
825.757	-136
825.853	452
825.949	-1510
826.045	-125
826.142	-1163
826.238	-666
826.334	-233
826.430	-1466
826.526	-519
826.622	-737
826.718	-291
826.814	-1383
826.910	-265
827.006	-199
827.102	-1149
827.198	614
827.294	-707
827.390	-1430
827.486	-353
827.582	-1645
827.678	-872
827.774	-949
827.869	-1083
827.965	848
828.061	-1642
828.157	-673
828.252	-633
828.348	-1862
828.444	512
828.539	-1227
828.635	-1081
828.731	340
828.826	-2199
828.922	-290
829.017	-1238
829.113	-502
829.208	-1486
829.304	-1545
829.399	-54
829.495	-13
829.590	207
829.685	-1128
829.781	-1038
829.876	-594
829.971	-1222
830.066	-566
830.162	-915
830.257	-1274
830.352	-1207
830.447	502
830.543	-353
830.638	-1554
830.733	637
830.828	-168
830.923	-400
831.018	-871
831.113	256
831.208	-453
831.303	-788
831.398	351
831.493	-846
831.588	93
831.683	-1414
831.778	-308
831.873	-1303
831.967	337
832.062	-1948
832.157	-1736
832.252	-209
832.346	-592
832.441	-125
832.536	-69
832.631	1165
832.725	1937
832.820	-799
832.914	-765
833.009	-1158
833.104	-374
833.198	530
833.293	-883
833.387	-1115
833.482	-877
833.576	-1351
833.670	-437
833.765	-1407
833.859	-1180
833.954	-362
834.048	-1329
834.142	-322
834.237	-753
834.331	-1204
834.425	-292
834.519	-693
834.613	92
834.708	-209
834.802	-738
834.896	-1672
834.990	-1022
835.084	-685
835.178	-173
835.272	-885
835.366	-803
835.460	521
835.554	-1139
835.648	-1062
835.742	-824
835.836	-496
835.930	-1555
836.024	-1271
836.117	394
836.211	-364
836.305	67
836.399	571
836.493	-746
836.586	58
836.680	-1838
836.774	-1629
836.867	-243
836.961	-1702
837.055	-1589
837.148	-1851
837.242	-999
837.335	-1051
837.429	-624
837.522	-818
837.616	-648
837.709	755
837.803	-39
837.896	173
837.989	-1035
838.083	365
838.176	1594
838.269	1475
838.363	394
838.456	-675
838.549	772
838.642	157
838.735	3141
838.829	661
838.922	-1201
839.015	-656
839.108	-1382
839.201	-326
839.294	-1067
839.387	-142
839.480	-961
839.573	107
839.666	617
839.759	-165
839.852	-1351
839.945	-683
840.038	-398
840.131	-800
840.223	-1045
840.316	-362
840.409	-895
840.502	-1663
840.594	377
840.687	-1493
840.780	-378
840.873	-1497
840.965	-724
841.058	57
841.150	1989
841.243	-27
841.336	167
841.428	-1166
841.521	-979
841.613	-1252
841.706	-661
841.798	-784
841.890	-300
841.983	-1292
842.075	-3
842.167	-677
842.260	-294
842.352	478
842.444	631
842.537	2028
842.629	4041
842.721	220
842.813	-41
842.905	-1086
842.997	-515
843.090	-659
843.182	980
843.274	1803
843.366	6904
843.458	12919
843.550	8406
843.642	263
843.734	183
843.826	-425
843.918	502
844.009	-25
844.101	-1007
844.193	-57
844.285	600
844.377	403
844.469	3756
844.560	5402
844.652	5139
844.744	1413
844.835	-311
844.927	-475
845.019	-601
845.110	-518
845.202	-490
845.293	-596
845.385	-1131
845.476	-539
845.568	-177
845.659	-1041
845.751	-8
845.842	-1113
845.934	-735
846.025	-1276
846.116	-1404
846.208	-925
846.299	-1523
846.390	-1110
846.482	-1139
846.573	-408
846.664	-410
846.755	749
846.846	183
846.937	-1556
847.029	-720
847.120	-1111
847.211	-2001
847.302	-313
847.393	-1335
847.484	-67
847.575	-1545
847.666	-1040
847.757	-555
847.847	-1088
847.938	-788
848.029	-1016
848.120	-1083
848.211	146
848.302	-373
848.392	-1424
848.483	-688
848.574	-1525
848.664	-1202
848.755	-652
848.846	-583
848.936	-2258
849.027	-583
849.118	-760
849.208	-1545
849.299	-959
849.389	-198
849.480	-602
849.570	-394
849.661	439
849.751	186
849.841	-1095
849.932	-1132
850.022	-1195
850.112	-1225
850.203	-1802
850.293	-1253
850.383	-25
850.474	-952
850.564	-1064
850.654	-832
850.744	-78
850.834	-682
850.924	-526
851.014	-1125
851.104	-791
851.194	-1513
851.284	-576
851.374	-58
851.464	-233
851.554	-397
851.644	-463
851.734	392
851.824	-161
851.914	-729
852.004	757
852.094	496
852.183	-898
852.273	-676
852.363	-88
852.452	-1324
852.542	-565
852.632	-867
852.721	-1060
852.811	-1528
852.901	-1674
852.990	-915
853.080	-663
853.169	-625
853.259	-1103
853.348	-671
853.438	-920
853.527	-507
853.617	-1527
853.706	-111
853.795	-928
853.885	1210
853.974	1217
854.063	4725
854.152	6031
854.242	1109
854.331	-336
854.420	-846
854.509	-731
854.598	-155
854.687	-550
854.777	-623
854.866	-1221
854.955	-783
855.044	-839
855.133	-903
855.222	-1004
855.311	-686
855.400	-735
855.488	-402
855.577	-1350
855.666	-345
855.755	-371
855.844	-883
855.933	-1202
856.021	-451
856.110	-247
856.199	-1224
856.288	-529
856.376	-445
856.465	-662
856.554	-603
856.642	-602
856.731	160
856.819	-450
856.908	-273
856.996	-1210
857.085	-178
857.173	-683
857.262	-1371
857.350	-450
857.438	-1158
857.527	110
857.615	-974
857.703	-481
857.792	-1617
857.880	-1039
857.968	-1268
858.056	-1826
858.145	-894
858.233	-1218
858.321	-1378
858.409	-928
858.497	-1326
858.585	-1003
858.673	-714
858.761	-1259
858.849	-1051
858.937	-1566
859.025	-894
859.113	-738
859.201	-329
859.289	816
859.377	-269
859.465	-495
859.552	-354
859.640	-719
859.728	-769
859.816	-1597
859.903	-839
859.991	-1355
860.079	-539
860.166	-1196
860.254	-590
860.342	-1064
860.429	-1720
860.517	-713
860.604	-1396
860.692	-701
860.779	-1888
860.867	-1596
860.954	-743
861.042	-955
861.129	-893
861.216	-480
861.304	-1401
861.391	-1230
861.478	-1562
861.565	-94
861.653	-686
861.740	-1327
861.827	-1646
861.914	-454
862.001	-1032
862.089	-699
862.176	-691
862.263	-1257
862.350	-840
862.437	-935
862.524	-800
862.611	55
862.698	671
862.785	1066
862.871	1918
862.958	-637
863.045	-927
863.132	-707
863.219	-522
863.306	-1933
863.392	-930
863.479	-823
863.566	-604
863.652	-37
863.739	-1178
863.826	-760
863.912	-1375
863.999	-1385
864.086	-877
864.172	-821
864.259	-985
864.345	-1540
864.432	-1359
864.518	-831
864.604	-1118
864.691	-1084
864.777	-591
864.863	-414
864.950	-1081
865.036	-1759
865.122	-1059
865.209	-820
865.295	-935
865.381	-855
865.467	-393
865.553	-669
865.639	-993
865.726	-218
865.812	74
865.898	503
865.984	839
866.070	3198
866.156	3718
866.242	-1325
866.328	-82
866.414	-1452
866.499	30
866.585	-2031
866.671	-718
866.757	-852
866.843	-1023
866.928	-1598
867.014	-855
867.100	-345
867.186	-752
867.271	-404
867.357	-123
867.442	164
867.528	-102
867.614	-459
867.699	1439
867.785	2858
867.870	5535
867.956	6514
868.041	2271
868.127	1916
868.212	4256
868.297	2974
868.383	877
868.468	1007
868.553	2334
868.639	798
868.724	1808
868.809	2554
868.894	-511
868.979	-1236
869.065	-1202
869.150	-2031
869.235	-1032
869.320	-1672
869.405	-1170
869.490	-1478
869.575	-1251
869.660	-1604
869.745	-1130
869.830	-1689
869.915	-499
870.000	-1261
870.085	30
870.169	93
870.254	9
870.339	-1443
870.424	-1488
870.509	-823
870.593	-1017
870.678	-1200
870.763	-1055
870.847	-618
870.932	-682
871.016	820
871.101	694
871.186	-1226
871.270	-11
871.355	-940
871.439	-597
871.523	-1382
871.608	-786
871.692	-6
871.777	1097
871.861	-347
871.945	-1293
872.030	-1166
872.114	-886
872.198	-2147
872.282	-1681
872.367	-1206
872.451	-954
872.535	-1256
872.619	-1168
872.703	-997
872.787	-1256
872.871	-1295
872.955	-1088
873.039	-1672
873.123	-1555
873.207	-366
873.291	227
873.375	-1245
873.459	-1554
873.543	-1533
873.627	-1725
873.711	-521
873.794	-157
873.878	-1443
873.962	-1295
874.045	-2028
874.129	-635
874.137	-664
874.213	-957
874.245	-744
874.296	-400
874.352	-963
874.380	-1242
874.460	-1498
874.464	-1508
874.547	-1709
874.568	-1658
874.631	-1534
874.676	-1385
874.714	-1238
874.784	-1059
874.798	-1030
874.881	-63
874.892	-207
874.965	-1166
874.999	-865
875.048	-491
875.107	-525
875.131	-520
875.215	-1339
875.215	-1338
875.298	-831
875.323	-956
875.381	-1239
875.430	-1135
875.465	-1051
875.538	-1274
875.548	-1305
875.631	-888
875.646	-975
875.714	-1485
875.753	-1466
875.798	-1363
875.861	-819
875.881	-667
875.964	-506
875.968	-523
876.047	-850
876.076	-920
876.130	-990
876.183	-853
876.213	-774
876.291	-572
876.296	-559
876.379	-891
876.398	-877
876.462	-933
876.506	-1164
876.545	-1326
876.613	-1081
876.628	-1021
876.711	-1767
876.721	-1612
876.794	-466
876.828	-577
876.877	-754
876.935	-620
876.960	-518
877.043	-1009
877.043	-1007
877.125	-560
877.150	-534
877.208	-472
877.258	-545
877.291	-544
877.365	-51
877.374	3
877.456	-807
877.472	-769
877.539	-718
877.579	-665
877.622	-494
877.687	-687
877.704	-788
877.787	-325
877.794	-393
877.869	-962
877.901	-945
877.952	-1047
878.008	-995
878.034	-860
878.115	-901
878.117	-909
878.199	-1031
878.222	-1028
878.282	-703
878.329	-634
878.364	-727
878.437	-406
878.447	-334
878.529	-1075
878.544	-979
878.611	-725
878.651	-859
878.694	-852
878.758	-434
878.776	-345
878.858	-539
878.865	-525
878.941	-582
878.972	-730
879.023	-698
879.078	-574
879.105	-586
879.185	-472
879.187	-463
879.269	-269
879.292	-421
879.351	-1207
879.399	-1333
879.433	-1245
879.506	-528
879.516	-431
879.598	-750
879.613	-712
879.680	-510
879.720	-335
879.762	-369
879.827	-1013
879.844	-1146
879.926	-655
879.933	-654
880.007	-426
880.040	-596
880.089	-888
880.147	-586
880.171	-384
880.253	-117
880.254	-118
880.335	-318
880.360	-120
880.417	743
880.467	1484
880.499	1846
880.574	2445
880.580	2423
880.662	154
880.680	-89
880.744	-563
880.787	-622
880.825	-481
880.893	-624
880.907	-709
880.989	-637
881.000	-643
881.070	-229
881.106	-207
881.152	-433
881.213	-369
881.233	-361
881.315	-571
881.319	-609
881.396	-811
881.426	-547
881.478	-77
881.532	104
881.559	18
881.639	-608
881.641	-608
881.722	-279
881.745	-91
881.803	237
881.852	-82
881.885	-427
881.958	-507
881.966	-469
882.047	-62
882.064	-38
882.129	-217
882.171	-211
882.210	153
882.277	484
882.291	431
882.372	322
882.383	226
882.454	-451
882.489	-649
882.535	-676
882.596	-719
882.616	-806
882.697	-670
882.702	-688
882.778	-642
882.808	-578
882.859	-475
882.914	-465
882.940	-513
883.020	-706
883.021	-702
883.102	-96
883.127	-54
883.183	-310
883.233	-667
883.264	-791
883.339	-661
883.345	-622
883.426	-332
883.445	-262
883.507	-375
883.551	-516
883.587	-644
883.657	-804
883.668	-726
883.749	-600
883.763	-482
883.830	-245
883.869	-107
883.910	70
883.975	30
883.991	-104
884.072	-394
884.081	-489
884.152	-690
884.187	-620
884.233	-505
884.292	-109
884.314	-40
884.394	-371
884.398	-381
884.475	-522
884.504	-593
884.555	-496
884.610	-194
884.636	-51
884.716	-125
884.716	-123
884.797	-32
884.821	17
884.877	253
884.927	84
884.958	-207
885.033	-420
885.038	-403
885.118	-329
885.139	-266
885.199	-269
885.244	-456
885.279	-509
885.350	-246
885.359	-185
885.439	18
885.456	43
885.520	-325
885.561	-495
885.600	-422
885.667	-430
885.680	-442
885.760	-436
885.773	-397
885.840	248
885.878	411
885.920	236
885.984	-64
886.000	-99
886.080	72
886.089	41
886.160	-48
886.195	1
886.240	-219
886.300	-455
886.320	-316
886.400	285
886.406	301
886.480	254
886.511	284
886.560	420
886.616	573
886.640	538
886.720	359
886.722	348
886.800	30
886.827	-18
886.879	-29
886.932	-190
886.959	-7
887.038	562
887.039	559
887.119	-151
887.143	-351
887.198	152
887.248	568
887.278	567
887.354	524
887.358	518
887.437	328
887.459	277
887.517	301
887.564	204
887.596	250
887.669	495
887.676	466
887.755	45
887.774	-76
887.835	332
887.880	637
887.914	602
887.985	468
887.994	464
888.073	413
888.090	386
888.153	-59
888.195	-321
888.232	-125
888.300	161
888.311	117
888.391	-181
888.405	-242
888.470	5
888.510	164
888.549	113
888.615	18
888.628	78
888.708	397
888.720	443
888.787	516
888.825	570
888.866	546
888.930	453
888.945	424
889.024	273
889.035	251
889.103	315
889.140	347
889.182	574
889.245	891
889.261	913
889.340	974
889.349	979
889.419	577
889.454	363
889.498	653
889.559	1047
889.577	959
889.656	553
889.664	511
889.735	554
889.768	570
889.814	423
889.873	226
889.978	-139
890.083	961
890.187	959
890.292	922
890.397	-668
890.501	922
890.606	558
890.710	763
890.815	408
890.919	124
891.024	892
891.128	344
891.233	508
891.337	-158
891.442	693
891.546	-14
891.650	1220
891.755	272
891.859	1538
891.963	162
892.068	241
892.172	280
892.276	-64
892.380	1225
892.484	-156
892.589	38
892.693	318
892.797	28
892.901	191
893.005	92
893.109	743
893.213	151
893.317	218
893.421	1309
893.525	339
893.629	459
893.733	146
893.837	205
893.941	349
894.045	1008
894.148	-31
894.252	717
894.356	490
894.460	111
894.564	-453
894.667	-237
894.771	813
894.875	453
894.978	70
895.082	-555
895.186	488
895.289	573
895.393	864
895.496	447
895.600	-815
895.703	913
895.807	109
895.910	128
896.014	42
896.117	-99
896.221	1151
896.324	89
896.427	179
896.531	-269
896.634	117
896.737	-45
896.840	-365
896.944	48
897.047	-417
897.150	615
897.253	-424
897.356	545
897.460	-44
897.563	92
897.666	558
897.769	170
897.872	-45
897.975	452
898.078	7
898.181	-232
898.284	798
898.387	115
898.490	472
898.593	970
898.695	301
898.798	-545
898.901	345
899.004	343
899.107	143
899.209	196
899.312	-389
899.415	-687
899.518	-85
899.620	151
899.723	-380
899.826	721
899.928	1230
900.031	-295
900.133	-130
900.236	325
900.338	308
900.441	992
900.543	-95
900.646	113
900.748	1041
900.851	465
900.953	651
901.055	160
901.158	142
901.260	-171
901.362	191
901.465	268
901.567	703
901.669	765
901.771	70
901.873	185
901.976	-162
902.078	453
902.180	-300
902.282	392
902.384	380
902.486	328
902.588	466
902.690	563
902.792	679
902.894	1090
902.996	752
903.098	267
903.200	697
903.302	-130
903.404	-30
903.505	-465
903.607	790
903.709	221
903.811	-77
903.913	329
904.014	777
904.116	631
904.218	790
904.319	120
904.421	1952
904.523	2809
904.624	870
904.726	577
904.827	1443
904.929	1976
905.030	74
905.132	721
905.233	720
905.335	-135
905.436	-10
905.537	-213
905.639	838
905.740	725
905.841	363
905.943	1828
906.044	1963
906.145	1002
906.247	271
906.348	277
906.449	-242
906.550	484
906.651	-30
906.752	-846
906.854	-39
906.955	-812
907.056	-55
907.157	515
907.258	566
907.359	-573
907.460	461
907.561	380
907.662	196
907.762	592
907.863	-746
907.964	446
908.065	401
908.166	-839
908.267	115
908.367	-328
908.468	-120
908.569	501
908.670	649
908.770	34
908.871	292
908.971	471
909.072	-242
909.173	27
909.273	-328
909.374	-203
909.474	-427
909.575	-133
909.675	-175
909.776	-363
909.876	-192
909.977	420
910.077	543
910.177	-3
910.278	-48
910.378	-240
910.478	220
910.579	300
910.679	40
910.779	427
910.879	8
910.980	639
911.080	-40
911.180	867
911.280	373
911.380	-22
911.480	76
911.580	-328
911.680	353
911.780	-170
911.880	-223
911.980	301
912.080	84
912.180	106
912.280	-307
912.380	-26
912.480	787
912.580	666
912.679	-4
912.779	935
912.879	-119
912.979	574
913.078	613
913.178	8
913.278	598
913.377	-6
913.477	41
913.577	-17
913.676	676
913.776	-422
913.875	12
913.975	-35
914.074	684
914.174	441
914.273	-353
914.373	298
914.472	231
914.572	-11
914.671	632
914.770	-162
914.870	251
914.969	-337
915.068	-142
915.167	-427
915.267	-365
915.366	-174
915.465	-135
915.564	-166
915.663	332
915.763	-108
915.862	547
915.961	-320
916.060	142
916.159	-242
916.258	-927
916.357	284
916.456	403
916.555	-171
916.654	-747
916.752	219
916.851	-323
916.950	-182
917.049	453
917.148	-44
917.247	419
917.345	61
917.444	-479
917.543	219
917.642	-305
917.740	-684
917.839	-317
917.937	634
918.036	114
918.135	-159
918.233	-53
918.332	-472
918.430	184
918.529	95
918.627	-586
918.726	-235
918.824	-798
918.923	203
919.021	607
919.119	-160
919.218	139
919.316	-140
919.414	-258
919.512	185
919.611	158
919.709	63
919.807	143
919.905	742
920.003	151
920.102	-162
920.200	-827
920.298	-1007
920.396	190
920.494	-293
920.592	-224
920.690	741
920.788	-361
920.886	58
920.984	408
921.082	798
921.180	715
921.277	183
921.375	-391
921.473	62
921.571	-179
921.669	-397
921.766	-247
921.864	332
921.962	639
922.060	-421
922.157	329
922.255	-388
922.352	144
922.450	47
922.548	-489
922.645	-129
922.743	-528
922.840	-94
922.938	-255
923.035	245
923.133	-344
923.230	-48
923.327	122
923.425	-184
923.522	-126
923.619	-828
923.717	-53
923.814	617
923.911	790
924.008	884
924.106	157
924.203	-573
924.300	-10
924.397	518
924.494	712
924.591	95
924.688	-256
924.786	250
924.883	138
924.979	-304
925.077	-289
925.173	-180
925.270	-447
925.367	194
925.464	-682
925.561	547
925.658	-133
925.755	863
925.852	442
925.948	1304
926.045	2175
926.142	2712
926.239	3625
926.335	2792
926.432	2707
926.529	3418
926.625	3358
926.722	1446
926.818	1501
926.915	1103
927.011	-412
927.108	13
927.204	370
927.301	-55
927.397	86
927.494	-276
927.590	-617
927.687	-595
927.783	1324
927.879	-120
927.976	-290
928.072	-398
928.168	-1103
928.264	73
928.361	-1028
928.457	-122
928.553	-384
928.649	188
928.745	33
928.841	-982
928.937	-998
929.033	-240
929.129	229
929.225	-627
929.321	114
929.417	-502
929.513	-724
929.609	-297
929.705	-543
929.801	-256
929.897	-45
929.993	-16
930.089	-32
930.184	-493
930.280	-234
930.376	-40
930.471	-533
930.567	24
930.663	-4
930.758	-775
930.854	-256
930.950	-181
931.045	-433
931.141	-210
931.236	534
931.332	-888
931.427	-539
931.523	-634
931.618	-274
931.714	174
931.809	-624
931.905	-333
932.000	-929
932.095	-218
932.191	209
932.286	295
932.381	-799
932.476	493
932.572	-81
932.667	-257
932.762	-353
932.857	313
932.952	-595
933.047	-662
933.142	259
933.237	-489
933.332	-518
933.427	-430
933.522	-520
933.617	31
933.712	-897
933.807	22
933.902	399
933.997	-290
934.092	-364
934.187	-383
934.282	-247
934.376	-251
934.471	-384
934.566	-237
934.661	-621
934.755	-665
934.850	151
934.945	27
935.039	579
935.134	-592
935.228	-185
935.323	-899
935.417	231
935.512	64
935.606	406
935.701	168
935.795	-1050
935.890	-549
935.984	-425
936.079	-36
936.173	773
936.267	-329
936.362	-26
936.456	-42
936.550	-32
936.644	-359
936.738	-505
936.833	734
936.927	319
937.021	-69
937.115	-501
937.209	-510
937.303	163
937.397	-929
937.491	-300
937.585	-212
937.679	-712
937.773	120
937.867	-411
937.961	166
938.055	-792
938.149	591
938.243	43
938.337	-81
938.430	271
938.524	1682
938.618	4804
938.712	2502
938.805	358
938.899	553
938.993	1597
939.086	1669
939.180	5868
939.274	7278
939.367	1359
939.461	357
939.554	-617
939.648	134
939.741	-224
939.835	-279
939.928	-32
940.022	223
940.115	-253
940.208	-297
940.302	-70
940.395	-396
940.488	-533
940.582	134
940.675	-218
940.768	-186
940.861	-321
940.954	-610
941.048	-528
941.141	-804
941.234	156
941.327	274
941.420	971
941.513	-606
941.606	-304
941.699	-306
941.792	-128
941.885	-545
941.978	-145
942.071	-284
942.164	-575
942.257	-402
942.349	-296
942.442	-336
942.535	-505
942.628	-109
942.721	-309
942.813	-778
942.906	774
942.999	-1093
943.091	-211
943.184	-424
943.277	-1475
943.369	-887
943.462	-56
943.554	-665
943.647	-1587
943.739	-198
943.832	-489
943.924	-1198
944.017	-332
944.109	-1579
944.201	-693
944.294	-114
944.386	413
944.478	74
944.571	-458
944.663	-908
944.755	-780
944.847	-466
944.940	-332
945.032	-651
945.124	-294
945.216	745
945.308	-439
945.400	-385
945.492	209
945.584	-543
945.676	-83
945.768	-429
945.860	-331
945.952	188
946.044	339
946.136	-621
946.228	-132
946.320	-627
946.412	-579
946.503	54
946.595	265
946.687	-1068
946.779	-315
946.870	-435
946.962	-673
947.054	166
947.145	-171
947.237	252
947.329	-1019
947.420	-936
947.512	-1115
947.603	-1225
947.695	-109
947.786	-823
947.878	-523
947.969	414
948.061	-313
948.152	-1115
948.243	-1003
948.335	-575
948.426	-199
948.517	-727
948.609	-1167
948.700	-542
948.791	-972
948.882	-475
948.973	-746
949.065	-466
949.156	-307
949.247	-270
949.338	-230
949.429	-424
949.520	-40
949.611	-1381
949.702	318
949.793	-361
949.884	-119
949.975	-342
950.066	-481
950.157	-407
950.247	210
950.338	-1007
950.429	-1139
950.520	-217
950.611	-879
950.701	-394
950.792	-310
950.883	-923
950.973	-967
951.064	-649
951.155	-1301
951.245	-739
951.336	-633
951.427	-1174
951.517	-237
951.608	-938
951.698	-331
951.788	-470
951.879	-265
951.969	-1093
952.060	-515
952.150	-1279
952.240	-463
952.331	-2757
952.421	-499
952.511	-758
952.602	-659
952.692	-616
952.782	-240
952.872	-677
952.962	-1144
953.052	-1104
953.143	-1289
953.233	-351
953.323	405
953.413	-712
953.503	-313
953.593	-232
953.683	-574
953.773	-1116
953.863	-688
953.953	-1017
954.042	-656
954.132	-733
954.222	39
954.312	-689
954.402	-959
954.492	-250
954.581	-29
954.671	-864
954.761	-1713
954.850	-211
954.940	-599
955.030	-673
955.119	-377
955.209	-984
955.298	-1260
955.388	-492
955.477	269
955.567	-474
955.656	-165
955.746	-562
955.835	-639
955.925	-506
956.014	-135
956.103	-552
956.193	-445
956.282	-416
956.371	-123
956.461	-690
956.550	-899
956.639	-504
956.728	-1044
956.817	-599
956.906	-594
956.995	-261
957.085	-553
957.174	-384
957.263	-798
957.352	-778
957.441	-554
957.530	-823
957.619	-300
957.708	-490
957.796	-1146
957.885	-732
957.974	-956
958.063	-882
958.152	-1386
958.241	-628
958.329	350
958.418	-408
958.507	-824
958.596	290
958.684	-649
958.773	-653
958.861	-527
958.950	-434
959.039	-529
959.127	-293
959.216	398
959.304	-520
959.393	-579
959.481	-270
959.570	787
959.658	-11
959.746	-320
959.835	555
959.923	-73
960.011	203
960.100	-341
960.188	-903
960.276	-255
960.365	-1053
960.453	-739
960.541	-517
960.629	-966
960.717	-922
960.805	-1752
960.893	-1094
960.981	-1303
961.069	289
961.158	-647
961.245	-436
961.333	-679
961.421	-699
961.509	230
961.597	-133
961.685	-1301
961.773	-671
961.861	-1169
961.949	64
962.036	-2173
962.124	-173
962.212	-249
962.299	-1141
962.387	-1441
962.475	-375
962.562	-638
962.650	-180
962.738	-200
962.825	-1343
962.913	-1336
963.000	-712
963.088	-1156
963.175	-302
963.263	-651
963.350	-891
963.438	-979
963.525	-517
963.612	669
963.700	882
963.787	4583
963.874	352
963.962	177
964.049	-1085
964.136	-844
964.223	-1675
964.310	-211
964.398	-439
964.485	-858
964.572	-926
964.659	-286
964.746	542
964.833	-3
964.920	-157
965.007	-284
965.094	-59
965.181	-1504
965.268	-1058
965.355	-692
965.441	-493
965.528	-1299
965.615	322
965.702	-973
965.789	-556
965.875	-284
965.962	-617
966.049	-1681
966.136	-893
966.222	-1335
966.309	-1206
966.395	-978
966.482	-278
966.569	-564
966.655	-1317
966.742	-1726
966.828	-444
966.915	-1415
967.001	-361
967.087	-922
967.174	-1211
967.260	-372
967.347	-578
967.433	194
967.519	1843
967.605	-515
967.692	-1708
967.778	-1701
967.864	-1033
967.950	-650
968.036	-1608
968.123	-1243
968.209	-348
968.295	-1362
968.381	584
968.467	-407
968.553	-1686
968.639	-331
968.725	-1663
968.811	-505
968.897	-204
968.983	-209
969.069	-975
969.154	-176
969.240	-695
969.326	-1088
969.412	-928
969.497	-1818
969.583	-1215
969.669	-503
969.755	-1055
969.840	-1469
969.926	-910
970.012	-1965
970.097	-849
970.183	-1599
970.268	-886
970.354	-50
970.439	-993
970.525	1250
970.610	-775
970.696	-564
970.781	-452
970.866	-1543
970.952	-867
971.037	-1253
971.122	-683
971.208	-698
971.293	-1353
971.378	-2258
971.463	-568
971.549	-822
971.634	-1206
971.719	-807
971.804	-486
971.889	107
971.974	-967
972.059	-1070
972.144	-370
972.229	-1328
972.314	-1847
972.399	-703
972.484	-600
972.569	-1112
972.654	1
972.739	725
972.824	-436
972.908	-494
972.993	-1097
973.078	-970
973.163	-1723
973.247	-374
973.332	-1461
973.417	-46
973.501	-1207
973.586	-1134
973.671	-769
973.755	-918
973.840	69
973.924	-901
974.009	-810
974.093	-1032
974.178	84
974.262	-310
974.346	-563
974.431	-1336
974.515	-1565
974.600	-724
974.684	-831
974.768	-1440
974.852	-1093
974.937	-1703
975.021	88
975.105	-1394
975.189	-780
975.273	-498
975.358	-1794
975.442	-1180
975.526	-370
975.610	-1000
975.694	-1350
975.778	-149
975.862	-791
975.946	-2746
976.030	238
976.114	-1067
976.198	-1696
976.281	-1409
976.365	124
976.449	-734
976.533	-596
976.617	-840
976.700	-296
976.784	-659
976.868	-831
976.951	-442
977.035	-556
977.119	-927
977.202	-957
977.286	43
977.369	-795
977.453	-269
977.536	-1033
977.620	-1524
977.703	-810
977.787	-1697
977.870	-558
977.953	-261
978.037	-1877
978.120	476
978.203	-874
978.287	5
978.370	-402
978.453	-863
978.536	-469
978.620	-270
978.703	-498
978.786	-33
978.869	-1228
978.952	-2621
979.035	-318
979.118	-482
979.201	-1545
979.284	-1325
979.367	-1317
979.450	-1068
979.533	-874
979.616	-1311
979.699	-1579
979.782	-1054
979.865	-1383
979.948	-31
980.030	-1264
980.113	-723
980.196	-1675
980.279	-362
980.361	-1897
980.444	-1365
980.526	-508
980.609	-1177
980.692	-1785
980.774	-854
980.857	-1962
980.939	25
981.022	-1687
981.104	-1578
981.187	-832
981.269	-864
981.352	-590
981.434	-2255
981.516	-1678
981.599	-695
981.681	-667
981.763	-1217
981.846	-849
981.928	-1039
982.010	-1173
982.092	-651
982.174	-1123
982.256	-1749
982.339	-1231
982.421	-779
982.503	-803
982.585	-1913
982.667	-674
982.749	-1407
982.831	-1566
982.913	-1523
982.995	-50
983.077	-1664
983.158	-819
983.240	-1858
983.322	9
983.404	-1226
983.486	-1981
983.568	-846
983.649	-825
983.731	-603
983.813	-1491
983.894	-533
983.976	-1513
984.058	-1509
984.139	-793
984.221	-2187
984.302	-457
984.384	-1543
984.465	-1190
984.547	-1159
984.628	-2162
984.710	-558
984.791	-1648
984.872	-1167
984.954	-1551
985.035	-949
985.116	-646
985.198	-1770
985.279	-600
985.360	-1310
985.441	-1100
985.522	-979
985.604	-1048
985.685	-2313
985.766	-649
985.847	-147
985.928	-1631
986.009	-783
986.090	-877
986.171	-817
986.252	-1980
986.333	-237
986.414	-720
986.495	-673
986.576	-1282
986.656	-1602
986.737	-1310
986.818	-790
986.899	-838
986.980	-788
987.060	-600
987.141	-915
987.222	-1051
987.302	-1300
987.383	-1357
987.464	-1324
987.544	-963
987.625	-1222
987.705	-915
987.786	-805
987.866	-1383
987.947	-1213
988.027	-640
988.108	-985
988.188	-1470
988.268	-1164
988.349	-738
988.429	-1037
988.509	-400
988.589	-1793
988.670	-2167
988.750	-93
988.830	-1281
988.910	-1202
988.990	-1600
989.070	-813
989.151	-1433
989.231	-2056
989.311	-490
989.391	-1792
989.471	-704
989.551	-1421
989.631	-1566
989.711	-991
989.791	-1168
989.870	-911
989.950	-244
990.030	-1287
990.110	-1766
990.190	-1320
990.269	-1667
990.349	-1746
990.429	-681
990.509	-922
990.588	-2147
990.668	-1330
990.747	-1286
990.827	-1715
990.907	-1080
990.986	-875
991.066	-1172
991.145	-2386
991.225	-949
991.304	-1240
991.383	-679
991.463	-1824
991.542	-1258
991.622	-1916
991.701	-1374
991.780	-514
991.859	-1324
991.939	-1293
992.018	-1485
992.097	-1091
992.176	-974
992.256	-1412
992.335	-2038
992.414	-946
992.493	-1167
992.572	-1473
992.651	-129
992.730	-838
992.809	-1074
992.888	-1905
992.967	-2041
993.046	-1061
993.125	-1460
993.203	-1408
993.282	-435
993.361	-1158
993.440	-1439
993.519	-2187
993.597	-1177
993.676	-1482
993.755	-28
993.834	-1104
993.912	-2226
993.991	514
994.069	-1668
994.148	-1381
994.226	-1500
994.305	-1582
994.384	-852
994.462	-920
994.540	-2734
994.619	-1807
994.697	-1124
994.776	-2628
994.854	-836
994.932	-1886
995.011	-1755
995.089	-2229
995.167	-2278
995.245	-1193
995.324	-2472
995.402	-726
995.480	-1358
995.558	-1594
995.636	-2429
995.714	-1501
995.792	-427
995.870	-780
995.948	-1731
996.026	-1705
996.104	-2090
996.182	-1241
996.260	-1701
996.338	-1074
996.416	-2235
996.494	-2187
996.572	-58
996.649	-2111
996.727	-2396
996.805	-1004
996.883	-2063
996.960	-717
997.038	-618
997.116	-1571
997.193	-1872
997.271	-1921
997.348	-1516
997.426	-988
997.504	-1412
997.581	-760
997.658	-843
997.736	-1955
997.813	-2011
997.891	-843
997.968	-2087
998.046	-1375
998.123	-1261
998.200	-1345
998.277	-2251
998.355	-843
998.432	-2192
998.509	-1321
998.586	-2015
998.663	-570
998.741	-1541
998.818	-1613
998.895	-892
998.972	-1416
999.049	-1124
999.126	-1675
999.203	-1588
999.280	-1787
999.357	-1876
999.434	-2004
999.511	-1846
999.587	-571
999.664	-2329
999.741	-1705
999.818	-1195
999.895	-1353
999.971	-1035
1000.048	-1173
1000.125	-1166
1000.202	-1921
1000.278	-1905
1000.355	-1021
1000.431	-1471
1000.508	-1823
1000.584	-1539
1000.661	-1130
1000.738	-1714
1000.814	-2218
1000.890	-953
1000.967	-1560
1001.043	-958
1001.120	-2091
1001.196	-1756
1001.272	-1646
1001.349	-1774
1001.425	-1898
1001.501	-1447
1001.577	-1489
1001.654	-759
1001.730	-1301
1001.806	-1716
1001.882	-2767
1001.958	-875
1002.034	-1442
1002.110	-1703
1002.186	-1443
1002.262	-1683
1002.338	-2314
1002.414	-1192
1002.490	-1762
1002.566	-1762
1002.642	-1945
1002.718	-951
1002.794	-1691
1002.870	-2083
1002.945	-1203
1003.021	-1392
1003.097	-1577
1003.173	-1386
1003.248	-2378
1003.324	-2012
1003.400	-1495
1003.475	-2046
1003.551	-1389
1003.626	-1755
1003.702	-2037
1003.777	-1599
1003.853	-1753
1003.928	-1672
1004.004	-1940
1004.079	-1488
1004.155	-1284
1004.230	-2103
1004.305	-288
1004.381	-2312
1004.456	-1690
1004.531	-1125
1004.607	-1227
1004.682	-1678
1004.757	-1057
1004.832	-1134
1004.907	-2001
1004.982	-1372
1005.057	-1382
1005.133	-2095
1005.208	-2010
1005.283	-2095
1005.358	-222
1005.433	-2115
1005.508	-1741
1005.583	-1818
1005.657	-1628
1005.732	-1226
1005.807	-1263
1005.882	-924
1005.957	-1417
1006.032	-917
1006.106	-2604
1006.181	-1674
1006.256	-1758
1006.331	-1739
1006.405	-1453
1006.480	-1004
1006.554	-1824
1006.629	-994
1006.704	-1693
1006.778	-1551
1006.853	-1421
1006.927	-2168
1007.002	-1956
1007.076	-1610
1007.150	-1783
1007.225	-1399
1007.299	-798
1007.373	-1554
1007.448	-1578
1007.522	-1393
1007.596	-1458
1007.671	-1517
1007.745	-1951
1007.819	-2214
1007.893	-1714
1007.967	-1378
1008.041	-2518
1008.115	-1373
1008.190	-2524
1008.264	-1938
1008.338	-2470
1008.412	-1318
1008.486	-1362
1008.560	-1660
1008.633	-1368
1008.707	-2180
1008.781	-792
1008.855	-1010
1008.929	-1013
1009.003	-2560
1009.076	-2080
1009.150	-1468
1009.224	-1269
1009.298	-1640
1009.371	-3077
1009.445	-1187
1009.519	-1222
1009.592	-2260
1009.666	-1403
1009.739	-1544
1009.813	-2669
1009.886	-259
1009.960	-2696
1010.033	-1351
1010.107	-983
1010.180	-2315
1010.253	-1571
1010.327	-2599
1010.400	-1481
1010.473	-1619
1010.547	-376
1010.620	-1021
1010.693	-1057
1010.766	-2238
1010.840	-1144
1010.913	-879
1010.986	-1648
1011.059	-903
1011.132	-1765
1011.205	-458
1011.278	-911
1011.351	-1035
1011.424	-1552
1011.497	-2471
1011.570	-1137
1011.643	-1815
1011.716	-1409
1011.789	-1880
1011.862	-1523
1011.934	-1183
1012.007	-2331
1012.080	-2053
1012.153	-2196
1012.225	-467
1012.298	-2685
1012.371	-2393
1012.443	-1412
1012.516	-2457
1012.588	-1313
1012.661	-904
1012.733	-1995
1012.806	-1345
1012.879	-1837
1012.951	-1431
1013.023	-1277
1013.096	-1449
1013.168	-1589
1013.241	-1498
1013.313	-1267
1013.385	-2344
1013.458	-2317
1013.530	-1323
1013.602	-1796
1013.674	-1481
1013.746	-2468
1013.819	-1839
1013.891	-1895
1013.963	-2064
1014.035	-1436
1014.107	-2151
1014.179	-1399
1014.251	-2071
1014.323	-1735
1014.395	-1463
1014.467	-1248
1014.539	-959
1014.611	-1731
1014.683	-1447
1014.754	-1977
1014.826	-2010
1014.898	-1793
1014.970	-2394
1015.042	-1300
1015.113	-2025
1015.185	-1431
1015.257	-2095
1015.328	-1208
1015.400	-2064
1015.471	-1631
1015.543	-2787
1015.615	-2190
1015.686	-1195
1015.757	-1944
1015.829	-1632
1015.901	-1453
1015.972	-1355
1016.043	-1884
1016.115	-1131
1016.186	-1995
1016.257	-2636
1016.328	-1191
1016.400	-1836
1016.471	-2871
1016.542	-2326
1016.613	-1921
1016.685	-1683
1016.756	-1540
1016.827	-1816
1016.898	-3204
1016.969	-1354
1017.040	-2469
1017.111	-2508
1017.182	-1603
1017.253	-1369
1017.324	-2542
1017.395	-1467
1017.466	-2161
1017.537	-1706
1017.608	-1155
1017.678	-2381
1017.749	-2287
1017.820	-2051
1017.891	-1935
1017.961	-2550
1018.032	-2786
1018.103	-2332
1018.173	-2628
1018.244	-2319
1018.315	-2087
1018.385	-1616
1018.456	-2212
1018.526	-1927
1018.597	-1678
1018.667	-2551
1018.738	-2530
1018.808	-2095
1018.878	-2251
1018.949	-1265
1019.019	-1827
1019.089	-1769
1019.160	-1849
1019.230	-1949
1019.300	-1648
1019.371	-2633
1019.441	-1927
1019.511	-1768
1019.581	-1684
1019.651	-1732
1019.721	-2569
1019.791	-1252
1019.861	-2150
1019.931	-1345
1020.001	-2048
1020.071	-1417
1020.141	-1767
1020.211	-1120
1020.281	-2692
1020.351	-1500
1020.421	-2117
1020.491	-1534
1020.560	-2643
1020.630	-1615
1020.700	-1587
1020.770	-2117
1020.839	-2514
1020.909	-1791
1020.979	-1547
1021.048	-1997
1021.118	-1860
1021.187	-1958
1021.257	-2170
1021.326	-1325
1021.396	-2137
1021.465	-2609
1021.535	-2183
1021.604	-1632
1021.674	-1533
1021.743	-1533
1021.812	-2184
1021.882	-2064
1021.951	-2000
1022.020	-2799
1022.089	-1854
1022.159	-2281
1022.228	-2202
1022.297	-2381
1022.366	-1928
1022.435	-2299
1022.504	-2259
1022.573	-2752
1022.642	-1826
1022.711	-2390
1022.781	-1500
1022.849	-1294
1022.918	-1858
1022.987	-1894
1023.056	-1793
1023.125	-2540
1023.194	-2807
1023.263	-1887
1023.331	-1987
1023.400	-1758
1023.469	-2572
1023.538	-898
1023.606	-2315
1023.675	-2224
1023.744	-2544
1023.812	-2338
1023.881	-1572
1023.949	-2002
1024.018	-1925
1024.086	-2443
1024.155	-2156
1024.223	-3236
1024.292	-2639
1024.360	-1585
1024.429	-1875
1024.497	-2577
1024.565	-1558
1024.634	-2229
1024.702	-2096
1024.770	-1655
1024.838	-3052
1024.907	-1392
1024.975	-2434
1025.043	-1596
1025.111	-1978
1025.179	-2291
1025.247	-1783
1025.315	-1946
1025.383	-1937
1025.451	-2691
1025.519	-2792
1025.587	-2056
1025.655	-1805
1025.723	-2718
1025.791	-2503
1025.859	-2282
1025.927	-1836
1025.995	-2083
1026.062	-1330
1026.130	-1665
1026.198	-2448
1026.266	-2172
1026.333	-1998
1026.401	-1523
1026.469	-2528
1026.536	-2611
1026.604	-1965
1026.671	-2326
1026.739	-1992
1026.806	-1705
1026.874	-1669
1026.941	-2365
1027.009	-1523
1027.076	-2196
1027.144	-1893
1027.211	-2407
1027.278	-1950
1027.345	-2760
1027.413	-1961
1027.480	-2511
1027.547	-1903
1027.614	-2320
1027.682	-850
1027.749	-2481
1027.816	-2490
1027.883	-2050
1027.950	-2035
1028.017	-2782
1028.084	-1375
1028.151	-2675
1028.218	-2906
1028.285	-2395
1028.352	-2490
1028.419	-2152
1028.486	-2227
1028.553	-2036
1028.619	-2753
1028.686	-2297
1028.753	-2505
1028.820	-1984
1028.886	-2757
1028.953	-2218
1029.020	-2522
1029.086	-2614
1029.153	-2036
1029.220	-2265
1029.286	-1913
1029.353	-1283
1029.419	-2965
1029.486	-1071
1029.552	-2816
1029.619	-2357
1029.685	-1461
1029.751	-2719
1029.818	-1842
1029.884	-2067
1029.951	-1723
1030.017	-2535
1030.083	-1916
1030.149	-1627
1030.216	-2082
1030.282	-1448
1030.348	-2745
1030.414	-2302
1030.480	-1799
1030.546	-2310
1030.612	-1757
1030.678	-3378
1030.744	-3232
1030.810	-1586
1030.876	-2397
1030.942	-2061
1031.008	-1982
1031.074	-2705
1031.140	-2667
1031.206	-1752
1031.272	-3258
1031.337	-3153
1031.403	-1719
1031.469	-2476
1031.534	-2694
1031.600	-2481
1031.666	-2318
1031.731	-3075
1031.797	-2921
1031.863	-1791
1031.928	-2244
1031.994	-2748
1032.059	-1220
1032.125	-2046
1032.190	-3281
1032.256	-2700
1032.321	-2530
1032.386	-2880
1032.452	-2615
1032.517	-2641
1032.582	-2367
1032.647	-2535
1032.713	-2338
1032.778	-2325
1032.843	-2556
1032.908	-2407
1032.974	-2112
1033.039	-2747
1033.104	-2019
1033.169	-2448
1033.234	-2623
1033.299	-1976
1033.364	-2050
1033.429	-2474
1033.494	-1752
1033.559	-2403
1033.624	-2378
1033.688	-2319
1033.753	-2655
1033.818	-1740
1033.883	-2324
1033.948	-2200
1034.013	-2630
1034.077	-2921
1034.142	-2218
1034.207	-2619
1034.271	-3026
1034.336	-1954
1034.400	-1832
1034.465	-2252
1034.530	-2057
1034.594	-3131
1034.658	-2751
1034.723	-3084
1034.787	-2951
1034.852	-1906
1034.916	-2333
1034.981	-2668
1035.045	-2201
1035.109	-2464
1035.173	-2401
1035.238	-2557
1035.302	-2474
1035.366	-2274
1035.430	-1629
1035.495	-2634
1035.559	-2355
1035.623	-2138
1035.687	-2830
1035.751	-2349
1035.815	-2384
1035.879	-2651
1035.943	-1870
1036.007	-2516
1036.071	-2252
1036.135	-2392
1036.198	-1563
1036.262	-1830
1036.326	-2242
1036.390	-2572
1036.454	-2416
1036.517	-1996
1036.581	-2334
1036.645	-2131
1036.709	-2609
1036.772	-2894
1036.836	-2355
1036.900	-2695
1036.963	-3044
1037.026	-2108
1037.090	-1751
1037.154	-2031
1037.217	-2229
1037.280	-2786
1037.344	-2976
1037.407	-3769
1037.471	-2286
1037.534	-2167
1037.597	-3088
1037.661	-1983
1037.724	-2571
1037.787	-1614
1037.850	-2879
1037.913	-2299
1037.977	-1697
1038.040	-1944
1038.103	-3240
1038.166	-2457
1038.229	-2443
1038.292	-2293
1038.355	-2147
1038.418	-1944
1038.481	-2387
1038.544	-2784
1038.607	-2044
1038.670	-2296
1038.732	-2420
1038.795	-2591
1038.858	-2853
1038.921	-2560
1038.984	-2034
1039.046	-2252
1039.109	-2245
1039.172	-2315
1039.234	-2571
1039.297	-2819
1039.360	-2910
1039.422	-2570
1039.485	-2640
1039.547	-2791
1039.610	-2672
1039.672	-2468
1039.734	-2193
1039.797	-2690
1039.859	-2283
1039.922	-2768
1039.984	-2043
1040.046	-2200
1040.109	-2863
1040.171	-3248
1040.233	-2298
1040.295	-3081
1040.358	-2412
1040.420	-2010
1040.482	-1862
1040.544	-2008
1040.606	-1996
1040.668	-3465
1040.730	-3100
1040.792	-3388
1040.854	-1774
1040.916	-2250
1040.978	-2239
1041.040	-1979
1041.102	-2573
1041.164	-2701
1041.225	-2884
1041.287	-3298
1041.349	-2608
1041.411	-2920
1041.472	-2514
1041.534	-2636
1041.596	-2451
1041.657	-2409
1041.719	-1795
1041.781	-2489
1041.842	-2680
1041.904	-2735
1041.965	-2301
1042.027	-2212
1042.088	-2359
1042.150	-1921
1042.211	-2836
1042.272	-2069
1042.334	-3266
1042.395	-2818
1042.456	-2730
1042.518	-3021
1042.579	-1828
1042.640	-2930
1042.701	-2344
1042.763	-2371
1042.824	-2303
1042.885	-2487
1042.946	-2760
1043.007	-2396
1043.068	-3286
1043.129	-2373
1043.190	-3570
1043.251	-2543
1043.312	-1957
1043.373	-2021
1043.434	-2425
1043.495	-2955
1043.556	-2065
1043.616	-1799
1043.677	-3280
1043.738	-2489
1043.799	-2388
1043.859	-2192
1043.920	-2113
1043.981	-1671
1044.041	-2636
1044.102	-2584
1044.162	-2746
1044.223	-3068
1044.284	-2306
1044.344	-2344
1044.405	-2308
1044.465	-2448
1044.525	-2153
1044.586	-1642
1044.646	-2725
1044.707	-2470
1044.767	-2007
1044.827	-2083
1044.887	-2489
1044.948	-2987
1045.008	-2334
1045.068	-2469
1045.128	-2040
1045.188	-2717
1045.249	-2207
1045.309	-1914
1045.369	-2195
1045.429	-1940
1045.489	-2122
1045.549	-1665
1045.609	-2351
1045.669	-3169
1045.729	-2443
1045.789	-3049
1045.848	-2270
1045.908	-3081
1045.968	-1836
1046.028	-2590
1046.088	-1254
1046.147	-2159
1046.207	-1748
1046.267	-2195
1046.326	-1840
1046.386	-1539
1046.446	-1064
1046.505	-1756
1046.565	-1591
1046.624	-1359
1046.684	-1655
1046.743	-1052
1046.803	-957
1046.862	-813
1046.922	0
