'Start Wavelength	183.907
'End Wavelength	1046.922
'Gate Delay	5.000
'Gate Width (ms)	1.050
'Laser Output Level	0.000
'X Position	0.000
'Y Position	0.000
'Z Position	0.000
'Grid Point Number	1.000
'Shot Number	100.000
183.907	145.000
183.977	94.000
184.047	573
184.116	486
184.186	287
184.256	683
184.325	250
184.395	-952
184.465	910
184.534	-183
184.604	18
184.674	119
184.743	-70
184.813	414
184.883	328
184.952	-159
185.022	-33
185.092	575
185.161	681
185.231	375
185.301	251
185.370	484
185.440	683
185.509	-467
185.579	-279
185.649	415
185.718	683
185.788	178
185.857	-920
185.927	-267
185.996	-61
186.066	-329
186.136	-42
186.205	667
186.275	367
186.344	-260
186.414	23
186.483	583
186.553	751
186.622	477
186.692	-530
186.761	264
186.831	676
186.900	-521
186.970	404
187.039	252
187.109	303
187.178	-204
187.248	560
187.317	-209
187.387	513
187.456	-84
187.526	-133
187.595	353
187.664	389
187.734	44
187.803	328
187.873	268
187.942	-450
188.012	-240
188.081	343
188.150	-210
188.220	267
188.289	593
188.358	371
188.428	797
188.497	-42
188.567	330
188.636	20
188.705	88
188.775	-166
188.844	-450
188.913	557
188.983	108
189.052	688
189.121	-296
189.191	-281
189.260	585
189.329	715
189.399	-321
189.468	586
189.537	200
189.606	343
189.676	624
189.745	537
189.814	78
189.883	849
189.953	-100
190.022	869
190.091	-121
190.161	563
190.230	322
190.299	-268
190.368	600
190.437	101
190.507	384
190.576	-196
190.645	207
190.714	-291
190.783	-111
190.853	225
190.922	848
190.991	125
191.060	-1
191.129	148
191.198	290
191.268	-93
191.337	289
191.406	-67
191.475	65
191.544	1317
191.613	468
191.682	-333
191.752	-85
191.821	383
191.890	25
191.959	219
192.028	214
192.097	688
192.166	-24
192.235	-891
192.304	-65
192.373	-172
192.442	27
192.511	280
192.580	-166
192.650	210
192.719	-103
192.788	842
192.857	105
192.926	931
192.995	-98
193.064	530
193.133	-179
193.202	470
193.271	144
193.340	447
193.409	-132
193.478	278
193.547	163
193.615	807
193.684	193
193.753	-323
193.822	-17
193.891	578
193.960	522
194.029	127
194.098	-248
194.167	263
194.236	187
194.305	-294
194.374	339
194.443	528
194.512	-164
194.580	1061
194.649	-390
194.718	166
194.787	102
194.856	478
194.925	540
194.994	358
195.062	442
195.131	1
195.200	-437
195.269	-104
195.338	400
195.407	425
195.475	-393
195.544	-140
195.613	-228
195.682	191
195.751	-48
195.819	-192
195.888	770
195.957	847
196.026	-20
196.094	1282
196.163	-48
196.232	408
196.301	123
196.369	26
196.438	136
196.507	922
196.576	-50
196.644	173
196.713	-257
196.782	-484
196.850	-397
196.919	768
196.988	-87
197.056	-396
197.125	91
197.194	196
197.262	692
197.331	-28
197.400	-339
197.468	437
197.537	-152
197.606	130
197.674	853
197.743	450
197.812	-509
197.880	110
197.949	56
198.017	323
198.086	580
198.155	211
198.223	439
198.292	842
198.360	-570
198.429	-365
198.497	-321
198.566	527
198.635	1047
198.703	663
198.772	602
198.840	-173
198.909	183
198.977	-613
199.046	-308
199.114	307
199.183	-106
199.251	564
199.320	-473
199.388	489
199.457	-198
199.525	26
199.594	240
199.662	-487
199.731	438
199.799	358
199.867	351
199.936	-114
200.004	405
200.073	301
200.141	832
200.210	-698
200.278	13
200.346	102
200.415	698
200.483	-115
200.552	327
200.620	704
200.688	197
200.757	70
200.825	-620
200.893	-103
200.962	-102
201.030	33
201.098	-101
201.167	11
201.235	120
201.303	-308
201.372	66
201.440	32
201.508	527
201.577	720
201.645	470
201.713	615
201.781	88
201.850	114
201.918	642
201.986	-326
202.055	-271
202.123	-398
202.191	474
202.259	-245
202.327	-386
202.396	-22
202.464	240
202.532	131
202.600	810
202.669	277
202.737	451
202.805	-211
202.873	7
202.941	312
203.009	283
203.078	244
203.146	44
203.214	-162
203.282	-1140
203.350	160
203.418	113
203.487	912
203.555	239
203.623	214
203.691	102
203.759	-462
203.827	-1140
203.895	454
203.963	259
204.031	-117
204.099	-40
204.168	-563
204.236	380
204.304	179
204.372	-410
204.440	159
204.508	-538
204.576	555
204.644	-168
204.712	153
204.780	516
204.848	440
204.916	43
204.984	-184
205.052	933
205.120	173
205.188	556
205.256	-425
205.324	-414
205.392	-268
205.460	373
205.528	81
205.596	-200
205.664	-134
205.732	-333
205.799	61
205.867	79
205.935	-217
206.003	571
206.071	-661
206.139	11
206.207	-23
206.275	-555
206.343	-30
206.411	-48
206.478	-380
206.546	365
206.614	-88
206.682	-198
206.750	756
206.818	743
206.885	642
206.953	-148
207.021	285
207.089	84
207.157	-133
207.225	54
207.292	-813
207.360	-435
207.428	-604
207.496	-180
207.563	130
207.631	-78
207.699	-226
207.767	-188
207.834	-279
207.902	97
207.970	87
208.038	-283
208.105	-124
208.173	-104
208.241	601
208.309	543
208.376	138
208.444	14
208.512	202
208.579	-280
208.647	1367
208.715	1073
208.782	33
208.850	368
208.918	344
208.985	113
209.053	-45
209.120	66
209.188	-978
209.256	-432
209.323	-761
209.391	-921
209.459	1247
209.526	184
209.594	-125
209.661	75
209.729	-224
209.796	71
209.864	488
209.932	-675
209.999	1215
210.067	-170
210.134	597
210.202	235
210.269	1221
210.337	197
210.404	561
210.472	-390
210.539	261
210.607	-302
210.674	-447
210.742	63
210.809	-235
210.877	-323
210.944	513
211.012	-455
211.079	1544
211.146	170
211.214	562
211.281	576
211.349	675
211.416	389
211.484	-2
211.551	-46
211.618	126
211.686	196
211.753	23
211.821	502
211.888	-200
211.955	253
212.023	66
212.090	-137
212.157	-417
212.225	108
212.292	613
212.359	720
212.427	2210
212.494	166
212.561	371
212.629	429
212.696	-249
212.763	-240
212.831	-541
212.898	253
212.965	-416
213.032	-215
213.100	-137
213.167	-100
213.234	535
213.301	488
213.369	-736
213.436	298
213.503	372
213.570	175
213.638	210
213.705	-314
213.772	-888
213.839	-797
213.906	742
213.973	-37
214.041	-129
214.108	303
214.175	-35
214.242	635
214.309	182
214.376	194
214.444	238
214.511	-116
214.578	168
214.645	524
214.712	548
214.779	-65
214.846	-328
214.913	771
214.980	746
215.048	1363
215.115	638
215.182	374
215.249	1211
215.316	-79
215.383	450
215.450	395
215.517	84
215.584	623
215.651	444
215.718	-104
215.785	-111
215.852	-305
215.919	-13
215.986	1102
216.053	158
216.120	-164
216.187	320
216.254	335
216.321	194
216.388	-473
216.455	143
216.522	149
216.589	135
216.656	-88
216.722	-440
216.789	-415
216.856	-268
216.923	-460
216.990	-283
217.057	-95
217.124	565
217.191	-948
217.258	400
217.324	-81
217.391	517
217.458	-647
217.525	-249
217.592	85
217.659	-908
217.725	745
217.792	-520
217.859	225
217.926	-1110
217.993	-659
218.059	110
218.126	-367
218.193	-209
218.260	180
218.327	-634
218.393	-1180
218.460	40
218.527	-429
218.594	305
218.660	-171
218.727	441
218.794	-560
218.860	73
218.927	-311
218.994	-352
219.061	-84
219.127	-289
219.194	-832
219.261	1255
219.327	281
219.394	123
219.461	-687
219.527	723
219.594	87
219.661	-338
219.727	-310
219.794	869
219.860	-301
219.927	1136
219.994	1885
220.060	2871
220.127	2935
220.193	2500
220.260	967
220.326	-264
220.393	154
220.460	280
220.526	-239
220.593	-124
220.659	572
220.726	-275
220.792	1296
220.859	141
220.925	524
220.992	194
221.058	1688
221.125	923
221.191	1185
221.258	336
221.324	869
221.391	272
221.457	-158
221.524	288
221.590	601
221.657	1729
221.723	622
221.789	95
221.856	1094
221.922	-601
221.989	-107
222.055	150
222.121	-336
222.188	2044
222.254	364
222.321	607
222.387	-37
222.453	1130
222.520	-35
222.586	-103
222.652	231
222.719	-526
222.785	102
222.851	-239
222.918	476
222.984	191
223.050	-689
223.116	-1661
223.183	736
223.249	254
223.315	-659
223.382	69
223.448	4
223.514	-1084
223.580	-289
223.647	-253
223.713	-738
223.779	-61
223.845	-275
223.911	542
223.978	160
224.044	-264
224.110	-647
224.176	631
224.242	-641
224.309	-218
224.375	542
224.441	-573
224.507	-254
224.573	-877
224.639	-363
224.705	-1107
224.772	382
224.838	-49
224.904	488
224.970	215
225.036	-722
225.102	-1109
225.168	426
225.234	816
225.300	36
225.366	-278
225.432	-37
225.499	-361
225.565	-785
225.631	-129
225.697	-817
225.763	223
225.829	-733
225.895	-208
225.961	398
226.027	109
226.093	-502
226.159	863
226.225	1373
226.291	1552
226.357	2027
226.423	1027
226.489	-197
226.554	-45
226.620	189
226.686	258
226.752	313
226.818	778
226.884	3585
226.950	2971
227.016	541
227.082	1064
227.148	-114
227.214	2
227.279	662
227.345	-41
227.411	1453
227.477	3462
227.543	4332
227.609	6219
227.674	4576
227.740	2102
227.806	1212
227.872	-420
227.938	179
228.003	746
228.069	-262
228.135	-167
228.201	-338
228.267	117
228.332	-251
228.398	-928
228.464	275
228.530	-675
228.595	-361
228.661	-879
228.727	-982
228.792	631
228.858	-199
228.924	-1888
228.990	193
229.055	-314
229.121	-318
229.187	-956
229.252	95
229.318	-896
229.384	-569
229.449	-290
229.515	-1156
229.581	-22
229.646	1028
229.712	163
229.777	-88
229.843	-24
229.909	-314
229.974	844
230.040	-383
230.105	618
230.171	-1097
230.236	108
230.302	-500
230.368	-580
230.433	-1126
230.499	-323
230.564	-146
230.630	-511
230.695	159
230.761	436
230.826	-1011
230.892	459
230.957	-1218
231.023	-987
231.088	-286
231.154	-631
231.219	298
231.284	-184
231.350	-283
231.415	-550
231.481	91
231.546	190
231.612	-343
231.677	57
231.742	-1286
231.808	1409
231.873	-1004
231.939	-1551
232.004	204
232.069	657
232.135	-590
232.200	-464
232.265	712
232.331	-370
232.396	-164
232.461	-550
232.527	-1313
232.592	-815
232.657	427
232.723	-520
232.788	-424
232.853	502
232.918	-645
232.984	-613
233.049	-471
233.114	-210
233.179	218
233.245	822
233.310	-307
233.375	-733
233.440	169
233.506	-661
233.571	-1089
233.636	28
233.701	-199
233.766	-674
233.832	-850
233.897	-178
233.962	-1611
234.027	187
234.092	507
234.157	295
234.222	-407
234.288	-5
234.353	-337
234.418	431
234.483	857
234.548	37
234.613	-963
234.678	231
234.743	-1153
234.808	399
234.873	-1253
234.938	1490
235.004	-812
235.069	-313
235.134	-1026
235.199	-21
235.264	-504
235.329	-963
235.394	593
235.459	997
235.524	-1057
235.589	-188
235.654	-286
235.719	-670
235.784	-196
235.849	-140
235.913	72
235.978	-52
236.043	-228
236.108	-392
236.173	-520
236.238	128
236.303	-84
236.368	-303
236.433	-227
236.498	-810
236.563	582
236.627	647
236.692	4931
236.757	3545
236.822	644
236.887	151
236.952	274
237.017	-633
237.081	1441
237.146	81
237.211	1710
237.276	4496
237.341	9424
237.405	2486
237.470	610
237.535	-22
237.600	226
237.664	580
237.729	-354
237.794	-483
237.859	951
237.923	-150
237.988	-583
238.053	26
238.118	-633
238.182	19
238.247	1923
238.312	-582
238.376	127
238.441	-1539
238.506	442
238.570	-1713
238.635	599
238.700	-739
238.764	313
238.829	-250
238.893	-362
238.958	736
239.023	-310
239.087	330
239.152	-176
239.216	-179
239.281	207
239.346	160
239.410	74
239.475	-319
239.539	1131
239.604	-332
239.668	1891
239.733	2113
239.797	5924
239.862	10258
239.926	8908
239.991	4832
240.055	2314
240.120	999
240.184	1042
240.249	245
240.313	-187
240.378	191
240.442	-100
240.507	444
240.571	-10
240.635	-577
240.700	-505
240.764	-110
240.829	-265
240.893	-1046
240.957	899
241.022	682
241.086	1010
241.151	-826
241.215	-766
241.279	-307
241.344	-787
241.408	492
241.472	-300
241.537	521
241.601	814
241.665	-973
241.730	-810
241.794	811
241.858	-1013
241.922	-211
241.987	309
242.051	-253
242.115	-1175
242.179	98
242.244	-862
242.308	651
242.372	-349
242.436	-711
242.501	98
242.565	-883
242.629	-776
242.693	-237
242.757	-111
242.822	-884
242.886	-33
242.950	-254
243.014	-966
243.078	-311
243.142	261
243.206	-355
243.271	-60
243.335	-689
243.399	1076
243.463	1754
243.527	6196
243.591	815
243.655	511
243.719	-650
243.783	1089
243.847	-55
243.911	239
243.975	-668
244.040	-1803
244.104	1437
244.168	-150
244.232	-502
244.296	-912
244.360	473
244.424	-552
244.488	454
244.552	191
244.615	-1287
244.679	867
244.743	-402
244.807	-1323
244.871	-132
244.935	157
244.999	-1287
245.063	-787
245.127	206
245.191	118
245.255	-52
245.319	295
245.383	-1829
245.446	1298
245.510	244
245.574	-582
245.638	239
245.702	-2177
245.766	333
245.829	896
245.893	-256
245.957	-704
246.021	451
246.085	-987
246.149	-171
246.212	1076
246.276	713
246.340	-773
246.404	490
246.467	943
246.531	-1847
246.595	499
246.659	783
246.722	-885
246.786	131
246.850	-754
246.913	363
246.977	-1019
247.041	255
247.104	-283
247.168	259
247.232	-175
247.295	1461
247.359	417
247.423	579
247.486	-367
247.550	239
247.614	-529
247.677	-94
247.741	-552
247.804	398
247.868	1092
247.932	-618
247.995	1509
248.059	368
248.122	-642
248.186	1270
248.249	-299
248.313	2526
248.376	2228
248.440	649
248.503	-604
248.567	1238
248.630	-1522
248.694	-682
248.757	994
248.821	3060
248.884	1238
248.948	334
249.011	1926
249.075	2783
249.138	2317
249.202	803
249.265	64
249.328	430
249.392	-561
249.455	666
249.519	-502
249.582	133
249.645	509
249.709	124
249.772	644
249.835	780
249.899	626
249.962	1010
250.025	141
250.089	394
250.152	1844
250.215	32
250.279	-780
250.342	860
250.405	36
250.468	1
250.532	29
250.595	1165
250.658	5845
250.721	12495
250.785	2686
250.848	2364
250.911	600
250.974	678
251.038	-239
251.101	2292
251.164	491
251.227	661
251.290	796
251.354	2408
251.417	9791
251.480	9234
251.543	4554
251.606	18647
251.669	12474
251.732	3206
251.795	2804
251.859	3509
251.922	11187
251.985	5687
252.048	1996
252.111	1120
252.174	-5
252.237	1475
252.300	3493
252.363	3740
252.426	15145
252.489	4324
252.552	1675
252.615	190
252.678	662
252.741	2789
252.804	3996
252.867	15380
252.930	5376
252.993	1408
253.056	1038
253.119	1066
253.182	-521
253.245	1015
253.308	919
253.371	-163
253.434	739
253.497	583
253.559	1960
253.622	747
253.685	97
253.748	-151
253.811	-114
253.874	757
253.937	-901
254.000	633
254.062	814
254.125	216
254.188	1638
254.251	112
254.314	67
254.376	78
254.439	320
254.502	884
254.565	669
254.628	1107
254.690	-187
254.753	-160
254.816	-320
254.878	-50
254.941	545
255.004	1148
255.067	428
255.129	-855
255.192	313
255.255	-534
255.317	-400
255.380	57
255.443	-281
255.505	77
255.568	-829
255.631	-232
255.693	497
255.756	148
255.819	1946
255.881	1059
255.944	613
256.006	-265
256.069	-493
256.132	-731
256.194	441
256.257	563
256.319	929
256.382	812
256.444	2784
256.507	736
256.569	379
256.632	-296
256.694	419
256.757	2056
256.819	8197
256.882	1303
256.944	178
257.007	1959
257.069	-30
257.132	-701
257.194	384
257.257	110
257.319	-923
257.381	-487
257.444	2462
257.506	9122
257.569	9484
257.631	2318
257.693	1324
257.756	693
257.818	389
257.880	377
257.943	1761
258.005	-214
258.067	417
258.130	473
258.192	-13
258.254	-144
258.317	-946
258.379	782
258.441	201
258.503	1157
258.566	297
258.628	154
258.690	-710
258.753	275
258.815	434
258.877	223
258.939	117
259.001	1114
259.064	-246
259.126	-159
259.188	-565
259.250	-653
259.312	-216
259.375	367
259.437	-56
259.499	534
259.561	-459
259.623	1369
259.685	-547
259.747	-399
259.809	785
259.872	447
259.934	1237
259.996	1731
260.058	1309
260.120	118
260.182	100
260.244	1205
260.306	314
260.368	380
260.430	-627
260.492	690
260.554	201
260.616	783
260.678	789
260.740	344
260.802	783
260.864	208
260.926	-450
260.988	263
261.050	-683
261.112	-298
261.174	1234
261.236	940
261.298	528
261.359	838
261.421	1730
261.483	81
261.545	999
261.607	-552
261.669	436
261.731	242
261.793	-256
261.854	-748
261.916	831
261.978	62
262.040	225
262.102	477
262.164	-318
262.225	-27
262.287	290
262.349	384
262.411	-375
262.472	1072
262.534	-375
262.596	159
262.658	730
262.719	-286
262.781	1046
262.843	-789
262.904	613
262.966	1018
263.028	185
263.090	2375
263.151	5768
263.213	1734
263.275	201
263.336	462
263.398	845
263.459	-392
263.521	494
263.583	962
263.644	843
263.706	542
263.767	-608
263.829	-54
263.891	7
263.952	238
264.014	-14
264.075	-81
264.137	363
264.198	1241
264.260	-231
264.321	584
264.383	-916
264.444	1388
264.506	-28
264.567	13
264.629	1054
264.690	-270
264.752	575
264.813	-111
264.875	0
264.936	1085
264.998	415
265.059	762
265.120	1074
265.182	23
265.243	2785
265.305	3380
265.366	596
265.427	850
265.489	917
265.550	-653
265.611	254
265.673	439
265.734	723
265.795	1551
265.857	-64
265.918	721
265.979	586
266.040	6686
266.102	4768
266.163	2325
266.224	-208
266.286	190
266.347	-580
266.408	88
266.469	171
266.530	636
266.592	129
266.653	1298
266.714	829
266.775	721
266.836	437
266.898	-183
266.959	86
267.020	350
267.081	1016
267.142	415
267.203	-189
267.264	-178
267.326	633
267.387	-560
267.448	-283
267.509	845
267.570	950
267.631	8
267.692	-469
267.753	1174
267.814	-349
267.875	110
267.936	629
267.997	469
268.058	477
268.119	-28
268.180	-301
268.241	-270
268.302	-413
268.363	-809
268.424	-39
268.485	591
268.546	-79
268.607	572
268.668	204
268.729	167
268.790	387
268.851	304
268.912	598
268.972	707
269.033	-232
269.094	-670
269.155	843
269.216	629
269.277	315
269.338	294
269.398	543
269.459	31
269.520	-362
269.581	-199
269.642	-277
269.702	-364
269.763	73
269.824	614
269.885	-248
269.945	599
270.006	149
270.067	-204
270.128	-291
270.188	862
270.249	-379
270.310	-198
270.370	696
270.431	-264
270.492	-400
270.553	131
270.613	529
270.674	1017
270.734	-394
270.795	680
270.856	432
270.916	232
270.977	-48
271.038	778
271.098	60
271.159	95
271.219	-98
271.280	526
271.340	289
271.401	-184
271.462	160
271.522	451
271.583	355
271.643	67
271.704	58
271.764	411
271.825	90
271.885	3343
271.946	4125
272.006	865
272.066	2093
272.127	4721
272.187	6367
272.248	3432
272.308	190
272.369	2716
272.429	586
272.489	749
272.550	92
272.610	1140
272.671	-20
272.731	918
272.791	-164
272.852	334
272.912	1331
272.972	177
273.033	851
273.093	668
273.153	631
273.214	1005
273.274	210
273.334	1231
273.394	2276
273.455	500
273.515	900
273.575	1227
273.635	331
273.696	1795
273.756	2394
273.816	1095
273.876	844
273.936	1282
273.997	1219
274.057	-170
274.117	484
274.177	674
274.237	3233
274.297	3185
274.358	749
274.418	1679
274.478	1056
274.538	138
274.598	264
274.658	1076
274.718	1297
274.778	374
274.838	1061
274.898	171
274.958	2243
275.018	2363
275.078	1987
275.138	1504
275.198	789
275.258	292
275.318	564
275.378	1002
275.438	720
275.498	127
275.558	133
275.618	2227
275.678	1817
275.738	928
275.798	989
275.858	1001
275.918	61
275.978	662
276.038	703
276.098	1296
276.157	1099
276.217	2114
276.277	1343
276.337	194
276.397	604
276.457	1147
276.517	562
276.576	1313
276.636	248
276.696	471
276.756	1150
276.815	959
276.875	249
276.935	971
276.995	1354
277.055	2005
277.114	1926
277.174	750
277.234	1529
277.293	827
277.353	-268
277.413	1023
277.472	1295
277.532	507
277.592	1231
277.651	4675
277.711	7444
277.771	2536
277.830	8350
277.890	7275
277.950	4723
278.009	16755
278.069	6173
278.128	6301
278.188	8204
278.248	3695
278.307	9707
278.367	5592
278.426	1511
278.486	2254
278.545	1314
278.605	1341
278.664	804
278.724	518
278.783	1888
278.843	2827
278.902	1342
278.962	256
279.021	593
279.081	1781
279.140	1443
279.199	1743
279.259	1779
279.318	2039
279.378	2324
279.437	3492
279.496	9287
279.556	36560
279.615	30626
279.675	6824
279.734	3448
279.793	4431
279.853	7326
279.912	3386
279.971	2984
280.031	2296
280.090	3633
280.149	5339
280.208	4556
280.268	24346
280.327	26978
280.386	6741
280.445	2575
280.505	1810
280.564	1872
280.623	1426
280.682	919
280.742	2109
280.801	548
280.860	1442
280.919	1310
280.978	1297
281.037	686
281.097	617
281.156	1284
281.215	1158
281.274	985
281.333	2260
281.392	1087
281.451	1667
281.510	1304
281.569	681
281.628	759
281.688	639
281.747	681
281.806	280
281.865	1065
281.924	501
281.983	-13
282.042	907
282.101	446
282.160	359
282.219	489
282.278	1637
282.337	932
282.396	1471
282.454	1225
282.513	608
282.572	1522
282.631	1364
282.690	685
282.749	586
282.808	1702
282.867	224
282.926	806
282.985	875
283.043	356
283.102	625
283.161	1160
283.220	1018
283.279	1705
283.338	1658
283.396	169
283.455	806
283.514	614
283.573	1145
283.631	743
283.690	446
283.749	482
283.808	1264
283.866	1661
283.925	895
283.984	1353
284.043	1314
284.101	1118
284.160	967
284.219	1270
284.277	753
284.336	1940
284.395	2695
284.453	2851
284.512	1746
284.570	2100
284.629	2244
284.688	2183
284.746	2915
284.805	3340
284.863	3734
284.922	3809
284.981	5752
285.039	8607
285.098	14213
285.156	30833
285.215	48685
285.273	46589
285.332	35509
285.390	17979
285.449	11072
285.507	7698
285.566	5031
285.624	3645
285.683	2909
285.741	2496
285.799	2536
285.858	1853
285.916	1927
285.975	1535
286.033	1769
286.091	1254
286.150	1317
286.208	1620
286.267	1512
286.325	1543
286.383	1794
286.442	1613
286.500	1624
286.558	1204
286.616	1240
286.675	1942
286.733	1143
286.791	991
286.850	2074
286.908	1067
286.966	1689
287.024	873
287.083	323
287.141	1298
287.199	1979
287.257	1433
287.315	1790
287.374	1275
287.432	832
287.490	1023
287.548	790
287.606	562
287.664	1300
287.723	1171
287.781	1187
287.839	1378
287.897	1199
287.955	1318
288.013	1953
288.071	3175
288.129	13166
288.187	44072
288.245	18192
288.303	4973
288.361	2708
288.419	2013
288.477	1470
288.535	1670
288.593	1544
288.651	1356
288.709	1015
288.767	1591
288.825	879
288.883	954
288.941	1181
288.999	887
289.057	1051
289.115	1000
289.173	1698
289.231	1119
289.289	853
289.346	768
289.404	1420
289.462	1295
289.520	1099
289.578	737
289.636	948
289.694	807
289.751	681
289.809	840
289.867	829
289.925	1122
289.983	865
290.040	1053
290.098	721
290.156	467
290.214	1350
290.271	550
290.329	1771
290.387	1903
290.444	739
290.502	960
290.560	737
290.617	906
290.675	1217
290.733	1430
290.790	1151
290.848	457
290.906	713
290.963	978
291.021	1248
291.078	800
291.136	712
291.194	969
291.251	1565
291.309	410
291.366	1117
291.424	810
291.481	1017
291.539	713
291.596	1504
291.654	485
291.711	969
291.769	1143
291.826	654
291.884	1453
291.941	939
291.999	1433
292.056	707
292.114	334
292.171	1121
292.228	857
292.286	1053
292.343	897
292.401	664
292.458	605
292.515	973
292.573	1562
292.630	1654
292.687	923
292.745	1663
292.802	940
292.859	1360
292.917	2182
292.974	840
293.031	901
293.089	551
293.146	742
293.203	884
293.260	275
293.318	584
293.375	1271
293.432	580
293.489	1102
293.546	991
293.604	628
293.661	1739
293.718	3880
293.775	1486
293.832	1932
293.889	2023
293.947	1178
294.004	1957
294.061	968
294.118	1115
294.175	1633
294.232	3394
294.289	1467
294.346	1441
294.403	776
294.460	1301
294.517	1326
294.574	1802
294.631	1343
294.688	1781
294.745	1434
294.802	3758
294.859	3518
294.916	1833
294.973	745
295.030	1100
295.087	851
295.144	1747
295.201	1594
295.258	891
295.315	451
295.372	1297
295.429	2486
295.486	2194
295.542	764
295.599	2290
295.656	2248
295.713	2108
295.770	2789
295.827	1720
295.883	1360
295.940	1173
295.997	980
296.054	1065
296.111	689
296.167	1295
296.224	1079
296.281	784
296.338	880
296.394	894
296.451	-100
296.508	2128
296.564	2570
296.621	2531
296.678	3157
296.734	5317
296.791	2481
296.848	1694
296.904	696
296.961	1782
297.018	2077
297.074	1670
297.131	1148
297.187	776
297.244	1482
297.301	4171
297.357	5634
297.414	1911
297.470	1302
297.527	557
297.583	1271
297.640	917
297.696	1386
297.753	362
297.809	612
297.866	781
297.922	811
297.979	733
298.035	602
298.092	1715
298.148	835
298.204	1685
298.261	2081
298.317	2338
298.374	4980
298.430	2665
298.486	1354
298.543	749
298.599	354
298.656	1739
298.712	1721
298.768	3125
298.824	2680
298.881	1311
298.937	987
298.993	1735
299.050	955
299.106	811
299.162	407
299.218	1431
299.275	1815
299.331	2270
299.387	3412
299.443	6607
299.500	17072
299.556	13021
299.612	4839
299.668	5302
299.724	14262
299.780	17077
299.837	6465
299.893	4373
299.949	11000
300.005	17125
300.061	13193
300.117	20066
300.173	8766
300.229	3743
300.285	2354
300.341	2380
300.397	2194
300.453	2396
300.510	3068
300.566	3485
300.622	6035
300.678	22208
300.734	26692
300.790	11911
300.845	8152
300.901	12502
300.957	17465
301.013	7472
301.069	3691
301.125	2307
301.181	2213
301.237	2020
301.293	1272
301.349	1164
301.405	1271
301.461	1368
301.516	1560
301.572	1814
301.628	421
301.684	1466
301.740	1442
301.796	1781
301.851	539
301.907	1306
301.963	1601
302.019	3334
302.074	10258
302.130	10536
302.186	3980
302.242	1726
302.297	1051
302.353	1378
302.409	1661
302.464	1547
302.520	1531
302.576	2909
302.631	3733
302.687	2076
302.743	1206
302.798	995
302.854	739
302.910	1446
302.965	1232
303.021	1280
303.076	1477
303.132	1228
303.187	1188
303.243	969
303.299	716
303.354	331
303.410	938
303.465	1114
303.521	491
303.576	1512
303.632	1465
303.687	1906
303.743	3939
303.798	3206
303.853	1410
303.909	1315
303.964	927
304.020	1328
304.075	773
304.130	918
304.186	859
304.241	2191
304.297	1155
304.352	1376
304.358	1306
304.407	731
304.449	1168
304.463	1318
304.518	400
304.539	230
304.573	-59
304.629	698
304.630	710
304.684	1247
304.720	2375
304.739	2939
304.794	4547
304.811	4027
304.850	2768
304.902	990
304.905	875
304.960	1241
304.992	1342
305.015	1386
305.071	418
305.083	645
305.126	1499
305.173	768
305.181	655
305.236	884
305.264	992
305.292	1072
305.347	442
305.354	529
305.402	1093
305.445	1584
305.457	1698
305.512	1540
305.535	1306
305.567	1080
305.622	512
305.626	557
305.678	1394
305.716	2217
305.733	2469
305.788	3335
305.807	2908
305.843	2415
305.897	3979
305.898	3994
305.953	3927
305.988	2656
306.008	1958
306.063	1330
306.078	1236
306.118	1309
306.168	1384
306.173	1372
306.228	1415
306.259	1297
306.283	1232
306.338	1553
306.349	1653
306.393	1982
306.440	1478
306.448	1388
306.503	1736
306.530	1452
306.558	1317
306.613	1447
306.620	1513
306.668	1870
306.711	2245
306.723	2263
306.778	2064
306.801	1758
306.833	1428
306.888	1075
306.892	1045
306.943	979
306.982	1434
306.997	1525
307.052	828
307.072	867
307.107	1161
307.162	1528
307.163	1528
307.217	1582
307.253	1611
307.272	1636
307.327	1903
307.343	1672
307.381	1323
307.434	2232
307.436	2291
307.491	2508
307.524	3037
307.546	3148
307.600	2929
307.614	2737
307.655	1940
307.704	1354
307.710	1379
307.765	1628
307.795	1902
307.819	2081
307.874	2939
307.885	2971
307.929	2781
307.975	2865
307.984	3080
308.038	4616
308.065	5358
308.093	10004
308.148	22006
308.156	24920
308.202	38092
308.246	45898
308.257	44296
308.312	20590
308.336	12021
308.366	8336
308.421	4754
308.426	4533
308.475	3435
308.517	2931
308.530	2816
308.585	2535
308.607	2439
308.639	2471
308.694	2383
308.697	2389
308.748	3317
308.787	4265
308.803	4173
308.857	3476
308.877	3107
308.912	3130
308.967	3296
308.967	3297
309.021	5080
309.058	6959
309.076	8624
309.130	13305
309.148	15177
309.185	33072
309.238	64624
309.239	64753
309.293	67164
309.328	57403
309.348	48292
309.402	20751
309.418	14237
309.457	10458
309.508	7655
309.511	7595
309.566	6971
309.598	7188
309.620	8241
309.674	11240
309.688	12105
309.729	11731
309.778	10066
309.783	9874
309.837	6930
309.868	5704
309.892	5526
309.946	4898
309.959	4861
310.001	5030
310.049	5124
310.055	5015
310.109	3706
310.139	3098
310.163	2900
310.218	2820
310.229	2707
310.272	2762
310.319	3001
310.326	2951
310.381	2587
310.409	2291
310.435	2375
310.489	2601
310.499	2624
310.543	2535
310.589	2741
310.598	2820
310.652	2977
310.679	3051
310.706	2958
310.760	2626
310.769	2627
310.814	3152
310.859	3451
310.868	3406
310.923	2959
310.948	2799
310.977	2971
311.031	3356
311.038	3396
311.085	3222
311.128	2948
311.139	2888
311.193	2645
311.218	2498
311.247	2634
311.301	2908
311.308	2936
311.356	3068
311.398	3109
311.410	3123
311.464	3129
311.488	3182
311.518	3061
311.572	2774
311.578	2721
311.626	3243
311.668	3820
311.680	3826
311.734	3714
311.758	3662
311.788	3765
311.842	3892
311.847	3899
311.896	3958
311.937	3985
311.950	3857
312.004	3249
312.027	2975
312.058	3089
312.112	3303
312.117	3317
312.165	3099
312.207	2904
312.297	3475
312.386	3506
312.476	3397
312.566	4325
312.656	4331
312.745	3318
312.835	4266
312.925	4374
313.015	4145
313.104	4876
313.194	4114
313.284	4474
313.374	4738
313.463	5422
313.553	6225
313.643	5687
313.732	5692
313.822	5671
313.912	6280
314.001	7348
314.091	6917
314.180	7272
314.270	7335
314.360	6426
314.449	7679
314.539	6882
314.628	6393
314.718	6151
314.808	7019
314.897	8287
314.987	8743
315.076	8498
315.166	8272
315.255	8123
315.345	7974
315.434	7540
315.524	7923
315.613	8805
315.703	11496
315.792	29666
315.881	99751
315.971	27626
316.060	11168
316.150	8648
316.239	8447
316.328	7449
316.418	8033
316.507	8135
316.597	9387
316.686	9832
316.775	9291
316.865	8656
316.954	7516
317.043	7433
317.133	6955
317.222	5632
317.311	5938
317.400	4482
317.490	7162
317.579	6703
317.668	8442
317.757	13799
317.847	49036
317.936	140842
318.025	37686
318.114	40877
318.203	17045
318.293	8439
318.382	13845
318.471	14484
318.560	12526
318.649	13021
318.738	7090
318.828	5741
318.917	4344
319.006	4344
319.095	5701
319.184	9432
319.273	6241
319.362	5197
319.451	4888
319.540	4893
319.629	5214
319.718	5917
319.807	5419
319.896	7442
319.985	12543
320.074	7435
320.163	5769
320.252	6367
320.341	6520
320.430	6221
320.519	6911
320.608	7582
320.697	9102
320.786	9951
320.875	10901
320.964	12318
321.053	12356
321.142	13748
321.230	14883
321.319	16184
321.408	18274
321.497	17008
321.586	14999
321.675	13253
321.764	13012
321.852	12640
321.941	13250
322.030	12718
322.119	14737
322.207	17592
322.296	19887
322.385	21432
322.474	23210
322.562	24062
322.651	18961
322.740	15026
322.829	13127
322.917	12392
323.006	10549
323.095	10157
323.183	10149
323.272	8498
323.361	8778
323.449	11867
323.538	8757
323.626	9793
323.715	7480
323.804	5965
323.892	8547
323.981	7298
324.069	6227
324.158	6942
324.246	7471
324.335	5989
324.424	6000
324.512	5973
324.601	5207
324.689	6292
324.778	5973
324.866	5045
324.954	4587
325.043	4820
325.131	4363
325.220	6179
325.308	4471
325.397	5668
325.485	4907
325.574	4295
325.662	4793
325.750	4512
325.839	4814
325.927	4458
326.015	5470
326.104	4521
326.192	4737
326.280	4838
326.369	4052
326.457	4174
326.545	4728
326.634	4570
326.722	4588
326.810	4596
326.898	6583
326.987	5595
327.075	5424
327.163	6262
327.251	5477
327.340	6431
327.428	8982
327.516	10038
327.604	7623
327.692	5721
327.781	5051
327.869	5133
327.957	4002
328.045	3365
328.133	3823
328.221	4136
328.309	4049
328.397	4689
328.485	4880
328.574	9458
328.662	12926
328.750	8868
328.838	6189
328.926	4539
329.014	4798
329.102	4451
329.190	5522
329.278	4543
329.366	4448
329.454	3525
329.542	4370
329.630	3093
329.718	4319
329.806	3176
329.893	4043
329.981	3644
330.069	4748
330.157	8006
330.245	13072
330.333	7956
330.421	4098
330.509	4413
330.597	5455
330.684	4732
330.772	4035
330.860	3995
330.948	3862
331.036	4762
331.123	4585
331.211	4371
331.299	3851
331.387	4835
331.475	4271
331.562	5127
331.650	5654
331.738	4566
331.825	5026
331.913	4211
332.001	4776
332.089	4823
332.176	5262
332.264	5706
332.352	4916
332.439	4793
332.527	4387
332.614	4418
332.702	4876
332.790	5476
332.877	4730
332.965	6695
333.052	5450
333.140	5629
333.228	8563
333.315	5914
333.403	6682
333.490	5956
333.578	6335
333.665	11453
333.753	8767
333.840	7679
333.928	8748
334.015	10269
334.103	13971
334.190	22104
334.278	22693
334.365	28381
334.452	27873
334.540	19986
334.627	20089
334.715	26937
334.802	36720
334.889	56417
334.977	66928
335.064	42275
335.151	23228
335.239	18228
335.326	15111
335.413	18335
335.501	19537
335.588	16625
335.675	18763
335.762	23176
335.850	31451
335.937	44356
336.024	66956
336.111	94460
336.199	78080
336.286	41328
336.373	24663
336.460	17175
336.547	13288
336.635	12210
336.722	9840
336.809	9332
336.896	8631
336.983	9165
337.070	12785
337.157	15426
337.245	11312
337.332	10133
337.419	7545
337.506	6632
337.593	8352
337.680	7617
337.767	10064
337.854	6143
337.941	6844
338.028	6785
338.115	5834
338.202	7294
338.289	6759
338.376	8647
338.463	5862
338.550	7369
338.637	7165
338.724	5666
338.811	5165
338.898	5071
338.984	4799
339.071	5153
339.158	5613
339.245	4864
339.332	4865
339.419	5554
339.506	5593
339.593	4730
339.679	5088
339.766	4447
339.853	3985
339.940	4901
340.027	4729
340.113	4036
340.200	4876
340.287	4429
340.374	4636
340.460	4428
340.547	3100
340.634	4378
340.720	5210
340.807	4418
340.894	5745
340.980	3836
341.067	4660
341.154	5579
341.240	4458
341.327	4803
341.414	5077
341.500	4327
341.587	5788
341.674	4482
341.760	4277
341.847	4177
341.933	4344
342.020	3491
342.106	3961
342.193	4532
342.279	4234
342.366	4140
342.452	3921
342.539	4124
342.625	4134
342.712	4820
342.798	4621
342.885	3992
342.971	4226
343.058	4244
343.144	4646
343.230	4461
343.317	4636
343.403	3713
343.490	3993
343.576	3983
343.662	4330
343.749	3889
343.835	4296
343.921	4738
344.008	11546
344.094	16798
344.180	6101
344.267	5155
344.353	6325
344.439	5738
344.525	4332
344.612	4729
344.698	4601
344.784	3624
344.870	4464
344.957	4299
345.043	4226
345.129	2971
345.215	5236
345.301	3333
345.387	4184
345.474	3835
345.560	3935
345.646	3106
345.732	4197
345.818	3314
345.904	3555
345.990	3734
346.076	4467
346.162	4177
346.249	4663
346.335	3527
346.421	4905
346.507	5610
346.593	7421
346.679	4188
346.765	5707
346.851	9724
346.937	7530
347.023	6059
347.108	4899
347.194	4557
347.280	4845
347.366	7129
347.452	18842
347.538	24514
347.624	12834
347.710	8065
347.796	5579
347.882	5183
347.967	4555
348.053	4972
348.139	4451
348.225	3912
348.311	3994
348.397	4761
348.482	5646
348.568	6587
348.654	8599
348.740	27617
348.825	29110
348.911	13328
348.997	8939
349.083	9915
349.168	5588
349.254	4252
349.340	4391
349.425	4571
349.511	4925
349.597	4977
349.682	4561
349.768	6525
349.854	5648
349.939	5265
350.025	4850
350.110	5145
350.196	5012
350.282	3650
350.367	4514
350.453	4851
350.538	4632
350.624	4141
350.709	4457
350.795	4583
350.880	4342
350.966	4547
351.051	4712
351.137	4681
351.222	4580
351.308	5745
351.393	5285
351.479	4330
351.564	4180
351.649	4222
351.735	4515
351.820	4842
351.906	4119
351.991	3999
352.076	4527
352.162	5382
352.247	4765
352.332	4171
352.418	4222
352.503	4361
352.588	6192
352.673	4279
352.759	4031
352.844	4436
352.929	3579
353.014	3751
353.100	3915
353.185	4253
353.270	4238
353.355	4374
353.441	4531
353.526	4083
353.611	3625
353.696	3464
353.781	5051
353.866	2732
353.952	4761
354.037	4201
354.122	4520
354.207	4154
354.292	4084
354.377	3742
354.462	4211
354.547	3169
354.632	4396
354.717	3846
354.802	3618
354.887	4966
354.972	4145
355.057	4644
355.142	4321
355.227	4747
355.312	4396
355.397	3965
355.482	6091
355.567	4393
355.652	4924
355.737	4817
355.822	5965
355.907	4680
355.991	4724
356.076	4171
356.161	4487
356.246	4566
356.331	4257
356.416	4371
356.501	11042
356.585	9207
356.670	3981
356.755	6886
356.840	5397
356.924	9690
357.009	18993
357.094	8352
357.179	5380
357.263	4790
357.348	5354
357.433	4707
357.517	4959
357.602	4824
357.687	5196
357.771	5752
357.856	6383
357.941	5918
358.025	9653
358.110	24456
358.195	12402
358.279	4766
358.364	5620
358.448	7232
358.533	9352
358.617	7600
358.702	7508
358.787	5131
358.871	5437
358.956	5573
359.040	5090
359.125	4221
359.209	5100
359.294	6357
359.378	11943
359.462	8938
359.547	5707
359.631	4549
359.716	4375
359.800	4992
359.885	6243
359.969	4493
360.053	5598
360.138	5253
360.222	4586
360.306	5488
360.391	5082
360.475	6076
360.559	6816
360.644	6629
360.728	5309
360.812	8757
360.896	14721
360.981	7092
361.065	5863
361.149	6287
361.233	5952
361.318	5018
361.402	7498
361.486	6820
361.570	6781
361.654	7799
361.739	7460
361.823	13264
361.907	17758
361.991	11840
362.075	13713
362.159	19160
362.243	36247
362.327	79224
362.411	99572
362.495	43249
362.580	23751
362.664	22165
362.748	27220
362.832	41057
362.916	83052
363.000	181608
363.084	207012
363.168	93741
363.252	35847
363.336	23478
363.420	17905
363.503	20283
363.587	19110
363.671	14379
363.755	14281
363.839	17142
363.923	17975
364.007	22624
364.091	32763
364.175	51865
364.258	108680
364.342	213212
364.426	288537
364.510	163691
364.594	63787
364.677	34292
364.761	26559
364.845	20176
364.929	12361
365.013	11105
365.096	10135
365.180	8530
365.264	10498
365.347	17682
365.431	10450
365.515	5736
365.598	6588
365.682	7696
365.766	6194
365.849	7011
365.933	7157
366.017	8880
366.100	5936
366.184	6383
366.267	7686
366.351	6943
366.435	6011
366.518	6445
366.602	7030
366.685	6703
366.769	6769
366.852	6504
366.936	6865
367.019	6799
367.103	5531
367.186	7889
367.270	6354
367.353	6116
367.436	8802
367.520	7366
367.603	8778
367.687	7341
367.770	7621
367.853	7590
367.937	9085
368.020	8866
368.104	5974
368.187	7061
368.270	6142
368.353	5741
368.437	6459
368.520	7298
368.603	5506
368.687	5290
368.770	6874
368.853	5242
368.936	5287
369.020	5358
369.103	4697
369.186	4947
369.269	4351
369.352	4256
369.436	5046
369.519	3977
369.602	3685
369.685	6170
369.768	3910
369.851	5183
369.934	3992
370.018	4818
370.101	3418
370.184	6851
370.267	5324
370.350	5132
370.433	6549
370.516	19415
370.599	54266
370.682	23328
370.765	8415
370.848	7814
370.931	7541
371.014	6814
371.097	4669
371.180	5223
371.263	4663
371.346	3864
371.429	5421
371.511	4646
371.594	4803
371.677	5390
371.760	6048
371.843	5632
371.926	12211
372.009	19735
372.091	10324
372.174	6164
372.257	9538
372.340	6481
372.423	6634
372.505	7375
372.588	4656
372.671	6212
372.754	7907
372.836	6119
372.919	7151
373.002	8636
373.085	6357
373.167	6361
373.250	6732
373.332	9485
373.415	17511
373.498	26757
373.580	23488
373.663	76609
373.746	70929
373.828	13885
373.911	9142
373.993	7311
374.076	11081
374.159	10135
374.241	8580
374.324	9815
374.406	8833
374.489	11976
374.571	20212
374.654	10609
374.736	9387
374.819	14575
374.901	21878
374.983	20896
375.066	10804
375.148	9376
375.231	11228
375.313	15129
375.395	10885
375.478	8832
375.560	9856
375.643	8885
375.725	10647
375.807	17204
375.890	16690
375.972	7969
376.054	7615
376.136	8272
376.219	6650
376.301	8928
376.383	11971
376.465	8684
376.548	6695
376.630	7445
376.712	11437
376.794	6999
376.877	6345
376.959	4074
377.041	6092
377.123	5081
377.205	5851
377.287	4622
377.369	6437
377.452	6102
377.534	5539
377.616	5184
377.698	4905
377.780	5060
377.862	5407
377.944	6672
378.026	5167
378.108	5165
378.190	5019
378.272	6190
378.354	5231
378.436	5484
378.518	4159
378.600	6548
378.682	6490
378.764	6805
378.846	6515
378.928	5062
379.010	4153
379.091	5480
379.173	5778
379.255	4371
379.337	4497
379.419	5995
379.501	8031
379.583	4863
379.664	4839
379.746	4347
379.828	7979
379.910	6414
379.991	7959
380.073	4923
380.155	5494
380.237	4587
380.318	5679
380.400	4575
380.482	5504
380.564	5118
380.645	4741
380.727	4880
380.809	6514
380.890	4415
380.972	4136
381.053	5350
381.135	5915
381.217	5709
381.298	7518
381.380	5534
381.461	6382
381.543	10218
381.624	12238
381.706	6205
381.787	5476
381.869	6454
381.951	9826
382.032	18708
382.113	15690
382.195	6097
382.276	7327
382.358	6937
382.439	10956
382.521	13722
382.602	18894
382.684	12032
382.765	15668
382.846	28842
382.928	51264
383.009	31327
383.090	28342
383.172	84255
383.253	108817
383.334	35128
383.416	20826
383.497	15643
383.578	15198
383.659	24440
383.741	82773
383.822	165134
383.903	82612
383.984	23021
384.066	20163
384.147	13605
384.228	11743
384.309	12627
384.390	12933
384.471	12354
384.553	10448
384.634	10032
384.715	9324
384.796	9133
384.877	7764
384.958	10543
385.039	8964
385.120	8162
385.201	9423
385.282	8394
385.363	10526
385.444	10548
385.525	11884
385.606	14562
385.687	14616
385.768	11378
385.849	11137
385.930	17253
386.011	22780
386.092	13186
386.173	11790
386.254	10841
386.335	10997
386.416	10651
386.496	10960
386.577	12293
386.658	11424
386.739	10775
386.820	11915
386.901	11118
386.981	13492
387.062	15214
387.143	15556
387.224	17427
387.304	20960
387.385	19142
387.466	17284
387.547	19664
387.627	19719
387.708	20679
387.789	23262
387.869	21217
387.950	18621
388.031	15497
388.111	12845
388.192	16439
388.273	17569
388.353	15074
388.434	10739
388.514	10883
388.595	14668
388.676	14644
388.756	10843
388.837	10189
388.917	10258
388.998	7469
389.078	9250
389.159	9478
389.239	7421
389.320	10230
389.400	7063
389.480	8751
389.561	9498
389.641	9656
389.722	8680
389.802	8465
389.883	10180
389.963	10758
390.043	10246
390.124	7407
390.204	9234
390.284	10138
390.365	8912
390.445	11857
390.525	17152
390.605	15935
390.686	8386
390.766	10102
390.846	10219
390.927	8880
391.007	8424
391.087	11114
391.167	9449
391.247	9758
391.328	11000
391.408	11807
391.488	11579
391.568	10617
391.648	12364
391.728	12480
391.808	13539
391.888	13149
391.969	15568
392.049	15718
392.129	18357
392.209	18503
392.289	22392
392.369	21961
392.449	23273
392.529	25612
392.609	30038
392.689	33956
392.769	40194
392.849	50311
392.929	65059
393.009	88352
393.089	128604
393.169	223038
393.248	410111
393.328	579353
393.408	559833
393.488	392185
393.568	209252
393.648	118591
393.728	76664
393.807	54661
393.887	44018
393.967	35167
394.047	29142
394.127	24512
394.206	24794
394.286	37266
394.366	101439
394.446	103299
394.525	28628
394.605	17817
394.685	16599
394.764	20128
394.844	32853
394.924	41527
395.003	21121
395.083	14771
395.163	13041
395.242	12520
395.322	12825
395.402	12226
395.481	15277
395.561	19041
395.640	48689
395.720	88393
395.799	53179
395.879	24394
395.958	22205
396.038	41690
396.117	127157
396.197	133693
396.276	47984
396.356	34154
396.435	40884
396.515	56632
396.594	86324
396.673	170872
396.753	359675
396.832	526712
396.912	438354
396.991	217751
397.070	104224
397.150	61357
397.229	52553
397.308	80478
397.388	129091
397.467	71598
397.546	29106
397.625	18649
397.705	19212
397.784	15655
397.863	13853
397.942	12740
398.022	12112
398.101	12295
398.180	14615
398.259	11282
398.338	10872
398.417	9108
398.497	7975
398.576	9028
398.655	7336
398.734	7902
398.813	8448
398.892	8575
398.971	12680
399.050	8860
399.129	6334
399.208	7195
399.287	7738
399.366	6710
399.445	5576
399.524	6263
399.603	4862
399.682	6542
399.761	7473
399.840	11370
399.919	10673
399.998	5468
400.077	4973
400.156	4539
400.235	7965
400.313	4946
400.392	4224
400.471	5903
400.550	6580
400.629	4515
400.708	5792
400.786	3994
400.865	4671
400.944	3801
401.023	6452
401.102	4356
401.180	4605
401.259	3949
401.338	4756
401.416	4182
401.495	4270
401.574	4948
401.652	3799
401.731	4559
401.810	3353
401.888	4062
401.967	3763
402.046	3691
402.124	4431
402.203	3676
402.281	4348
402.360	3623
402.438	5073
402.517	3600
402.596	4166
402.674	3735
402.753	4208
402.831	4607
402.910	5050
402.988	5471
403.066	7880
403.145	7283
403.223	6621
403.302	7738
403.380	8341
403.459	7553
403.537	5775
403.615	5503
403.694	5282
403.772	6298
403.850	5945
403.929	4977
404.007	4067
404.085	5852
404.164	4757
404.242	4702
404.320	7237
404.398	10090
404.477	8404
404.555	13273
404.633	11721
404.711	8513
404.789	6337
404.868	3559
404.946	3796
405.024	3814
405.102	3878
405.180	3168
405.258	2643
405.336	3960
405.415	2339
405.493	4685
405.571	4790
405.649	3181
405.727	3241
405.805	5041
405.883	5472
405.961	5095
406.039	3633
406.117	2535
406.195	4078
406.273	3208
406.351	8177
406.429	7723
406.507	3684
406.585	3040
406.663	3727
406.740	3457
406.818	2809
406.896	2824
406.974	4095
407.052	2314
407.130	6321
407.208	7104
407.285	4878
407.363	3554
407.441	4684
407.519	4167
407.596	5155
407.674	12620
407.752	41094
407.830	30951
407.907	7685
407.985	3127
408.063	4352
408.141	3593
408.218	3916
408.296	2327
408.373	5282
408.451	5323
408.529	5419
408.606	4751
408.684	5944
408.762	5803
408.839	6309
408.917	6831
408.994	6834
409.072	7305
409.149	11006
409.227	16995
409.304	24559
409.382	27858
409.459	31407
409.537	39550
409.614	37545
409.692	29909
409.769	30379
409.846	40558
409.924	46659
410.001	36673
410.079	28855
410.156	22683
410.233	16314
410.311	12807
410.388	11857
410.465	10468
410.543	9220
410.620	10333
410.697	9683
410.775	8226
410.852	8353
410.929	9635
411.006	9854
411.083	8212
411.161	8036
411.238	8313
411.315	7413
411.392	6000
411.469	6939
411.547	6495
411.624	4670
411.701	5116
411.778	5729
411.855	4914
411.932	3855
412.009	4172
412.086	4986
412.163	3902
412.240	4595
412.317	4898
412.394	4141
412.471	4610
412.548	4038
412.625	3932
412.702	4006
412.779	3807
412.856	4491
412.933	3783
413.010	4409
413.087	3318
413.164	4236
413.241	5290
413.318	3108
413.395	4565
413.471	3226
413.548	3260
413.625	4663
413.702	2019
413.779	3182
413.855	3299
413.932	2827
414.009	2726
414.086	3399
414.162	3195
414.239	3454
414.316	3403
414.393	5690
414.469	2989
414.546	2367
414.623	2849
414.699	3348
414.776	2843
414.853	2585
414.929	2789
415.006	3084
415.082	3459
415.159	3384
415.236	2804
415.312	3538
415.389	3041
415.465	2366
415.542	2682
415.618	2726
415.695	3340
415.771	1962
415.848	1620
415.924	3358
416.000	3190
416.077	3697
416.153	1847
416.230	1510
416.306	2873
416.383	2251
416.459	2708
416.535	2630
416.612	2161
416.688	2913
416.764	2194
416.841	1909
416.917	2460
416.993	3043
417.069	2849
417.146	2180
417.222	2158
417.298	2691
417.374	2358
417.451	3598
417.527	2422
417.603	3442
417.679	3322
417.755	2637
417.831	2735
417.908	2732
417.984	3148
418.060	2480
418.136	3284
418.212	2669
418.288	2568
418.364	3661
418.440	1664
418.516	4102
418.592	2791
418.668	3369
418.744	3004
418.820	3832
418.896	2661
418.972	2414
419.048	3580
419.124	4622
419.200	3271
419.276	3818
419.352	3550
419.428	4475
419.504	3331
419.579	4342
419.655	4257
419.731	4171
419.807	4604
419.883	4723
419.959	5248
420.034	5459
420.110	5491
420.186	6246
420.262	6974
420.337	6501
420.413	6960
420.489	7517
420.565	8164
420.640	8030
420.716	9060
420.792	7517
420.867	10325
420.943	8836
421.019	10838
421.094	10600
421.170	11055
421.245	13206
421.321	13846
421.397	15982
421.472	24782
421.548	39298
421.623	30965
421.699	24899
421.774	26220
421.850	29514
421.925	36641
422.001	41864
422.076	51434
422.152	63319
422.227	78763
422.302	106320
422.378	138039
422.453	179091
422.529	199527
422.604	160390
422.679	111363
422.755	154591
422.830	199507
422.905	184626
422.981	147364
423.056	113901
423.131	88768
423.207	69122
423.282	55737
423.357	46543
423.432	39024
423.508	33759
423.583	29036
423.658	26584
423.733	23420
423.808	22284
423.883	21689
423.959	22064
424.034	24738
424.109	23462
424.184	18237
424.259	14521
424.334	13558
424.409	11616
424.484	10435
424.559	9779
424.634	9205
424.709	8368
424.784	8404
424.859	8186
424.934	7190
425.009	7709
425.084	7770
425.159	5884
425.234	6841
425.309	5148
425.384	5695
425.459	5046
425.534	6035
425.609	4948
425.683	5140
425.758	5441
425.833	4567
425.908	5267
425.983	4006
426.058	6195
426.132	4982
426.207	4795
426.282	6069
426.357	4343
426.431	4709
426.506	4219
426.581	4106
426.655	3761
426.730	3738
426.805	3124
426.879	3960
426.954	3194
427.029	3435
427.103	4945
427.178	6307
427.253	4905
427.327	3286
427.402	3042
427.476	3863
427.551	3949
427.625	3061
427.700	3426
427.774	2521
427.849	4247
427.923	4214
427.998	5017
428.072	6190
428.147	13362
428.221	52097
428.296	123000
428.370	72391
428.444	15794
428.519	6871
428.593	6382
428.667	6521
428.742	8985
428.816	22961
428.890	82948
428.965	111355
429.039	33855
429.113	8252
429.188	5697
429.262	5363
429.336	4611
429.410	4566
429.485	4342
429.559	4882
429.633	5860
429.707	7353
429.781	19724
429.855	77480
429.930	100460
430.004	34687
430.078	26599
430.152	66559
430.226	164457
430.300	153371
430.374	48690
430.448	16255
430.522	11233
430.596	14648
430.670	32762
430.744	98374
430.818	98594
430.892	23738
430.966	7301
431.040	4265
431.114	2557
431.188	3161
431.262	2808
431.336	2713
431.410	3472
431.484	3202
431.557	4001
431.631	5355
431.705	10945
431.779	43231
431.853	119424
431.927	82014
432.000	16307
432.074	4828
432.148	3520
432.222	1922
432.295	2437
432.369	1615
432.443	2024
432.516	2642
432.590	5257
432.664	3111
432.737	1335
432.811	1008
432.885	1511
432.958	2060
433.032	403
433.106	1386
433.179	1494
433.253	1699
433.326	1277
433.400	1840
433.473	2013
433.547	1161
433.620	1534
433.694	1604
433.767	1728
433.841	1177
433.914	2187
433.988	1647
434.061	1560
434.134	1941
434.208	1506
434.281	1507
434.355	485
434.428	1645
434.501	1856
434.575	1033
434.648	1405
434.721	1219
434.795	1232
434.868	1228
434.941	2355
435.014	1600
435.088	2822
435.161	3044
435.234	4576
435.307	5165
435.381	6677
435.454	10237
435.527	17307
435.600	18931
435.673	17151
435.746	13226
435.819	10437
435.892	8751
435.966	6432
436.039	4819
436.112	4689
436.185	3400
436.258	2780
436.331	2737
436.404	2635
436.477	1863
436.550	1888
436.623	2552
436.696	1590
436.769	2047
436.842	1694
436.915	1571
436.987	1531
437.060	2211
437.133	1636
437.206	1076
437.279	2226
437.352	1193
437.425	722
437.498	912
437.570	1370
437.643	1270
437.716	1174
437.789	962
437.861	673
437.934	796
438.007	1133
438.080	1313
438.152	1051
438.225	1599
438.298	3415
438.370	8411
438.443	3666
438.516	1047
438.588	884
438.661	321
438.734	443
438.806	527
438.879	1991
438.951	789
439.024	1036
439.096	858
439.169	815
439.241	1404
439.314	786
439.386	1468
439.459	1107
439.531	1134
439.604	927
439.676	1026
439.749	859
439.821	468
439.893	1064
439.966	1158
440.038	511
440.110	942
440.183	1275
440.255	641
440.327	2032
440.400	2551
440.472	3538
440.544	3338
440.617	1621
440.689	3133
440.761	1288
440.833	1590
440.905	1244
440.978	623
441.050	1269
441.122	2122
441.194	1209
441.266	1053
441.338	1199
441.411	2261
441.483	2184
441.555	2229
441.627	2151
441.699	2444
441.771	2413
441.843	2370
441.915	2816
441.987	2814
442.059	3541
442.131	3314
442.203	5608
442.275	7567
442.347	13620
442.419	33233
442.491	110943
442.563	182809
442.635	83031
442.706	22444
442.778	12012
442.850	8586
442.922	6135
442.994	7128
443.066	8115
443.137	10146
443.209	13650
443.281	22558
443.353	48990
443.425	133003
443.496	261782
443.568	261971
443.640	128707
443.711	39660
443.783	17880
443.855	11598
443.926	8498
443.998	6055
444.070	5708
444.141	5039
444.213	4712
444.285	4357
444.356	3353
444.428	4137
444.499	4407
444.571	3956
444.642	4413
444.714	4217
444.785	4410
444.857	5669
444.928	7474
445.000	8599
445.071	11090
445.143	15489
445.214	22754
445.285	38568
445.357	90391
445.428	208671
445.500	284706
445.571	263003
445.642	185180
445.714	76951
445.785	28541
445.856	14247
445.928	9542
445.999	7349
446.070	5846
446.141	5089
446.213	4706
446.284	3398
446.355	3390
446.426	2184
446.497	1959
446.569	1721
446.640	1339
446.711	1825
446.782	1493
446.853	1700
446.924	1806
446.995	1071
447.066	1436
447.138	966
447.209	989
447.280	991
447.351	806
447.422	591
447.493	977
447.564	308
447.635	629
447.706	729
447.777	435
447.847	544
447.918	-459
447.989	534
448.060	821
448.131	207
448.202	823
448.273	60
448.344	852
448.414	867
448.485	817
448.556	254
448.627	900
448.698	1562
448.768	928
448.839	-179
448.910	186
448.981	996
449.051	232
449.122	-808
449.193	138
449.263	148
449.334	173
449.405	427
449.475	792
449.546	901
449.616	1799
449.687	1502
449.758	1291
449.828	-583
449.899	829
449.969	-220
450.040	-313
450.110	762
450.181	743
450.251	333
450.322	722
450.392	355
450.463	252
450.533	-2
450.604	855
450.674	864
450.744	1494
450.815	1508
450.885	1661
450.955	2315
451.026	1976
451.096	1332
451.166	1392
451.237	1776
451.307	3502
451.377	2070
451.447	1553
451.518	1377
451.588	1116
451.658	687
451.728	747
451.799	1338
451.869	1556
451.939	178
452.009	837
452.079	654
452.149	1218
452.219	1640
452.289	1752
452.360	1749
452.430	2521
452.500	2703
452.570	7020
452.640	15685
452.710	35407
452.780	40040
452.850	21174
452.920	10106
452.990	5773
453.060	4369
453.129	2624
453.199	1174
453.269	3204
453.339	3849
453.409	4515
453.479	3751
453.549	5525
453.619	4494
453.688	1182
453.758	849
453.828	960
453.898	375
453.968	329
454.037	737
454.087	803
454.107	824
454.168	1029
454.177	1054
454.247	778
454.249	778
454.316	469
454.330	367
454.386	-30
454.411	188
454.456	463
454.492	599
454.525	750
454.574	710
454.595	677
454.655	227
454.665	141
454.734	327
454.736	355
454.804	1000
454.817	1115
454.873	1526
454.898	1563
454.943	1621
454.979	891
455.013	236
455.060	425
455.082	457
455.141	1060
455.152	1213
455.221	1823
455.222	1849
455.291	2198
455.303	2489
455.360	3497
455.384	4484
455.430	5882
455.465	3838
455.499	2010
455.546	1524
455.569	1301
455.627	1255
455.638	1285
455.707	661
455.708	675
455.777	624
455.789	573
455.846	420
455.869	587
455.916	896
455.950	747
455.985	578
456.031	129
456.054	-101
456.112	690
456.124	859
456.193	1135
456.193	1123
456.262	779
456.274	805
456.332	993
456.355	850
456.401	499
456.436	777
456.470	1047
456.516	1372
456.540	1502
456.597	1008
456.609	910
456.678	962
456.678	953
456.747	1917
456.759	1738
456.817	1072
456.840	1382
456.886	1695
456.920	1530
456.955	1508
457.001	1232
457.024	969
457.082	1609
457.093	1811
457.162	1465
457.163	1480
457.232	2176
457.243	2186
457.301	2455
457.324	2372
457.370	2020
457.405	2469
457.439	3103
457.485	3559
457.508	3739
457.566	4202
457.577	4676
457.646	8212
457.647	8292
457.715	19359
457.727	22145
457.784	36570
457.808	48779
457.853	63278
457.889	71979
457.922	75740
457.969	53822
457.991	51054
458.050	57346
458.060	58564
458.129	101136
458.130	102289
458.198	105224
458.211	93513
458.267	53559
458.292	39230
458.336	25857
458.372	24932
458.405	32817
458.453	49727
458.474	58851
458.533	98607
458.543	100827
458.611	152320
458.614	152470
458.680	101376
458.694	81982
458.749	37876
458.775	27446
458.818	14758
458.855	11250
458.887	9179
458.936	7027
458.955	6191
459.016	4926
459.024	4844
459.093	5664
459.097	5626
459.162	3666
459.177	3320
459.230	3219
459.257	3532
459.299	3521
459.338	3147
459.368	2988
459.418	2870
459.437	2746
459.499	2523
459.505	2527
459.574	2405
459.579	2414
459.643	2109
459.659	2021
459.711	2378
459.740	2583
459.780	2429
459.820	2287
459.849	2391
459.900	2786
459.917	2817
459.981	2554
459.986	2527
460.054	2659
460.061	2640
460.123	2493
460.141	2513
460.191	2648
460.222	2905
460.260	2979
460.302	2566
460.328	2665
460.382	3286
460.397	3408
460.462	3496
460.465	3677
460.534	8738
460.543	9355
460.602	19291
460.623	23335
460.671	34403
460.703	45753
460.739	40019
460.783	26565
460.808	23071
460.864	7037
460.876	5157
460.944	2801
460.945	2778
461.013	2468
461.024	2474
461.081	2353
461.104	2259
461.150	2227
461.184	2470
461.218	2696
461.264	2711
461.286	2740
461.345	2626
461.355	2533
461.423	1984
461.425	1969
461.491	2073
461.505	2262
461.559	2859
461.585	2896
461.628	2939
461.665	3206
461.696	3270
461.745	3221
461.764	3240
461.825	3032
461.832	3008
461.901	2552
461.905	2562
461.969	2089
461.985	1915
462.037	2450
462.065	2859
462.105	2821
462.145	2727
462.173	2864
462.225	2790
462.241	2823
462.305	3449
462.310	3433
462.378	2945
462.385	2906
462.446	3032
462.465	3023
462.514	2865
462.545	2745
462.582	2528
462.625	2402
462.650	2564
462.705	2688
462.718	2589
462.785	2510
462.786	2515
462.854	2071
462.865	2066
462.922	2846
462.945	3236
462.990	3012
463.025	2599
463.058	2745
463.104	3202
463.126	3067
463.184	2510
463.194	2554
463.262	2817
463.264	2829
463.330	2606
463.344	2542
463.398	3054
463.424	3359
463.466	2738
463.504	2108
463.533	2389
463.583	2745
463.601	2713
463.663	2523
463.669	2508
463.737	2570
463.743	2576
463.805	2853
463.823	2906
463.873	3517
463.903	3816
463.940	3430
463.982	3210
464.008	3233
464.062	2828
464.076	2728
464.142	2666
464.144	2671
464.211	2704
464.221	2681
464.279	2786
464.301	2793
464.347	3188
464.381	3469
464.414	2942
464.461	2616
464.482	2925
464.540	3194
464.550	3061
464.617	2369
464.620	2342
464.685	3477
464.699	3685
464.753	3024
464.779	2768
464.820	3034
464.859	3275
464.888	3017
464.938	2363
464.956	2653
465.018	3873
465.023	3851
465.091	3350
465.098	3316
465.158	3016
465.177	2909
465.226	2582
465.257	2331
465.293	2742
465.336	3171
465.361	3206
465.416	3329
465.428	3400
465.495	3693
465.496	3694
465.563	2667
465.575	2497
465.631	3764
465.654	4339
465.698	3823
465.734	3283
465.765	3370
465.813	3438
465.833	3478
465.893	3659
465.900	3642
465.968	3562
465.972	3539
466.035	2964
466.052	2836
466.102	3153
466.131	3280
466.170	2962
466.210	2618
466.237	3138
466.290	4213
466.304	4029
466.369	3101
466.372	3120
466.439	3579
466.449	3623
466.506	3202
466.528	3079
466.573	3739
466.607	4177
466.641	4348
466.687	4590
466.708	4684
466.766	4911
466.775	4784
466.842	3760
466.845	3706
466.909	3634
466.925	3610
466.977	3574
467.004	3548
467.044	4186
467.083	4817
467.111	4713
467.163	4486
467.178	4490
467.242	4485
467.245	4459
467.312	3805
467.321	3715
467.379	4144
467.400	4288
467.446	4574
467.480	4770
467.559	5293
467.638	4731
467.717	4183
467.796	4728
467.875	5314
467.955	4771
468.034	7447
468.113	8532
468.192	11644
468.271	12054
468.350	18752
468.429	25722
468.508	25193
468.588	13990
468.667	10044
468.746	7256
468.825	6263
468.904	5293
468.983	5306
469.062	4845
469.141	5935
469.220	3932
469.299	5277
469.378	4099
469.456	5359
469.535	3984
469.614	4253
469.693	4445
469.772	4665
469.851	4857
469.930	5015
470.009	4992
470.088	4592
470.166	4883
470.245	6399
470.324	6765
470.403	6242
470.482	5156
470.560	4193
470.639	4594
470.718	4242
470.797	4723
470.875	4492
470.954	3733
471.033	5044
471.111	3901
471.190	3373
471.269	3838
471.347	4460
471.426	4101
471.505	4123
471.583	3533
471.662	4462
471.740	4204
471.819	4117
471.898	3631
471.976	4643
472.055	3766
472.133	3913
472.212	5290
472.290	3918
472.369	3785
472.447	3996
472.526	3309
472.604	4556
472.683	3610
472.761	4029
472.839	3924
472.918	3608
472.996	3585
473.075	4235
473.153	4007
473.231	4559
473.310	3632
473.388	4297
473.466	3984
473.545	5298
473.623	4976
473.701	4735
473.780	5336
473.858	3820
473.936	5830
474.014	4998
474.093	6089
474.171	5988
474.249	5234
474.327	5469
474.405	4175
474.484	4474
474.562	4089
474.640	3576
474.718	3517
474.796	5507
474.874	4434
474.952	3878
475.030	3656
475.108	4148
475.187	3722
475.265	4666
475.343	4556
475.421	4173
475.499	3495
475.577	4076
475.655	5238
475.733	4984
475.811	4790
475.889	4782
475.966	5085
476.044	3932
476.122	4114
476.200	4652
476.278	3281
476.356	3509
476.434	3594
476.512	4564
476.590	3565
476.667	4501
476.745	3406
476.823	4016
476.901	3807
476.979	3750
477.056	3559
477.134	4263
477.212	3620
477.290	3098
477.367	3474
477.445	3305
477.523	2969
477.601	4108
477.678	3838
477.756	3742
477.834	4275
477.911	3581
477.989	3294
478.066	3509
478.144	3229
478.222	3749
478.299	4589
478.377	4395
478.454	4165
478.532	3389
478.609	3599
478.687	4054
478.764	2828
478.842	3154
478.919	4003
478.997	4553
479.074	2624
479.152	3679
479.229	4636
479.307	3304
479.384	3578
479.461	4097
479.539	3116
479.616	4515
479.694	2775
479.771	4232
479.848	4347
479.926	2983
480.003	4125
480.080	3934
480.157	4023
480.235	4044
480.312	4377
480.389	4521
480.467	4130
480.544	4825
480.621	5356
480.698	6037
480.775	4335
480.853	4718
480.930	4152
481.007	4918
481.084	5662
481.161	7775
481.238	5921
481.315	4683
481.392	3719
481.470	5038
481.547	4025
481.624	4528
481.701	4148
481.778	4891
481.855	5611
481.932	6329
482.009	6866
482.086	7280
482.163	7761
482.240	8930
482.317	8904
482.393	8331
482.470	6763
482.547	7172
482.624	5670
482.701	5689
482.778	5625
482.855	6119
482.932	6352
483.009	6179
483.085	9143
483.162	10431
483.239	10943
483.316	9721
483.393	10511
483.469	8500
483.546	6812
483.623	6235
483.699	5712
483.776	5037
483.853	5185
483.930	6184
484.006	6059
484.083	8288
484.160	7202
484.236	8868
484.313	7276
484.389	7188
484.466	8664
484.543	10989
484.619	14164
484.696	15312
484.772	10261
484.849	7545
484.925	5345
485.002	7316
485.078	6219
485.155	5455
485.231	5334
485.308	4476
485.384	4237
485.461	6011
485.537	5369
485.614	5868
485.690	4359
485.766	4725
485.843	4173
485.919	5035
485.995	4093
486.072	5064
486.148	4673
486.224	5189
486.301	4743
486.377	5614
486.453	3903
486.530	5337
486.606	7008
486.682	6259
486.758	6327
486.835	7862
486.911	5731
486.987	8501
487.063	8551
487.139	9677
487.215	11602
487.292	13593
487.368	13425
487.444	17966
487.520	25262
487.596	45362
487.672	131743
487.748	348515
487.824	465687
487.900	147740
487.976	42446
488.052	21969
488.128	14889
488.204	10618
488.280	9415
488.356	8776
488.432	9083
488.508	9040
488.584	5953
488.660	5274
488.736	5540
488.812	5424
488.888	5488
488.964	5276
489.039	5087
489.115	6938
489.191	6220
489.267	5243
489.343	4608
489.418	4803
489.494	5092
489.570	3027
489.646	5798
489.722	5610
489.797	5280
489.873	6960
489.949	6015
490.024	5649
490.100	5006
490.176	5155
490.251	5106
490.327	5885
490.403	4187
490.478	5375
490.554	4381
490.629	5166
490.705	3444
490.781	4678
490.856	4485
490.932	4630
491.007	4445
491.083	4485
491.158	3494
491.234	4685
491.309	5516
491.385	3976
491.460	3540
491.536	5294
491.611	2804
491.686	4631
491.762	3217
491.837	4026
491.913	4390
491.988	5631
492.063	4903
492.139	4377
492.214	3099
492.289	3777
492.365	2870
492.440	4283
492.515	3774
492.590	3718
492.666	2510
492.741	3942
492.816	3103
492.891	3512
492.967	4160
493.042	3876
493.117	3464
493.192	4638
493.267	6765
493.342	15559
493.418	15280
493.493	3302
493.568	3074
493.643	3092
493.718	2348
493.793	2809
493.868	3021
493.943	4362
494.018	3794
494.093	2862
494.168	3308
494.243	2164
494.318	2322
494.393	3422
494.468	2450
494.543	3052
494.618	3197
494.693	3059
494.768	2205
494.842	3126
494.917	3190
494.992	3781
495.067	2437
495.142	2905
495.217	2796
495.292	2486
495.366	2439
495.441	2121
495.516	2832
495.591	3822
495.665	5534
495.740	7489
495.815	3793
495.890	2186
495.964	1157
496.039	5324
496.114	4135
496.188	7156
496.263	4354
496.338	3163
496.412	2394
496.487	3771
496.561	3670
496.636	3416
496.710	2984
496.785	3249
496.860	2614
496.934	2877
497.009	2959
497.083	3809
497.158	3475
497.232	3177
497.307	3376
497.381	2901
497.455	3316
497.530	3716
497.604	3941
497.679	3797
497.753	4164
497.827	3791
497.902	2317
497.976	5222
498.050	9621
498.125	25707
498.199	17642
498.273	3726
498.348	3448
498.422	4681
498.496	3519
498.570	3543
498.645	3141
498.719	3051
498.793	3629
498.867	4916
498.941	5230
499.016	13002
499.090	22354
499.164	7152
499.238	3539
499.312	4239
499.386	3581
499.460	4652
499.534	3827
499.609	4430
499.683	2163
499.757	4892
499.831	7135
499.905	17145
499.979	10776
500.053	4417
500.127	3906
500.201	4233
500.275	3119
500.349	3956
500.422	3231
500.496	4005
500.570	5490
500.644	12105
500.718	14357
500.792	4898
500.866	3186
500.940	5263
501.013	4610
501.087	3321
501.161	4723
501.235	3225
501.309	9492
501.382	13753
501.456	9464
501.530	5276
501.603	4977
501.677	4212
501.751	2204
501.825	5411
501.898	4611
501.972	6622
502.046	4413
502.119	3092
502.193	5033
502.266	6566
502.340	4073
502.413	5230
502.487	5928
502.561	4484
502.634	3375
502.708	4155
502.781	2909
502.855	4837
502.928	3108
503.002	3648
503.075	3436
503.149	4434
503.222	3649
503.295	4272
503.369	4981
503.442	5748
503.516	8750
503.589	14640
503.662	9895
503.736	12187
503.809	15742
503.882	20015
503.956	34760
504.029	79571
504.102	205801
504.175	257221
504.249	97158
504.322	36321
504.395	20070
504.468	13526
504.542	8430
504.615	6845
504.688	6280
504.761	3360
504.834	6190
504.907	4726
504.980	4000
505.053	4497
505.127	1047
505.200	5071
505.273	3630
505.346	3261
505.419	2237
505.492	4058
505.565	2418
505.638	3895
505.711	2247
505.784	2891
505.857	1958
505.930	3882
506.003	1198
506.076	3986
506.149	1526
506.221	1423
506.294	3961
506.367	2754
506.440	7298
506.513	4148
506.586	2371
506.659	1625
506.731	2374
506.804	1931
506.877	1494
506.950	2770
507.022	3347
507.095	1482
507.168	2378
507.241	3408
507.313	730
507.386	2247
507.459	2552
507.531	2065
507.604	1084
507.677	3138
507.749	705
507.822	3071
507.894	2292
507.967	2678
508.040	1626
508.112	3495
508.185	2468
508.257	1919
508.330	3367
508.402	1664
508.475	2044
508.547	2468
508.620	2107
508.692	2706
508.765	1781
508.837	2333
508.909	2223
508.982	1317
509.054	1727
509.127	2383
509.199	1610
509.271	1118
509.344	1255
509.416	2497
509.488	1827
509.560	2355
509.633	1538
509.705	2223
509.777	2079
509.849	2063
509.922	401
509.994	1898
510.066	2330
510.138	717
510.210	4276
510.283	2334
510.355	1982
510.427	3032
510.499	2440
510.571	2360
510.643	1541
510.715	3586
510.787	18
510.859	4337
510.931	1757
511.003	2279
511.076	2844
511.148	1922
511.219	1406
511.291	3212
511.363	1751
511.435	2487
511.507	841
511.579	2909
511.651	2796
511.723	2678
511.795	2557
511.867	2466
511.939	3138
512.010	1844
512.082	2473
512.154	1666
512.226	1386
512.298	3564
512.369	2059
512.441	3000
512.513	1992
512.585	1411
512.656	2588
512.728	1503
512.800	1400
512.871	3346
512.943	2376
513.015	1179
513.086	2418
513.158	2002
513.230	1382
513.301	2289
513.373	2507
513.444	2346
513.516	1635
513.588	1909
513.659	2154
513.731	2532
513.802	671
513.874	3957
513.945	2732
514.016	1382
514.088	2243
514.159	804
514.231	2213
514.302	3141
514.374	2186
514.445	786
514.516	4062
514.588	2025
514.659	1871
514.730	2268
514.802	3024
514.873	671
514.944	3974
515.016	2260
515.087	1667
515.158	2474
515.229	3505
515.301	1611
515.372	2819
515.443	2183
515.514	2029
515.585	1431
515.656	2957
515.728	2768
515.799	902
515.870	3556
515.941	2417
516.012	1919
516.083	3220
516.154	1981
516.225	4064
516.296	4406
516.367	3088
516.438	4582
516.509	3247
516.580	7492
516.651	26849
516.722	61208
516.793	19036
516.864	6494
516.935	5476
517.006	7042
517.077	9729
517.148	27240
517.219	115135
517.289	122793
517.360	16826
517.431	8765
517.502	3542
517.573	5881
517.643	4919
517.714	5052
517.785	5662
517.856	5818
517.926	8200
517.997	9560
518.068	9184
518.138	16102
518.209	25932
518.280	100971
518.350	248791
518.421	74599
518.492	24131
518.562	26910
518.633	37932
518.703	66760
518.774	170234
518.845	383542
518.915	292337
518.986	87466
519.056	36578
519.127	23077
519.197	16707
519.268	15528
519.338	11256
519.408	7443
519.479	6685
519.549	4892
519.620	7227
519.690	5036
519.760	4017
519.831	4577
519.901	3016
519.971	4375
520.042	3029
520.112	3179
520.182	3766
520.253	3787
520.323	2097
520.393	3420
520.463	4166
520.534	1500
520.604	5613
520.674	3854
520.744	2074
520.814	3630
520.885	4128
520.955	5330
521.025	9242
521.095	3822
521.165	3355
521.235	2589
521.305	1444
521.375	3076
521.445	3903
521.515	2148
521.585	3143
521.655	1649
521.725	3316
521.795	3516
521.865	993
521.935	5104
522.005	2218
522.075	2255
522.145	3374
522.215	2108
522.285	3665
522.355	3025
522.424	4623
522.494	2976
522.564	3081
522.634	3110
522.704	5650
522.774	2371
522.843	3725
522.913	3833
522.983	2699
523.053	1604
523.122	3470
523.192	3258
523.262	3265
523.331	2673
523.401	4149
523.471	3458
523.540	3739
523.610	2784
523.680	3083
523.749	4314
523.819	4731
523.888	3657
523.958	2828
524.027	3431
524.097	2857
524.166	3609
524.236	1903
524.305	6198
524.375	3682
524.444	2509
524.514	5611
524.583	2855
524.653	2834
524.722	4627
524.791	2820
524.861	6295
524.930	3220
524.999	4169
525.069	4537
525.138	4421
525.207	5066
525.277	7157
525.346	6418
525.415	8070
525.484	9057
525.554	11140
525.623	13609
525.692	16901
525.761	20289
525.830	25923
525.900	33110
525.969	60202
526.038	119888
526.107	297481
526.176	680676
526.245	436442
526.314	156384
526.383	372037
526.452	435342
526.522	665885
526.591	444629
526.660	81571
526.729	48776
526.797	56136
526.867	95294
526.935	323506
527.004	906487
527.073	428566
527.142	71364
527.211	30246
527.280	20666
527.349	14376
527.418	9204
527.487	9645
527.555	6674
527.624	7567
527.693	4807
527.762	6984
527.831	3852
527.899	5295
527.968	3733
528.037	3219
528.106	5115
528.174	5159
528.243	4588
528.312	5631
528.380	4162
528.449	2736
528.518	5750
528.586	2282
528.655	4213
528.723	4367
528.792	3489
528.861	2540
528.929	1775
528.998	4915
529.066	3477
529.135	4559
529.203	2917
529.272	3842
529.340	5820
529.409	5708
529.477	3552
529.545	4175
529.614	5919
529.682	4512
529.751	4226
529.819	8056
529.887	5436
529.956	5130
530.024	5914
530.092	4536
530.161	6030
530.229	4859
530.297	5658
530.365	6569
530.434	5989
530.502	5490
530.570	5144
530.638	3370
530.707	4895
530.775	6253
530.843	5302
530.911	5445
530.979	5601
531.047	6475
531.115	5730
531.183	6192
531.252	6326
531.320	5951
531.388	4789
531.456	6212
531.524	4273
531.592	6222
531.660	8235
531.728	5495
531.796	4747
531.864	6059
531.932	5777
532.000	6278
532.067	6246
532.135	7061
532.203	8088
532.271	7079
532.339	7921
532.407	8308
532.475	7411
532.542	7403
532.610	7526
532.678	6187
532.746	10846
532.814	11529
532.881	7686
532.949	8358
533.017	7259
533.084	7833
533.152	6336
533.220	7138
533.287	5864
533.355	7516
533.423	7751
533.490	7315
533.558	7472
533.625	6532
533.693	6795
533.761	7469
533.828	8309
533.896	5694
533.963	8957
534.031	10052
534.098	10937
534.166	10484
534.233	10084
534.300	13089
534.368	12064
534.435	11972
534.503	13447
534.570	14949
534.637	16495
534.705	20573
534.772	29746
534.840	81090
534.907	341378
534.974	290191
535.041	35423
535.109	16017
535.176	11357
535.243	12997
535.310	10170
535.378	10857
535.445	9277
535.512	10023
535.579	10146
535.646	8217
535.714	10861
535.781	11856
535.848	10067
535.915	11288
535.982	9155
536.049	9463
536.116	10214
536.183	8758
536.250	8744
536.317	9163
536.384	9922
536.451	11203
536.518	10428
536.585	8483
536.652	10969
536.719	10902
536.786	8742
536.853	10234
536.920	11059
536.987	9969
537.053	8068
537.120	12792
537.187	12751
537.254	10964
537.321	10171
537.388	12063
537.454	9564
537.521	11360
537.588	9991
537.654	11113
537.721	11494
537.788	11529
537.855	10493
537.921	11729
537.988	10144
538.055	11117
538.121	9885
538.188	9538
538.254	9288
538.321	9367
538.388	10750
538.454	10965
538.521	11541
538.587	11381
538.654	11181
538.720	10424
538.787	10906
538.853	11180
538.920	10471
538.986	9783
539.053	8517
539.119	10737
539.185	10335
539.252	11474
539.318	11319
539.385	13159
539.451	9852
539.517	10972
539.583	10695
539.650	11194
539.716	11028
539.782	10468
539.849	9857
539.915	10255
539.981	10155
540.047	9659
540.114	10239
540.180	12213
540.246	10226
540.312	12355
540.378	10876
540.444	12529
540.510	11842
540.576	12818
540.643	10139
540.709	9843
540.775	10575
540.841	10714
540.907	10539
540.973	11421
541.039	10767
541.105	10430
541.171	10705
541.237	11047
541.303	12428
541.369	13631
541.435	10886
541.500	11150
541.566	9095
541.632	10750
541.698	10032
541.764	11712
541.830	10988
541.896	10397
541.961	10816
542.027	10632
542.093	11555
542.159	12347
542.224	8920
542.290	12037
542.356	9415
542.421	11702
542.487	9990
542.553	9479
542.618	9969
542.684	11116
542.750	9975
542.815	11540
542.881	10774
542.947	11764
543.012	12481
543.078	10098
543.143	9293
543.209	11463
543.274	9013
543.340	10547
543.405	10799
543.471	11308
543.536	11253
543.602	11089
543.667	9563
543.732	12198
543.798	10115
543.863	11618
543.928	10602
543.994	11442
544.059	11756
544.124	12280
544.190	11809
544.255	12903
544.320	12353
544.386	12123
544.451	13752
544.516	12916
544.581	11650
544.646	12890
544.712	13946
544.777	13970
544.842	12383
544.907	12885
544.972	12865
545.037	13574
545.102	14190
545.168	13231
545.233	14397
545.298	14679
545.363	13513
545.428	16039
545.493	15877
545.558	15030
545.623	15416
545.688	14809
545.753	16982
545.818	17056
545.883	17434
545.947	17037
546.012	18300
546.077	18484
546.142	20757
546.207	20768
546.272	22324
546.337	21891
546.401	23500
546.466	24335
546.531	24026
546.596	27276
546.661	27678
546.725	31691
546.790	30949
546.855	36330
546.919	38099
546.984	42039
547.049	46194
547.113	53690
547.178	59275
547.243	66964
547.307	78652
547.372	84409
547.436	84315
547.501	90508
547.565	95521
547.630	86954
547.695	84031
547.759	84662
547.823	86275
547.888	87277
547.952	89926
548.017	94972
548.081	97096
548.146	94497
548.210	99066
548.274	106440
548.339	99945
548.403	93396
548.468	89163
548.532	86831
548.596	88609
548.660	89916
548.725	99243
548.789	106958
548.853	101290
548.917	98546
548.982	93825
549.046	83435
549.110	76302
549.174	82947
549.238	97206
549.303	103208
549.367	105577
549.431	99239
549.495	93738
549.559	95483
549.623	112417
549.687	117536
549.751	118707
549.815	141440
549.879	139286
549.943	136686
550.007	143124
550.071	136183
550.135	123273
550.199	119645
550.263	116843
550.327	110431
550.391	114018
550.455	127489
550.519	133385
550.582	144960
550.646	161050
550.710	161114
550.774	161621
550.838	163285
550.901	170663
550.965	180356
551.029	191127
551.093	210756
551.156	234793
551.220	275997
551.284	286303
551.347	213881
551.411	179649
551.475	170395
551.538	173558
551.602	159487
551.666	151251
551.729	140858
551.793	138112
551.856	135870
551.920	133439
551.983	131690
552.047	129934
552.110	133857
552.174	135260
552.237	134685
552.301	125032
552.364	119993
552.428	117787
552.491	123031
552.554	124310
552.618	123574
552.681	125322
552.745	120168
552.808	127155
552.871	132222
552.934	127612
552.998	123668
553.061	120735
553.124	115342
553.187	115240
553.251	121763
553.314	119318
553.377	121864
553.440	132747
553.503	140870
553.567	139385
553.630	129435
553.693	128476
553.756	127429
553.819	123401
553.882	120047
553.945	120280
554.008	120123
554.071	122820
554.134	123194
554.197	113366
554.260	111778
554.323	113539
554.386	116497
554.449	121350
554.512	120890
554.575	114585
554.638	113806
554.701	115159
554.764	112468
554.827	109505
554.889	103506
554.952	98470
555.015	97294
555.078	99311
555.141	98474
555.203	96825
555.266	97395
555.329	96970
555.391	93098
555.454	91614
555.517	90354
555.580	87724
555.642	82798
555.705	81856
555.768	81275
555.830	78679
555.893	74289
555.955	73013
556.018	72732
556.080	73006
556.143	75873
556.206	73092
556.268	72387
556.330	70063
556.393	68711
556.455	67444
556.518	66296
556.580	63280
556.643	61528
556.705	60699
556.767	59179
556.830	58748
556.892	57166
556.955	56849
557.017	55102
557.079	55193
557.142	53321
557.204	54206
557.266	54555
557.328	49251
557.391	47097
557.453	46698
557.515	46744
557.577	47073
557.639	49001
557.701	48635
557.764	48039
557.826	49944
557.888	52555
557.950	55358
558.012	63566
558.074	95682
558.136	253575
558.198	429187
558.260	125719
558.322	60615
558.384	58962
558.446	61752
558.508	66250
558.570	73851
558.632	87938
558.694	123347
558.756	246281
558.818	697802
558.880	1002493
558.942	448645
559.003	481109
559.065	180634
559.127	83138
559.189	77662
559.251	91700
559.312	151938
559.374	406562
559.436	843674
559.498	324871
559.559	96936
559.621	80347
559.683	98305
559.744	189499
559.806	571390
559.868	550601
559.929	128824
559.991	97874
560.052	201222
560.114	460954
560.176	234801
560.237	313362
560.299	351315
560.360	68343
560.422	33486
560.483	27919
560.545	25758
560.606	24420
560.667	22491
560.729	21958
560.790	20243
560.852	20321
560.913	18595
560.974	19071
561.036	18087
561.097	18863
561.158	16804
561.220	17636
561.281	16854
561.342	16900
561.403	17070
561.465	15812
561.526	16218
561.587	16806
561.648	14726
561.709	15590
561.771	15073
561.832	14584
561.893	12708
561.954	14834
562.015	13637
562.076	14558
562.137	13570
562.198	13768
562.259	14144
562.320	13984
562.381	13573
562.442	12748
562.503	13158
562.564	12851
562.625	13084
562.686	12866
562.747	12203
562.808	13138
562.869	11893
562.930	12310
562.991	12317
563.051	11790
563.112	12388
563.173	11466
563.234	11209
563.294	11745
563.355	10596
563.416	12012
563.477	12047
563.537	10691
563.598	11177
563.659	11402
563.720	10372
563.780	10842
563.841	10801
563.901	11618
563.962	10313
564.023	11438
564.083	10585
564.144	10814
564.204	9786
564.265	11643
564.325	9680
564.386	10319
564.446	10311
564.507	11059
564.567	9386
564.628	9425
564.688	9181
564.749	10263
564.809	10297
564.869	10557
564.930	9570
564.990	10097
565.050	8970
565.111	10047
565.171	9256
565.231	10394
565.292	10608
565.352	9363
565.412	9306
565.472	10407
565.532	9481
565.593	9900
565.653	8849
565.713	10195
565.773	9873
565.833	9979
565.893	9878
565.953	9166
566.013	8841
566.074	9475
566.134	9811
566.194	8110
566.254	8918
566.314	8864
566.374	8456
566.434	9307
566.494	8478
566.554	9650
566.614	9234
566.673	9557
566.733	9703
566.793	9065
566.853	8849
566.913	9898
566.973	9151
567.033	9384
567.092	8876
567.152	10002
567.212	9822
567.272	9541
567.331	9875
567.391	10315
567.451	10886
567.511	10719
567.570	10236
567.630	10795
567.690	9275
567.749	9553
567.809	8625
567.868	10804
567.928	8974
567.988	10539
568.047	10152
568.107	9327
568.166	11355
568.226	11681
568.285	12033
568.345	11515
568.404	10829
568.464	11097
568.523	10613
568.582	11431
568.642	11528
568.701	11575
568.761	12864
568.820	13442
568.879	12240
568.939	13157
568.998	11363
569.057	10653
569.116	11081
569.176	10673
569.235	9994
569.294	10524
569.353	8793
569.413	10369
569.472	8645
569.531	9061
569.590	9179
569.649	10038
569.708	8389
569.767	9856
569.827	9485
569.886	8948
569.945	8218
570.004	9334
570.063	9710
570.122	9120
570.181	9842
570.240	9741
570.299	8860
570.358	9839
570.417	9285
570.475	9922
570.534	9924
570.593	9847
570.652	9855
570.711	9719
570.770	9220
570.829	9648
570.887	9805
570.946	10953
571.005	9295
571.064	10471
571.122	10700
571.181	10819
571.240	9035
571.299	9005
571.357	8489
571.416	9534
571.475	10263
571.533	10653
571.592	11437
571.650	11203
571.709	11637
571.768	13524
571.826	12852
571.885	11872
571.943	11186
572.002	11093
572.060	9992
572.119	10205
572.177	9155
572.236	10013
572.294	9628
572.352	11416
572.411	10890
572.469	10064
572.528	9747
572.586	9299
572.644	9007
572.703	9437
572.761	8691
572.819	8144
572.877	7930
572.936	9424
572.994	8379
573.052	8945
573.110	9912
573.169	9807
573.227	9061
573.285	9335
573.343	8401
573.401	9781
573.459	8915
573.517	10679
573.576	10458
573.634	10441
573.692	9494
573.750	10870
573.808	9102
573.866	9667
573.924	9680
573.982	9256
574.040	8501
574.098	9395
574.155	8734
574.213	9489
574.271	9906
574.329	10875
574.387	9775
574.445	9194
574.503	8671
574.560	8487
574.618	8225
574.676	8898
574.734	8733
574.792	8942
574.849	7282
574.907	6512
574.965	7294
575.022	6480
575.080	5830
575.138	7309
575.195	7305
575.253	6378
575.311	6945
575.368	7307
575.426	6377
575.483	8206
575.541	7734
575.598	7655
575.656	6943
575.713	7134
575.771	8635
575.828	7506
575.886	6796
575.943	7677
576.001	6501
576.058	6553
576.115	6929
576.173	6845
576.230	7251
576.287	7094
576.345	7219
576.402	7503
576.459	7360
576.517	5674
576.574	6055
576.631	6460
576.688	5988
576.746	6349
576.803	6016
576.860	6242
576.917	7322
576.974	6780
577.031	5651
577.089	6399
577.146	4941
577.203	5620
577.260	5920
577.317	5631
577.374	5037
577.431	5856
577.488	6469
577.545	6055
577.602	7185
577.659	5722
577.716	6141
577.773	6727
577.830	6179
577.886	5932
577.943	4817
578.000	6348
578.057	5609
578.114	6144
578.171	6094
578.227	6548
578.284	5366
578.341	7259
578.398	6108
578.454	6267
578.511	5210
578.568	6158
578.625	5490
578.681	6354
578.738	5977
578.794	5780
578.851	5740
578.908	6337
578.964	5845
579.021	6586
579.077	5064
579.134	6851
579.190	6079
579.247	7053
579.303	5662
579.360	6819
579.416	6557
579.473	5845
579.529	5555
579.586	5713
579.642	6755
579.698	6941
579.755	6046
579.811	6684
579.867	6050
579.924	6818
579.980	6588
580.036	7204
580.093	6927
580.149	7542
580.205	7158
580.261	7404
580.317	7562
580.374	7016
580.430	8608
580.486	7751
580.542	7322
580.598	8276
580.619	8098
580.654	7791
580.692	7196
580.710	6904
580.765	7272
580.767	7283
580.823	8391
580.838	8549
580.879	8968
580.911	8495
580.935	8159
580.984	7210
580.991	7078
581.047	7853
581.057	7693
581.103	7011
581.130	7674
581.159	8359
581.203	7497
581.215	7272
581.270	6505
581.276	6584
581.326	7196
581.349	7086
581.382	7015
581.422	7033
581.438	7013
581.494	7303
581.494	7295
581.550	6412
581.567	7125
581.606	8588
581.640	7337
581.661	6598
581.713	8134
581.717	8256
581.773	7768
581.786	7691
581.829	7389
581.859	7488
581.885	7602
581.932	7789
581.940	7824
581.996	7550
582.004	7601
582.052	7803
582.077	7630
582.107	7390
582.150	8222
582.163	8491
582.219	7837
582.223	7778
582.274	7041
582.296	7064
582.330	7085
582.368	7481
582.386	7716
582.441	8405
582.441	8403
582.497	8264
582.514	8196
582.552	8235
582.587	8597
582.608	8781
582.659	8613
582.663	8597
582.719	8511
582.732	8625
582.774	8985
582.805	8529
582.830	8180
582.877	8855
582.885	8954
582.941	9243
582.950	9322
582.996	9696
583.023	10012
583.052	10524
583.095	9960
583.107	9713
583.162	10712
583.168	10583
583.218	9412
583.240	9370
583.273	9319
583.313	9076
583.328	9088
583.384	9848
583.385	9850
583.439	9484
583.458	9682
583.494	10005
583.531	9513
583.549	9499
583.603	10402
583.605	10410
583.660	9787
583.676	9868
583.715	10319
583.748	10156
583.770	10013
583.820	10072
583.825	10086
583.881	10040
583.893	9932
583.936	9545
583.965	9932
583.991	10236
584.038	10073
584.046	10050
584.101	10439
584.110	10419
584.156	10646
584.183	10748
584.211	10739
584.255	11160
584.266	11271
584.321	11124
584.328	11178
584.376	11475
584.400	11514
584.431	11712
584.472	12081
584.486	12229
584.541	12598
584.545	12619
584.596	13205
584.617	13419
584.651	13852
584.689	14312
584.706	14360
584.761	15068
584.762	15061
584.816	15735
584.834	15932
584.871	16128
584.906	16636
584.926	16992
584.978	17949
584.980	18023
585.035	20660
585.051	21043
585.090	21960
585.123	23612
585.145	25044
585.195	27173
585.200	27416
585.254	31739
585.267	32839
585.309	37403
585.340	41158
585.364	44451
585.412	51704
585.419	53086
585.473	68583
585.484	72895
585.528	98674
585.556	125874
585.583	172373
585.628	280385
585.637	316549
585.692	627188
585.700	661288
585.747	761799
585.772	673492
585.801	443308
585.845	200098
585.856	168037
585.910	83333
585.917	74462
585.965	54344
585.989	46674
586.019	42020
586.061	35642
586.074	34391
586.128	31008
586.133	30687
586.183	28669
586.205	28045
586.237	27609
586.277	26443
586.292	26252
586.346	26101
586.349	26065
586.401	25885
586.421	25801
586.455	25726
586.493	25350
586.509	25596
586.564	26008
586.565	26005
586.618	28665
586.637	29833
586.672	33659
586.709	38277
586.727	40279
586.781	43282
586.781	43330
586.835	35276
586.853	33163
586.889	29448
586.925	26735
586.944	26502
586.996	26218
586.998	26258
587.052	25699
587.068	25533
587.106	25981
587.140	26178
587.161	26336
587.212	26695
587.215	26754
587.269	26830
587.284	26821
587.323	27526
587.356	28252
587.377	28663
587.427	29159
587.431	29258
587.485	29706
587.499	29780
587.539	30723
587.571	31559
587.593	32286
587.643	33792
587.648	33996
587.702	34520
587.715	34825
587.755	35750
587.786	35523
587.810	35318
587.858	35855
587.864	36053
587.917	36780
587.930	36846
587.971	37594
588.001	38179
588.025	38478
588.073	38525
588.079	38677
588.133	38988
588.145	39092
588.187	40384
588.217	41034
588.241	42047
588.288	44468
588.295	44894
588.348	46902
588.360	47249
588.402	49147
588.431	50468
588.456	51948
588.503	54717
588.510	55563
588.564	61174
588.575	62509
588.617	69140
588.646	73368
588.671	79214
588.718	91867
588.725	95680
588.778	127256
588.789	134651
588.832	197719
588.861	245779
588.886	307037
588.932	432709
588.939	439761
588.993	448604
589.004	441557
589.047	327741
589.075	259541
589.100	208990
589.147	126448
589.154	123024
589.207	97126
589.218	91956
589.261	89798
589.290	88228
589.314	91565
589.361	99981
589.368	104200
589.421	140428
589.433	149004
589.475	227089
589.504	288230
589.528	339674
589.576	424036
589.582	415322
589.635	287805
589.647	262611
589.689	167800
589.718	106578
589.742	94197
589.790	70311
589.795	69630
589.849	61981
589.861	60056
589.902	56949
589.932	54446
589.955	53251
590.004	50375
590.009	50447
590.062	49493
590.075	49214
590.115	48375
590.146	47217
590.168	47130
590.218	46770
590.222	46961
590.275	47534
590.289	47550
590.328	48206
590.360	48311
590.381	48751
590.431	49598
590.435	49741
590.488	49299
590.503	49004
590.541	49554
590.574	49899
590.594	50502
590.645	51644
590.647	51893
590.700	53744
590.716	54261
590.753	55434
590.787	56003
590.806	56384
590.859	56942
590.859	57143
590.912	58036
590.930	58217
590.965	59954
591.001	61165
591.018	60670
591.071	58560
591.072	58346
591.124	58301
591.143	58023
591.177	58623
591.214	58969
591.230	59482
591.283	60505
591.285	60331
591.336	60122
591.356	59906
591.389	59812
591.427	59049
591.442	59110
591.495	58764
591.498	58529
591.547	59022
591.569	59074
591.600	60505
591.640	61739
591.653	62089
591.706	62809
591.711	62670
591.759	65034
591.782	65907
591.811	67066
591.853	68168
591.864	68444
591.917	68648
591.924	68432
591.969	68517
591.995	68218
592.022	68761
592.066	69073
592.075	69722
592.127	72229
592.137	72436
592.180	73455
592.208	73729
592.233	74942
592.279	76473
592.285	76932
592.338	78536
592.350	78614
592.390	78646
592.421	78191
592.443	79527
592.491	81578
592.495	81928
592.548	82721
592.562	82649
592.600	83054
592.633	82852
592.653	83001
592.704	82166
592.705	82690
592.775	85196
592.846	87207
592.916	88210
592.987	88838
593.058	91193
593.128	90839
593.199	92088
593.270	92588
593.341	93621
593.411	97576
593.482	101157
593.553	104343
593.623	104582
593.694	107885
593.764	108443
593.835	108585
593.906	110519
593.976	112354
594.047	115344
594.117	120683
594.188	123072
594.258	121894
594.329	124042
594.399	127631
594.470	130118
594.540	133834
594.611	138595
594.681	135585
594.751	135257
594.822	141413
594.892	147895
594.963	150822
595.033	156204
595.103	158192
595.174	161769
595.244	164154
595.314	170711
595.384	173481
595.455	177861
595.525	184999
595.595	190326
595.665	191192
595.736	185397
595.806	189486
595.876	191460
595.946	192851
596.016	200363
596.087	209016
596.157	206727
596.227	208141
596.297	218024
596.367	234406
596.437	247695
596.507	244773
596.577	243224
596.647	251975
596.717	266408
596.787	268898
596.857	266970
596.927	268052
596.997	270122
597.067	272686
597.137	277642
597.207	277217
597.277	281685
597.347	271956
597.417	263635
597.487	262546
597.557	269830
597.626	274298
597.696	280513
597.766	277022
597.836	261365
597.906	251643
597.975	244671
598.045	248519
598.115	260165
598.185	277284
598.254	307580
598.324	331972
598.394	338398
598.464	327882
598.533	321971
598.603	303704
598.672	293567
598.742	301169
598.812	300462
598.881	309770
598.951	305005
599.020	315683
599.090	323489
599.159	328377
599.229	316848
599.299	310582
599.368	320428
599.437	313172
599.507	292458
599.576	281070
599.646	276763
599.715	274527
599.785	272074
599.854	265677
599.924	262089
599.993	259648
600.062	265928
600.132	273420
600.201	287366
600.270	329306
600.340	346875
600.409	338591
600.478	338543
600.547	346979
600.617	313800
600.686	257332
600.755	233640
600.824	222119
600.894	217212
600.963	220652
601.032	216269
601.101	209500
601.170	199980
601.239	196241
601.308	196445
601.378	196868
601.447	195929
601.516	197788
601.585	199512
601.654	202885
601.723	206371
601.792	210606
601.861	217484
601.930	224657
601.999	228396
602.068	225102
602.137	229132
602.206	233909
602.275	235352
602.343	237887
602.412	239011
602.481	240836
602.550	245537
602.619	249206
602.688	253305
602.756	255898
602.825	255044
602.894	263730
602.963	268163
603.032	270909
603.100	272173
603.169	270698
603.238	275486
603.307	275220
603.375	277760
603.444	285320
603.513	285811
603.581	292090
603.650	295566
603.719	287001
603.787	292951
603.856	301359
603.924	311005
603.993	318482
604.061	330543
604.130	343073
604.198	348508
604.267	354319
604.335	357127
604.404	364951
604.472	368874
604.541	373287
604.609	376336
604.678	376977
604.746	379416
604.815	391915
604.883	392253
604.951	393506
605.020	400494
605.088	403124
605.156	410673
605.225	416236
605.293	411822
605.361	414953
605.429	418177
605.498	426583
605.566	433811
605.634	452790
605.702	466065
605.771	478994
605.839	475359
605.907	472479
605.975	458314
606.043	449668
606.111	448300
606.180	450327
606.248	446744
606.316	441283
606.384	439375
606.452	441390
606.520	447842
606.588	461183
606.656	464540
606.724	459734
606.792	434193
606.860	396622
606.928	368284
606.996	353065
607.064	347551
607.132	355517
607.200	373257
607.267	386747
607.335	393022
607.403	399534
607.471	388703
607.539	380137
607.607	380240
607.674	339025
607.742	339343
607.810	335935
607.878	335513
607.946	343656
608.013	356798
608.081	364612
608.149	366303
608.216	380798
608.284	388377
608.352	391370
608.419	384295
608.487	376558
608.555	372482
608.622	384125
608.690	406877
608.757	441738
608.825	448022
608.893	438139
608.960	414753
609.028	400317
609.095	399233
609.163	401064
609.230	360939
609.298	333329
609.365	350717
609.432	376327
609.500	403536
609.567	454759
609.635	506254
609.702	528662
609.769	502036
609.837	402905
609.904	358294
609.971	368901
610.039	393111
610.106	459824
610.173	688382
610.241	1174186
610.308	868252
610.375	466398
610.442	397812
610.509	375825
610.577	376609
610.644	377987
610.711	390057
610.778	397092
610.845	413142
610.912	433568
610.980	449870
611.047	449314
611.114	442322
611.181	428578
611.248	426968
611.315	446909
611.382	459175
611.449	471499
611.516	478781
611.583	472022
611.650	475568
611.717	479527
611.784	489107
611.851	501788
611.918	522229
611.984	571375
612.051	690898
612.118	984707
612.185	1520011
612.252	1284617
612.319	740548
612.386	620327
612.452	564913
612.519	538836
612.586	524561
612.653	530686
612.719	546695
612.786	530561
612.853	497430
612.919	488193
612.986	492689
613.053	471087
613.120	446426
613.186	433052
613.253	435072
613.319	434406
613.386	438057
613.453	444840
613.519	445027
613.586	435708
613.652	442761
613.719	434699
613.785	442256
613.852	448496
613.918	446881
613.985	449362
614.051	464631
614.118	462865
614.184	447298
614.250	446660
614.317	453583
614.383	446538
614.449	455745
614.516	452183
614.582	456324
614.648	448447
614.715	442610
614.781	436786
614.847	435566
614.914	433776
614.980	424614
615.046	425719
615.112	436592
615.179	435634
615.245	445475
615.311	435945
615.377	444595
615.443	447520
615.509	453270
615.575	465534
615.642	461039
615.708	470319
615.774	487575
615.840	506226
615.906	527406
615.972	592156
616.038	748279
616.104	1136358
616.170	1640730
616.236	1526260
616.302	952544
616.368	778076
616.434	616467
616.500	557189
616.565	593861
616.631	708126
616.697	623929
616.763	614213
616.829	799470
616.895	1209117
616.961	1192808
617.026	709919
617.092	524406
617.158	478589
617.224	462388
617.289	431701
617.355	411064
617.421	409557
617.487	405606
617.552	387150
617.618	384125
617.684	384799
617.749	385393
617.815	370882
617.880	364886
617.946	362665
618.012	369082
618.077	375125
618.143	361333
618.208	364960
618.274	387819
618.339	387978
618.405	328122
618.470	328959
618.536	325730
618.601	321351
618.667	301962
618.732	288501
618.798	284994
618.863	283791
618.928	280758
618.994	281190
619.059	279031
619.124	283405
619.190	280708
619.255	279865
619.320	281278
619.386	281780
619.451	279043
619.516	271977
619.581	275439
619.647	286438
619.712	284271
619.777	274207
619.842	274173
619.907	278730
619.972	284183
620.038	284753
620.103	275816
620.168	276051
620.233	280420
620.298	284309
620.363	284336
620.428	290242
620.493	298925
620.558	302817
620.623	303943
620.688	303374
620.753	300972
620.818	308016
620.883	307361
620.948	308321
621.013	304500
621.078	300663
621.143	303111
621.207	307876
621.272	302000
621.337	293141
621.402	291393
621.467	288030
621.532	288097
621.596	289462
621.661	280268
621.726	280215
621.791	282144
621.855	282710
621.920	278541
621.985	282557
622.049	288410
622.114	289035
622.179	292798
622.243	299831
622.308	310098
622.373	319231
622.437	312567
622.502	297882
622.566	296063
622.631	293954
622.695	299008
622.760	298678
622.824	297480
622.889	298910
622.953	299153
623.018	314095
623.082	317581
623.147	315890
623.211	308503
623.276	310970
623.340	297977
623.404	291947
623.469	290955
623.533	295620
623.597	286798
623.662	285649
623.726	267878
623.790	251395
623.854	246753
623.919	251288
623.983	255055
624.047	258225
624.111	261235
624.176	264767
624.240	268677
624.304	273904
624.368	265466
624.432	265819
624.496	272764
624.560	285869
624.625	288799
624.689	284557
624.753	298848
624.817	285792
624.881	279398
624.945	254497
625.009	246638
625.073	252658
625.137	258747
625.201	268881
625.265	270441
625.329	261242
625.393	262155
625.456	264084
625.520	271814
625.584	274920
625.648	281519
625.712	288345
625.776	286028
625.839	269860
625.903	234659
625.967	218669
626.031	230725
626.095	270949
626.158	253226
626.222	203951
626.286	192870
626.349	185395
626.413	175041
626.477	172104
626.540	176855
626.604	173177
626.668	170434
626.731	168777
626.795	169539
626.858	169233
626.922	166163
626.986	163567
627.049	165230
627.113	173341
627.176	166543
627.240	162225
627.303	164169
627.366	161125
627.430	164586
627.493	160540
627.557	158486
627.620	161664
627.684	167576
627.747	168533
627.810	155179
627.874	141800
627.937	135715
628.000	141474
628.064	136291
628.127	123452
628.190	121677
628.253	117605
628.317	113051
628.380	108126
628.443	106122
628.506	106394
628.569	102179
628.632	97153
628.696	96851
628.759	95692
628.822	90832
628.885	89253
628.948	88332
629.011	87272
629.074	86259
629.137	82201
629.200	81340
629.263	79988
629.326	79563
629.389	80129
629.452	78898
629.515	78487
629.578	76106
629.641	79630
629.704	78994
629.767	76285
629.830	74892
629.892	73087
629.955	72992
630.018	74793
630.081	73164
630.144	72733
630.207	70954
630.269	73492
630.332	70043
630.395	70094
630.458	66941
630.520	66739
630.583	66885
630.646	68835
630.708	68173
630.771	70493
630.834	73463
630.896	70406
630.959	71880
631.021	69790
631.084	69636
631.146	69007
631.209	70593
631.272	70481
631.334	71250
631.397	72571
631.459	72208
631.522	76193
631.584	77916
631.646	83888
631.709	85001
631.771	85542
631.834	81384
631.896	78202
631.958	73378
632.021	72446
632.083	69737
632.145	67888
632.208	68191
632.270	66387
632.332	67312
632.395	65045
632.457	66967
632.519	65143
632.581	66264
632.643	64997
632.706	65450
632.768	62228
632.830	65494
632.892	66901
632.954	67656
633.016	68182
633.078	66157
633.141	66666
633.203	65925
633.265	66233
633.327	65705
633.389	66800
633.451	67396
633.513	66888
633.575	69324
633.637	67320
633.698	68893
633.760	73066
633.822	77137
633.884	76851
633.946	79236
634.008	80530
634.070	82898
634.132	87598
634.193	93536
634.255	100405
634.317	103351
634.379	99630
634.441	90995
634.502	84528
634.564	77810
634.626	73470
634.687	68876
634.749	66155
634.811	65536
634.873	63965
634.934	64799
634.996	65930
635.057	63152
635.119	66496
635.181	68434
635.242	67826
635.304	66353
635.365	71037
635.427	67574
635.488	66888
635.550	67215
635.611	67395
635.673	67390
635.734	73432
635.796	75881
635.857	83527
635.918	89385
635.980	98061
636.041	101533
636.102	106963
636.164	108309
636.225	104417
636.286	91431
636.348	83886
636.409	74826
636.470	70119
636.531	69155
636.593	65348
636.654	63366
636.715	61795
636.776	61039
636.838	59335
636.899	58069
636.960	56141
637.021	56865
637.082	55329
637.143	54765
637.204	53323
637.265	53588
637.326	54612
637.387	55877
637.448	53992
637.509	54829
637.570	53972
637.631	54335
637.692	52443
637.753	49872
637.814	50818
637.875	49674
637.936	51014
637.997	49976
638.058	49614
638.119	49080
638.179	50605
638.240	50295
638.301	51698
638.362	48059
638.423	46820
638.483	48065
638.544	44778
638.605	47186
638.666	45885
638.726	46943
638.787	47026
638.848	47002
638.908	44553
638.969	45006
639.030	44028
639.090	42231
639.151	44827
639.211	45180
639.272	45364
639.332	45075
639.393	46968
639.453	49181
639.514	51243
639.574	45844
639.635	42158
639.695	42391
639.756	41177
639.816	40668
639.877	40655
639.937	42143
639.997	41868
640.058	40506
640.118	40628
640.178	41738
640.239	40416
640.299	43073
640.359	41926
640.420	45813
640.480	50029
640.540	57113
640.600	57047
640.661	52259
640.721	49448
640.781	50610
640.841	44554
640.901	42711
640.961	42961
641.021	45431
641.082	48541
641.142	43343
641.202	41156
641.262	38677
641.322	38772
641.382	38904
641.442	39701
641.502	38515
641.562	40240
641.622	39488
641.682	44800
641.742	49940
641.802	46524
641.861	40324
641.921	38216
641.981	37991
642.041	37483
642.101	36330
642.161	34191
642.221	36588
642.280	35527
642.340	35668
642.400	36490
642.460	39317
642.519	37657
642.579	38821
642.639	40145
642.698	36537
642.758	41574
642.818	38870
642.877	37544
642.937	38258
642.997	38311
643.056	38933
643.116	36906
643.175	40157
643.235	39542
643.294	41360
643.354	42513
643.414	43863
643.473	50970
643.532	58814
643.592	74179
643.651	103374
643.711	162584
643.770	288815
643.830	595281
643.889	943044
643.948	398472
644.008	124149
644.067	75661
644.126	57584
644.186	49541
644.245	44923
644.304	40109
644.363	42262
644.423	37136
644.482	39389
644.541	41377
644.600	40745
644.659	51368
644.719	59424
644.778	81924
644.837	130504
644.896	252272
644.955	500025
645.014	199720
645.073	64579
645.132	49229
645.191	44965
645.250	43155
645.309	45031
645.368	50343
645.427	64055
645.486	106144
645.545	179053
645.604	61075
645.663	39916
645.722	37447
645.781	41343
645.840	45105
645.898	51458
645.957	67177
646.016	93874
646.075	151603
646.134	272073
646.192	600112
646.251	765418
646.310	230336
646.369	89370
646.427	71464
646.486	54696
646.545	43146
646.603	39537
646.662	36852
646.721	35209
646.779	34725
646.838	35905
646.896	42834
646.955	54947
647.014	82684
647.072	149331
647.131	364189
647.189	191658
647.248	45514
647.306	34228
647.365	31329
647.423	27803
647.481	28958
647.540	26164
647.598	28171
647.657	28087
647.715	28126
647.773	25531
647.832	26904
647.890	23894
647.948	24172
648.007	25014
648.065	22300
648.123	22130
648.181	24033
648.240	24245
648.298	21095
648.356	21186
648.414	22694
648.472	21439
648.531	22003
648.589	20286
648.647	21179
648.705	21634
648.763	21268
648.821	23376
648.879	24000
648.937	24926
648.995	28488
649.053	33807
649.111	47771
649.169	73597
649.227	125897
649.285	244983
649.343	575060
649.401	316703
649.459	67437
649.516	40740
649.574	31989
649.632	32870
649.690	36975
649.748	42083
649.806	60245
649.863	107965
649.921	278564
649.979	192124
650.037	35702
650.094	22060
650.152	21702
650.210	19213
650.268	19976
650.325	19244
650.383	20433
650.440	15590
650.498	16776
650.556	16611
650.613	15797
650.671	17193
650.728	16994
650.786	18439
650.843	26696
650.901	18836
650.958	16435
651.016	14129
651.073	14325
651.131	14555
651.188	14061
651.246	14274
651.303	12537
651.360	13313
651.418	12784
651.475	13846
651.532	13328
651.590	13605
651.647	12448
651.704	12671
651.762	13268
651.819	12795
651.876	12799
651.933	11810
651.990	13187
652.048	11003
652.105	12779
652.162	12605
652.219	11590
652.276	12412
652.333	12101
652.390	10891
652.448	11732
652.505	11724
652.562	11240
652.619	11379
652.676	11202
652.733	11990
652.790	11187
652.847	9554
652.904	11172
652.961	10062
653.017	10155
653.074	11584
653.131	10610
653.188	10103
653.245	10498
653.302	10397
653.359	10669
653.415	10849
653.472	9705
653.529	11164
653.586	10424
653.642	10460
653.699	10402
653.756	9034
653.813	10355
653.869	11716
653.926	9788
653.983	10367
654.039	10570
654.096	10191
654.152	11518
654.209	8264
654.266	10117
654.322	10051
654.379	9740
654.435	10779
654.492	8512
654.548	9846
654.605	9712
654.661	10590
654.717	8962
654.774	9962
654.830	9975
654.887	10026
654.943	9804
655.000	11293
655.056	10543
655.112	10383
655.168	9302
655.225	10299
655.281	9616
655.337	9836
655.394	9847
655.450	9815
655.506	9390
655.562	9256
655.618	9816
655.675	8457
655.731	9489
655.787	8759
655.843	9637
655.899	8659
655.955	9924
656.011	10357
656.067	8019
656.123	10017
656.179	9116
656.235	10595
656.291	8763
656.347	10420
656.403	9075
656.459	8691
656.515	9151
656.571	9165
656.627	8994
656.683	9362
656.739	9328
656.795	9050
656.850	8771
656.906	9388
656.962	10071
657.018	10454
657.074	12646
657.129	17043
657.185	25697
657.241	56851
657.297	31260
657.352	10898
657.408	8659
657.464	9285
657.519	7872
657.575	8041
657.630	8306
657.686	7981
657.742	7749
657.797	8227
657.853	8527
657.908	8814
657.964	7969
658.019	8267
658.075	7595
658.130	8175
658.186	7261
658.241	8216
658.297	6700
658.352	8267
658.407	7311
658.463	6730
658.518	7879
658.573	7718
658.629	7354
658.684	6886
658.739	7818
658.795	7313
658.850	7797
658.905	6928
658.960	7910
659.016	6998
659.071	6530
659.126	7698
659.181	7174
659.236	7421
659.291	7659
659.346	7295
659.401	7544
659.457	7570
659.512	7877
659.567	7955
659.622	7103
659.677	6111
659.732	6640
659.787	7496
659.842	6842
659.897	7222
659.952	6916
660.007	7092
660.061	7225
660.116	5577
660.171	6081
660.226	6254
660.281	7364
660.336	6673
660.391	6064
660.445	6286
660.500	6457
660.555	6798
660.610	6257
660.664	6738
660.719	5802
660.774	6838
660.828	7303
660.883	6151
660.938	7641
660.992	5832
661.047	6723
661.101	6389
661.156	6656
661.211	5825
661.265	6191
661.320	5842
661.374	6803
661.429	5246
661.483	6489
661.538	5651
661.592	6300
661.647	7209
661.701	7596
661.755	7057
661.810	5845
661.864	5286
661.919	4756
661.973	7336
662.027	6511
662.081	5568
662.136	6045
662.190	6274
662.244	6572
662.299	5435
662.353	5908
662.407	6523
662.461	6124
662.515	6429
662.569	5678
662.624	6242
662.678	5317
662.732	5389
662.786	5410
662.840	6187
662.894	5649
662.948	5650
663.002	5878
663.056	5833
663.110	5367
663.164	5630
663.218	6047
663.272	6005
663.326	6827
663.380	5670
663.434	6900
663.488	5031
663.542	6666
663.595	6574
663.649	6035
663.703	5808
663.757	4837
663.811	5513
663.864	5096
663.918	6264
663.972	5658
664.026	6123
664.079	6266
664.133	5809
664.187	6393
664.240	6077
664.294	5787
664.348	5967
664.401	5748
664.455	6061
664.508	5637
664.562	5762
664.615	6067
664.669	4585
664.722	6024
664.776	4893
664.829	5868
664.883	5707
664.936	5353
664.990	5287
665.043	6120
665.097	5148
665.150	6095
665.203	5578
665.257	6086
665.310	6128
665.363	6500
665.417	6286
665.470	5500
665.523	5775
665.576	6741
665.630	5635
665.683	6166
665.736	5997
665.789	6400
665.842	6391
665.895	6420
665.949	6055
666.002	7073
666.055	6920
666.108	7446
666.161	6694
666.214	6301
666.267	6054
666.320	6516
666.373	6981
666.426	6950
666.479	6830
666.532	6532
666.585	6921
666.638	7008
666.691	6520
666.744	6905
666.796	6322
666.849	6231
666.902	6971
666.955	7043
667.008	6184
667.060	6451
667.113	6296
667.166	7542
667.219	7043
667.271	6567
667.324	7070
667.377	6027
667.430	7327
667.482	6608
667.535	6243
667.587	7212
667.640	6801
667.693	6135
667.745	6800
667.798	6282
667.850	6353
667.903	7694
667.955	7535
668.008	6437
668.060	7329
668.113	6059
668.165	6424
668.218	6336
668.270	6568
668.322	5966
668.375	6309
668.427	7179
668.479	6179
668.532	7160
668.584	6343
668.636	5418
668.689	6575
668.741	6351
668.793	6336
668.845	6086
668.898	6073
668.950	5775
669.002	6835
669.054	6296
669.106	5358
669.158	5760
669.211	5978
669.263	6296
669.315	6986
669.367	5787
669.419	4556
669.471	5976
669.523	6080
669.575	6215
669.627	5700
669.679	4933
669.731	5897
669.783	5703
669.835	6574
669.886	5164
669.938	7019
669.990	6541
670.042	5341
670.094	5735
670.146	5852
670.197	6241
670.249	5776
670.301	5613
670.353	6301
670.404	7264
670.456	7817
670.508	10305
670.560	14939
670.611	22004
670.663	35328
670.715	82155
670.766	123957
670.818	35497
670.869	11691
670.921	8815
670.972	9082
671.024	7365
671.075	7019
671.127	6915
671.178	7184
671.230	7376
671.281	8642
671.333	10486
671.384	11202
671.436	15043
671.487	20621
671.538	28130
671.590	46729
671.641	76246
671.692	130648
671.744	230433
671.795	177278
671.846	75134
671.897	35694
671.949	23163
672.000	17153
672.051	12416
672.102	10060
672.153	9296
672.204	8217
672.256	7721
672.307	6116
672.358	6817
672.409	5972
672.460	6700
672.511	5531
672.562	5065
672.613	4312
672.664	5154
672.715	5351
672.766	4719
672.817	4215
672.868	3962
672.919	4033
672.970	4014
673.021	3592
673.071	2819
673.122	3770
673.173	3648
673.224	4278
673.275	3911
673.326	4034
673.376	3475
673.427	3771
673.478	3682
673.528	5510
673.579	4220
673.630	4219
673.680	4331
673.731	3921
673.782	4347
673.832	3765
673.883	3467
673.934	2974
673.984	3809
674.035	4421
674.085	4235
674.136	3635
674.186	4428
674.237	4549
674.287	4154
674.338	4652
674.388	4741
674.438	5495
674.489	4583
674.539	5069
674.589	5484
674.640	5280
674.690	4573
674.740	4292
674.791	4139
674.841	3936
674.891	3640
674.942	3395
674.992	2364
675.042	3118
675.092	4072
675.142	3061
675.193	3155
675.243	3119
675.293	3223
675.343	3477
675.393	3853
675.443	3679
675.493	3244
675.543	3052
675.593	3817
675.643	3363
675.693	3405
675.743	3236
675.793	3370
675.843	2833
675.893	2745
675.943	2050
675.993	2888
676.043	2661
676.093	3018
676.142	2855
676.192	3295
676.242	2432
676.292	3023
676.341	2148
676.391	2598
676.441	1825
676.491	2960
676.540	2993
676.590	2899
676.640	1884
676.689	2390
676.739	1972
676.789	2069
676.838	1968
676.888	3051
676.937	1943
676.987	2485
677.037	2089
677.086	2097
677.136	2357
677.185	2416
677.235	2322
677.284	2084
677.333	2305
677.383	2778
677.432	2146
677.482	2022
677.531	2011
677.580	1780
677.630	1776
677.679	2180
677.728	2097
677.778	2133
677.827	1274
677.876	2547
677.925	2401
677.975	2301
678.024	2767
678.073	2869
678.122	2627
678.171	2892
678.220	3389
678.269	3609
678.319	5174
678.368	5093
678.417	3848
678.466	2470
678.515	2529
678.564	2127
678.613	932
678.662	1054
678.711	1547
678.760	2849
678.809	1892
678.857	2153
678.906	1583
678.955	1742
679.004	2131
679.053	1771
679.102	2157
679.151	2142
679.199	1083
679.248	2141
679.297	1415
679.346	1658
679.394	1121
679.443	1836
679.492	1954
679.540	1882
679.589	2445
679.638	1047
679.686	2749
679.735	2839
679.784	3227
679.832	4021
679.881	2497
679.929	1742
679.978	1585
680.026	2094
680.075	1651
680.123	1456
680.172	832
680.220	1255
680.268	2267
680.317	1182
680.365	882
680.414	1315
680.462	1819
680.510	1095
680.559	1461
680.607	1727
680.655	2036
680.703	1323
680.752	1714
680.800	1154
680.848	1075
680.896	700
680.945	1705
680.993	583
681.041	819
681.089	1151
681.137	1138
681.185	711
681.233	1005
681.258	1292
681.281	1528
681.329	855
681.377	1264
681.380	1328
681.425	1860
681.473	2285
681.502	2017
681.521	1770
681.569	2708
681.617	1901
681.624	1960
681.665	2044
681.713	2473
681.745	2336
681.761	2216
681.809	2505
681.857	2883
681.867	2887
681.904	2749
681.952	2701
681.989	2930
682.000	2950
682.048	2005
682.096	2140
682.111	2339
682.143	2662
682.191	2268
682.233	3104
682.239	3194
682.286	2544
682.334	3155
682.354	2867
682.382	2412
682.430	2572
682.476	2585
682.477	2550
682.525	3841
682.572	3135
682.598	2997
682.620	2837
682.667	3519
682.715	3251
682.720	3312
682.763	3608
682.810	3276
682.841	3937
682.857	4220
682.905	4343
682.952	4212
682.963	4138
683.000	3715
683.047	3888
683.085	5042
683.095	5326
683.142	4333
683.190	4514
683.206	4539
683.237	4473
683.284	4559
683.328	4354
683.332	4311
683.379	4387
683.426	4210
683.449	4278
683.473	4317
683.521	4515
683.568	4525
683.571	4535
683.615	4347
683.662	5379
683.693	5031
683.709	4757
683.757	4531
683.804	4995
683.814	4837
683.851	4147
683.898	4999
683.936	5610
683.945	5779
683.992	5246
684.039	4518
684.057	5033
684.086	5703
684.133	5445
684.179	5429
684.180	5406
684.227	5007
684.274	5280
684.300	5857
684.321	6305
684.368	5323
684.415	5813
684.422	5760
684.462	5428
684.509	5633
684.543	5650
684.556	5588
684.603	6060
684.649	6009
684.665	6276
684.696	6852
684.743	6377
684.786	7205
684.790	7238
684.837	6287
684.883	7175
684.908	6910
684.930	6776
684.977	6698
685.023	6795
685.029	6872
685.070	7086
685.117	6864
685.150	6861
685.164	6851
685.210	7351
685.257	7552
685.272	7691
685.303	8028
685.350	7267
685.393	7466
685.396	7448
685.443	7159
685.490	7610
685.514	7068
685.536	6692
685.583	7131
685.629	7459
685.636	7471
685.675	7400
685.722	7276
685.757	7305
685.768	7305
685.815	7209
685.861	7561
685.878	7697
685.908	7976
685.954	8049
686.000	7896
686.000	7886
686.047	8244
686.093	8205
686.121	8434
686.139	8466
686.185	8886
686.232	8842
686.242	8858
686.278	8976
686.324	8408
686.363	8202
686.370	8169
686.416	8670
686.463	9351
686.484	9023
686.509	8613
686.555	8698
686.601	8946
686.606	8992
686.647	9163
686.693	8393
686.727	8100
686.739	8110
686.785	9041
686.831	8963
686.848	9017
686.877	8883
686.923	8775
686.969	8966
686.969	8967
687.015	9337
687.061	9653
687.090	9874
687.107	9895
687.153	10214
687.199	10121
687.211	9947
687.245	9394
687.291	9569
687.332	9577
687.336	9613
687.382	9933
687.428	9671
687.453	10265
687.474	10732
687.520	11297
687.565	11007
687.574	11064
687.611	11259
687.657	11620
687.695	11804
687.702	11876
687.748	12607
687.794	13122
687.816	13167
687.839	12798
687.885	11480
687.931	11624
687.937	11527
687.976	11195
688.022	10658
688.058	10947
688.067	11039
688.113	11166
688.158	10662
688.179	10475
688.204	10426
688.249	11115
688.295	10987
688.300	11020
688.340	11210
688.386	11821
688.421	11185
688.431	11012
688.477	10920
688.522	11309
688.542	11591
688.567	12253
688.613	12451
688.658	12596
688.663	12638
688.703	12385
688.749	12771
688.784	12553
688.794	12575
688.839	12307
688.884	12955
688.905	12899
688.930	12746
688.975	12710
689.020	12332
689.026	12306
689.065	12268
689.110	12396
689.146	12177
689.155	12178
689.201	12650
689.246	12658
689.267	12780
689.291	12876
689.336	12641
689.381	12832
689.388	12872
689.426	13115
689.471	12997
689.509	12743
689.516	12747
689.561	13000
689.606	13192
689.630	13266
689.651	13171
689.696	12964
689.741	12914
689.750	12805
689.785	12827
689.830	13148
689.871	13066
689.875	13039
689.920	13029
689.965	12886
689.992	12774
690.010	12735
690.054	12717
690.099	12422
690.112	12364
690.144	12585
690.189	12838
690.233	12806
690.233	12823
690.278	12968
690.323	13158
690.354	13110
690.367	13115
690.412	13561
690.457	13149
690.474	13136
690.501	13162
690.546	13390
690.590	13503
690.595	13457
690.635	13337
690.680	13270
690.716	13134
690.724	13148
690.769	13801
690.813	14476
690.836	14356
690.857	14416
690.902	15126
690.946	15196
690.957	15343
690.991	16906
691.035	18773
691.077	20572
691.080	20572
691.124	19490
691.168	18665
691.198	17897
691.213	17389
691.257	16428
691.301	14831
691.318	14455
691.346	14668
691.390	14047
691.434	14213
691.439	14159
691.478	14033
691.522	14318
691.559	13942
691.567	13979
691.611	15043
691.655	15063
691.680	15486
691.699	15593
691.743	15441
691.787	15310
691.800	15071
691.831	14663
691.875	15129
691.919	15229
691.921	15200
691.964	15424
692.008	15359
692.041	15263
692.052	15187
692.096	15279
692.139	15198
692.162	15232
692.183	15388
692.227	15245
692.271	14925
692.282	14891
692.315	14930
692.359	15073
692.402	14927
692.403	14957
692.447	15178
692.490	14949
692.523	15184
692.534	15336
692.578	15355
692.622	15638
692.643	15469
692.666	15245
692.709	15170
692.753	15038
692.763	15017
692.797	15181
692.840	14974
692.884	14976
692.884	15009
692.928	14998
692.971	15023
693.004	15082
693.015	15148
693.059	15571
693.102	15388
693.124	15322
693.146	15222
693.189	15134
693.233	14963
693.245	14889
693.276	15304
693.320	15909
693.363	16294
693.365	16285
693.407	16647
693.450	16608
693.485	16657
693.493	16736
693.537	17193
693.580	17197
693.605	17465
693.624	18123
693.667	19331
693.710	20455
693.725	20952
693.753	23607
693.797	27489
693.840	31379
693.845	31727
693.883	29458
693.926	27154
693.966	24748
693.970	24514
694.013	21874
694.056	19275
694.086	17256
694.099	17209
694.142	17098
694.185	17068
694.206	17015
694.229	17153
694.272	16974
694.315	17391
694.326	17303
694.358	17116
694.401	17304
694.444	17214
694.446	17170
694.487	17088
694.530	17266
694.566	16887
694.573	16886
694.616	16913
694.659	17134
694.686	17166
694.702	17282
694.745	17448
694.787	17735
694.806	17713
694.830	17714
694.873	17981
694.916	17983
694.926	17893
694.959	17761
695.002	17960
695.044	18027
695.046	17986
695.087	18407
695.130	18766
695.166	19014
695.172	19105
695.215	19480
695.258	19707
695.286	19882
695.301	19966
695.343	20064
695.386	20206
695.406	20207
695.428	20923
695.471	22086
695.514	23518
695.526	23855
695.556	25651
695.599	28284
695.641	30500
695.646	30687
695.684	29213
695.726	27599
695.766	25892
695.769	25881
695.811	24932
695.854	23882
695.886	23121
695.896	23269
695.938	23520
695.981	23784
696.005	23886
696.023	24524
696.065	26077
696.108	27515
696.125	28123
696.150	28677
696.192	29347
696.235	29922
696.245	30040
696.277	30388
696.319	30460
696.361	30830
696.365	30782
696.404	30677
696.446	30223
696.485	29997
696.488	30054
696.530	29751
696.572	29414
696.604	29092
696.614	29170
696.656	29229
696.698	29345
696.724	29278
696.740	29414
696.783	29584
696.825	29770
696.844	29834
696.867	30085
696.909	30255
696.951	30457
696.964	30481
696.992	30732
697.034	30763
697.076	30935
697.083	30909
697.118	32014
697.160	33087
697.202	34187
697.203	34133
697.244	33778
697.286	33280
697.323	32721
697.327	32823
697.369	33078
697.411	33214
697.442	33311
697.453	33473
697.494	33698
697.536	34011
697.562	34115
697.578	34120
697.620	33751
697.661	33638
697.682	33426
697.703	34185
697.744	35527
697.786	36955
697.801	37354
697.828	37160
697.869	36678
697.911	36210
697.921	36010
697.952	35707
697.994	35155
698.035	34622
698.040	34468
698.077	35037
698.118	35599
698.160	36122
698.160	36031
698.201	37059
698.243	38035
698.279	38780
698.284	38960
698.325	39701
698.367	40471
698.399	40922
698.408	41150
698.449	41745
698.491	42362
698.518	42653
698.532	42701
698.573	42506
698.614	42314
698.638	42102
698.656	42212
698.697	42192
698.738	42193
698.757	42083
698.779	42184
698.820	42158
698.862	42153
698.877	42039
698.903	42004
698.944	41777
698.985	41544
698.996	41374
699.026	41583
699.067	41725
699.116	41787
699.235	42477
699.354	41867
699.474	38415
699.593	38503
699.713	38798
699.832	39051
699.951	40527
700.070	40884
700.190	38090
700.309	36150
700.428	35266
700.547	34912
700.667	34556
700.786	35024
700.905	34223
701.024	33822
701.143	33570
701.262	35744
701.381	35867
701.500	36452
701.619	35125
701.738	35557
701.857	35298
701.976	33719
702.095	34957
702.214	35633
702.333	32882
702.452	35141
702.571	35841
702.690	35005
702.809	35664
702.928	32814
703.047	31951
703.165	31531
703.284	31755
703.403	30489
703.522	30850
703.640	29969
703.759	30087
703.878	29422
703.997	30824
704.115	31241
704.234	30556
704.353	30945
704.471	28481
704.590	27965
704.708	28599
704.827	27692
704.946	27266
705.064	27641
705.183	26541
705.301	27352
705.420	26484
705.538	26474
705.656	25927
705.775	24844
705.893	27374
706.012	27645
706.130	25778
706.249	26947
706.367	25305
706.485	25127
706.604	24318
706.722	25107
706.840	26741
706.958	30028
707.077	25689
707.195	24356
707.313	23737
707.431	21434
707.549	22284
707.668	20947
707.786	23924
707.904	23115
708.022	24302
708.140	22270
708.258	20704
708.376	23427
708.494	20503
708.612	23093
708.730	23885
708.848	22180
708.966	22381
709.084	22706
709.202	22522
709.320	20829
709.438	20149
709.556	20721
709.674	19499
709.791	19698
709.909	19450
710.027	19924
710.145	18919
710.263	18881
710.380	19245
710.498	18904
710.616	19020
710.733	18511
710.851	18294
710.969	19030
711.086	18152
711.204	18898
711.322	18321
711.439	18012
711.557	17549
711.674	18308
711.792	18005
711.909	16749
712.027	17424
712.144	16982
712.262	18195
712.379	17900
712.497	18128
712.614	17032
712.732	18110
712.849	16652
712.966	17072
713.084	18172
713.201	15822
713.318	17215
713.436	18627
713.553	17415
713.670	18150
713.787	17571
713.905	16866
714.022	18061
714.139	19378
714.256	22022
714.373	28638
714.490	52747
714.608	126991
714.725	469104
714.842	450709
714.959	60475
715.076	27401
715.193	21512
715.310	20473
715.427	16581
715.544	17483
715.661	16357
715.778	15147
715.895	15558
716.011	15488
716.128	14762
716.245	15760
716.362	14967
716.479	13050
716.596	14316
716.713	14500
716.829	14063
716.946	12938
717.063	12890
717.180	13148
717.296	14175
717.413	14105
717.530	13521
717.646	12280
717.763	12410
717.880	12805
717.996	11875
718.113	12332
718.229	10893
718.346	11533
718.462	12192
718.579	11952
718.695	12700
718.812	12175
718.928	12282
719.045	11367
719.161	11921
719.277	11246
719.394	12830
719.510	12067
719.626	13597
719.743	16298
719.859	24014
719.975	48110
720.092	177830
720.208	368330
720.324	53818
720.440	17993
720.557	14594
720.673	13703
720.789	12867
720.905	12883
721.021	11833
721.137	10802
721.253	10328
721.369	9936
721.486	11723
721.602	11398
721.718	9675
721.834	11253
721.950	11002
722.066	9539
722.181	10388
722.297	11477
722.413	10042
722.529	10360
722.645	10425
722.761	9933
722.877	9541
722.993	11046
723.108	14343
723.224	11326
723.340	10509
723.456	9372
723.571	9413
723.687	8278
723.803	9668
723.918	9650
724.034	8720
724.150	9361
724.265	9454
724.381	8231
724.497	8461
724.612	9125
724.728	9364
724.843	8448
724.959	8652
725.074	9425
725.190	9469
725.305	9032
725.421	7724
725.536	9808
725.651	9687
725.767	9630
725.882	9438
725.997	8876
726.113	9650
726.228	8828
726.343	8781
726.459	8542
726.574	9111
726.689	8924
726.804	8925
726.920	8388
727.035	8525
727.150	9376
727.265	7618
727.380	8236
727.495	9000
727.610	8200
727.725	8092
727.841	9001
727.956	9384
728.071	9674
728.186	8516
728.301	7465
728.416	9185
728.531	8484
728.645	7087
728.760	7975
728.875	8696
728.990	8265
729.105	8476
729.220	7684
729.335	8524
729.449	8172
729.564	8288
729.679	7570
729.794	9085
729.908	8260
730.023	8711
730.138	8855
730.253	8355
730.367	8396
730.482	9259
730.596	8799
730.711	10072
730.826	13868
730.940	12966
731.055	11109
731.169	11639
731.284	12489
731.398	11251
731.513	11637
731.627	13360
731.742	16605
731.856	20052
731.970	20787
732.085	23315
732.199	32947
732.313	55434
732.428	139325
732.542	377466
732.656	225837
732.771	51282
732.885	30660
732.999	27255
733.113	29261
733.227	27655
733.342	27170
733.456	26320
733.570	24354
733.684	23444
733.798	22314
733.912	23093
734.026	23433
734.140	22726
734.254	22307
734.368	21940
734.482	21808
734.596	21843
734.710	20476
734.824	21446
734.938	20515
735.052	21612
735.166	20862
735.280	20600
735.393	20327
735.507	20601
735.621	19938
735.735	19194
735.849	20140
735.962	18324
736.076	19090
736.190	17761
736.303	19161
736.417	19842
736.531	18038
736.644	18579
736.758	17707
736.872	18064
736.985	18449
737.099	17451
737.212	16841
737.326	16841
737.439	18625
737.553	16959
737.666	17543
737.780	16520
737.893	17642
738.007	15710
738.120	17257
738.233	15048
738.347	16372
738.460	15185
738.573	17585
738.687	15418
738.800	16728
738.913	17003
739.026	15814
739.140	15101
739.253	15850
739.366	15177
739.479	14673
739.592	16103
739.705	13938
739.818	17245
739.932	13657
740.045	15209
740.158	14431
740.271	14986
740.384	15286
740.497	12914
740.610	15100
740.723	13873
740.836	13623
740.949	14383
741.062	15090
741.174	12963
741.287	13776
741.400	15057
741.513	12331
741.626	14268
741.739	13104
741.851	12908
741.964	13987
742.077	12720
742.189	11480
742.302	13687
742.415	13065
742.527	12778
742.640	13281
742.753	11608
742.865	12714
742.978	11718
743.090	11373
743.203	12912
743.316	10856
743.428	12106
743.541	12976
743.653	10575
743.766	12206
743.878	12340
743.990	10959
744.103	11221
744.215	11888
744.327	9668
744.440	13346
744.552	10911
744.664	11243
744.777	11971
744.889	11034
745.001	10785
745.113	12003
745.226	11334
745.338	10355
745.450	13016
745.562	11122
745.674	9847
745.786	11833
745.898	10704
746.010	9295
746.122	10970
746.234	11317
746.347	10677
746.459	10191
746.570	8452
746.682	11883
746.794	11994
746.906	9318
747.018	10320
747.130	10606
747.242	8836
747.354	8798
747.466	9931
747.577	9489
747.689	10273
747.801	9951
747.913	9456
748.024	9537
748.136	9073
748.248	9308
748.359	8989
748.471	10411
748.583	8692
748.694	8294
748.806	9621
748.918	8096
749.029	8564
749.141	8689
749.252	9818
749.364	7579
749.475	8478
749.587	7927
749.698	8467
749.809	10251
749.921	8944
750.032	8396
750.144	7966
750.255	8225
750.366	8708
750.478	7647
750.589	8535
750.700	7489
750.811	8833
750.923	7783
751.034	7337
751.145	9394
751.256	8117
751.367	6697
751.479	8003
751.590	7435
751.701	7073
751.812	8080
751.923	7088
752.034	9656
752.145	8147
752.256	8502
752.367	7032
752.478	7682
752.589	7868
752.700	7664
752.811	6931
752.922	6952
753.032	7983
753.143	7830
753.254	7081
753.365	8781
753.476	8463
753.586	7356
753.697	6887
753.808	8191
753.919	6718
754.029	7845
754.140	6863
754.251	7118
754.361	6298
754.472	7606
754.582	6526
754.693	6127
754.804	8169
754.914	7258
755.025	5835
755.135	7511
755.246	8316
755.356	6749
755.466	6872
755.577	6052
755.687	7710
755.798	6417
755.908	6784
756.018	6422
756.129	6847
756.239	6995
756.349	7159
756.460	6987
756.570	7609
756.680	6843
756.790	6784
756.900	7682
757.011	7131
757.121	6154
757.231	6494
757.341	6427
757.451	6105
757.561	6307
757.671	7135
757.781	6861
757.891	6972
758.001	5175
758.111	7360
758.221	7770
758.331	7861
758.441	6723
758.551	6371
758.661	7136
758.771	7676
758.880	6939
758.990	6995
759.100	6283
759.210	6872
759.320	8092
759.429	5607
759.539	8159
759.649	7157
759.758	9263
759.868	9342
759.978	8610
760.087	10481
760.197	8867
760.307	9752
760.416	7857
760.526	7144
760.635	9035
760.745	9097
760.854	9330
760.964	11358
761.073	11994
761.182	10962
761.292	8999
761.401	7536
761.511	6974
761.620	6580
761.729	7362
761.839	5535
761.948	7526
762.057	4988
762.166	6869
762.276	6440
762.385	6844
762.494	6621
762.603	6764
762.712	5771
762.822	6651
762.931	6090
763.040	5450
763.149	6199
763.258	6265
763.367	6620
763.476	5910
763.585	6267
763.694	6594
763.803	6889
763.912	7273
764.021	6642
764.130	6503
764.238	6834
764.347	7757
764.456	7599
764.565	7013
764.674	7355
764.783	7517
764.891	8439
765.000	10319
765.109	9358
765.217	9857
765.326	11539
765.435	12894
765.543	14655
765.652	17314
765.761	22087
765.869	28758
765.978	42737
766.086	68023
766.195	122078
766.303	230871
766.412	320477
766.520	262365
766.629	200930
766.737	105654
766.846	61989
766.954	40494
767.062	30525
767.171	23927
767.279	20423
767.387	16979
767.496	14148
767.604	13065
767.712	11251
767.820	10941
767.928	11219
768.037	9462
768.145	10502
768.253	8912
768.361	9486
768.469	8805
768.577	8367
768.685	8845
768.793	10629
768.901	10236
769.009	11240
769.117	12220
769.225	14987
769.333	19769
769.441	29958
769.549	50631
769.657	101952
769.765	223923
769.873	264524
769.981	186765
770.088	85897
770.196	44704
770.304	29525
770.412	22168
770.519	17128
770.627	14858
770.735	13389
770.842	12420
770.950	11254
771.058	10886
771.165	12183
771.273	13654
771.380	12618
771.488	15700
771.595	18720
771.703	15656
771.810	14605
771.918	15771
772.025	17316
772.133	19430
772.240	18824
772.348	21980
772.455	19569
772.562	17643
772.670	16745
772.777	18230
772.884	17711
772.991	16034
773.099	18134
773.206	15287
773.313	17665
773.420	16308
773.528	15904
773.635	15345
773.742	17565
773.849	15314
773.956	16501
774.063	14731
774.170	15934
774.277	15540
774.384	14157
774.491	14356
774.598	15458
774.705	14443
774.812	15094
774.919	14516
775.026	15450
775.133	13828
775.239	14833
775.346	12850
775.453	13303
775.560	13311
775.667	15034
775.773	12927
775.880	13534
775.987	13799
776.093	13924
776.200	15487
776.307	10301
776.413	12347
776.520	14295
776.627	13222
776.733	11983
776.840	10709
776.946	15983
777.053	12227
777.159	12169
777.266	11731
777.372	11832
777.478	13027
777.585	13272
777.691	9595
777.798	12992
777.904	11515
778.010	10403
778.117	12409
778.223	11228
778.329	11404
778.435	10248
778.542	12430
778.648	11693
778.754	9662
778.860	11585
778.966	11710
779.072	10103
779.178	11125
779.284	8676
779.391	9961
779.497	10749
779.603	11585
779.708	10218
779.815	11499
779.920	22010
780.026	34916
780.132	12132
780.238	10162
780.344	9313
780.450	12272
780.556	8890
780.661	8132
780.767	12194
780.873	7303
780.979	8780
781.085	9917
781.190	8594
781.296	8678
781.402	9322
781.507	9323
781.613	6961
781.719	7879
781.824	10331
781.930	9448
782.035	8840
782.141	9539
782.246	7076
782.352	7617
782.457	9042
782.563	8547
782.668	8248
782.773	7455
782.879	6543
782.984	8284
783.090	8999
783.195	7882
783.300	9881
783.405	7758
783.511	6560
783.616	7487
783.721	8166
783.826	7226
783.932	6784
784.037	8548
784.142	7987
784.247	7252
784.352	7934
784.457	6749
784.562	8157
784.667	8188
784.772	5862
784.877	4256
784.982	7526
785.087	8448
785.192	6307
785.297	6347
785.402	7377
785.507	6796
785.611	7012
785.716	5010
785.821	6805
785.926	7469
786.031	6355
786.135	7317
786.240	6700
786.345	5567
786.450	6432
786.554	7121
786.659	5431
786.763	5789
786.868	6794
786.973	7343
787.077	6046
787.182	5504
787.286	6651
787.391	7797
787.495	4448
787.600	4358
787.704	6344
787.809	6730
787.913	5978
788.017	5730
788.122	6204
788.226	6132
788.330	3634
788.435	5761
788.539	7326
788.643	5509
788.747	4472
788.852	6208
788.956	5969
789.060	6640
789.164	6250
789.268	5957
789.372	6364
789.476	4579
789.580	3727
789.684	5004
789.788	6753
789.892	6572
789.996	5164
790.100	4049
790.204	5121
790.308	6273
790.412	4491
790.516	3973
790.620	4169
790.724	7092
790.828	5751
790.931	3530
791.035	5564
791.139	4705
791.242	4825
791.346	5645
791.450	5231
791.554	4389
791.657	2947
791.761	5676
791.864	5591
791.968	5347
792.072	5733
792.175	4118
792.279	4401
792.382	4825
792.486	3876
792.589	4440
792.693	5425
792.796	3327
792.899	4821
793.003	5358
793.106	3741
793.209	4470
793.313	4545
793.416	2967
793.519	4036
793.623	5274
793.726	5459
793.829	3597
793.932	3547
794.035	2266
794.138	5773
794.242	5193
794.345	3240
794.448	3274
794.551	4627
794.654	10425
794.757	17585
794.860	5092
794.963	4417
795.066	3674
795.169	3744
795.272	3790
795.375	5425
795.477	2874
795.580	3282
795.683	2171
795.786	4153
795.889	2764
795.991	4543
796.094	3576
796.197	3126
796.300	5714
796.402	5031
796.505	3219
796.608	2733
796.710	3816
796.813	4377
796.915	4376
797.018	3762
797.120	3872
797.223	3231
797.326	4798
797.428	3221
797.530	1996
797.633	2520
797.735	4359
797.838	3187
797.940	4837
798.042	3664
798.145	3645
798.247	3443
798.349	2486
798.452	4673
798.554	3276
798.656	3086
798.758	5464
798.860	3808
798.962	4032
799.065	2193
799.167	2532
799.269	4177
799.371	4636
799.473	5404
799.575	3463
799.677	2906
799.779	4286
799.881	2229
799.983	4167
800.085	3366
800.187	4000
800.289	2038
800.390	3187
800.492	4797
800.594	3503
800.696	2477
800.798	2902
800.899	2755
801.001	2698
801.103	2877
801.205	3393
801.306	3088
801.408	3195
801.509	2902
801.611	3242
801.713	3263
801.814	2309
801.916	2151
802.017	2093
802.119	2261
802.220	2980
802.322	2243
802.423	3764
802.525	1052
802.626	2146
802.727	3386
802.829	3162
802.930	733
803.031	3156
803.133	2523
803.234	3274
803.335	3694
803.436	2799
803.538	2511
803.639	1585
803.740	3070
803.841	3031
803.942	4435
804.043	3304
804.144	2460
804.245	2321
804.346	1947
804.447	1850
804.548	2435
804.649	4258
804.750	1645
804.851	3132
804.952	2387
805.053	3387
805.154	1288
805.255	3115
805.355	3114
805.456	2164
805.557	1975
805.658	2121
805.758	3098
805.859	2780
805.960	2832
806.061	2147
806.161	1863
806.262	2505
806.362	1452
806.463	1941
806.564	3950
806.664	2491
806.765	1969
806.865	2856
806.966	1986
807.066	1412
807.166	3242
807.267	3001
807.367	1827
807.468	3541
807.568	1254
807.668	3033
807.769	3025
807.869	1800
807.969	2721
808.069	1780
808.170	2024
808.270	1964
808.370	3024
808.470	2598
808.570	1928
808.670	2855
808.770	1762
808.870	1432
808.970	2357
809.070	2163
809.170	1718
809.271	2348
809.370	2491
809.470	1794
809.570	2472
809.670	1336
809.770	3054
809.870	2389
809.970	2341
810.070	2177
810.169	2717
810.269	1394
810.369	2793
810.469	2560
810.568	2049
810.668	2099
810.768	1851
810.867	2018
810.967	1563
811.066	1025
811.166	2277
811.265	3774
811.365	1501
811.464	1804
811.564	2063
811.663	2327
811.763	1129
811.862	2616
811.962	3131
812.061	2330
812.160	2104
812.260	1848
812.359	1905
812.458	1274
812.557	3103
812.657	2300
812.756	3088
812.855	2583
812.954	1808
813.053	2058
813.153	2019
813.252	891
813.351	2794
813.450	3024
813.549	1479
813.648	2854
813.747	1492
813.846	2175
813.945	2084
814.044	2168
814.143	2989
814.242	3266
814.341	2023
814.439	3052
814.538	4334
814.637	3253
814.736	3318
814.835	4168
814.933	3129
815.032	4793
815.131	5571
815.229	10727
815.328	16585
815.427	10740
815.525	9393
815.624	9818
815.722	8693
815.821	10433
815.919	10897
816.018	9719
816.116	10241
816.215	9741
816.313	10831
816.412	12621
816.510	13522
816.609	14440
816.707	15093
816.805	13927
816.904	12421
817.002	13415
817.100	13405
817.198	14512
817.296	11414
817.395	12445
817.493	13483
817.591	10888
817.689	12741
817.787	12558
817.885	12046
817.983	12345
818.081	15082
818.179	19529
818.277	38077
818.375	32463
818.473	15901
818.571	11453
818.669	13476
818.767	13560
818.865	11707
818.963	10518
819.061	12622
819.158	12767
819.256	20447
819.354	29802
819.452	60714
819.549	39153
819.647	16978
819.745	11739
819.842	10513
819.940	11488
820.038	10431
820.135	10219
820.233	11351
820.330	10058
820.428	8795
820.525	10862
820.623	10041
820.720	9401
820.818	10176
820.915	10782
821.012	9083
821.110	8123
821.207	10287
821.304	8465
821.402	10184
821.499	9789
821.596	8334
821.693	9111
821.791	10069
821.888	8768
821.985	9369
822.082	7265
822.179	9015
822.276	9515
822.373	7638
822.470	8112
822.567	9339
822.664	7592
822.761	7884
822.858	9071
822.955	7187
823.052	6156
823.149	8441
823.246	8968
823.343	7014
823.440	7119
823.536	8502
823.633	8341
823.730	6438
823.827	8982
823.923	6937
824.020	6817
824.117	7851
824.213	8343
824.310	6732
824.407	5929
824.503	7760
824.600	7578
824.696	5713
824.793	8229
824.889	7747
824.986	6745
825.082	4854
825.179	6261
825.275	7731
825.371	8648
825.468	7039
825.564	3875
825.660	7833
825.757	9526
825.853	7044
825.949	5739
826.045	6181
826.142	6288
826.238	8176
826.334	7497
826.430	6854
826.526	3985
826.622	3744
826.718	6645
826.814	8195
826.910	6472
827.006	3516
827.102	4699
827.198	6714
827.294	8249
827.390	6941
827.486	5083
827.582	3873
827.678	5099
827.774	8270
827.869	4964
827.965	5752
828.061	3977
828.157	8218
828.252	6657
828.348	5066
828.444	4693
828.539	4169
828.635	5014
828.731	6256
828.826	4576
828.922	6753
829.017	6149
829.113	6332
829.208	4615
829.304	5255
829.399	7078
829.495	6157
829.590	5618
829.685	5033
829.781	6175
829.876	6400
829.971	2816
830.066	2444
830.162	4634
830.257	8355
830.352	5618
830.447	4200
830.543	4420
830.638	4455
830.733	7453
830.828	4354
830.923	5516
831.018	5276
831.113	6686
831.208	4601
831.303	3153
831.398	3955
831.493	4597
831.588	8451
831.683	4154
831.778	2818
831.873	3369
831.967	6121
832.062	4828
832.157	5058
832.252	4789
832.346	3618
832.441	5681
832.536	3937
832.631	5788
832.725	3612
832.820	3806
832.914	5535
833.009	2762
833.104	3842
833.198	3403
833.293	4096
833.387	5428
833.482	4254
833.576	4357
833.670	4471
833.765	3392
833.859	4908
833.954	5191
834.048	4154
834.142	4307
834.237	2650
834.331	3915
834.425	4501
834.519	4020
834.613	3967
834.708	3527
834.802	3930
834.896	3456
834.990	4474
835.084	2757
835.178	3141
835.272	2833
835.366	5073
835.460	5275
835.554	4440
835.648	2042
835.742	2076
835.836	1967
835.930	3014
836.024	4391
836.117	4443
836.211	2994
836.305	3590
836.399	3042
836.493	2237
836.586	5115
836.680	3827
836.774	3127
836.867	3761
836.961	2484
837.055	2130
837.148	3170
837.242	3888
837.335	3534
837.429	3019
837.522	2539
837.616	1664
837.709	2540
837.803	2930
837.896	4316
837.989	3589
838.083	2964
838.176	2807
838.269	1877
838.363	3660
838.456	1932
838.549	3498
838.642	2948
838.735	2810
838.829	4127
838.922	2677
839.015	2944
839.108	2138
839.201	3056
839.294	3695
839.387	3219
839.480	1616
839.573	2288
839.666	2135
839.759	2860
839.852	2570
839.945	3129
840.038	2524
840.131	1563
840.223	2146
840.316	2461
840.409	3289
840.502	4026
840.594	4564
840.687	1367
840.780	855
840.873	1572
840.965	1506
841.058	2487
841.150	3924
841.243	1436
841.336	2740
841.428	2126
841.521	2021
841.613	2450
841.706	2545
841.798	1473
841.890	3073
841.983	2021
842.075	2937
842.167	2518
842.260	2720
842.352	3722
842.444	2393
842.537	2241
842.629	1784
842.721	1519
842.813	2280
842.905	1695
842.997	2624
843.090	2101
843.182	2089
843.274	687
843.366	2906
843.458	2517
843.550	4100
843.642	2523
843.734	1738
843.826	689
843.918	1138
844.009	2109
844.101	2135
844.193	2068
844.285	2298
844.377	2498
844.469	2560
844.560	940
844.652	1665
844.744	1435
844.835	1592
844.927	2132
845.019	2646
845.110	2098
845.202	2795
845.293	1534
845.385	1162
845.476	1851
845.568	3194
845.659	786
845.751	990
845.842	1746
845.934	1990
846.025	1820
846.116	1819
846.208	1785
846.299	734
846.390	1994
846.482	823
846.573	1607
846.664	1582
846.755	2444
846.846	2181
846.937	462
847.029	1804
847.120	1473
847.211	1010
847.302	2585
847.393	1325
847.484	2667
847.575	851
847.666	-89
847.757	1358
847.847	2257
847.938	2839
848.029	2441
848.120	1654
848.211	988
848.302	1325
848.392	2314
848.483	2177
848.574	1502
848.664	1399
848.755	1858
848.846	1093
848.936	1445
849.027	1821
849.118	1653
849.208	1343
849.299	2190
849.389	4767
849.480	8844
849.570	15249
849.661	28797
849.751	47600
849.841	18521
849.932	3977
850.022	2258
850.112	1934
850.203	1704
850.293	1353
850.383	1829
850.474	1444
850.564	1028
850.654	1312
850.744	532
850.834	1668
850.924	2261
851.014	2680
851.104	1859
851.194	1301
851.284	1730
851.374	633
851.464	1908
851.554	1368
851.644	1203
851.734	1487
851.824	1729
851.914	2191
852.004	1907
852.094	1430
852.183	1488
852.273	1694
852.363	1396
852.452	1933
852.542	1972
852.632	1094
852.721	1679
852.811	1841
852.901	2362
852.990	2731
853.080	3056
853.169	1865
853.259	1759
853.348	2589
853.438	3494
853.527	4285
853.617	4607
853.706	9724
853.795	17250
853.885	33319
853.974	56143
854.063	98994
854.152	132728
854.242	59946
854.331	17383
854.420	7750
854.509	5633
854.598	4501
854.687	3759
854.777	2934
854.866	1831
854.955	3309
855.044	912
855.133	1934
855.222	2045
855.311	1510
855.400	2080
855.488	1515
855.577	1763
855.666	1645
855.755	1886
855.844	1573
855.933	1320
856.021	2241
856.110	1566
856.199	1150
856.288	346
856.376	1955
856.465	-170
856.554	1941
856.642	1280
856.731	2168
856.819	1371
856.908	2059
856.996	1291
857.085	1044
857.173	1271
857.262	861
857.350	853
857.438	1021
857.527	1358
857.615	1658
857.703	2098
857.792	999
857.880	1102
857.968	1348
858.056	820
858.145	1471
858.233	1106
858.321	1760
858.409	1747
858.497	1148
858.585	2010
858.673	1261
858.761	403
858.849	1314
858.937	672
859.025	1464
859.113	595
859.201	1097
859.289	2068
859.377	1981
859.465	1148
859.552	1602
859.640	804
859.728	1346
859.816	1385
859.903	591
859.991	622
860.079	2058
860.166	2049
860.254	1345
860.342	939
860.429	1173
860.517	1789
860.604	909
860.692	1082
860.779	1543
860.867	1380
860.954	1716
861.042	1636
861.129	2042
861.216	1559
861.304	1939
861.391	2058
861.478	1613
861.565	862
861.653	2365
861.740	472
861.827	1812
861.914	1179
862.001	1546
862.089	1625
862.176	2296
862.263	1278
862.350	1637
862.437	1773
862.524	1391
862.611	1168
862.698	2065
862.785	2436
862.871	2023
862.958	2174
863.045	1775
863.132	1936
863.219	1934
863.306	385
863.392	2273
863.479	1186
863.566	1478
863.652	1714
863.739	1955
863.826	2427
863.912	2625
863.999	1738
864.086	1778
864.172	1909
864.259	2717
864.345	2424
864.432	2058
864.518	2334
864.604	2621
864.691	3258
864.777	3318
864.863	4622
864.950	6050
865.036	8398
865.122	14909
865.209	14873
865.295	14028
865.381	12377
865.467	12290
865.553	13028
865.639	13718
865.726	17592
865.812	24746
865.898	39616
865.984	54528
866.070	88807
866.156	90256
866.242	37015
866.328	18336
866.414	13596
866.499	12456
866.585	12479
866.671	10681
866.757	10332
866.843	10621
866.928	10613
867.014	10132
867.100	10464
867.186	9903
867.271	9619
867.357	9686
867.442	9225
867.528	10274
867.614	8887
867.699	8923
867.785	9995
867.870	9191
867.956	9736
868.041	10703
868.127	8898
868.212	9312
868.297	7849
868.383	9376
868.468	8948
868.553	8608
868.639	7339
868.724	8793
868.809	9831
868.894	8299
868.979	8024
869.065	9037
869.150	7218
869.235	8389
869.320	8199
869.405	7252
869.490	9486
869.575	8937
869.660	7218
869.745	8865
869.830	8994
869.915	7385
870.000	7210
870.085	7263
870.169	9415
870.254	9809
870.339	5691
870.424	6710
870.509	7592
870.593	8810
870.678	9346
870.763	7163
870.847	6706
870.932	8103
871.016	8216
871.101	6044
871.186	7111
871.270	10015
871.355	5952
871.439	7521
871.523	8851
871.608	6444
871.692	5668
871.777	8682
871.861	8248
871.945	6780
872.030	8179
872.114	6930
872.198	7219
872.282	5306
872.367	7220
872.451	6356
872.535	6985
872.619	7148
872.703	5885
872.787	7288
872.871	7120
872.955	6025
873.039	3719
873.123	5962
873.207	7531
873.291	4995
873.375	5193
873.459	7917
873.543	6202
873.627	5498
873.711	4747
873.794	6287
873.878	7102
873.962	4745
874.045	6386
874.129	5874
874.137	5817
874.213	5249
874.245	5503
874.296	5923
874.352	4924
874.380	4439
874.460	4954
874.464	4976
874.547	4388
874.568	4772
874.631	5913
874.676	5352
874.714	4873
874.784	6093
874.798	6344
874.881	5871
874.892	5597
874.965	3710
874.999	4735
875.048	6131
875.107	5857
875.131	5743
875.215	3849
875.215	3848
875.298	3363
875.323	3952
875.381	5311
875.430	6284
875.465	6975
875.538	5458
875.548	5247
875.631	3647
875.646	3547
875.714	3104
875.753	3494
875.798	3985
875.861	5160
875.881	5496
875.964	4310
875.968	4274
876.047	3614
876.076	4118
876.130	5188
876.183	5045
876.213	4942
876.291	5284
876.296	5295
876.379	4431
876.398	4158
876.462	3336
876.506	3524
876.545	3703
876.613	3868
876.628	3906
876.711	3821
876.721	3978
876.794	5279
876.828	5126
876.877	4679
876.935	3270
876.960	2791
877.043	2727
877.043	2735
877.125	4397
877.150	4698
877.208	5294
877.258	4626
877.291	4192
877.365	3465
877.374	3379
877.456	3032
877.472	2935
877.539	2618
877.579	3225
877.622	3760
877.687	3641
877.704	3643
877.787	3768
877.794	3769
877.869	3615
877.901	3667
877.952	3933
878.008	3317
878.034	2900
878.115	2199
878.117	2192
878.199	2563
878.222	2849
878.282	3228
878.329	4022
878.364	4808
878.437	4052
878.447	3900
878.529	2620
878.544	2697
878.611	3157
878.651	3013
878.694	2867
878.758	3196
878.776	3322
878.858	4195
878.865	4121
878.941	2588
878.972	2237
879.023	2020
879.078	2338
879.105	2503
879.185	3462
879.187	3474
879.269	2914
879.292	2988
879.351	3313
879.399	3041
879.433	2782
879.506	2833
879.516	2839
879.598	2850
879.613	2762
879.680	2492
879.720	2770
879.762	2891
879.827	2863
879.844	2886
879.926	2370
879.933	2445
880.007	3369
880.040	2928
880.089	2098
880.147	2532
880.171	2694
880.253	3319
880.254	3319
880.335	2650
880.360	3041
880.417	4082
880.467	4192
880.499	4246
880.574	3920
880.580	3866
880.662	3617
880.680	3401
880.744	2547
880.787	2399
880.825	2387
880.893	2460
880.907	2412
880.989	2135
881.000	2112
881.070	2494
881.106	2806
881.152	2875
881.213	2195
881.233	2039
881.315	2338
881.319	2346
881.396	2458
881.426	2434
881.478	2425
881.532	2824
881.559	2972
881.639	2258
881.641	2236
881.722	2194
881.745	2286
881.803	2715
881.852	2524
881.885	2114
881.958	1578
881.966	1613
882.047	2449
882.064	2400
882.129	1536
882.171	1415
882.210	1402
882.277	1196
882.291	1228
882.372	2191
882.383	2236
882.454	2424
882.489	2522
882.535	2389
882.596	2597
882.616	2754
882.697	2724
882.702	2709
882.778	2056
882.808	1784
882.859	1539
882.914	1633
882.940	1600
883.020	1869
883.021	1872
883.102	2204
883.127	2366
883.183	2767
883.233	2812
883.264	2522
883.339	1315
883.345	1268
883.426	919
883.445	1123
883.507	1635
883.551	1800
883.587	1900
883.657	1992
883.668	2118
883.749	2746
883.763	2812
883.830	1880
883.869	1369
883.910	1155
883.975	1345
883.991	1439
884.072	1184
884.081	1239
884.152	2017
884.187	2368
884.233	2509
884.292	2030
884.314	1853
884.394	1165
884.398	1165
884.475	1160
884.504	1257
884.555	1321
884.610	944
884.636	827
884.716	1250
884.716	1254
884.797	2344
884.821	2525
884.877	2387
884.927	2262
884.958	1995
885.033	1332
885.038	1299
885.118	960
885.139	925
885.199	1371
885.244	1725
885.279	1760
885.350	1707
885.359	1740
885.439	2310
885.456	2281
885.520	1990
885.561	1972
885.600	1508
885.667	927
885.680	1001
885.760	1390
885.773	1408
885.840	896
885.878	629
885.920	709
885.984	1265
886.000	1423
886.080	1626
886.089	1720
886.160	2009
886.195	1832
886.240	1398
886.300	1077
886.320	1086
886.400	1168
886.406	1163
886.480	832
886.511	749
886.560	1114
886.616	1484
886.640	1348
886.720	1240
886.722	1234
886.800	1502
886.827	1601
886.879	1776
886.932	1999
886.959	2118
887.038	2354
887.039	2346
887.119	1743
887.143	1549
887.198	1179
887.248	785
887.278	685
887.354	775
887.358	801
887.437	1187
887.459	1308
887.517	1392
887.564	1414
887.596	1168
887.669	627
887.676	632
887.755	819
887.774	851
887.835	843
887.880	926
887.914	1104
887.985	1333
887.994	1348
888.073	1674
888.090	1696
888.153	1876
888.195	2008
888.232	1693
888.300	1125
888.311	1119
888.391	1265
888.405	1256
888.470	1074
888.510	1029
888.549	1072
888.615	1216
888.628	1281
888.708	1587
888.720	1637
888.787	1531
888.825	1444
888.866	1012
888.930	429
888.945	618
889.024	1696
889.035	1830
889.103	1464
889.140	1289
889.182	1065
889.245	757
889.261	825
889.340	1162
889.349	1207
889.419	1030
889.454	937
889.498	488
889.559	-103
889.577	171
889.656	1412
889.664	1543
889.735	1540
889.768	1542
889.814	1388
889.873	1190
889.978	1337
890.083	1008
890.187	497
890.292	1104
890.397	622
890.501	1438
890.606	1261
890.710	2004
890.815	1472
890.919	922
891.024	850
891.128	1235
891.233	1465
891.337	1444
891.442	1069
891.546	1479
891.650	389
891.755	1079
891.859	1666
891.963	1511
892.068	1260
892.172	465
892.276	776
892.380	897
892.484	1996
892.589	1845
892.693	1757
892.797	747
892.901	990
893.005	492
893.109	829
893.213	1753
893.317	1437
893.421	303
893.525	230
893.629	530
893.733	835
893.837	580
893.941	1170
894.045	1284
894.148	820
894.252	262
894.356	1200
894.460	2489
894.564	894
894.667	781
894.771	114
894.875	599
894.978	1155
895.082	427
895.186	892
895.289	2271
895.393	893
895.496	1127
895.600	494
895.703	-42
895.807	592
895.910	1455
896.014	1015
896.117	730
896.221	1823
896.324	219
896.427	685
896.531	1132
896.634	375
896.737	1169
896.840	1087
896.944	307
897.047	928
897.150	1125
897.253	17
897.356	909
897.460	-190
897.563	-228
897.666	197
897.769	1465
897.872	436
897.975	527
898.078	822
898.181	623
898.284	-52
898.387	482
898.490	1549
898.593	654
898.695	1122
898.798	863
898.901	1165
899.004	782
899.107	596
899.209	278
899.312	1486
899.415	264
899.518	767
899.620	173
899.723	946
899.826	853
899.928	1747
900.031	843
900.133	593
900.236	694
900.338	566
900.441	731
900.543	588
900.646	672
900.748	1127
900.851	1136
900.953	1003
901.055	874
901.158	70
901.260	482
901.362	354
901.465	305
901.567	963
901.669	878
901.771	368
901.873	903
901.976	935
902.078	1118
902.180	535
902.282	265
902.384	233
902.486	659
902.588	924
902.690	-490
902.792	-59
902.894	970
902.996	-359
903.098	656
903.200	702
903.302	53
903.404	935
903.505	383
903.607	823
903.709	1361
903.811	478
903.913	552
904.014	652
904.116	468
904.218	166
904.319	1006
904.421	941
904.523	556
904.624	700
904.726	494
904.827	-652
904.929	-339
905.030	1147
905.132	1162
905.233	838
905.335	35
905.436	-27
905.537	-8
905.639	418
905.740	527
905.841	983
905.943	1012
906.044	244
906.145	33
906.247	-262
906.348	-272
906.449	905
906.550	690
906.651	432
906.752	-128
906.854	749
906.955	353
907.056	453
907.157	655
907.258	894
907.359	650
907.460	262
907.561	-314
907.662	672
907.762	1358
907.863	720
907.964	584
908.065	202
908.166	36
908.267	686
908.367	138
908.468	29
908.569	328
908.670	329
908.770	608
908.871	817
908.971	803
909.072	400
909.173	447
909.273	846
909.374	-82
909.474	344
909.575	587
909.675	258
909.776	1008
909.876	491
909.977	594
910.077	355
910.177	806
910.278	479
910.378	52
910.478	35
910.579	854
910.679	434
910.779	1108
910.879	374
910.980	819
911.080	430
911.180	844
911.280	-159
911.380	156
911.480	1204
911.580	104
911.680	412
911.780	683
911.880	325
911.980	1064
912.080	951
912.180	616
912.280	-160
912.380	869
912.480	80
912.580	-35
912.679	134
912.779	521
912.879	143
912.979	-203
913.078	283
913.178	-291
913.278	359
913.377	688
913.477	691
913.577	-2
913.676	391
913.776	75
913.875	617
913.975	-191
914.074	-336
914.174	1238
914.273	357
914.373	499
914.472	433
914.572	36
914.671	571
914.770	-407
914.870	756
914.969	583
915.068	673
915.167	55
915.267	-219
915.366	226
915.465	605
915.564	1493
915.663	103
915.763	359
915.862	1078
915.961	1244
916.060	898
916.159	34
916.258	-302
916.357	753
916.456	113
916.555	297
916.654	590
916.752	557
916.851	-21
916.950	-56
917.049	495
917.148	792
917.247	653
917.345	-539
917.444	-19
917.543	549
917.642	-171
917.740	1568
917.839	878
917.937	1314
918.036	916
918.135	115
918.233	1466
918.332	328
918.430	-493
918.529	447
918.627	774
918.726	1405
918.824	-178
918.923	620
919.021	-117
919.119	1048
919.218	543
919.316	837
919.414	546
919.512	614
919.611	766
919.709	790
919.807	1235
919.905	649
920.003	1090
920.102	573
920.200	765
920.298	721
920.396	1047
920.494	382
920.592	313
920.690	791
920.788	567
920.886	1224
920.984	908
921.082	1106
921.180	2223
921.277	662
921.375	1090
921.473	1988
921.571	1143
921.669	1271
921.766	1658
921.864	2386
921.962	1416
922.060	1905
922.157	1297
922.255	1714
922.352	1839
922.450	2461
922.548	2381
922.645	1467
922.743	3277
922.840	4998
922.938	5304
923.035	4457
923.133	4900
923.230	5345
923.327	7022
923.425	5872
923.522	6373
923.619	5123
923.717	4806
923.814	5385
923.911	4663
924.008	5439
924.106	4166
924.203	4347
924.300	4738
924.397	4512
924.494	4287
924.591	4326
924.688	3946
924.786	4486
924.883	5521
924.979	3913
925.077	4342
925.173	3912
925.270	3839
925.367	4067
925.464	4614
925.561	4590
925.658	5093
925.755	3781
925.852	4569
925.948	4374
926.045	4395
926.142	3939
926.239	4322
926.335	3850
926.432	4048
926.529	4320
926.625	4633
926.722	3834
926.818	3771
926.915	4159
927.011	4108
927.108	4377
927.204	3559
927.301	3311
927.397	3591
927.494	5563
927.590	3085
927.687	3823
927.783	4681
927.879	4879
927.976	2844
928.072	3741
928.168	4573
928.264	4300
928.361	2979
928.457	4131
928.553	3150
928.649	3528
928.745	4032
928.841	3134
928.937	3644
929.033	3722
929.129	2977
929.225	4202
929.321	2893
929.417	2815
929.513	3715
929.609	3408
929.705	3351
929.801	3806
929.897	2995
929.993	2878
930.089	3756
930.184	2966
930.280	2893
930.376	4730
930.471	2829
930.567	3406
930.663	3583
930.758	2557
930.854	3454
930.950	2652
931.045	2829
931.141	2846
931.236	3312
931.332	2954
931.427	2450
931.523	3782
931.618	3094
931.714	1969
931.809	2899
931.905	3659
932.000	1982
932.095	1719
932.191	3557
932.286	4033
932.381	2946
932.476	1756
932.572	2646
932.667	2351
932.762	2432
932.857	3316
932.952	3555
933.047	2523
933.142	1655
933.237	2982
933.332	2793
933.427	3995
933.522	2053
933.617	1860
933.712	2703
933.807	3411
933.902	3100
933.997	2867
934.092	2458
934.187	1624
934.282	1977
934.376	2661
934.471	2896
934.566	2465
934.661	2428
934.755	3035
934.850	3417
934.945	2764
935.039	2285
935.134	2169
935.228	2418
935.323	3869
935.417	1393
935.512	892
935.606	1720
935.701	2311
935.795	1977
935.890	2470
935.984	2669
936.079	1512
936.173	2028
936.267	1692
936.362	2265
936.456	1885
936.550	3313
936.644	2540
936.738	1168
936.833	1409
936.927	945
937.021	1990
937.115	1827
937.209	1988
937.303	2787
937.397	1666
937.491	1581
937.585	2118
937.679	1778
937.773	1532
937.867	1220
937.961	482
938.055	2471
938.149	2449
938.243	2007
938.337	1067
938.430	1576
938.524	2365
938.618	2664
938.712	1117
938.805	1694
938.899	1910
938.993	2632
939.086	1396
939.180	837
939.274	1879
939.367	1804
939.461	2059
939.554	1120
939.648	1161
939.741	1693
939.835	1551
939.928	2329
940.022	2234
940.115	1722
940.208	2485
940.302	2692
940.395	2840
940.488	1308
940.582	1778
940.675	720
940.768	1989
940.861	1566
940.954	2964
941.048	708
941.141	448
941.234	564
941.327	1287
941.420	1875
941.513	2240
941.606	764
941.699	1943
941.792	2683
941.885	1779
941.978	1839
942.071	1657
942.164	1120
942.257	1310
942.349	1185
942.442	1694
942.535	748
942.628	1148
942.721	1731
942.813	845
942.906	1473
942.999	796
943.091	624
943.184	240
943.277	949
943.369	697
943.462	988
943.554	800
943.647	920
943.739	2474
943.832	2168
943.924	285
944.017	621
944.109	662
944.201	998
944.294	565
944.386	1847
944.478	1518
944.571	161
944.663	619
944.755	1442
944.847	1669
944.940	768
945.032	195
945.124	908
945.216	2053
945.308	440
945.400	1405
945.492	1191
945.584	1825
945.676	950
945.768	1720
945.860	1017
945.952	1587
946.044	1934
946.136	1176
946.228	896
946.320	558
946.412	1378
946.503	1470
946.595	2503
946.687	262
946.779	823
946.870	318
946.962	236
947.054	1159
947.145	936
947.237	1009
947.329	118
947.420	639
947.512	1229
947.603	313
947.695	1038
947.786	67
947.878	471
947.969	1395
948.061	401
948.152	1013
948.243	288
948.335	254
948.426	1157
948.517	730
948.609	680
948.700	560
948.791	180
948.882	375
948.973	61
949.065	576
949.156	773
949.247	189
949.338	880
949.429	-87
949.520	423
949.611	537
949.702	996
949.793	476
949.884	831
949.975	745
950.066	-199
950.157	554
950.247	1074
950.338	899
950.429	21
950.520	34
950.611	287
950.701	149
950.792	1075
950.883	1199
950.973	1324
951.064	1460
951.155	21
951.245	482
951.336	789
951.427	1228
951.517	1097
951.608	631
951.698	506
951.788	-723
951.879	259
951.969	195
952.060	152
952.150	697
952.240	1502
952.331	-2
952.421	1244
952.511	-32
952.602	139
952.692	438
952.782	322
952.872	394
952.962	308
953.052	757
953.143	-411
953.233	1384
953.323	1196
953.413	749
953.503	1888
953.593	1264
953.683	641
953.773	-476
953.863	425
953.953	-77
954.042	0
954.132	662
954.222	230
954.312	520
954.402	-478
954.492	132
954.581	958
954.671	500
954.761	-351
954.850	1343
954.940	153
955.030	119
955.119	-88
955.209	752
955.298	434
955.388	762
955.477	1067
955.567	-406
955.656	1421
955.746	46
955.835	114
955.925	-70
956.014	1199
956.103	-151
956.193	708
956.282	876
956.371	-31
956.461	784
956.550	655
956.639	-292
956.728	144
956.817	1173
956.906	-34
956.995	1094
957.085	746
957.174	535
957.263	156
957.352	186
957.441	544
957.530	154
957.619	356
957.708	661
957.796	129
957.885	1195
957.974	700
958.063	-245
958.152	-979
958.241	263
958.329	579
958.418	-488
958.507	548
958.596	1811
958.684	203
958.773	1000
958.861	-629
958.950	-474
959.039	570
959.127	505
959.216	889
959.304	-170
959.393	-10
959.481	-16
959.570	471
959.658	-219
959.746	2
959.835	303
959.923	-510
960.011	-572
960.100	773
960.188	793
960.276	-229
960.365	-339
960.453	-290
960.541	-284
960.629	170
960.717	320
960.805	-835
960.893	151
960.981	-199
961.069	758
961.158	998
961.245	892
961.333	1264
961.421	65
961.509	344
961.597	467
961.685	137
961.773	-430
961.861	-54
961.949	1272
962.036	159
962.124	-13
962.212	400
962.299	-258
962.387	-458
962.475	381
962.562	-390
962.650	982
962.738	174
962.825	-577
962.913	-180
963.000	297
963.088	-42
963.175	95
963.263	227
963.350	-1
963.438	-607
963.525	-545
963.612	-115
963.700	30
963.787	652
963.874	355
963.962	324
964.049	339
964.136	-57
964.223	-573
964.310	624
964.398	-433
964.485	501
964.572	-332
964.659	42
964.746	219
964.833	201
964.920	-89
965.007	298
965.094	-355
965.181	357
965.268	383
965.355	581
965.441	560
965.528	-491
965.615	953
965.702	296
965.789	-510
965.875	77
965.962	105
966.049	-397
966.136	619
966.222	80
966.309	1284
966.395	-17
966.482	352
966.569	60
966.655	2
966.742	-48
966.828	1059
966.915	-568
967.001	-654
967.087	-415
967.174	645
967.260	77
967.347	-479
967.433	-379
967.519	276
967.605	-525
967.692	673
967.778	9
967.864	55
967.950	342
968.036	-358
968.123	60
968.209	-191
968.295	-1311
968.381	1042
968.467	181
968.553	-1343
968.639	261
968.725	-183
968.811	429
968.897	748
968.983	153
969.069	-175
969.154	-180
969.240	560
969.326	-889
969.412	-517
969.497	-825
969.583	-616
969.669	1100
969.755	444
969.840	-658
969.926	1003
970.012	1466
970.097	2177
970.183	1628
970.268	-302
970.354	313
970.439	-744
970.525	400
970.610	-698
970.696	291
970.781	-29
970.866	-223
970.952	552
971.037	-173
971.122	-157
971.208	-439
971.293	601
971.378	-1276
971.463	-81
971.549	72
971.634	-377
971.719	197
971.804	-539
971.889	501
971.974	83
972.059	190
972.144	76
972.229	253
972.314	-512
972.399	533
972.484	-627
972.569	202
972.654	-613
972.739	-122
972.824	-581
972.908	-1465
972.993	-868
973.078	-268
973.163	-222
973.247	270
973.332	-1504
973.417	806
973.501	49
973.586	121
973.671	545
973.755	239
973.840	250
973.924	198
974.009	291
974.093	115
974.178	1768
974.262	-358
974.346	270
974.431	473
974.515	-300
974.600	-132
974.684	-151
974.768	25
974.852	938
974.937	-172
975.021	813
975.105	-237
975.189	-402
975.273	47
975.358	-633
975.442	-170
975.526	109
975.610	-703
975.694	-421
975.778	156
975.862	930
975.946	-1962
976.030	472
976.114	-244
976.198	-699
976.281	-518
976.365	856
976.449	-1181
976.533	558
976.617	-994
976.700	182
976.784	-390
976.868	-400
976.951	-696
977.035	-152
977.119	365
977.202	-84
977.286	3
977.369	46
977.453	1307
977.536	437
977.620	716
977.703	561
977.787	-322
977.870	634
977.953	351
978.037	-1045
978.120	643
978.203	-886
978.287	321
978.370	-386
978.453	-1097
978.536	-693
978.620	-31
978.703	682
978.786	-625
978.869	152
978.952	-1854
979.035	2022
979.118	-118
979.201	-783
979.284	428
979.367	-84
979.450	-101
979.533	-276
979.616	-608
979.699	-486
979.782	263
979.865	461
979.948	-616
980.030	-467
980.113	181
980.196	-633
980.279	474
980.361	-1218
980.444	-668
980.526	675
980.609	113
980.692	1561
980.774	1005
980.857	-195
980.939	1139
981.022	75
981.104	-199
981.187	-414
981.269	691
981.352	-186
981.434	-657
981.516	-341
981.599	462
981.681	-179
981.763	371
981.846	28
981.928	-287
982.010	331
982.092	-524
982.174	-95
982.256	-66
982.339	-499
982.421	-164
982.503	295
982.585	-511
982.667	260
982.749	-239
982.831	-112
982.913	-119
982.995	297
983.077	-949
983.158	1311
983.240	-368
983.322	-482
983.404	505
983.486	328
983.568	565
983.649	422
983.731	685
983.813	-134
983.894	1
983.976	-232
984.058	-304
984.139	1095
984.221	-482
984.302	855
984.384	-477
984.465	-214
984.547	265
984.628	83
984.710	118
984.791	222
984.872	684
984.954	-286
985.035	254
985.116	347
985.198	-441
985.279	1252
985.360	418
985.441	-153
985.522	214
985.604	599
985.685	-1698
985.766	799
985.847	1931
985.928	-464
986.009	385
986.090	-611
986.171	1327
986.252	120
986.333	549
986.414	-50
986.495	291
986.576	849
986.656	944
986.737	910
986.818	483
986.899	-11
986.980	564
987.060	1030
987.141	-634
987.222	1530
987.302	553
987.383	1123
987.464	94
987.544	1067
987.625	441
987.705	1658
987.786	1273
987.866	584
987.947	542
988.027	165
988.108	-291
988.188	457
988.268	712
988.349	398
988.429	419
988.509	1687
988.589	181
988.670	-1289
988.750	1207
988.830	745
988.910	530
988.990	366
989.070	268
989.151	567
989.231	-215
989.311	640
989.391	477
989.471	362
989.551	555
989.631	93
989.711	1353
989.791	428
989.870	-500
989.950	593
990.030	-376
990.110	779
990.190	33
990.269	53
990.349	542
990.429	610
990.509	89
990.588	-32
990.668	814
990.747	-363
990.827	-288
990.907	97
990.986	550
991.066	548
991.145	113
991.225	567
991.304	172
991.383	572
991.463	-384
991.542	671
991.622	-224
991.701	-334
991.780	357
991.859	227
991.939	-981
992.018	465
992.097	-582
992.176	283
992.256	283
992.335	-18
992.414	561
992.493	-210
992.572	-971
992.651	597
992.730	250
992.809	-584
992.888	-317
992.967	-75
993.046	319
993.125	-505
993.203	-606
993.282	-269
993.361	-599
993.440	-26
993.519	-1229
993.597	323
993.676	-848
993.755	36
993.834	-284
993.912	-1310
993.991	509
994.069	-130
994.148	-819
994.226	-891
994.305	-258
994.384	220
994.462	321
994.540	-465
994.619	-489
994.697	373
994.776	-590
994.854	366
994.932	-1042
995.011	-474
995.089	-365
995.167	-500
995.245	-605
995.324	-472
995.402	-283
995.480	-93
995.558	-426
995.636	-1046
995.714	-692
995.792	1210
995.870	-380
995.948	-624
996.026	-159
996.104	-1339
996.182	-435
996.260	-297
996.338	-1654
996.416	-800
996.494	-956
996.572	505
996.649	-1374
996.727	-996
996.805	-508
996.883	-910
996.960	-536
997.038	579
997.116	-232
997.193	-1420
997.271	-727
997.348	-1131
997.426	-892
997.504	-888
997.581	-665
997.658	-486
997.736	-1926
997.813	-903
997.891	-172
997.968	-1320
998.046	-720
998.123	-939
998.200	144
998.277	-279
998.355	437
998.432	-1160
998.509	-554
998.586	72
998.663	-509
998.741	103
998.818	-1099
998.895	-538
998.972	-589
999.049	-159
999.126	-601
999.203	23
999.280	-1507
999.357	-1192
999.434	-495
999.511	-652
999.587	121
999.664	-1614
999.741	-418
999.818	35
999.895	-1097
999.971	-1265
1000.048	-881
1000.125	650
1000.202	-892
1000.278	-657
1000.355	-894
1000.431	-607
1000.508	-1090
1000.584	-523
1000.661	-691
1000.738	-1510
1000.814	-382
1000.890	-524
1000.967	-1087
1001.043	-617
1001.120	-1493
1001.196	-529
1001.272	-1572
1001.349	-545
1001.425	-857
1001.501	-630
1001.577	-1700
1001.654	405
1001.730	-1401
1001.806	-587
1001.882	-1288
1001.958	-600
1002.034	-819
1002.110	-703
1002.186	-1488
1002.262	-1549
1002.338	-1769
1002.414	-464
1002.490	-462
1002.566	-1409
1002.642	-1370
1002.718	-1657
1002.794	-742
1002.870	-1298
1002.945	-2254
1003.021	-746
1003.097	-957
1003.173	-664
1003.248	-2102
1003.324	-908
1003.400	-788
1003.475	-1535
1003.551	-704
1003.626	-545
1003.702	-1231
1003.777	-1323
1003.853	-1727
1003.928	-1640
1004.004	-1405
1004.079	-876
1004.155	-700
1004.230	-1868
1004.305	-643
1004.381	-2191
1004.456	-1020
1004.531	-1514
1004.607	-1440
1004.682	-1448
1004.757	-486
1004.832	-742
1004.907	-1905
1004.982	-1147
1005.057	-791
1005.133	-1197
1005.208	-957
1005.283	-1771
1005.358	-1015
1005.433	-1549
1005.508	-981
1005.583	-2193
1005.657	-935
1005.732	-555
1005.807	-1679
1005.882	-1915
1005.957	-1220
1006.032	-1237
1006.106	-1285
1006.181	-1185
1006.256	-980
1006.331	-1570
1006.405	-1655
1006.480	-1236
1006.554	-1864
1006.629	-915
1006.704	-1928
1006.778	-1466
1006.853	-1385
1006.927	-1982
1007.002	-1787
1007.076	-824
1007.150	-1561
1007.225	-696
1007.299	-1123
1007.373	-2722
1007.448	-259
1007.522	-1518
1007.596	-1996
1007.671	-1994
1007.745	-1341
1007.819	-1569
1007.893	-1274
1007.967	-1377
1008.041	-2713
1008.115	-1630
1008.190	-1757
1008.264	-1374
1008.338	-2025
1008.412	-1828
1008.486	-1131
1008.560	-1124
1008.633	-1946
1008.707	-949
1008.781	-1154
1008.855	-1425
1008.929	-1458
1009.003	-1783
1009.076	-1170
1009.150	-1217
1009.224	-851
1009.298	-941
1009.371	-2134
1009.445	-1335
1009.519	-1461
1009.592	-1784
1009.666	-1611
1009.739	-1272
1009.813	-1501
1009.886	-509
1009.960	-1552
1010.033	-1253
1010.107	-1760
1010.180	-2237
1010.253	-1209
1010.327	-1460
1010.400	-1563
1010.473	-1531
1010.547	-1034
1010.620	-1617
1010.693	-1042
1010.766	-1469
1010.840	-1113
1010.913	-1313
1010.986	-1412
1011.059	-1706
1011.132	-1625
1011.205	-400
1011.278	-1969
1011.351	-1263
1011.424	-1340
1011.497	-2136
1011.570	-1391
1011.643	-1768
1011.716	-1902
1011.789	-1753
1011.862	-1905
1011.934	-338
1012.007	-2357
1012.080	-1178
1012.153	-1835
1012.225	-698
1012.298	-2428
1012.371	-825
1012.443	-705
1012.516	-2133
1012.588	-1420
1012.661	-1047
1012.733	-1605
1012.806	-1234
1012.879	-1834
1012.951	-2076
1013.023	-2071
1013.096	-827
1013.168	-2285
1013.241	-902
1013.313	-1563
1013.385	-2420
1013.458	-1230
1013.530	-1058
1013.602	-1615
1013.674	-1195
1013.746	-1978
1013.819	-2395
1013.891	-1377
1013.963	-1470
1014.035	-2200
1014.107	-1031
1014.179	-1338
1014.251	-1360
1014.323	-1675
1014.395	-1588
1014.467	-2144
1014.539	-927
1014.611	-1348
1014.683	-1111
1014.754	-1636
1014.826	-1027
1014.898	-851
1014.970	-1833
1015.042	-1417
1015.113	-1759
1015.185	-1346
1015.257	-1565
1015.328	-1197
1015.400	-2002
1015.471	-1543
1015.543	-2220
1015.615	-1840
1015.686	-1608
1015.757	-1631
1015.829	-1824
1015.901	-1671
1015.972	-2148
1016.043	-1575
1016.115	-1622
1016.186	-1901
1016.257	-2589
1016.328	-1092
1016.400	-531
1016.471	-2927
1016.542	-1285
1016.613	-1919
1016.685	-1618
1016.756	-790
1016.827	-1346
1016.898	-1955
1016.969	-970
1017.040	-2427
1017.111	-1885
1017.182	-2179
1017.253	-1473
1017.324	-1446
1017.395	-1962
1017.466	-2142
1017.537	-1511
1017.608	-866
1017.678	-1655
1017.749	-1518
1017.820	-1026
1017.891	-1225
1017.961	-1552
1018.032	-2531
1018.103	-1677
1018.173	-1677
1018.244	-1073
1018.315	-2048
1018.385	-1409
1018.456	-1398
1018.526	-1820
1018.597	-1914
1018.667	-812
1018.738	-2332
1018.808	-1988
1018.878	-1926
1018.949	-1975
1019.019	-1454
1019.089	-1573
1019.160	-1933
1019.230	-2275
1019.300	-1278
1019.371	-2146
1019.441	-1561
1019.511	-1564
1019.581	-2196
1019.651	-798
1019.721	-898
1019.791	-1202
1019.861	-1860
1019.931	-1394
1020.001	-2082
1020.071	-1210
1020.141	-2130
1020.211	-1830
1020.281	-1373
1020.351	-1418
1020.421	-1925
1020.491	-1149
1020.560	-2103
1020.630	-2441
1020.700	-1873
1020.770	-2111
1020.839	-2318
1020.909	-1149
1020.979	-2287
1021.048	-1842
1021.118	-2025
1021.187	-1971
1021.257	-1773
1021.326	-1328
1021.396	-2511
1021.465	-988
1021.535	-1717
1021.604	-2348
1021.674	-1623
1021.743	-1840
1021.812	-2032
1021.882	-2068
1021.951	-1688
1022.020	-1776
1022.089	-1778
1022.159	-2522
1022.228	-2231
1022.297	-1888
1022.366	-1850
1022.435	-1776
1022.504	-1601
1022.573	-1830
1022.642	-1677
1022.711	-1758
1022.781	-1700
1022.849	-1267
1022.918	-1995
1022.987	-1907
1023.056	-1864
1023.125	-1769
1023.194	-1430
1023.263	-1665
1023.331	-1655
1023.400	-2515
1023.469	-1527
1023.538	-2184
1023.606	-1823
1023.675	-1222
1023.744	-2258
1023.812	-2402
1023.881	-1477
1023.949	-1691
1024.018	-2164
1024.086	-2314
1024.155	-1520
1024.223	-1335
1024.292	-2001
1024.360	-1754
1024.429	-1760
1024.497	-2353
1024.565	-1752
1024.634	-1710
1024.702	-1774
1024.770	-1725
1024.838	-1735
1024.907	-2723
1024.975	-2121
1025.043	-1691
1025.111	-2209
1025.179	-2235
1025.247	-1969
1025.315	-2217
1025.383	-2026
1025.451	-1643
1025.519	-2019
1025.587	-1743
1025.655	-2672
1025.723	-1935
1025.791	-1808
1025.859	-2218
1025.927	-1714
1025.995	-1844
1026.062	-1565
1026.130	-2280
1026.198	-1380
1026.266	-1955
1026.333	-1538
1026.401	-1275
1026.469	-2217
1026.536	-2076
1026.604	-1915
1026.671	-2646
1026.739	-1729
1026.806	-1496
1026.874	-1862
1026.941	-1882
1027.009	-1695
1027.076	-1299
1027.144	-1622
1027.211	-2570
1027.278	-2328
1027.345	-1854
1027.413	-1670
1027.480	-2016
1027.547	-1992
1027.614	-1286
1027.682	-2239
1027.749	-1712
1027.816	-1959
1027.883	-1413
1027.950	-1693
1028.017	-1068
1028.084	-1821
1028.151	-3019
1028.218	-2438
1028.285	-1859
1028.352	-1549
1028.419	-2349
1028.486	-1628
1028.553	-2745
1028.619	-2003
1028.686	-1603
1028.753	-2608
1028.820	-2558
1028.886	-1291
1028.953	-1734
1029.020	-1551
1029.086	-2924
1029.153	-2352
1029.220	-1782
1029.286	-1776
1029.353	-2148
1029.419	-2520
1029.486	-2611
1029.552	-2765
1029.619	-2216
1029.685	-2369
1029.751	-1482
1029.818	-1233
1029.884	-2513
1029.951	-900
1030.017	-1670
1030.083	-2345
1030.149	-2225
1030.216	-2186
1030.282	-2017
1030.348	-2639
1030.414	-2464
1030.480	-2426
1030.546	-3075
1030.612	-1681
1030.678	-2027
1030.744	-2689
1030.810	-1520
1030.876	-2069
1030.942	-1867
1031.008	-1874
1031.074	-1972
1031.140	-1337
1031.206	-1317
1031.272	-2618
1031.337	-2642
1031.403	-2031
1031.469	-1205
1031.534	-2081
1031.600	-1971
1031.666	-2403
1031.731	-2828
1031.797	-2467
1031.863	-2262
1031.928	-2750
1031.994	-2220
1032.059	-2614
1032.125	-2317
1032.190	-2333
1032.256	-1607
1032.321	-2705
1032.386	-2804
1032.452	-1601
1032.517	-1951
1032.582	-2359
1032.647	-2463
1032.713	-2807
1032.778	-1983
1032.843	-1781
1032.908	-1519
1032.974	-1912
1033.039	-2168
1033.104	-1543
1033.169	-1715
1033.234	-2205
1033.299	-2003
1033.364	-2145
1033.429	-1797
1033.494	-1759
1033.559	-2235
1033.624	-2292
1033.688	-1617
1033.753	-2795
1033.818	-1593
1033.883	-1967
1033.948	-1976
1034.013	-1984
1034.077	-1586
1034.142	-1523
1034.207	-714
1034.271	315
1034.336	1034
1034.400	4
1034.465	-983
1034.530	-2257
1034.594	-2061
1034.658	-1784
1034.723	-2448
1034.787	-2077
1034.852	-1514
1034.916	-1797
1034.981	-2050
1035.045	-1636
1035.109	-1968
1035.173	-1635
1035.238	-2621
1035.302	-1393
1035.366	-2175
1035.430	-2838
1035.495	-2631
1035.559	-1448
1035.623	-1476
1035.687	-2798
1035.751	-1699
1035.815	-1903
1035.879	-2740
1035.943	-2378
1036.007	-3195
1036.071	-2268
1036.135	-1981
1036.198	-1435
1036.262	-2294
1036.326	-1992
1036.390	-1967
1036.454	-1829
1036.517	-2369
1036.581	-2726
1036.645	-2053
1036.709	-1952
1036.772	-2774
1036.836	-1846
1036.900	-1786
1036.963	-2808
1037.026	-2280
1037.090	-2114
1037.154	-1957
1037.217	-2626
1037.280	-2142
1037.344	-2746
1037.407	-2664
1037.471	-2427
1037.534	-1877
1037.597	-2023
1037.661	-2232
1037.724	-1734
1037.787	-2266
1037.850	-2400
1037.913	-2413
1037.977	-2038
1038.040	-1966
1038.103	-1564
1038.166	-2874
1038.229	-1642
1038.292	-2418
1038.355	-1751
1038.418	-2558
1038.481	-1861
1038.544	-2081
1038.607	-2075
1038.670	-2510
1038.732	-3110
1038.795	-1790
1038.858	-2110
1038.921	-1871
1038.984	-1842
1039.046	-1729
1039.109	-2844
1039.172	-1933
1039.234	-1717
1039.297	-2095
1039.360	-2265
1039.422	-2754
1039.485	-2520
1039.547	-2212
1039.610	-2235
1039.672	-3018
1039.734	-2106
1039.797	-2250
1039.859	-2828
1039.922	-1766
1039.984	-2150
1040.046	-1385
1040.109	-2084
1040.171	-2125
1040.233	-2153
1040.295	-2647
1040.358	-2417
1040.420	-2935
1040.482	-2758
1040.544	-2765
1040.606	-1927
1040.668	-2235
1040.730	-2639
1040.792	-1667
1040.854	-2422
1040.916	-2599
1040.978	-2614
1041.040	-1152
1041.102	-2337
1041.164	-2487
1041.225	-2119
1041.287	-2600
1041.349	-2501
1041.411	-3047
1041.472	-1721
1041.534	-3091
1041.596	-2611
1041.657	-2247
1041.719	-2531
1041.781	-2406
1041.842	-2706
1041.904	-3244
1041.965	-2563
1042.027	-2435
1042.088	-2593
1042.150	-2732
1042.211	-2492
1042.272	-1296
1042.334	-2688
1042.395	-2234
1042.456	-2871
1042.518	-1995
1042.579	-2042
1042.640	-2365
1042.701	-2195
1042.763	-3046
1042.824	-2544
1042.885	-2026
1042.946	-2023
1043.007	-2948
1043.068	-1853
1043.129	-2145
1043.190	-2664
1043.251	-1927
1043.312	-2316
1043.373	-1819
1043.434	-2126
1043.495	-1651
1043.556	-2010
1043.616	-1637
1043.677	-2365
1043.738	-1876
1043.799	-2244
1043.859	-1273
1043.920	-2533
1043.981	-1854
1044.041	-2651
1044.102	-2236
1044.162	-3080
1044.223	-1945
1044.284	-1492
1044.344	-1912
1044.405	-2344
1044.465	-2394
1044.525	-2169
1044.586	-1802
1044.646	-2248
1044.707	-1849
1044.767	-1788
1044.827	-2801
1044.887	-1414
1044.948	-1863
1045.008	-1267
1045.068	-1984
1045.128	-1394
1045.188	-1598
1045.249	-1628
1045.309	-1570
1045.369	-2391
1045.429	-2259
1045.489	-2269
1045.549	-1038
1045.609	-2557
1045.669	-2434
1045.729	-2280
1045.789	-2134
1045.848	-1678
1045.908	-1730
1045.968	-1593
1046.028	-2228
1046.088	-1791
1046.147	-1869
1046.207	-1356
1046.267	-2257
1046.326	-1449
1046.386	-1822
1046.446	-1268
1046.505	-1027
1046.565	-663
1046.624	-632
1046.684	-994
1046.743	-979
1046.803	-538
1046.862	-731
1046.922	0
