'Start Wavelength	183.907
'End Wavelength	1046.922
'Gate Delay	5.000
'Gate Width (ms)	1.050
'Laser Output Level	0.000
'X Position	0.000
'Y Position	0.000
'Z Position	0.000
'Grid Point Number	1.000
'Shot Number	100.000
183.907	529.000
183.977	-123.000
184.047	-130
184.116	-109
184.186	32
184.256	-183
184.325	-295
184.395	-1004
184.465	1454
184.534	-40
184.604	-260
184.674	1063
184.743	-341
184.813	304
184.883	62
184.952	-182
185.022	-87
185.092	-39
185.161	7
185.231	508
185.301	-359
185.370	917
185.440	-847
185.509	-386
185.579	606
185.649	211
185.718	579
185.788	688
185.857	696
185.927	-265
185.996	-383
186.066	-258
186.136	634
186.205	502
186.275	219
186.344	195
186.414	-39
186.483	8
186.553	807
186.622	34
186.692	55
186.761	-442
186.831	70
186.900	-199
186.970	523
187.039	274
187.109	1071
187.178	327
187.248	-173
187.317	971
187.387	379
187.456	-193
187.526	861
187.595	547
187.664	-103
187.734	-496
187.803	303
187.873	218
187.942	965
188.012	1130
188.081	14
188.150	338
188.220	545
188.289	164
188.358	182
188.428	685
188.497	-347
188.567	1253
188.636	230
188.705	151
188.775	955
188.844	-717
188.913	1148
188.983	409
189.052	-4
189.121	207
189.191	-44
189.260	622
189.329	720
189.399	160
189.468	1135
189.537	370
189.606	418
189.676	306
189.745	1497
189.814	111
189.883	-404
189.953	615
190.022	1147
190.091	1908
190.161	2749
190.230	1397
190.299	250
190.368	418
190.437	435
190.507	1085
190.576	591
190.645	220
190.714	-37
190.783	315
190.853	555
190.922	1101
190.991	869
191.060	767
191.129	-294
191.198	510
191.268	585
191.337	386
191.406	316
191.475	501
191.544	-214
191.613	-7
191.682	-342
191.752	851
191.821	268
191.890	-152
191.959	404
192.028	290
192.097	69
192.166	1134
192.235	-228
192.304	737
192.373	473
192.442	675
192.511	-26
192.580	145
192.650	497
192.719	240
192.788	178
192.857	319
192.926	472
192.995	513
193.064	1304
193.133	908
193.202	1709
193.271	1904
193.340	1421
193.409	923
193.478	965
193.547	1099
193.615	2161
193.684	1585
193.753	1176
193.822	1253
193.891	697
193.960	710
194.029	423
194.098	581
194.167	378
194.236	955
194.305	669
194.374	431
194.443	756
194.512	840
194.580	359
194.649	971
194.718	16
194.787	1045
194.856	277
194.925	983
194.994	885
195.062	997
195.131	572
195.200	1153
195.269	1743
195.338	899
195.407	418
195.475	885
195.544	1266
195.613	825
195.682	1062
195.751	625
195.819	750
195.888	496
195.957	1009
196.026	528
196.094	842
196.163	274
196.232	1158
196.301	983
196.369	876
196.438	724
196.507	986
196.576	757
196.644	685
196.713	597
196.782	-362
196.850	632
196.919	343
196.988	443
197.056	721
197.125	908
197.194	611
197.262	556
197.331	645
197.400	-227
197.468	914
197.537	-73
197.606	898
197.674	1304
197.743	2812
197.812	742
197.880	3476
197.949	2439
198.017	2639
198.086	1514
198.155	1405
198.223	1010
198.292	3237
198.360	1942
198.429	1076
198.497	902
198.566	2153
198.635	3648
198.703	1682
198.772	444
198.840	3689
198.909	4149
198.977	1614
199.046	1289
199.114	1291
199.183	1297
199.251	725
199.320	385
199.388	1310
199.457	140
199.525	499
199.594	153
199.662	1160
199.731	856
199.799	1469
199.867	1102
199.936	1196
200.004	692
200.073	983
200.141	663
200.210	586
200.278	260
200.346	1777
200.415	1274
200.483	1064
200.552	1137
200.620	1306
200.688	660
200.757	-214
200.825	1177
200.893	1059
200.962	1034
201.030	412
201.098	492
201.167	1404
201.235	656
201.303	798
201.372	545
201.440	1116
201.508	612
201.577	1099
201.645	1154
201.713	1548
201.781	62
201.850	2248
201.918	239
201.986	1060
202.055	1517
202.123	1402
202.191	509
202.259	595
202.327	746
202.396	973
202.464	425
202.532	515
202.600	2814
202.669	1842
202.737	881
202.805	570
202.873	1628
202.941	1054
203.009	1055
203.078	856
203.146	715
203.214	910
203.282	918
203.350	1702
203.418	184
203.487	920
203.555	632
203.623	871
203.691	1048
203.759	720
203.827	125
203.895	1044
203.963	339
204.031	1207
204.099	1222
204.168	435
204.236	1531
204.304	1146
204.372	547
204.440	1305
204.508	1114
204.576	384
204.644	1108
204.712	621
204.780	1421
204.848	903
204.916	1075
204.984	688
205.052	899
205.120	881
205.188	1229
205.256	1252
205.324	847
205.392	1584
205.460	1478
205.528	1320
205.596	1821
205.664	1598
205.732	1229
205.799	3234
205.867	5721
205.935	1952
206.003	1551
206.071	811
206.139	1598
206.207	1473
206.275	1116
206.343	1261
206.411	647
206.478	1617
206.546	1869
206.614	1734
206.682	1764
206.750	1793
206.818	1353
206.885	2155
206.953	993
207.021	2401
207.089	1502
207.157	1560
207.225	1968
207.292	1315
207.360	1210
207.428	1677
207.496	548
207.563	2164
207.631	1651
207.699	886
207.767	774
207.834	1401
207.902	1579
207.970	1609
208.038	963
208.105	2413
208.173	1426
208.241	2256
208.309	2684
208.376	2039
208.444	2991
208.512	1978
208.579	994
208.647	2041
208.715	2314
208.782	883
208.850	1813
208.918	1305
208.985	1246
209.053	790
209.120	1727
209.188	1306
209.256	1713
209.323	622
209.391	2546
209.459	2241
209.526	1425
209.594	1186
209.661	1782
209.729	1529
209.796	2130
209.864	2013
209.932	512
209.999	3184
210.067	2336
210.134	2514
210.202	1095
210.269	2777
210.337	2257
210.404	1615
210.472	1690
210.539	1855
210.607	1329
210.674	2584
210.742	1160
210.809	1737
210.877	1653
210.944	2698
211.012	1316
211.079	3720
211.146	2366
211.214	2350
211.281	1923
211.349	1809
211.416	2192
211.484	2956
211.551	2008
211.618	2178
211.686	1746
211.753	1605
211.821	2890
211.888	1844
211.955	2294
212.023	2572
212.090	1997
212.157	3048
212.225	2740
212.292	5198
212.359	8202
212.427	18148
212.494	9506
212.561	4219
212.629	2851
212.696	2758
212.763	2752
212.831	2051
212.898	3269
212.965	2015
213.032	2736
213.100	2588
213.167	2033
213.234	2979
213.301	2645
213.369	2212
213.436	1274
213.503	1706
213.570	3066
213.638	2992
213.705	1755
213.772	1433
213.839	2437
213.906	3150
213.973	2235
214.041	1955
214.108	2276
214.175	2262
214.242	1752
214.309	2532
214.376	2736
214.444	1573
214.511	2816
214.578	1681
214.645	3153
214.712	2575
214.779	3224
214.846	2289
214.913	3548
214.980	3523
215.048	3315
215.115	3342
215.182	2756
215.249	2511
215.316	2308
215.383	2223
215.450	2695
215.517	2440
215.584	2891
215.651	1633
215.718	2400
215.785	2856
215.852	1791
215.919	2445
215.986	3229
216.053	2511
216.120	2553
216.187	2387
216.254	2548
216.321	1748
216.388	3454
216.455	3137
216.522	2501
216.589	3126
216.656	4412
216.722	5076
216.789	3919
216.856	4399
216.923	3759
216.990	3384
217.057	3031
217.124	3834
217.191	4099
217.258	4519
217.324	4523
217.391	4661
217.458	3910
217.525	4150
217.592	3239
217.659	2140
217.725	3726
217.792	4039
217.859	4536
217.926	2027
217.993	2170
218.059	2692
218.126	2058
218.193	1837
218.260	2188
218.327	1905
218.393	2136
218.460	2655
218.527	1475
218.594	2175
218.660	3742
218.727	4278
218.794	1764
218.860	1872
218.927	1542
218.994	1967
219.061	1813
219.127	2698
219.194	3433
219.261	2582
219.327	1743
219.394	1827
219.461	1274
219.527	2242
219.594	2764
219.661	2107
219.727	1687
219.794	3341
219.860	1810
219.927	3093
219.994	2431
220.060	5297
220.127	3632
220.193	3183
220.260	3550
220.326	4960
220.393	5841
220.460	7269
220.526	5876
220.593	4196
220.659	5895
220.726	4617
220.792	10898
220.859	10044
220.925	10075
220.992	12197
221.058	12178
221.125	13359
221.191	10162
221.258	4691
221.324	3730
221.391	2604
221.457	2413
221.524	3781
221.590	4612
221.657	12998
221.723	8778
221.789	6856
221.856	7863
221.922	4131
221.989	4157
222.055	2415
222.121	2005
222.188	4589
222.254	3105
222.321	2771
222.387	2175
222.453	1993
222.520	2445
222.586	1732
222.652	2138
222.719	1823
222.785	2500
222.851	1698
222.918	1853
222.984	1595
223.050	2597
223.116	1599
223.183	2306
223.249	1370
223.315	1610
223.382	2335
223.448	1962
223.514	1874
223.580	1641
223.647	1490
223.713	1629
223.779	2322
223.845	1865
223.911	2648
223.978	1027
224.044	1999
224.110	1478
224.176	1340
224.242	2041
224.309	1180
224.375	2569
224.441	1433
224.507	674
224.573	1162
224.639	2328
224.705	1277
224.772	1470
224.838	1657
224.904	2745
224.970	1682
225.036	1491
225.102	1684
225.168	1606
225.234	2387
225.300	1658
225.366	2099
225.432	2128
225.499	1690
225.565	1461
225.631	3079
225.697	3253
225.763	2816
225.829	3892
225.895	3148
225.961	5351
226.027	4339
226.093	4342
226.159	6361
226.225	7911
226.291	14003
226.357	19817
226.423	13540
226.489	8083
226.554	5701
226.620	5767
226.686	7160
226.752	10363
226.818	15007
226.884	25062
226.950	23664
227.016	11739
227.082	7739
227.148	5442
227.214	5173
227.279	4616
227.345	3855
227.411	3494
227.477	3821
227.543	4757
227.609	6840
227.674	4817
227.740	3257
227.806	3381
227.872	3225
227.938	3321
228.003	4242
228.069	2854
228.135	1847
228.201	3129
228.267	2848
228.332	2835
228.398	2905
228.464	2683
228.530	1221
228.595	1705
228.661	1458
228.727	2776
228.792	4787
228.858	1800
228.924	997
228.990	4085
229.055	1956
229.121	3821
229.187	1924
229.252	1082
229.318	1886
229.384	2069
229.449	3397
229.515	384
229.581	398
229.646	3242
229.712	1622
229.777	4525
229.843	4822
229.909	4450
229.974	4652
230.040	4435
230.105	3459
230.171	3214
230.236	6184
230.302	6555
230.368	5953
230.433	2981
230.499	3626
230.564	4437
230.630	2971
230.695	3011
230.761	3525
230.826	1394
230.892	5449
230.957	2321
231.023	2213
231.088	2482
231.154	2104
231.219	2684
231.284	2980
231.350	4677
231.415	1991
231.481	2610
231.546	1763
231.612	2333
231.677	1577
231.742	879
231.808	3381
231.873	1730
231.939	909
232.004	4781
232.069	4012
232.135	2598
232.200	2502
232.265	2028
232.331	2356
232.396	1033
232.461	2265
232.527	2126
232.592	1803
232.657	2356
232.723	2922
232.788	3312
232.853	1957
232.918	2811
232.984	1602
233.049	1803
233.114	2717
233.179	3075
233.245	4610
233.310	6130
233.375	1898
233.440	2693
233.506	1944
233.571	1302
233.636	2713
233.701	2285
233.766	3132
233.832	3740
233.897	2569
233.962	855
234.027	3156
234.092	2732
234.157	2084
234.222	2504
234.288	3631
234.353	9746
234.418	8852
234.483	6431
234.548	4540
234.613	3520
234.678	4169
234.743	3654
234.808	10975
234.873	6278
234.938	5382
235.004	3033
235.069	2424
235.134	2794
235.199	4200
235.264	3214
235.329	2244
235.394	3564
235.459	4270
235.524	3362
235.589	2965
235.654	3325
235.719	1613
235.784	3039
235.849	2750
235.913	5653
235.978	6188
236.043	6993
236.108	4078
236.173	2673
236.238	4367
236.303	3236
236.368	3036
236.433	5193
236.498	8100
236.563	7477
236.627	12967
236.692	36669
236.757	32082
236.822	15695
236.887	9948
236.952	9219
237.017	6577
237.081	8896
237.146	11001
237.211	19765
237.276	35913
237.341	52905
237.405	30659
237.470	14554
237.535	9657
237.600	7474
237.664	6184
237.729	3625
237.794	5629
237.859	12231
237.923	8018
237.988	5630
238.053	6928
238.118	5946
238.182	13767
238.247	14547
238.312	5803
238.376	4862
238.441	2922
238.506	5069
238.570	1878
238.635	4595
238.700	3087
238.764	2523
238.829	6608
238.893	7032
238.958	5362
239.023	4610
239.087	3264
239.152	3347
239.216	1821
239.281	3016
239.346	3083
239.410	3052
239.475	3539
239.539	13589
239.604	11217
239.668	4790
239.733	3391
239.797	3870
239.862	7979
239.926	10661
239.991	6296
240.055	3436
240.120	2058
240.184	3384
240.249	1883
240.313	3256
240.378	3285
240.442	7403
240.507	12382
240.571	4856
240.635	5613
240.700	7695
240.764	3506
240.829	3292
240.893	1453
240.957	2847
241.022	6477
241.086	12338
241.151	5424
241.215	1412
241.279	4515
241.344	5751
241.408	4618
241.472	3980
241.537	5661
241.601	4937
241.665	3281
241.730	3115
241.794	5199
241.858	3479
241.922	3454
241.987	3850
242.051	3314
242.115	2820
242.179	4010
242.244	2584
242.308	4108
242.372	3200
242.436	4627
242.501	4012
242.565	2803
242.629	3110
242.693	2791
242.757	2832
242.822	3652
242.886	3788
242.950	3740
243.014	3028
243.078	4823
243.142	3863
243.206	3862
243.271	6107
243.335	5429
243.399	7840
243.463	23731
243.527	60301
243.591	20642
243.655	8695
243.719	5426
243.783	6003
243.847	8419
243.911	11163
243.975	9979
244.040	7416
244.104	6041
244.168	3850
244.232	5750
244.296	7854
244.360	10054
244.424	4997
244.488	4207
244.552	4180
244.615	1374
244.679	3507
244.743	3186
244.807	3367
244.871	3198
244.935	3739
244.999	1572
245.063	2907
245.127	3959
245.191	7548
245.255	5834
245.319	4704
245.383	2810
245.446	4830
245.510	2480
245.574	3260
245.638	4110
245.702	2274
245.766	8538
245.829	5890
245.893	3885
245.957	3189
246.021	4685
246.085	3279
246.149	5072
246.212	10910
246.276	16451
246.340	8256
246.404	5243
246.467	6086
246.531	6534
246.595	5881
246.659	6141
246.722	2880
246.786	5530
246.850	6219
246.913	7462
246.977	3535
247.041	4236
247.104	5371
247.168	4940
247.232	9839
247.295	21611
247.359	10972
247.423	5455
247.486	8995
247.550	6287
247.614	4658
247.677	6186
247.741	3629
247.804	3733
247.868	5668
247.932	8430
247.995	20425
248.059	7901
248.122	4173
248.186	7455
248.249	9489
248.313	33506
248.376	36278
248.440	22603
248.503	8584
248.567	8343
248.630	9818
248.694	14458
248.757	18639
248.821	37420
248.884	23725
248.948	20187
249.011	27590
249.075	42031
249.138	37185
249.202	14877
249.265	9701
249.328	11693
249.392	8131
249.455	8361
249.519	6928
249.582	7810
249.645	12051
249.709	9767
249.772	7992
249.835	7196
249.899	7743
249.962	7609
250.025	6486
250.089	15018
250.152	19963
250.215	10312
250.279	7568
250.342	8696
250.405	8683
250.468	8368
250.532	11253
250.595	17423
250.658	53107
250.721	90694
250.785	35459
250.848	18940
250.911	11050
250.974	10905
251.038	12851
251.101	24949
251.164	14509
251.227	15911
251.290	15323
251.354	23613
251.417	76435
251.480	81367
251.543	59145
251.606	127830
251.669	106913
251.732	47125
251.795	40666
251.859	40890
251.922	85412
251.985	56410
252.048	23372
252.111	16641
252.174	15051
252.237	23001
252.300	48111
252.363	53928
252.426	104590
252.489	49293
252.552	25671
252.615	17392
252.678	18291
252.741	37634
252.804	52429
252.867	109446
252.930	66255
252.993	33331
253.056	20241
253.119	14842
253.182	12375
253.245	20949
253.308	16760
253.371	12358
253.434	11939
253.497	10835
253.559	20826
253.622	13937
253.685	14991
253.748	15521
253.811	8474
253.874	10136
253.937	10088
254.000	8462
254.062	13163
254.125	22711
254.188	19470
254.251	17133
254.314	8044
254.376	13108
254.439	15202
254.502	11151
254.565	13387
254.628	24318
254.690	13375
254.753	8073
254.816	6249
254.878	6843
254.941	14287
255.004	16224
255.067	6661
255.129	6761
255.192	4352
255.255	3869
255.317	5690
255.380	4168
255.443	3370
255.505	3097
255.568	2997
255.631	4322
255.693	3740
255.756	2536
255.819	2842
255.881	2541
255.944	3124
256.006	2670
256.069	2727
256.132	2862
256.194	4236
256.257	10654
256.319	7883
256.382	7345
256.444	6501
256.507	5134
256.569	4421
256.632	6430
256.694	8070
256.757	22054
256.819	61396
256.882	29257
256.944	11326
257.007	9050
257.069	9270
257.132	6759
257.194	6597
257.257	6581
257.319	7123
257.381	8510
257.444	17783
257.506	65178
257.569	76741
257.631	41449
257.693	19676
257.756	9555
257.818	8436
257.880	6243
257.943	6327
258.005	4443
258.067	5901
258.130	5063
258.192	5339
258.254	9631
258.317	7193
258.379	6160
258.441	12758
258.503	12319
258.566	12466
258.628	18841
258.690	4529
258.753	5785
258.815	9347
258.877	6257
258.939	4854
259.001	5204
259.064	4461
259.126	5304
259.188	7064
259.250	5827
259.312	8065
259.375	17379
259.437	11373
259.499	5724
259.561	5209
259.623	5666
259.685	5703
259.747	5201
259.809	13350
259.872	24170
259.934	33779
259.996	35383
260.058	11829
260.120	4885
260.182	5233
260.244	4438
260.306	3384
260.368	4955
260.430	4287
260.492	9760
260.554	19689
260.616	13442
260.678	17480
260.740	24249
260.802	6837
260.864	5853
260.926	4585
260.988	5511
261.050	5262
261.112	14438
261.174	31545
261.236	20965
261.298	7437
261.359	9803
261.421	16244
261.483	5648
261.545	5589
261.607	2741
261.669	4880
261.731	7074
261.793	15482
261.854	8034
261.916	6155
261.978	5259
262.040	6925
262.102	3974
262.164	5528
262.225	6415
262.287	4193
262.349	9828
262.411	7716
262.472	5205
262.534	6657
262.596	13941
262.658	6062
262.719	3088
262.781	4974
262.843	13097
262.904	7133
262.966	6817
263.028	8657
263.090	31799
263.151	86622
263.213	30060
263.275	15456
263.336	6735
263.398	5458
263.459	3413
263.521	3398
263.583	9412
263.644	6886
263.706	3530
263.767	1754
263.829	3260
263.891	1964
263.952	2077
264.014	2394
264.075	5747
264.137	17614
264.198	7865
264.260	3056
264.321	3169
264.383	9241
264.444	26012
264.506	8502
264.567	4893
264.629	10230
264.690	23233
264.752	8575
264.813	4669
264.875	3674
264.936	4636
264.998	3254
265.059	3300
265.120	4315
265.182	6792
265.243	29551
265.305	34923
265.366	9215
265.427	4997
265.489	3616
265.550	2221
265.611	3154
265.673	3695
265.734	3791
265.795	3054
265.857	3624
265.918	4060
265.979	9159
266.040	49023
266.102	47167
266.163	14089
266.224	10300
266.286	5543
266.347	3260
266.408	2864
266.469	4008
266.530	3446
266.592	1986
266.653	5330
266.714	9594
266.775	3210
266.836	1996
266.898	1920
266.959	5948
267.020	4111
267.081	3723
267.142	2486
267.203	1574
267.264	2505
267.326	3128
267.387	2113
267.448	2402
267.509	2950
267.570	1952
267.631	2014
267.692	2164
267.753	2784
267.814	2028
267.875	6426
267.936	13729
267.997	10442
268.058	8265
268.119	4648
268.180	3469
268.241	3406
268.302	2737
268.363	2629
268.424	2188
268.485	2954
268.546	2898
268.607	2170
268.668	1987
268.729	2369
268.790	2512
268.851	3324
268.912	7000
268.972	9718
269.033	5511
269.094	2486
269.155	1913
269.216	1530
269.277	2536
269.338	1794
269.398	2492
269.459	3957
269.520	4404
269.581	6091
269.642	6052
269.702	4474
269.763	4509
269.824	3467
269.885	4144
269.945	5814
270.006	3218
270.067	2191
270.128	2961
270.188	2795
270.249	2604
270.310	1634
270.370	3096
270.431	2586
270.492	1806
270.553	2627
270.613	5667
270.674	12503
270.734	5093
270.795	3751
270.856	5271
270.916	3159
270.977	2700
271.038	4036
271.098	3229
271.159	5223
271.219	6127
271.280	3503
271.340	3078
271.401	3475
271.462	7814
271.522	5441
271.583	2922
271.643	3585
271.704	4008
271.764	3966
271.825	9309
271.885	30887
271.946	43896
272.006	14901
272.066	18059
272.127	34098
272.187	10621
272.248	6452
272.308	5854
272.369	21853
272.429	12935
272.489	9519
272.550	10210
272.610	9866
272.671	6560
272.731	5978
272.791	10164
272.852	6705
272.912	5324
272.972	3095
273.033	3276
273.093	4998
273.153	7059
273.214	4041
273.274	4887
273.334	16892
273.394	33349
273.455	12526
273.515	11975
273.575	27301
273.635	10749
273.696	13262
273.756	29526
273.816	12265
273.876	7076
273.936	12279
273.997	24406
274.057	7490
274.117	5807
274.177	8535
274.237	36803
274.297	33631
274.358	19712
274.418	23176
274.478	18089
274.538	7569
274.598	6360
274.658	18141
274.718	23815
274.778	10827
274.838	5970
274.898	10718
274.958	32454
275.018	30795
275.078	20512
275.138	8560
275.198	4715
275.258	4175
275.318	4746
275.378	8612
275.438	9941
275.498	6863
275.558	13852
275.618	32354
275.678	20932
275.738	12119
275.798	10839
275.858	7041
275.918	3733
275.978	4894
276.038	4189
276.098	3115
276.157	5626
276.217	19215
276.277	9618
276.337	6383
276.397	4033
276.457	4556
276.517	3443
276.576	3033
276.636	2111
276.696	4771
276.756	12071
276.815	9599
276.875	4397
276.935	5221
276.995	3602
277.055	3845
277.114	3182
277.174	4219
277.234	15601
277.293	6733
277.353	4019
277.413	3286
277.472	3335
277.532	3332
277.592	3544
277.651	10279
277.711	20007
277.771	8138
277.830	24571
277.890	20490
277.950	14648
278.009	44308
278.069	16881
278.128	13608
278.188	20669
278.248	9588
278.307	20698
278.367	14362
278.426	5228
278.486	4091
278.545	4025
278.605	2463
278.664	3469
278.724	4197
278.783	10961
278.843	29577
278.902	10407
278.962	6014
279.021	6070
279.081	7472
279.140	7783
279.199	7565
279.259	7607
279.318	8405
279.378	9866
279.437	16980
279.496	56324
279.556	128521
279.615	102131
279.675	27121
279.734	16417
279.793	26027
279.853	50000
279.912	20101
279.971	10841
280.031	10216
280.090	19785
280.149	36388
280.208	21003
280.268	84951
280.327	91256
280.386	21383
280.445	16614
280.505	15133
280.564	8656
280.623	6946
280.682	10034
280.742	15009
280.801	6252
280.860	4613
280.919	3624
280.978	4713
281.037	3089
281.097	2796
281.156	3070
281.215	3110
281.274	4489
281.333	18424
281.392	14905
281.451	4407
281.510	3198
281.569	2314
281.628	2143
281.688	2726
281.747	3642
281.806	3807
281.865	2282
281.924	1938
281.983	2904
282.042	2363
282.101	2045
282.160	2547
282.219	1764
282.278	2837
282.337	10291
282.396	8228
282.454	3052
282.513	3543
282.572	14308
282.631	9258
282.690	3120
282.749	2376
282.808	3033
282.867	3561
282.926	4353
282.985	2642
283.043	1781
283.102	1642
283.161	3359
283.220	7806
283.279	18132
283.338	5677
283.396	2870
283.455	3079
283.514	4162
283.573	5988
283.631	5471
283.690	2706
283.749	2774
283.808	6604
283.866	7131
283.925	2468
283.984	3436
284.043	4464
284.101	5232
284.160	2871
284.219	5180
284.277	3939
284.336	6171
284.395	19911
284.453	17962
284.512	5899
284.570	8615
284.629	7214
284.688	5399
284.746	5451
284.805	6586
284.863	8610
284.922	12247
284.981	15442
285.039	20809
285.098	35187
285.156	78160
285.215	167806
285.273	170271
285.332	93891
285.390	48897
285.449	27819
285.507	19337
285.566	14043
285.624	11429
285.683	8971
285.741	7438
285.799	6404
285.858	6293
285.916	4806
285.975	4215
286.033	3564
286.091	3835
286.150	2639
286.208	3007
286.267	4302
286.325	3866
286.383	6240
286.442	5525
286.500	2535
286.558	3329
286.616	2419
286.675	4336
286.733	3854
286.791	2899
286.850	4106
286.908	4365
286.966	9348
287.024	3776
287.083	3053
287.141	2725
287.199	3336
287.257	5080
287.315	3675
287.374	4648
287.432	10416
287.490	7824
287.548	4099
287.606	3468
287.664	3703
287.723	6122
287.781	8311
287.839	5910
287.897	7376
287.955	11480
288.013	16575
288.071	31923
288.129	104674
288.187	253848
288.245	141325
288.303	48805
288.361	26842
288.419	17602
288.477	12828
288.535	9118
288.593	7432
288.651	6011
288.709	4276
288.767	4856
288.825	4653
288.883	3815
288.941	4263
288.999	3566
289.057	2913
289.115	3464
289.173	2922
289.231	3410
289.289	2961
289.346	2420
289.404	3066
289.462	5624
289.520	5278
289.578	3476
289.636	2108
289.694	1742
289.751	1975
289.809	1647
289.867	2164
289.925	2888
289.983	4238
290.040	2799
290.098	1894
290.156	2446
290.214	3719
290.271	3382
290.329	2306
290.387	1704
290.444	1844
290.502	1500
290.560	1867
290.617	2257
290.675	2138
290.733	1770
290.790	3028
290.848	1661
290.906	2248
290.963	2031
291.021	3091
291.078	2028
291.136	2198
291.194	9178
291.251	23935
291.309	6462
291.366	2692
291.424	2481
291.481	2752
291.539	1849
291.596	3074
291.654	1544
291.711	1374
291.769	2287
291.826	4475
291.884	3256
291.941	2016
291.999	1822
292.056	2861
292.114	2642
292.171	2330
292.228	1530
292.286	2660
292.343	5617
292.401	6397
292.458	4468
292.515	2641
292.573	4179
292.630	3268
292.687	3897
292.745	3288
292.802	4658
292.859	13233
292.917	19789
292.974	11137
293.031	4178
293.089	2229
293.146	2645
293.203	2305
293.260	2172
293.318	4231
293.375	8299
293.432	4132
293.489	2794
293.546	2656
293.604	3800
293.661	11163
293.718	33573
293.775	18994
293.832	7711
293.889	6022
293.947	8235
294.004	6019
294.061	5367
294.118	8734
294.175	20760
294.232	32275
294.289	12882
294.346	6712
294.403	8043
294.460	4949
294.517	3844
294.574	3576
294.631	4027
294.688	4740
294.745	10068
294.802	39177
294.859	50231
294.916	20251
294.973	11110
295.030	6916
295.087	5461
295.144	4635
295.201	4196
295.258	3986
295.315	4756
295.372	13805
295.429	28200
295.486	14182
295.542	8641
295.599	20636
295.656	39437
295.713	23653
295.770	26731
295.827	11573
295.883	6365
295.940	5020
295.997	7623
296.054	7442
296.111	4640
296.167	3899
296.224	3652
296.281	2831
296.338	3295
296.394	3683
296.451	4309
296.508	11315
296.564	24012
296.621	16579
296.678	31023
296.734	48324
296.791	18637
296.848	9110
296.904	9210
296.961	17286
297.018	28398
297.074	24140
297.131	10115
297.187	7245
297.244	8773
297.301	27105
297.357	52157
297.414	19706
297.470	8315
297.527	6125
297.583	4973
297.640	4915
297.696	3597
297.753	3074
297.809	2866
297.866	2658
297.922	3149
297.979	2776
298.035	4123
298.092	5681
298.148	15821
298.204	17793
298.261	8443
298.317	14174
298.374	39296
298.430	23583
298.486	9696
298.543	8436
298.599	7199
298.656	8445
298.712	11669
298.768	34212
298.824	28406
298.881	9374
298.937	5959
298.993	4573
299.050	5644
299.106	5683
299.162	5902
299.218	4784
299.275	4398
299.331	4874
299.387	8600
299.443	31400
299.500	34139
299.556	13237
299.612	6680
299.668	6466
299.724	6381
299.780	7220
299.837	4969
299.893	7271
299.949	24776
300.005	30291
300.061	24028
300.117	45237
300.173	24016
300.229	8755
300.285	10625
300.341	13002
300.397	7224
300.453	4960
300.510	4748
300.566	4888
300.622	5577
300.678	11542
300.734	24156
300.790	23935
300.845	30781
300.901	18377
300.957	24113
301.013	19264
301.069	7808
301.125	5570
301.181	5869
301.237	5092
301.293	3282
301.349	3153
301.405	3614
301.461	3427
301.516	5695
301.572	4804
301.628	8572
301.684	7857
301.740	11155
301.796	19674
301.851	13522
301.907	20570
301.963	19691
302.019	30258
302.074	88568
302.130	91979
302.186	43125
302.242	18053
302.297	11550
302.353	10155
302.409	18548
302.464	16922
302.520	12483
302.576	29734
302.631	36243
302.687	20551
302.743	9551
302.798	6332
302.854	4876
302.910	4660
302.965	5746
303.021	10518
303.076	10122
303.132	12343
303.187	14492
303.243	8134
303.299	5227
303.354	3338
303.410	4356
303.465	3685
303.521	3998
303.576	4198
303.632	5022
303.687	9236
303.743	28481
303.798	26836
303.853	11480
303.909	5840
303.964	5128
304.020	7105
304.075	10244
304.130	10299
304.186	16591
304.241	18452
304.297	13727
304.352	8505
304.358	8283
304.407	6480
304.449	6443
304.463	6432
304.518	5877
304.539	6042
304.573	6297
304.629	5870
304.630	5908
304.684	8010
304.720	17225
304.739	21694
304.794	34972
304.811	29980
304.850	18123
304.902	8528
304.905	7922
304.960	5836
304.992	6156
305.015	6370
305.071	6138
305.083	5874
305.126	4834
305.173	3972
305.181	3863
305.236	3214
305.264	3635
305.292	4057
305.347	5328
305.354	5441
305.402	6259
305.445	6904
305.457	7031
305.512	8018
305.535	7883
305.567	7827
305.622	8440
305.626	8603
305.678	13914
305.716	27935
305.733	32430
305.788	36339
305.807	31005
305.843	23070
305.897	31056
305.898	31115
305.953	30794
305.988	20900
306.008	15890
306.063	9932
306.078	8922
306.118	6500
306.168	5191
306.173	5105
306.228	4883
306.259	4647
306.283	4603
306.338	4386
306.349	4602
306.393	5482
306.440	6452
306.448	6630
306.503	6952
306.530	7165
306.558	9168
306.613	19435
306.620	20792
306.668	27990
306.711	33400
306.723	33318
306.778	24680
306.801	18562
306.833	12598
306.888	7460
306.892	7251
306.943	5880
306.982	5773
306.997	5842
307.052	5898
307.072	6134
307.107	7304
307.162	9588
307.163	9620
307.217	13809
307.253	16565
307.272	16893
307.327	18040
307.343	16234
307.381	13100
307.434	11359
307.436	11643
307.491	22945
307.524	33071
307.546	34740
307.600	31034
307.614	27473
307.655	17909
307.704	11372
307.710	11400
307.765	14761
307.795	18379
307.819	21127
307.874	31721
307.885	32021
307.929	28362
307.975	23224
307.984	24187
308.038	34854
308.065	42243
308.093	68366
308.148	132653
308.156	145901
308.202	196627
308.246	227171
308.257	221608
308.312	135353
308.336	99876
308.366	75868
308.421	45202
308.426	42567
308.475	29385
308.517	21649
308.530	20349
308.585	17384
308.607	16320
308.639	16796
308.694	18778
308.697	18981
308.748	30493
308.787	43191
308.803	43052
308.857	33671
308.877	28824
308.912	26337
308.967	26973
308.967	26980
309.021	36754
309.058	44415
309.076	56715
309.130	98349
309.148	114130
309.185	175641
309.238	280882
309.239	281603
309.293	288116
309.328	264830
309.348	235188
309.402	133965
309.418	108062
309.457	78278
309.508	48271
309.511	47484
309.566	37721
309.598	33057
309.620	33174
309.674	35091
309.688	35908
309.729	34114
309.778	29994
309.783	29621
309.837	24706
309.868	22143
309.892	28083
309.946	43628
309.959	48049
310.001	56822
310.049	64434
310.055	62260
310.109	37213
310.139	22857
310.163	18871
310.218	12898
310.229	11857
310.272	10970
310.319	10306
310.326	10047
310.381	8452
310.409	7572
310.435	7939
310.489	8738
310.499	8872
310.543	8872
310.589	9055
310.598	9165
310.652	9702
310.679	9876
310.706	8880
310.760	6677
310.769	6322
310.814	6180
310.859	6177
310.868	6181
310.923	6122
310.948	6135
310.977	6684
311.031	7810
311.038	7929
311.085	7593
311.128	7231
311.139	7382
311.193	8072
311.218	8355
311.247	7690
311.301	6470
311.308	6286
311.356	6858
311.398	7450
311.410	7307
311.464	6608
311.488	6221
311.518	6433
311.572	6793
311.578	6829
311.626	9062
311.668	10945
311.680	11159
311.734	11974
311.758	12298
311.788	11875
311.842	11046
311.847	10929
311.896	15672
311.937	19784
311.950	19239
312.004	16547
312.027	15296
312.058	12846
312.112	8446
312.117	7992
312.165	8650
312.207	9190
312.297	15029
312.386	10466
312.476	9981
312.566	16241
312.656	8365
312.745	7470
312.835	8951
312.925	9137
313.015	8800
313.104	8957
313.194	7023
313.284	7644
313.374	11129
313.463	8773
313.553	7383
313.643	6099
313.732	6626
313.822	6726
313.912	7952
314.001	8511
314.091	12360
314.180	14846
314.270	10631
314.360	11113
314.449	9518
314.539	6860
314.628	7048
314.718	9613
314.808	10501
314.897	6734
314.987	7001
315.076	8984
315.166	11021
315.255	10418
315.345	10823
315.434	9386
315.524	9774
315.613	9300
315.703	11968
315.792	13005
315.881	21630
315.971	12123
316.060	18953
316.150	25860
316.239	25597
316.328	9503
316.418	7281
316.507	6985
316.597	9714
316.686	8885
316.775	16488
316.865	26120
316.954	7291
317.043	6069
317.133	7426
317.222	6665
317.311	7664
317.400	6417
317.490	10503
317.579	9321
317.668	8183
317.757	10505
317.847	17753
317.936	37111
318.025	23045
318.114	13610
318.203	12403
318.293	19972
318.382	38722
318.471	28024
318.560	45774
318.649	84116
318.738	16386
318.828	12244
318.917	12893
319.006	16163
319.095	38895
319.184	105154
319.273	46864
319.362	22549
319.451	10733
319.540	9347
319.629	21357
319.718	29030
319.807	16697
319.896	37974
319.985	122481
320.074	34209
320.163	14551
320.252	20041
320.341	21043
320.430	17559
320.519	18251
320.608	11070
320.697	10253
320.786	9754
320.875	11016
320.964	14133
321.053	20644
321.142	28577
321.230	28318
321.319	27708
321.408	57176
321.497	22521
321.586	22873
321.675	30187
321.764	26659
321.852	19391
321.941	33334
322.030	20154
322.119	27202
322.207	54494
322.296	39803
322.385	23296
322.474	26639
322.562	66439
322.651	31853
322.740	27611
322.829	39619
322.917	35828
323.006	20947
323.095	18677
323.183	16140
323.272	22668
323.361	43392
323.449	101465
323.538	34372
323.626	82947
323.715	41285
323.804	24488
323.892	70958
323.981	31441
324.069	15438
324.158	43612
324.246	30496
324.335	15886
324.424	20740
324.512	10068
324.601	14322
324.689	29764
324.778	47649
324.866	28659
324.954	10009
325.043	10724
325.131	19601
325.220	31151
325.308	32464
325.397	25433
325.485	15595
325.574	7713
325.662	7785
325.750	7812
325.839	8914
325.927	6554
326.015	9979
326.104	15328
326.192	17678
326.280	7632
326.369	8499
326.457	11016
326.545	17545
326.634	7744
326.722	6650
326.810	6939
326.898	8054
326.987	9003
327.075	18135
327.163	16880
327.251	11199
327.340	21428
327.428	25649
327.516	6773
327.604	7239
327.692	7611
327.781	10236
327.869	14273
327.957	9622
328.045	9482
328.133	7233
328.221	8299
328.309	8530
328.397	7962
328.485	9548
328.574	12351
328.662	35815
328.750	19386
328.838	10645
328.926	8537
329.014	8671
329.102	12482
329.190	32099
329.278	16461
329.366	8430
329.454	8338
329.542	8784
329.630	9050
329.718	12544
329.806	15064
329.893	21250
329.981	29718
330.069	59939
330.157	188145
330.245	315381
330.333	189545
330.421	55632
330.509	30481
330.597	49794
330.684	32114
330.772	17425
330.860	24062
330.948	30810
331.036	12673
331.123	7083
331.211	7988
331.299	11137
331.387	27019
331.475	38798
331.562	12436
331.650	7413
331.738	8740
331.825	10559
331.913	6056
332.001	7056
332.089	10017
332.176	20436
332.264	39928
332.352	25842
332.439	10790
332.527	8458
332.614	7770
332.702	9339
332.790	8170
332.877	19759
332.965	29598
333.052	8960
333.140	9988
333.228	16965
333.315	6814
333.403	9073
333.490	22067
333.578	15455
333.665	15772
333.753	11086
333.840	7507
333.928	10351
334.015	24932
334.103	44993
334.190	117576
334.278	26832
334.365	12964
334.452	10175
334.540	7214
334.627	11458
334.715	14042
334.802	30044
334.889	135075
334.977	96901
335.064	14287
335.151	9478
335.239	11468
335.326	17090
335.413	70052
335.501	73882
335.588	13105
335.675	9766
335.762	15144
335.850	24410
335.937	14256
336.024	41579
336.111	137119
336.199	45069
336.286	11023
336.373	8530
336.460	6796
336.547	6637
336.635	10637
336.722	8607
336.809	7613
336.896	13080
336.983	46541
337.070	101062
337.157	120055
337.245	88334
337.332	47836
337.419	10365
337.506	7731
337.593	11059
337.680	41684
337.767	99324
337.854	27822
337.941	31848
338.028	31009
338.115	11184
338.202	16864
338.289	32064
338.376	80007
338.463	26541
338.550	66613
338.637	54816
338.724	19802
338.811	24800
338.898	7376
338.984	6882
339.071	10225
339.158	10546
339.245	23626
339.332	14499
339.419	21393
339.506	15448
339.593	4095
339.679	6654
339.766	5135
339.853	9847
339.940	15419
340.027	6847
340.113	7274
340.200	9676
340.287	6323
340.374	10074
340.460	13879
340.547	6918
340.634	11233
340.720	39736
340.807	18858
340.894	6499
340.980	5305
341.067	5435
341.154	7180
341.240	10185
341.327	18403
341.414	8929
341.500	8804
341.587	7212
341.674	6471
341.760	15231
341.847	15551
341.933	6411
342.020	3853
342.106	4812
342.193	7114
342.279	10829
342.366	8949
342.452	13628
342.539	8337
342.625	20340
342.712	40294
342.798	16777
342.885	7725
342.971	4472
343.058	4623
343.144	5057
343.230	4680
343.317	6062
343.403	4199
343.490	4292
343.576	3124
343.662	6092
343.749	6797
343.835	9487
343.921	16738
344.008	84872
344.094	148705
344.180	32601
344.267	15749
344.353	49557
344.439	44668
344.525	21526
344.612	17804
344.698	19521
344.784	10937
344.870	6683
344.957	5082
345.043	9389
345.129	7086
345.215	13580
345.301	7476
345.387	5431
345.474	3598
345.560	5460
345.646	6905
345.732	6554
345.818	6648
345.904	6450
345.990	6744
346.076	8540
346.162	13205
346.249	6667
346.335	4219
346.421	7170
346.507	22759
346.593	59976
346.679	13939
346.765	7584
346.851	5645
346.937	5641
347.023	5355
347.108	6769
347.194	4803
347.280	5600
347.366	7866
347.452	23089
347.538	72572
347.624	55925
347.710	41670
347.796	9034
347.882	5940
347.967	7045
348.053	10881
348.139	7286
348.225	4729
348.311	5582
348.397	4270
348.482	6452
348.568	7483
348.654	4686
348.740	4823
348.825	6233
348.911	10997
348.997	40303
349.083	63362
349.168	11824
349.254	6535
349.340	7711
349.425	4346
349.511	8426
349.597	10167
349.682	17219
349.768	45827
349.854	19770
349.939	6375
350.025	5233
350.110	6216
350.196	4802
350.282	3848
350.367	4996
350.453	9773
350.538	9033
350.624	7745
350.709	8189
350.795	4735
350.880	5649
350.966	6839
351.051	9380
351.137	6472
351.222	6508
351.308	17506
351.393	39658
351.479	11130
351.564	4706
351.649	5095
351.735	5396
351.820	3880
351.906	6385
351.991	8144
352.076	29490
352.162	35481
352.247	8947
352.332	6829
352.418	13796
352.503	17075
352.588	61291
352.673	41786
352.759	11013
352.844	6182
352.929	7854
353.014	8627
353.100	9814
353.185	18192
353.270	18989
353.355	14140
353.441	6921
353.526	7593
353.611	14367
353.696	14336
353.781	9219
353.866	5314
353.952	7355
354.037	14690
354.122	28850
354.207	24347
354.292	10952
354.377	5576
354.462	5503
354.547	7240
354.632	8781
354.717	16783
354.802	21647
354.887	7896
354.972	5717
355.057	4568
355.142	4297
355.227	6696
355.312	10720
355.397	21186
355.482	44376
355.567	20167
355.652	17785
355.737	17861
355.822	55604
355.907	37305
355.991	9631
356.076	5052
356.161	5417
356.246	4664
356.331	6747
356.416	16014
356.501	86094
356.585	72468
356.670	14332
356.755	11101
356.840	19073
356.924	79535
357.009	189674
357.094	64415
357.179	19705
357.263	12835
357.348	14197
357.433	12767
357.517	12160
357.602	9521
357.687	8944
357.771	20974
357.856	53109
357.941	30874
358.025	61519
358.110	189751
358.195	81980
358.279	17067
358.364	14019
358.448	42119
358.533	98259
358.617	70519
358.702	68852
358.787	25249
358.871	16072
358.956	12734
359.040	5331
359.125	5679
359.209	7549
359.294	28656
359.378	41230
359.462	14342
359.547	9510
359.631	6594
359.716	4939
359.800	7358
359.885	11562
359.969	5786
360.053	7041
360.138	7464
360.222	9643
360.306	15019
360.391	13509
360.475	30136
360.559	54186
360.644	40406
360.728	28226
360.812	55086
360.896	116665
360.981	55375
361.065	31066
361.149	10195
361.233	9378
361.318	7945
361.402	9267
361.486	7710
361.570	5914
361.654	8768
361.739	22651
361.823	87053
361.907	110222
361.991	22338
362.075	17776
362.159	29192
362.243	20866
362.327	19117
362.411	19300
362.495	13069
362.580	9041
362.664	7256
362.748	7648
362.832	10321
362.916	15425
363.000	37314
363.084	97882
363.168	129033
363.252	33505
363.336	16260
363.420	24776
363.503	93461
363.587	90816
363.671	16205
363.755	13395
363.839	16881
363.923	9292
364.007	18450
364.091	21641
364.175	42741
364.258	136889
364.342	77699
364.426	52939
364.510	29554
364.594	24656
364.677	34780
364.761	108280
364.845	66906
364.929	27836
365.013	21290
365.096	19102
365.180	21130
365.264	46528
365.347	132072
365.431	55789
365.515	17273
365.598	8359
365.682	8599
365.766	20646
365.849	21763
365.933	10425
366.017	14455
366.100	13674
366.184	5470
366.267	7301
366.351	5793
366.435	5636
366.518	4695
366.602	4671
366.685	6024
366.769	6319
366.852	16470
366.936	23427
367.019	11286
367.103	14489
367.186	25488
367.270	8062
367.353	3653
367.436	7014
367.520	5170
367.603	7412
367.687	9850
367.770	17069
367.853	11871
367.937	37574
368.020	50469
368.104	12929
368.187	13225
368.270	20323
368.353	18284
368.437	28061
368.520	53392
368.603	31249
368.687	43565
368.770	67906
368.853	18169
368.936	22486
369.020	22871
369.103	8989
369.186	6504
369.269	8159
369.352	13858
369.436	18722
369.519	12274
369.602	7138
369.685	8275
369.768	7899
369.851	7226
369.934	5545
370.018	8171
370.101	14367
370.184	13427
370.267	12079
370.350	18715
370.433	28272
370.516	60400
370.599	61347
370.682	20774
370.765	42896
370.848	53245
370.931	85439
371.014	35650
371.097	8431
371.180	6079
371.263	6519
371.346	4175
371.429	6271
371.511	6257
371.594	11676
371.677	21350
371.760	27365
371.843	21546
371.926	89130
372.009	160228
372.091	53609
372.174	41460
372.257	80884
372.340	30473
372.423	34869
372.505	41738
372.588	16411
372.671	32638
372.754	82144
372.836	40916
372.919	50943
373.002	82140
373.085	22550
373.167	18134
373.250	43181
373.332	82008
373.415	122254
373.498	203079
373.580	80499
373.663	110506
373.746	127569
373.828	32361
373.911	17544
373.993	24372
374.076	86577
374.159	70380
374.241	30664
374.324	72728
374.406	47523
374.489	74649
374.571	170031
374.654	65821
374.736	43422
374.819	110724
374.901	158425
374.983	142795
375.066	28438
375.148	17588
375.231	73513
375.313	119886
375.395	43970
375.478	10246
375.560	8667
375.643	10986
375.725	41545
375.807	134641
375.890	105391
375.972	45850
376.054	31337
376.136	43275
376.219	19612
376.301	46443
376.383	107474
376.465	40848
376.548	27670
376.630	39629
376.712	94367
376.794	39125
376.877	7597
376.959	4987
377.041	9087
377.123	22780
377.205	24831
377.287	5215
377.369	5616
377.452	5806
377.534	5202
377.616	5212
377.698	5098
377.780	3861
377.862	5583
377.944	6198
378.026	4415
378.108	5334
378.190	4634
378.272	4486
378.354	4212
378.436	4619
378.518	14128
378.600	39935
378.682	31245
378.764	52322
378.846	38941
378.928	15229
379.010	19169
379.091	10682
379.173	5669
379.255	5255
379.337	8834
379.419	29286
379.501	72015
379.583	28027
379.664	10826
379.746	21170
379.828	55493
379.910	70525
379.991	55195
380.073	10945
380.155	8687
380.237	6185
380.318	5659
380.400	5723
380.482	13993
380.564	19862
380.645	22253
380.727	20520
380.809	10736
380.890	7655
380.972	6755
381.053	7126
381.135	8457
381.217	21083
381.298	54555
381.380	25977
381.461	27795
381.543	101637
381.624	109197
381.706	22737
381.787	15166
381.869	17286
381.951	55755
382.032	157832
382.113	93897
382.195	23964
382.276	20335
382.358	43371
382.439	91323
382.521	102679
382.602	139033
382.684	72198
382.765	126088
382.846	118592
382.928	114223
383.009	64956
383.090	66792
383.172	191824
383.253	231487
383.334	109696
383.416	132991
383.497	66210
383.578	36254
383.659	65269
383.741	199703
383.822	369742
383.903	182982
383.984	99721
384.066	162564
384.147	97036
384.228	22834
384.309	17060
384.390	13881
384.471	11489
384.553	12698
384.634	17371
384.715	16060
384.796	10320
384.877	14301
384.958	49673
385.039	55458
385.120	20766
385.201	12590
385.282	15551
385.363	17013
385.444	13296
385.525	26624
385.606	73212
385.687	57260
385.768	19534
385.849	28295
385.930	91984
386.011	132426
386.092	37286
386.173	12314
386.254	11325
386.335	12371
386.416	12884
386.496	37636
386.577	53962
386.658	23179
386.739	15627
386.820	16967
386.901	13175
386.981	11866
387.062	9495
387.143	16596
387.224	51308
387.304	46074
387.385	18377
387.466	15167
387.547	18646
387.627	12878
387.708	24878
387.789	93009
387.869	100125
387.950	27719
388.031	9065
388.111	12264
388.192	28930
388.273	38386
388.353	21583
388.434	12382
388.514	24081
388.595	87684
388.676	102300
388.756	51980
388.837	48326
388.917	29746
388.998	8098
389.078	9202
389.159	7595
389.239	7108
389.320	11638
389.400	10428
389.480	25541
389.561	54234
389.641	26209
389.722	12742
389.802	17692
389.883	29292
389.963	63017
390.043	41390
390.124	16591
390.204	24505
390.284	60569
390.365	41678
390.445	75234
390.525	166516
390.605	128372
390.686	36801
390.766	13888
390.846	9125
390.927	6287
391.007	7461
391.087	8098
391.167	10128
391.247	7791
391.328	14131
391.408	22215
391.488	16968
391.568	5696
391.648	9362
391.728	11473
391.808	12325
391.888	13483
391.969	33699
392.049	46123
392.129	26562
392.209	29527
392.289	60130
392.369	38540
392.449	43268
392.529	23590
392.609	15984
392.689	22576
392.769	57906
392.849	48045
392.929	46008
393.009	93394
393.089	60092
393.169	45277
393.248	157214
393.328	509243
393.408	473182
393.488	118617
393.568	37628
393.648	20503
393.728	15483
393.807	12156
393.887	12144
393.967	13144
394.047	18330
394.127	23866
394.206	45474
394.286	158892
394.366	470263
394.446	461498
394.525	151011
394.605	47793
394.685	37427
394.764	67476
394.844	99078
394.924	61697
395.003	19639
395.083	14097
395.163	12666
395.242	12213
395.322	13374
395.402	10385
395.481	17067
395.561	47322
395.640	100464
395.720	77821
395.799	116439
395.879	93118
395.958	75945
396.038	239702
396.117	592572
396.197	592206
396.276	259782
396.356	101276
396.435	65542
396.515	39667
396.594	34792
396.673	52404
396.753	181142
396.832	458577
396.912	318000
396.991	80712
397.070	24644
397.150	14681
397.229	12507
397.308	14602
397.388	21702
397.467	14246
397.546	9026
397.625	6130
397.705	11093
397.784	9955
397.863	6623
397.942	6105
398.022	9315
398.101	40014
398.180	95057
398.259	50319
398.338	14331
398.417	7688
398.497	7710
398.576	8103
398.655	5331
398.734	6362
398.813	9592
398.892	38181
398.971	99054
399.050	45818
399.129	7526
399.208	5153
399.287	5853
399.366	4196
399.445	5042
399.524	4973
399.603	5026
399.682	10268
399.761	36579
399.840	104651
399.919	73483
399.998	11148
400.077	4634
400.156	2677
400.235	7324
400.313	5402
400.392	8308
400.471	30594
400.550	42916
400.629	12148
400.708	7421
400.786	9934
400.865	29362
400.944	28041
401.023	13174
401.102	3392
401.180	3820
401.259	5120
401.338	6829
401.416	7700
401.495	7085
401.574	7381
401.652	5874
401.731	9971
401.810	8288
401.888	5806
401.967	3299
402.046	4508
402.124	8006
402.203	8538
402.281	8043
402.360	11920
402.438	35552
402.517	22280
402.596	8929
402.674	7114
402.753	6105
402.831	5250
402.910	8568
402.988	34048
403.066	88946
403.145	49552
403.223	36434
403.302	79714
403.380	63957
403.459	61228
403.537	26098
403.615	10796
403.694	3523
403.772	4362
403.850	3421
403.929	3193
404.007	5460
404.085	14724
404.164	18603
404.242	10439
404.320	29596
404.398	90652
404.477	102546
404.555	141133
404.633	114595
404.711	68555
404.789	46019
404.868	15258
404.946	7201
405.024	4926
405.102	4226
405.180	2882
405.258	3519
405.336	4879
405.415	5616
405.493	13674
405.571	12538
405.649	4926
405.727	4535
405.805	7337
405.883	7909
405.961	9271
406.039	10119
406.117	4175
406.195	9524
406.273	35911
406.351	105292
406.429	62413
406.507	15051
406.585	6205
406.663	5755
406.740	5947
406.818	6001
406.896	4351
406.974	5854
407.052	13677
407.130	67245
407.208	81949
407.285	17642
407.363	4128
407.441	4672
407.519	3871
407.596	6466
407.674	15858
407.752	41873
407.830	43016
407.907	20990
407.985	8400
408.063	4964
408.141	3733
408.218	11015
408.296	11215
408.373	8511
408.451	5402
408.529	5569
408.606	2060
408.684	2704
408.762	1460
408.839	2495
408.917	1967
408.994	2834
409.072	2525
409.149	2880
409.227	4629
409.304	5449
409.382	4060
409.459	4491
409.537	5640
409.614	5839
409.692	4597
409.769	5275
409.846	5883
409.924	9912
410.001	6663
410.079	6781
410.156	5801
410.233	7965
410.311	6025
410.388	4441
410.465	5047
410.543	5810
410.620	4137
410.697	4901
410.775	4152
410.852	2130
410.929	5257
411.006	7027
411.083	5302
411.161	12209
411.238	13567
411.315	8254
411.392	3696
411.469	7292
411.547	6516
411.624	3922
411.701	3418
411.778	5617
411.855	8063
411.932	5869
412.009	3110
412.086	3961
412.163	5002
412.240	6492
412.317	7790
412.394	7387
412.471	3674
412.548	3006
412.625	3144
412.702	6320
412.779	11358
412.856	8971
412.933	3550
413.010	4527
413.087	7427
413.164	29296
413.241	35176
413.318	10295
413.395	6808
413.471	9700
413.548	5085
413.625	4256
413.702	4799
413.779	5253
413.855	2561
413.932	2503
414.009	1661
414.086	2450
414.162	3080
414.239	8851
414.316	29035
414.393	55109
414.469	19232
414.546	3932
414.623	2640
414.699	3480
414.776	3342
414.853	2825
414.929	3203
415.006	4319
415.082	5684
415.159	3937
415.236	3446
415.312	4301
415.389	6675
415.465	8697
415.542	4889
415.618	3439
415.695	6066
415.771	3822
415.848	4751
415.924	4905
416.000	3759
416.077	4292
416.153	1645
416.230	1788
416.306	2325
416.383	2977
416.459	2452
416.535	2298
416.612	1845
416.688	3112
416.764	2583
416.841	2245
416.917	2567
416.993	3292
417.069	3620
417.146	8940
417.222	12656
417.298	7251
417.374	2815
417.451	4178
417.527	4542
417.603	4288
417.679	4057
417.755	3726
417.831	1472
417.908	2618
417.984	2185
418.060	2581
418.136	7662
418.212	9222
418.288	3996
418.364	3337
418.440	2983
418.516	6757
418.592	11239
418.668	15588
418.744	17015
418.820	12382
418.896	4694
418.972	2132
419.048	2681
419.124	9027
419.200	5429
419.276	2776
419.352	1347
419.428	2663
419.504	3812
419.579	3704
419.655	3393
419.731	4602
419.807	11716
419.883	20152
419.959	12401
420.034	5536
420.110	11633
420.186	36422
420.262	26046
420.337	6838
420.413	4712
420.489	3606
420.565	3114
420.640	3098
420.716	3189
420.792	1530
420.867	3141
420.943	4052
421.019	5784
421.094	4329
421.170	3930
421.245	2980
421.321	3428
421.397	4101
421.472	8982
421.548	20076
421.623	14211
421.699	6711
421.774	5689
421.850	5802
421.925	8216
422.001	8760
422.076	7404
422.152	9937
422.227	12882
422.302	17753
422.378	25369
422.453	45203
422.529	110631
422.604	296300
422.679	428676
422.755	282073
422.830	105812
422.905	43735
422.981	23697
423.056	16334
423.131	11258
423.207	9881
423.282	9542
423.357	14040
423.432	9893
423.508	11732
423.583	19625
423.658	14308
423.733	7162
423.808	8190
423.883	7586
423.959	6318
424.034	4264
424.109	5130
424.184	2904
424.259	3172
424.334	2723
424.409	2839
424.484	3152
424.559	4048
424.634	2804
424.709	5333
424.784	5097
424.859	4735
424.934	7920
425.009	26015
425.084	39116
425.159	14925
425.234	4353
425.309	3232
425.384	16184
425.459	25518
425.534	8182
425.609	4285
425.683	2758
425.758	2891
425.833	3482
425.908	5371
425.983	16393
426.058	39188
426.132	18332
426.207	6446
426.282	10753
426.357	9454
426.431	3305
426.506	2920
426.581	4075
426.655	3963
426.730	2475
426.805	3334
426.879	3914
426.954	4665
427.029	8411
427.103	43544
427.178	88330
427.253	37356
427.327	7324
427.402	14170
427.476	31113
427.551	14988
427.625	5964
427.700	5415
427.774	3581
427.849	5594
427.923	3395
427.998	3741
428.072	4325
428.147	11326
428.221	36563
428.296	81133
428.370	37633
428.444	8370
428.519	13929
428.593	27407
428.667	22331
428.742	27831
428.816	24201
428.890	70094
428.965	91222
429.039	37935
429.113	28413
429.188	11489
429.262	3878
429.336	8677
429.410	20489
429.485	15927
429.559	22326
429.633	17477
429.707	5907
429.781	19080
429.855	79544
429.930	96265
430.004	70725
430.078	112762
430.152	91772
430.226	121199
430.300	102093
430.374	18197
430.448	10538
430.522	43992
430.596	99607
430.670	57453
430.744	97585
430.818	121416
430.892	24317
430.966	6031
431.040	2926
431.114	2846
431.188	2331
431.262	3377
431.336	4106
431.410	14385
431.484	30459
431.557	17355
431.631	3749
431.705	5319
431.779	19577
431.853	69123
431.927	43939
432.000	7348
432.074	3151
432.148	5872
432.222	4480
432.295	3406
432.369	3411
432.443	8146
432.516	42972
432.590	88445
432.664	32230
432.737	4510
432.811	1622
432.885	1534
432.958	1988
433.032	2285
433.106	1150
433.179	1496
433.253	1826
433.326	2157
433.400	1520
433.473	1859
433.547	654
433.620	2640
433.694	4856
433.767	4918
433.841	1924
433.914	2588
433.988	1733
434.061	2659
434.134	1100
434.208	1659
434.281	484
434.355	2343
434.428	2011
434.501	2195
434.575	1924
434.648	2418
434.721	1008
434.795	943
434.868	637
434.941	884
435.014	1520
435.088	1920
435.161	3293
435.234	4741
435.307	5189
435.381	3239
435.454	2296
435.527	3051
435.600	2783
435.673	2472
435.746	2336
435.819	2997
435.892	1695
435.966	2090
436.039	1572
436.112	3662
436.185	1045
436.258	1462
436.331	111
436.404	940
436.477	229
436.550	1379
436.623	1491
436.696	1612
436.769	2129
436.842	2400
436.915	2497
436.987	4553
437.060	2833
437.133	1745
437.206	1170
437.279	2535
437.352	1433
437.425	1619
437.498	3155
437.570	6999
437.643	4979
437.716	2102
437.789	1147
437.861	6359
437.934	14357
438.007	6548
438.080	3249
438.152	3459
438.225	8881
438.298	55080
438.370	115864
438.443	46488
438.516	13449
438.588	3703
438.661	1837
438.734	3203
438.806	2989
438.879	3951
438.951	4930
439.024	7582
439.096	2352
439.169	1623
439.241	2542
439.314	2764
439.386	5432
439.459	6939
439.531	9307
439.604	3750
439.676	1414
439.749	1967
439.821	1339
439.893	1668
439.966	2279
440.038	3634
440.110	2733
440.183	2654
440.255	1781
440.327	5643
440.400	25412
440.472	79817
440.544	45423
440.617	7554
440.689	6781
440.761	8702
440.833	12070
440.905	6909
440.978	1927
441.050	1140
441.122	1407
441.194	1355
441.266	1741
441.338	1725
441.411	5751
441.483	27639
441.555	33342
441.627	8030
441.699	7089
441.771	6392
441.843	1967
441.915	2727
441.987	1490
442.059	2815
442.131	3802
442.203	6679
442.275	6240
442.347	6220
442.419	7778
442.491	31841
442.563	60265
442.635	30171
442.706	29362
442.778	19383
442.850	3215
442.922	3205
442.994	3776
443.066	5315
443.137	4899
443.209	4192
443.281	6070
443.353	14449
443.425	48729
443.496	125833
443.568	100942
443.640	34643
443.711	9355
443.783	5034
443.855	3559
443.926	1887
443.998	3069
444.070	4956
444.141	3987
444.213	5744
444.285	6711
444.356	5303
444.428	4804
444.499	2484
444.571	569
444.642	1821
444.714	2914
444.785	5725
444.857	9095
444.928	21001
445.000	11265
445.071	16426
445.143	15707
445.214	10367
445.285	18224
445.357	47797
445.428	111174
445.500	197947
445.571	114767
445.642	51682
445.714	32086
445.785	33064
445.856	9367
445.928	7149
445.999	6432
446.070	5294
446.141	5250
446.213	7284
446.284	4208
446.355	5163
446.426	3026
446.497	3790
446.569	8086
446.640	9314
446.711	4468
446.782	2607
446.853	3330
446.924	4175
446.995	2423
447.066	4540
447.138	8386
447.209	4673
447.280	1451
447.351	2006
447.422	1427
447.493	3618
447.564	3928
447.635	4616
447.706	1923
447.777	2613
447.847	1264
447.918	2312
447.989	4586
448.060	6475
448.131	15021
448.202	10765
448.273	6340
448.344	3754
448.414	2280
448.485	2072
448.556	1876
448.627	1709
448.698	2527
448.768	2003
448.839	2661
448.910	8195
448.981	6008
449.051	3088
449.122	1588
449.193	1986
449.263	2087
449.334	2888
449.405	4286
449.475	7396
449.546	5507
449.616	10092
449.687	6777
449.758	3458
449.828	2951
449.899	2892
449.969	2111
450.040	2973
450.110	4472
450.181	4190
450.251	2911
450.322	2402
450.392	2966
450.463	3195
450.533	1451
450.604	2774
450.674	1867
450.744	3159
450.815	1609
450.885	2287
450.955	2156
451.026	1874
451.096	2733
451.166	4547
451.237	11245
451.307	23130
451.377	7063
451.447	2220
451.518	2219
451.588	2391
451.658	3264
451.728	7608
451.799	25960
451.869	23255
451.939	4014
452.009	1827
452.079	1283
452.149	3305
452.219	8318
452.289	30131
452.360	15703
452.430	4393
452.500	2969
452.570	4550
452.640	5204
452.710	17872
452.780	23741
452.850	14038
452.920	10550
452.990	4766
453.060	3741
453.129	5275
453.199	7736
453.269	37730
453.339	59099
453.409	80502
453.479	96890
453.549	133638
453.619	132098
453.688	40344
453.758	7357
453.828	4567
453.898	2912
453.968	2720
454.037	2310
454.087	2625
454.107	2746
454.168	2433
454.177	2379
454.247	3388
454.249	3330
454.316	1485
454.330	2114
454.386	4321
454.411	8130
454.456	14322
454.492	16006
454.525	17593
454.574	9208
454.595	5588
454.655	3185
454.665	2838
454.734	4028
454.736	4211
454.804	8865
454.817	12078
454.873	24716
454.898	24341
454.943	23553
454.979	14604
455.013	6763
455.060	5107
455.082	4530
455.141	6052
455.152	6247
455.221	20765
455.222	20981
455.291	31111
455.303	30247
455.360	25839
455.384	32740
455.430	43664
455.465	32721
455.499	22825
455.546	22991
455.569	22768
455.627	12220
455.638	10419
455.707	2288
455.708	2301
455.777	2700
455.789	2687
455.846	2657
455.869	2399
455.916	1799
455.950	2189
455.985	2554
456.031	2444
456.054	2345
456.112	1612
456.124	1527
456.193	1918
456.193	1900
456.262	2305
456.274	2606
456.332	3990
456.355	3893
456.401	3364
456.436	2815
456.470	2310
456.516	1770
456.540	1590
456.597	1610
456.609	1582
456.678	1459
456.678	1454
456.747	1266
456.759	1084
456.817	273
456.840	708
456.886	1230
456.920	1137
456.955	1312
457.001	1983
457.024	2350
457.082	2865
457.093	2961
457.162	4805
457.163	4828
457.232	3947
457.243	3621
457.301	2389
457.324	2041
457.370	1867
457.405	2248
457.439	2536
457.485	2231
457.508	2017
457.566	2258
457.577	2347
457.646	2655
457.647	2672
457.715	3802
457.727	3914
457.784	4785
457.808	5844
457.853	7316
457.889	8138
457.922	8360
457.969	7195
457.991	7194
458.050	7221
458.060	7252
458.129	11141
458.130	11239
458.198	11499
458.211	10671
458.267	7221
458.292	5478
458.336	3807
458.372	3728
458.405	4559
458.453	6286
458.474	7118
458.533	11184
458.543	11576
458.611	17592
458.614	17671
458.680	13561
458.694	11437
458.749	5882
458.775	4904
458.818	3742
458.855	3108
458.887	2828
458.936	2942
458.955	2853
459.016	2354
459.024	2385
459.093	3440
459.097	3433
459.162	2459
459.177	2421
459.230	3401
459.257	3995
459.299	3881
459.338	3594
459.368	3865
459.418	4514
459.437	4325
459.499	3341
459.505	3310
459.574	3125
459.579	3134
459.643	3156
459.659	2929
459.711	2638
459.740	2851
459.780	2891
459.820	2999
459.849	3309
459.900	3537
459.917	3350
459.981	3127
459.986	3133
460.054	3142
460.061	3112
460.123	3072
460.141	3292
460.191	4193
460.222	4402
460.260	4434
460.302	4980
460.328	4991
460.382	4298
460.397	4287
460.462	4413
460.465	4566
460.534	8551
460.543	9066
460.602	20066
460.623	24826
460.671	36734
460.703	50798
460.739	48541
460.783	34318
460.808	29608
460.864	8130
460.876	5373
460.944	3491
460.945	3471
461.013	3872
461.024	3865
461.081	3524
461.104	3564
461.150	3681
461.184	3450
461.218	3159
461.264	3089
461.286	3264
461.345	3369
461.355	3275
461.423	3257
461.425	3249
461.491	4404
461.505	4718
461.559	10275
461.585	12771
461.628	18040
461.665	24201
461.696	25736
461.745	30742
461.764	28073
461.825	8273
461.832	7625
461.901	4995
461.905	5016
461.969	4327
461.985	4007
462.037	4306
462.065	4828
462.105	5925
462.145	6677
462.173	8819
462.225	13394
462.241	14566
462.305	21075
462.310	20514
462.378	10201
462.385	8547
462.446	4663
462.465	4362
462.514	4055
462.545	4159
462.582	4739
462.625	5182
462.650	4961
462.705	4571
462.718	4848
462.785	6401
462.786	6432
462.854	7685
462.865	8065
462.922	10219
462.945	11008
462.990	8239
463.025	5241
463.058	4623
463.104	4346
463.126	4160
463.184	3686
463.194	3747
463.262	4039
463.264	4075
463.330	5319
463.344	5396
463.398	5580
463.424	5890
463.466	5363
463.504	4708
463.533	5104
463.583	5951
463.601	6124
463.663	6250
463.669	6413
463.737	8871
463.743	9089
463.805	15776
463.823	17679
463.873	25476
463.903	30810
463.940	30732
463.982	31398
464.008	25939
464.062	9593
464.076	8599
464.142	5444
464.144	5402
464.211	5091
464.221	5068
464.279	5710
464.301	5960
464.347	6362
464.381	6603
464.414	7184
464.461	8072
464.482	8350
464.540	9442
464.550	9210
464.617	6604
464.620	6518
464.685	7754
464.699	8038
464.753	8900
464.779	9404
464.820	10350
464.859	11150
464.888	11083
464.938	10948
464.956	11124
465.018	11581
465.023	11445
465.091	9431
465.098	9198
465.158	9621
465.177	9882
465.226	9503
465.257	9069
465.293	9256
465.336	9549
465.361	10194
465.416	11623
465.428	12952
465.495	20255
465.496	20348
465.563	30217
465.575	32105
465.631	36609
465.654	38507
465.698	24881
465.734	12085
465.765	10929
465.813	9926
465.833	9695
465.893	9668
465.900	9735
465.968	9936
465.972	9951
466.035	9731
466.052	9629
466.102	10175
466.131	10468
466.170	10552
466.210	10644
466.237	11140
466.290	12101
466.304	12140
466.369	12081
466.372	12142
466.439	13559
466.449	13741
466.506	15641
466.528	16337
466.573	23460
466.607	28735
466.641	36191
466.687	46552
466.708	49647
466.766	58474
466.775	54431
466.842	22639
466.845	21104
466.909	17805
466.925	17115
466.977	17191
467.004	17232
467.044	17432
467.083	17617
467.111	18241
467.163	19304
467.178	19534
467.242	20390
467.245	20341
467.312	18761
467.321	18530
467.379	18178
467.400	18002
467.446	18914
467.480	19523
467.559	17056
467.638	15004
467.717	13856
467.796	15032
467.875	16341
467.955	15727
468.034	28960
468.113	52130
468.192	69490
468.271	16734
468.350	12972
468.429	11934
468.508	12247
468.588	12229
468.667	12413
468.746	13540
468.825	13120
468.904	9997
468.983	15725
469.062	20574
469.141	23780
469.220	10595
469.299	11366
469.378	11294
469.456	14560
469.535	12488
469.614	11550
469.693	12741
469.772	17143
469.851	22381
469.930	14254
470.009	11404
470.088	10585
470.166	10694
470.245	12098
470.324	12727
470.403	11646
470.482	10953
470.560	10710
470.639	10564
470.718	12568
470.797	10854
470.875	14534
470.954	19096
471.033	18819
471.111	8258
471.190	7682
471.269	8100
471.347	8735
471.426	9499
471.505	12048
471.583	11977
471.662	11054
471.740	9407
471.819	10087
471.898	9842
471.976	9159
472.055	9030
472.133	11781
472.212	15965
472.290	14682
472.369	10086
472.447	8738
472.526	8142
472.604	10533
472.683	10612
472.761	10778
472.839	9374
472.918	8917
472.996	10441
473.075	10764
473.153	10661
473.231	9531
473.310	10700
473.388	10658
473.466	10735
473.545	11433
473.623	13714
473.701	12427
473.780	10137
473.858	9298
473.936	11632
474.014	9059
474.093	12059
474.171	17532
474.249	22786
474.327	12746
474.405	9238
474.484	8743
474.562	8661
474.640	10176
474.718	11659
474.796	11941
474.874	10586
474.952	9545
475.030	10062
475.108	11496
475.187	13498
475.265	16112
475.343	21522
475.421	22007
475.499	11312
475.577	11461
475.655	16663
475.733	30555
475.811	51627
475.889	42935
475.966	25179
476.044	10890
476.122	14930
476.200	19176
476.278	13167
476.356	9587
476.434	10868
476.512	14637
476.590	17686
476.667	15061
476.745	7793
476.823	9659
476.901	9035
476.979	10771
477.056	9784
477.134	10076
477.212	10428
477.290	9890
477.367	8108
477.445	8866
477.523	6976
477.601	8301
477.678	8316
477.756	11344
477.834	12403
477.911	8230
477.989	8893
478.066	8866
478.144	10572
478.222	14137
478.299	23291
478.377	19406
478.454	8460
478.532	8824
478.609	7368
478.687	9269
478.764	7693
478.842	8432
478.919	8757
478.997	8903
479.074	8584
479.152	10669
479.229	13310
479.307	7846
479.384	6366
479.461	7623
479.539	7974
479.616	10099
479.694	8533
479.771	9296
479.848	9870
479.926	13209
480.003	13863
480.080	7485
480.157	7755
480.235	7190
480.312	8640
480.389	11228
480.467	16655
480.544	19873
480.621	9942
480.698	10073
480.775	10334
480.853	11775
480.930	9457
481.007	10697
481.084	11035
481.161	12808
481.238	11446
481.315	7552
481.392	7028
481.470	8373
481.547	8069
481.624	8003
481.701	7703
481.778	8676
481.855	10572
481.932	18410
482.009	26085
482.086	16732
482.163	10573
482.240	18268
482.317	29308
482.393	20281
482.470	8995
482.547	9392
482.624	7604
482.701	9684
482.778	7934
482.855	7050
482.932	5997
483.009	7452
483.085	8602
483.162	11108
483.239	8979
483.316	7632
483.393	8166
483.469	7782
483.546	10121
483.623	10606
483.699	8297
483.776	8677
483.853	9821
483.930	19700
484.006	45474
484.083	70853
484.160	33685
484.236	45747
484.313	34883
484.389	26252
484.466	23422
484.543	23149
484.619	23023
484.696	24787
484.772	25462
484.849	27084
484.925	21339
485.002	22129
485.078	22558
485.155	23202
485.231	20923
485.308	19849
485.384	22177
485.461	28517
485.537	45851
485.614	50690
485.690	21367
485.766	20449
485.843	21841
485.919	26690
485.995	25764
486.072	19118
486.148	18367
486.224	18269
486.301	19499
486.377	22750
486.453	21685
486.530	22832
486.606	28182
486.682	34032
486.758	39594
486.835	44944
486.911	36584
486.987	57782
487.063	50733
487.139	54539
487.215	37710
487.292	23350
487.368	21024
487.444	23009
487.520	25949
487.596	24158
487.672	31227
487.748	52874
487.824	66801
487.900	35114
487.976	24005
488.052	23106
488.128	26146
488.204	22836
488.280	19452
488.356	28930
488.432	57184
488.508	77297
488.584	24278
488.660	18439
488.736	18197
488.812	19624
488.888	22030
488.964	30668
489.039	55399
489.115	73766
489.191	42665
489.267	20393
489.343	18888
489.418	16270
489.494	14941
489.570	14002
489.646	17783
489.722	16980
489.797	18782
489.873	32120
489.949	60958
490.024	46509
490.100	15998
490.176	16990
490.251	18934
490.327	21126
490.403	14840
490.478	15599
490.554	13895
490.629	13468
490.705	13463
490.781	15353
490.856	14779
490.932	16875
491.007	16128
491.083	16046
491.158	16042
491.234	25065
491.309	47267
491.385	44102
491.460	16832
491.536	17788
491.611	14996
491.686	16238
491.762	20278
491.837	35497
491.913	60271
491.988	80037
492.063	86216
492.139	33404
492.214	22179
492.289	12643
492.365	11836
492.440	16213
492.515	15271
492.590	14223
492.666	12217
492.741	20352
492.816	26349
492.891	14836
492.967	12607
493.042	10867
493.117	12171
493.192	14368
493.267	28164
493.342	76281
493.418	87480
493.493	15294
493.568	10299
493.643	11086
493.718	16715
493.793	21918
493.868	21056
493.943	13652
494.018	11982
494.093	11151
494.168	12292
494.243	10066
494.318	10776
494.393	10912
494.468	10142
494.543	9950
494.618	11129
494.693	10567
494.768	11061
494.842	11140
494.917	10043
494.992	10503
495.067	11444
495.142	10241
495.217	11232
495.292	12291
495.366	13167
495.441	14900
495.516	18890
495.591	28710
495.665	82112
495.740	153544
495.815	59614
495.890	18671
495.964	15517
496.039	18117
496.114	16796
496.188	18081
496.263	18325
496.338	17140
496.412	19195
496.487	22482
496.561	21146
496.636	22621
496.710	20682
496.785	22043
496.860	25577
496.934	21940
497.009	21594
497.083	22915
497.158	24737
497.232	28626
497.307	33446
497.381	31203
497.455	37340
497.530	46322
497.604	37603
497.679	43394
497.753	58459
497.827	70101
497.902	66036
497.976	77429
498.050	170606
498.125	448338
498.199	373236
498.273	89525
498.348	78122
498.422	69224
498.496	64016
498.570	57307
498.645	49307
498.719	46105
498.793	49681
498.867	59399
498.941	79121
499.016	213859
499.090	428584
499.164	127589
499.238	30136
499.312	27731
499.386	29225
499.460	27589
499.534	24566
499.609	29469
499.683	36993
499.757	38991
499.831	101349
499.905	304600
499.979	235554
500.053	44847
500.127	42023
500.201	26956
500.275	21305
500.349	19968
500.422	22966
500.496	29179
500.570	63348
500.644	179711
500.718	283517
500.792	53557
500.866	22447
500.940	26622
501.013	20922
501.087	20542
501.161	29637
501.235	43463
501.309	115164
501.382	275908
501.456	201820
501.530	54930
501.603	85525
501.677	31331
501.751	14599
501.825	21271
501.898	44892
501.972	108164
502.046	57156
502.119	21131
502.193	55058
502.266	113440
502.340	50410
502.413	57346
502.487	99026
502.561	53244
502.634	18573
502.708	14206
502.781	11791
502.855	12138
502.928	10096
503.002	10684
503.075	11043
503.149	12033
503.222	12013
503.295	12760
503.369	16597
503.442	25405
503.516	94257
503.589	203982
503.662	115989
503.736	42818
503.809	93172
503.882	75691
503.956	108679
504.029	85309
504.102	36814
504.175	39143
504.249	19739
504.322	18499
504.395	14685
504.468	11930
504.542	10860
504.615	8922
504.688	9119
504.761	7680
504.834	11867
504.907	13504
504.980	17708
505.053	11789
505.127	11627
505.200	17516
505.273	17152
505.346	10680
505.419	7482
505.492	9369
505.565	6803
505.638	7920
505.711	7819
505.784	7291
505.857	7212
505.930	10306
506.003	7240
506.076	10938
506.149	12271
506.221	14786
506.294	16731
506.367	51855
506.440	141971
506.513	62242
506.586	16758
506.659	10269
506.731	8935
506.804	10551
506.877	12931
506.950	11102
507.022	8930
507.095	10552
507.168	13203
507.241	8937
507.313	7384
507.386	8065
507.459	10630
507.531	7886
507.604	5727
507.677	7345
507.749	5489
507.822	10801
507.894	19001
507.967	22723
508.040	13361
508.112	12158
508.185	11097
508.257	10217
508.330	15857
508.402	10834
508.475	10380
508.547	12618
508.620	12449
508.692	19706
508.765	12225
508.837	9484
508.909	9664
508.982	9631
509.054	9379
509.127	8905
509.199	7942
509.271	8274
509.344	7997
509.416	8287
509.488	8212
509.560	9641
509.633	10280
509.705	10246
509.777	11522
509.849	14497
509.922	9199
509.994	9324
510.066	11941
510.138	11128
510.210	21161
510.283	18271
510.355	16533
510.427	14666
510.499	12690
510.571	12531
510.643	12325
510.715	18494
510.787	13923
510.859	12654
510.931	15074
511.003	17686
511.076	16282
511.148	11427
511.219	13043
511.291	22305
511.363	22763
511.435	11296
511.507	9949
511.579	11741
511.651	10758
511.723	10392
511.795	9371
511.867	10339
511.939	15797
512.010	28862
512.082	20119
512.154	10511
512.226	11325
512.298	17373
512.369	22238
512.441	18436
512.513	16300
512.585	12696
512.656	14774
512.728	15500
512.800	11661
512.871	13068
512.943	11914
513.015	9202
513.086	11574
513.158	13257
513.230	12268
513.301	17378
513.373	17060
513.444	11564
513.516	11193
513.588	11474
513.659	11898
513.731	13937
513.802	11417
513.874	24861
513.945	34847
514.016	14620
514.088	11125
514.159	12161
514.231	15816
514.302	20085
514.374	16691
514.445	16721
514.516	34728
514.588	23324
514.659	18578
514.730	31126
514.802	24592
514.873	24769
514.944	27711
515.016	22541
515.087	19971
515.158	26853
515.229	34316
515.301	30019
515.372	41167
515.443	30262
515.514	21994
515.585	16072
515.656	15168
515.728	13987
515.799	12044
515.870	12535
515.941	12428
516.012	11890
516.083	16851
516.154	16688
516.225	19517
516.296	17703
516.367	14940
516.438	15248
516.509	18813
516.580	27688
516.651	81926
516.722	210333
516.793	91645
516.864	28553
516.935	27336
517.006	27621
517.077	36847
517.148	82668
517.219	251516
517.289	328088
517.360	165158
517.431	53266
517.502	18609
517.573	17893
517.643	17928
517.714	19203
517.785	20295
517.856	19143
517.926	22504
517.997	23060
518.068	23380
518.138	30393
518.209	48978
518.280	197645
518.350	530741
518.421	181448
518.492	31229
518.562	24071
518.633	22638
518.703	20315
518.774	32659
518.845	51302
518.915	42858
518.986	25727
519.056	24799
519.127	38252
519.197	66914
519.268	161899
519.338	85618
519.408	24574
519.479	24961
519.549	18094
519.620	15503
519.690	13196
519.760	11986
519.831	13704
519.901	12758
519.971	12099
520.042	13792
520.112	14855
520.182	16654
520.253	17461
520.323	13998
520.393	21215
520.463	29837
520.534	23775
520.604	41617
520.674	21029
520.744	22871
520.814	46595
520.885	39994
520.955	67587
521.025	190444
521.095	59217
521.165	15997
521.235	13564
521.305	12086
521.375	11880
521.445	12216
521.515	13314
521.585	17008
521.655	14906
521.725	13987
521.795	14516
521.865	9699
521.935	19618
522.005	14336
522.075	10808
522.145	13486
522.215	13711
522.285	19958
522.355	28029
522.424	50721
522.494	39723
522.564	19895
522.634	37528
522.704	80026
522.774	28047
522.843	12579
522.913	11942
522.983	12776
523.053	10975
523.122	13014
523.192	16031
523.262	45311
523.331	36919
523.401	12165
523.471	9066
523.540	10458
523.610	7762
523.680	8390
523.749	10696
523.819	13292
523.888	11696
523.958	8974
524.027	10170
524.097	10220
524.166	10738
524.236	10041
524.305	11781
524.375	8539
524.444	7639
524.514	10995
524.583	10551
524.653	13684
524.722	15298
524.791	9270
524.861	10940
524.930	8852
524.999	9160
525.069	12241
525.138	12330
525.207	13788
525.277	10669
525.346	9206
525.415	10097
525.484	10358
525.554	12871
525.623	12204
525.692	12091
525.761	11541
525.830	11870
525.900	11157
525.969	17569
526.038	23122
526.107	40669
526.176	96651
526.245	70740
526.314	35035
526.383	60501
526.452	70410
526.522	126189
526.591	118735
526.660	46881
526.729	23436
526.797	27281
526.867	70728
526.935	257990
527.004	311935
527.073	137392
527.142	21041
527.211	13970
527.280	13826
527.349	13277
527.418	7472
527.487	10265
527.555	8782
527.624	7921
527.693	6698
527.762	9231
527.831	6244
527.899	8735
527.968	7898
528.037	6711
528.106	11044
528.174	16138
528.243	15975
528.312	22839
528.380	23535
528.449	9513
528.518	9340
528.586	5935
528.655	7437
528.723	7424
528.792	6678
528.861	7843
528.929	6730
528.998	7646
529.066	7491
529.135	8206
529.203	7075
529.272	7444
529.340	9875
529.409	10586
529.477	9193
529.545	11726
529.614	14363
529.682	15493
529.751	16900
529.819	18714
529.887	13323
529.956	10171
530.024	10415
530.092	8885
530.161	13014
530.229	14323
530.297	10331
530.365	10641
530.434	9462
530.502	9309
530.570	9346
530.638	7687
530.707	9965
530.775	11772
530.843	8689
530.911	9586
530.979	9257
531.047	9680
531.115	10487
531.183	9289
531.252	10086
531.320	10424
531.388	8414
531.456	10728
531.524	8027
531.592	10173
531.660	12823
531.728	10071
531.796	10124
531.864	9240
531.932	10591
532.000	10285
532.067	10421
532.135	11992
532.203	13276
532.271	13267
532.339	22020
532.407	41018
532.475	23549
532.542	14310
532.610	16071
532.678	22809
532.746	86058
532.814	152728
532.881	36143
532.949	13985
533.017	11897
533.084	12498
533.152	11259
533.220	10777
533.287	11321
533.355	10744
533.423	11416
533.490	10806
533.558	10299
533.625	11942
533.693	11047
533.761	12615
533.828	13006
533.896	12181
533.963	21816
534.031	24771
534.098	30117
534.166	17091
534.233	11776
534.300	14790
534.368	14024
534.435	12294
534.503	11785
534.570	13022
534.637	11210
534.705	12243
534.772	12869
534.840	18752
534.907	56477
534.974	56164
535.041	15357
535.109	14309
535.176	10107
535.243	10851
535.310	11088
535.378	9837
535.445	9983
535.512	9664
535.579	9660
535.646	8824
535.714	10905
535.781	14078
535.848	12009
535.915	14537
535.982	14199
536.049	13785
536.116	13394
536.183	11799
536.250	11929
536.317	12197
536.384	12450
536.451	16614
536.518	15313
536.585	12305
536.652	17307
536.719	19897
536.786	14481
536.853	13609
536.920	19976
536.987	25999
537.053	27299
537.120	93986
537.187	59563
537.254	11675
537.321	10557
537.388	11267
537.454	9095
537.521	9959
537.588	9283
537.654	12263
537.721	12740
537.788	12906
537.855	9225
537.921	11356
537.988	10172
538.055	11036
538.121	9801
538.188	11669
538.254	16374
538.321	24295
538.388	14991
538.454	10643
538.521	10518
538.587	10535
538.654	9212
538.720	9867
538.787	10591
538.853	11413
538.920	12916
538.986	13111
539.053	11136
539.119	11421
539.185	10813
539.252	14010
539.318	16598
539.385	14603
539.451	13614
539.517	13828
539.583	16385
539.650	34252
539.716	62552
539.782	18019
539.849	11480
539.915	11936
539.981	11669
540.047	13033
540.114	12173
540.180	13830
540.246	11454
540.312	15928
540.378	25733
540.444	24733
540.510	33315
540.576	70736
540.643	21448
540.709	10497
540.775	11637
540.841	12027
540.907	17110
540.973	25221
541.039	17652
541.105	17119
541.171	11320
541.237	11063
541.303	11224
541.369	14409
541.435	16694
541.500	22252
541.566	14005
541.632	10496
541.698	9055
541.764	11504
541.830	10267
541.896	10710
541.961	11573
542.027	11518
542.093	11013
542.159	12427
542.224	13047
542.290	18458
542.356	23451
542.421	22793
542.487	14787
542.553	13092
542.618	14425
542.684	11192
542.750	11145
542.815	14564
542.881	24795
542.947	69849
543.012	39044
543.078	10859
543.143	10119
543.209	12484
543.274	11177
543.340	14074
543.405	31065
543.471	35958
543.536	12331
543.602	12339
543.667	9819
543.732	11844
543.798	10998
543.863	11951
543.928	10119
543.994	10308
544.059	11352
544.124	10746
544.190	10435
544.255	12010
544.320	11259
544.386	11267
544.451	15306
544.516	15845
544.581	17500
544.646	49371
544.712	56276
544.777	16204
544.842	15551
544.907	17050
544.972	14083
545.037	14881
545.102	15241
545.168	15232
545.233	16973
545.298	16581
545.363	18231
545.428	20229
545.493	31761
545.558	53474
545.623	22433
545.688	16607
545.753	15633
545.818	14585
545.883	16180
545.947	14553
546.012	16395
546.077	15990
546.142	16601
546.207	15719
546.272	18464
546.337	18443
546.401	17291
546.466	16291
546.531	15273
546.596	17934
546.661	16666
546.725	16771
546.790	14315
546.855	16623
546.919	15018
546.984	17192
547.049	18732
547.113	21509
547.178	18373
547.243	22349
547.307	23215
547.372	26015
547.436	27670
547.501	22975
547.565	24232
547.630	24827
547.695	25350
547.759	28763
547.823	25284
547.888	23178
547.952	21778
548.017	24464
548.081	27429
548.146	32927
548.210	29081
548.274	22736
548.339	22357
548.403	22222
548.468	20681
548.532	21426
548.596	22411
548.660	21476
548.725	23726
548.789	26793
548.853	29029
548.917	25433
548.982	32439
549.046	29240
549.110	20741
549.174	22118
549.238	21285
549.303	22989
549.367	23845
549.431	23001
549.495	22217
549.559	22002
549.623	24365
549.687	28810
549.751	34466
549.815	31080
549.879	28565
549.943	27534
550.007	30109
550.071	30238
550.135	32096
550.199	28053
550.263	27037
550.327	31046
550.391	35432
550.455	28822
550.519	29224
550.582	31256
550.646	37271
550.710	36017
550.774	32115
550.838	33563
550.901	33384
550.965	35590
551.029	35966
551.093	40740
551.156	49606
551.220	79002
551.284	70067
551.347	49495
551.411	88925
551.475	77014
551.538	36462
551.602	33277
551.666	31611
551.729	29425
551.793	29679
551.856	29886
551.920	29144
551.983	29227
552.047	27691
552.110	28462
552.174	28875
552.237	27981
552.301	27513
552.364	27260
552.428	26455
552.491	27391
552.554	28494
552.618	28347
552.681	29145
552.745	29138
552.808	34487
552.871	37842
552.934	31823
552.998	30653
553.061	30729
553.124	29232
553.187	28606
553.251	30910
553.314	30951
553.377	31631
553.440	44883
553.503	111215
553.567	135344
553.630	38475
553.693	29587
553.756	29684
553.819	26638
553.882	26925
553.945	26644
554.008	26719
554.071	26014
554.134	26505
554.197	26288
554.260	25932
554.323	27799
554.386	27185
554.449	27887
554.512	27052
554.575	25815
554.638	27386
554.701	25531
554.764	25476
554.827	25031
554.889	23771
554.952	22605
555.015	22285
555.078	22340
555.141	23381
555.203	22749
555.266	24093
555.329	23852
555.391	22786
555.454	23435
555.517	21964
555.580	21779
555.642	21045
555.705	21900
555.768	20828
555.830	21317
555.893	19106
555.955	20102
556.018	19622
556.080	20993
556.143	20384
556.206	20185
556.268	21341
556.330	21059
556.393	19309
556.455	21741
556.518	29559
556.580	26024
556.643	18986
556.705	18437
556.767	17736
556.830	19314
556.892	20579
556.955	26031
557.017	20855
557.079	18188
557.142	18194
557.204	21370
557.266	30983
557.328	24728
557.391	17194
557.453	17869
557.515	17649
557.577	20465
557.639	19467
557.701	17649
557.764	17407
557.826	18136
557.888	18957
557.950	17647
558.012	18494
558.074	23318
558.136	46331
558.198	78796
558.260	34445
558.322	21037
558.384	21602
558.446	23273
558.508	25598
558.570	30315
558.632	43318
558.694	52844
558.756	67471
558.818	211658
558.880	392936
558.942	113367
559.003	87441
559.065	43228
559.127	25069
559.189	24757
559.251	28559
559.312	38664
559.374	97733
559.436	251959
559.498	100477
559.559	26832
559.621	24154
559.683	27740
559.744	51121
559.806	138646
559.868	153816
559.929	36273
559.991	28392
560.052	39984
560.114	84175
560.176	50076
560.237	57363
560.299	71502
560.360	24194
560.422	19254
560.483	18207
560.545	17482
560.606	17542
560.667	16887
560.729	16553
560.790	16642
560.852	16906
560.913	16587
560.974	16596
561.036	16083
561.097	17624
561.158	15768
561.220	16853
561.281	16962
561.342	16623
561.403	18642
561.465	23107
561.526	41280
561.587	42372
561.648	19769
561.709	17559
561.771	17181
561.832	17100
561.893	17082
561.954	16863
562.015	16296
562.076	16150
562.137	16932
562.198	16678
562.259	16752
562.320	17195
562.381	17177
562.442	21520
562.503	18524
562.564	16607
562.625	16260
562.686	16394
562.747	17801
562.808	17606
562.869	18575
562.930	20893
562.991	19546
563.051	19670
563.112	17463
563.173	18530
563.234	16637
563.294	16591
563.355	17520
563.416	17813
563.477	16461
563.537	19041
563.598	19346
563.659	18598
563.720	17775
563.780	19991
563.841	18211
563.901	19245
563.962	18360
564.023	17615
564.083	18074
564.144	18999
564.204	17913
564.265	19477
564.325	23110
564.386	39726
564.446	29858
564.507	18437
564.567	18907
564.628	19409
564.688	18486
564.749	19261
564.809	22096
564.869	23912
564.930	19899
564.990	19142
565.050	18382
565.111	19470
565.171	18213
565.231	18539
565.292	20017
565.352	19565
565.412	20527
565.472	21084
565.532	21124
565.593	20448
565.653	20795
565.713	22146
565.773	22659
565.833	24696
565.893	26801
565.953	23292
566.013	23439
566.074	26523
566.134	31371
566.194	42611
566.254	39630
566.314	32523
566.374	29348
566.434	30374
566.494	30233
566.554	31580
566.614	33031
566.673	35775
566.733	36584
566.793	39398
566.853	40873
566.913	40712
566.973	43027
567.033	42395
567.092	42177
567.152	42206
567.212	42113
567.272	44336
567.331	46933
567.391	48273
567.451	52257
567.511	58497
567.570	55023
567.630	45447
567.690	45641
567.749	45925
567.809	49246
567.868	54169
567.928	60517
567.988	72213
568.047	82144
568.107	102208
568.166	141402
568.226	202431
568.285	257651
568.345	238249
568.404	206913
568.464	186002
568.523	175118
568.582	177374
568.642	193221
568.701	233547
568.761	319593
568.820	438245
568.879	432490
568.939	358667
568.998	289722
569.057	237453
569.116	195463
569.176	163839
569.235	139668
569.294	119692
569.353	103951
569.413	92744
569.472	81931
569.531	72810
569.590	66275
569.649	61416
569.708	55768
569.767	52540
569.827	51493
569.886	45214
569.945	41005
570.004	39694
570.063	36781
570.122	36725
570.181	35651
570.240	35425
570.299	33587
570.358	32524
570.417	27376
570.475	28044
570.534	27527
570.593	27232
570.652	26310
570.711	25817
570.770	24791
570.829	26078
570.887	23717
570.946	25004
571.005	21672
571.064	20922
571.122	22101
571.181	23489
571.240	21267
571.299	19766
571.357	20969
571.416	22655
571.475	24621
571.533	22709
571.592	20288
571.650	20384
571.709	18651
571.768	18286
571.826	17259
571.885	19015
571.943	17072
572.002	18289
572.060	17873
572.119	16953
572.177	17482
572.236	17318
572.294	16320
572.352	17030
572.411	16605
572.469	16038
572.528	16505
572.586	15708
572.644	17812
572.703	19155
572.761	16233
572.819	16159
572.877	16231
572.936	15496
572.994	15126
573.052	16051
573.110	15239
573.169	15421
573.227	14806
573.285	15095
573.343	16128
573.401	15192
573.459	14981
573.517	15306
573.576	14739
573.634	15317
573.692	15211
573.750	14449
573.808	14387
573.866	17052
573.924	19398
573.982	17817
574.040	14515
574.098	14820
574.155	13016
574.213	15438
574.271	13783
574.329	14783
574.387	13597
574.445	13986
574.503	13623
574.560	13005
574.618	12927
574.676	13041
574.734	14002
574.792	14175
574.849	12911
574.907	13103
574.965	12887
575.022	13313
575.080	12104
575.138	13884
575.195	13327
575.253	13551
575.311	14073
575.368	13001
575.426	12929
575.483	13640
575.541	12781
575.598	13986
575.656	13549
575.713	14208
575.771	13266
575.828	14475
575.886	13123
575.943	15385
576.001	14387
576.058	14085
576.115	14006
576.173	16818
576.230	17326
576.287	18633
576.345	16753
576.402	15112
576.459	14702
576.517	15332
576.574	16201
576.631	16261
576.688	14456
576.746	14934
576.803	14426
576.860	14366
576.917	15153
576.974	14616
577.031	14682
577.089	15471
577.146	14293
577.203	15224
577.260	17034
577.317	16949
577.374	17277
577.431	16358
577.488	15499
577.545	15542
577.602	14997
577.659	15997
577.716	15827
577.773	17172
577.830	14979
577.886	16142
577.943	15104
578.000	14946
578.057	16005
578.114	17161
578.171	18581
578.227	22143
578.284	20716
578.341	18617
578.398	17815
578.454	18345
578.511	18947
578.568	18721
578.625	16015
578.681	15213
578.738	15270
578.794	16496
578.851	16367
578.908	15709
578.964	16711
579.021	15846
579.077	16344
579.134	16190
579.190	14878
579.247	15912
579.303	14609
579.360	16114
579.416	14817
579.473	16513
579.529	14849
579.586	15393
579.642	16112
579.698	16308
579.755	17368
579.811	17617
579.867	17694
579.924	17607
579.980	17729
580.036	19926
580.093	22296
580.149	28306
580.205	29303
580.261	23712
580.317	22637
580.374	22122
580.430	21110
580.486	21491
580.542	19035
580.598	19461
580.619	19347
580.654	19166
580.692	19073
580.710	19047
580.765	17935
580.767	17912
580.823	18588
580.838	18469
580.879	18178
580.911	17757
580.935	17474
580.984	17782
580.991	17840
581.047	18356
581.057	18499
581.103	19192
581.130	20139
581.159	21130
581.203	21052
581.215	21026
581.270	20568
581.276	20463
581.326	19646
581.349	19889
581.382	20264
581.422	19883
581.438	19726
581.494	19794
581.494	19787
581.550	19565
581.567	19781
581.606	20224
581.640	19514
581.661	19127
581.713	20399
581.717	20505
581.773	19967
581.786	20269
581.829	21200
581.859	20958
581.885	20829
581.932	20725
581.940	20693
581.996	21114
582.004	20968
582.052	20184
582.077	20025
582.107	19856
582.150	20557
582.163	20788
582.219	21485
582.223	21564
582.274	22463
582.296	22564
582.330	22731
582.368	22234
582.386	22034
582.441	22375
582.441	22375
582.497	21847
582.514	22085
582.552	22617
582.587	23781
582.608	24505
582.659	24264
582.663	24215
582.719	23250
582.732	23246
582.774	23590
582.805	23220
582.830	22963
582.877	24143
582.885	24293
582.941	25408
582.950	25410
582.996	25672
583.023	26566
583.052	27687
583.095	28685
583.107	28912
583.162	30614
583.168	30718
583.218	31482
583.240	31300
583.273	30770
583.313	28887
583.328	28254
583.384	29285
583.385	29282
583.439	29087
583.458	28916
583.494	28553
583.531	28337
583.549	28389
583.603	29134
583.605	29145
583.660	28889
583.676	29191
583.715	30210
583.748	29955
583.770	29781
583.820	30456
583.825	30504
583.881	30079
583.893	30345
583.936	31493
583.965	31404
583.991	31192
584.038	31432
584.046	31539
584.101	31910
584.110	32063
584.156	32746
584.183	32897
584.211	32984
584.255	33243
584.266	33365
584.321	33763
584.328	33820
584.376	34646
584.400	35289
584.431	35981
584.472	35986
584.486	35899
584.541	36774
584.545	36806
584.596	37554
584.617	37610
584.651	38579
584.689	39861
584.706	40093
584.761	40618
584.762	40611
584.816	41959
584.834	42355
584.871	42874
584.906	43194
584.926	43609
584.978	44186
584.980	44229
585.035	45808
585.051	46255
585.090	47482
585.123	47921
585.145	48135
585.195	49484
585.200	49734
585.254	52076
585.267	52949
585.309	56224
585.340	58003
585.364	58775
585.412	58682
585.419	58718
585.473	60504
585.484	61028
585.528	65106
585.556	68895
585.583	75458
585.628	90044
585.637	95423
585.692	139960
585.700	146123
585.747	169367
585.772	159449
585.801	125670
585.845	87694
585.856	83304
585.910	74001
585.917	72902
585.965	71827
585.989	71757
586.019	72535
586.061	72762
586.074	72956
586.128	74869
586.133	74971
586.183	77551
586.205	78455
586.237	80310
586.277	82370
586.292	82819
586.346	84453
586.349	84410
586.401	86081
586.421	87727
586.455	91269
586.493	94018
586.509	96937
586.564	109015
586.565	109287
586.618	128632
586.637	129519
586.672	118754
586.709	110393
586.727	109439
586.781	110946
586.781	111091
586.835	114754
586.853	115945
586.889	118832
586.925	120479
586.944	122352
586.996	128787
586.998	129112
587.052	134764
587.068	136487
587.106	141705
587.140	145231
587.161	147700
587.212	154542
587.215	155179
587.269	165363
587.284	167353
587.323	173156
587.356	178656
587.377	182929
587.427	192189
587.431	193305
587.485	206220
587.499	209489
587.539	219259
587.571	226359
587.593	233538
587.643	248698
587.648	250449
587.702	267810
587.715	271736
587.755	288250
587.786	300201
587.810	310871
587.858	332946
587.864	336364
587.917	366013
587.930	372667
587.971	399622
588.001	418370
588.025	436774
588.073	473929
588.079	479878
588.133	528670
588.145	539235
588.187	586486
588.217	619289
588.241	652902
588.288	717102
588.295	728672
588.348	823549
588.360	842931
588.402	933965
588.431	997286
588.456	1063557
588.503	1191358
588.510	1214778
588.564	1394602
588.575	1430890
588.617	1589574
588.646	1696583
588.671	1782204
588.718	1933868
588.725	1950894
588.778	2047501
588.789	2058567
588.832	2002957
588.861	1938151
588.886	1782624
588.932	1445437
588.939	1428182
588.993	1351498
589.004	1354502
589.047	1748598
589.075	1984895
589.100	2072254
589.147	2193200
589.154	2191830
589.207	2135398
589.218	2120582
589.261	2070691
589.290	2038919
589.314	2046770
589.361	2063090
589.368	2071382
589.421	2116359
589.433	2118593
589.475	2012523
589.504	1905338
589.528	1754264
589.576	1457802
589.582	1489167
589.635	1842161
589.647	1908099
589.689	2031312
589.718	2086472
589.742	2013529
589.790	1844467
589.795	1821398
589.849	1569347
589.861	1509085
589.902	1343987
589.932	1217385
589.955	1143475
590.004	985765
590.009	976650
590.062	856930
590.075	826376
590.115	759289
590.146	705088
590.168	678338
590.218	614998
590.222	612026
590.275	556162
590.289	540621
590.328	508977
590.360	481068
590.381	467780
590.431	433918
590.435	433026
590.488	400523
590.503	390582
590.541	373665
590.574	357510
590.594	349659
590.645	327226
590.647	327334
590.700	308472
590.716	302155
590.753	291056
590.787	279600
590.806	275285
590.859	260924
590.859	261409
590.912	249974
590.930	245625
590.965	239248
591.001	231861
591.018	229143
591.071	218628
591.072	217943
591.124	210853
591.143	207686
591.177	202897
591.214	196437
591.230	195493
591.283	190826
591.285	190114
591.336	183971
591.356	180802
591.389	177569
591.427	172667
591.442	171461
591.495	165242
591.498	164328
591.547	159291
591.569	156454
591.600	155115
591.640	152071
591.653	151738
591.706	148778
591.711	148043
591.759	147070
591.782	145962
591.811	145730
591.853	144166
591.864	143347
591.917	137217
591.924	135928
591.969	133205
591.995	131022
592.022	130284
592.066	128147
592.075	128649
592.127	129437
592.137	129222
592.180	130831
592.208	131106
592.233	127195
592.279	118720
592.285	118678
592.338	115462
592.350	114374
592.390	112292
592.421	110183
592.443	110128
592.491	108918
592.495	109136
592.548	107613
592.562	106858
592.600	105509
592.633	103770
592.653	103625
592.704	101859
592.705	102393
592.775	99582
592.846	98989
592.916	98469
592.987	96454
593.058	93262
593.128	91023
593.199	88505
593.270	86083
593.341	84512
593.411	83764
593.482	82721
593.553	81712
593.623	78502
593.694	79466
593.764	79946
593.835	76098
593.906	74968
593.976	75787
594.047	75601
594.117	79406
594.188	78121
594.258	71237
594.329	68031
594.399	69320
594.470	67930
594.540	66436
594.611	67051
594.681	65460
594.751	63379
594.822	65985
594.892	66969
594.963	67095
595.033	66016
595.103	65704
595.174	67418
595.244	79591
595.314	90354
595.384	63654
595.455	60954
595.525	61545
595.595	61753
595.665	60778
595.736	60240
595.806	59514
595.876	59321
595.946	58719
596.016	57353
596.087	59257
596.157	58521
596.227	56902
596.297	59721
596.367	59548
596.437	63731
596.507	72632
596.577	82835
596.647	61285
596.717	58583
596.787	58823
596.857	58866
596.927	58632
596.997	59085
597.067	59833
597.137	63611
597.207	62652
597.277	59467
597.347	59349
597.417	57619
597.487	57209
597.557	59191
597.626	58434
597.696	60354
597.766	67079
597.836	76690
597.906	59119
597.975	53985
598.045	53953
598.115	54805
598.185	55824
598.254	58005
598.324	60110
598.394	58831
598.464	59185
598.533	58502
598.603	55269
598.672	55687
598.742	57127
598.812	57248
598.881	57270
598.951	54637
599.020	54838
599.090	55562
599.159	55753
599.229	54805
599.299	53834
599.368	54950
599.437	55341
599.507	54664
599.576	55739
599.646	55442
599.715	56085
599.785	52656
599.854	55547
599.924	57583
599.993	54756
600.062	52036
600.132	53524
600.201	55180
600.270	58865
600.340	60509
600.409	58151
600.478	58354
600.547	57756
600.617	56726
600.686	52846
600.755	51193
600.824	50902
600.894	51095
600.963	50184
601.032	49834
601.101	49379
601.170	48491
601.239	51099
601.308	52441
601.378	51439
601.447	51374
601.516	49684
601.585	53093
601.654	55453
601.723	53178
601.792	53531
601.861	54455
601.930	60777
601.999	58455
602.068	56071
602.137	60111
602.206	59852
602.275	56843
602.343	58456
602.412	56983
602.481	55163
602.550	53734
602.619	55408
602.688	54897
602.756	56173
602.825	53972
602.894	55344
602.963	55135
603.032	55245
603.100	54886
603.169	55801
603.238	55376
603.307	54090
603.375	54910
603.444	56147
603.513	53128
603.581	54882
603.650	58034
603.719	52015
603.787	51116
603.856	52829
603.924	51585
603.993	54260
604.061	53652
604.130	55473
604.198	55950
604.267	55765
604.335	56104
604.404	56553
604.472	58140
604.541	57575
604.609	57104
604.678	59434
604.746	58169
604.815	60220
604.883	60323
604.951	58477
605.020	59332
605.088	59718
605.156	57549
605.225	57617
605.293	55636
605.361	58003
605.429	57074
605.498	58442
605.566	57401
605.634	60206
605.702	60714
605.771	61721
605.839	61255
605.907	59289
605.975	58675
606.043	58673
606.111	57401
606.180	61098
606.248	61908
606.316	64434
606.384	61111
606.452	61000
606.520	57226
606.588	53855
606.656	50732
606.724	49121
606.792	47970
606.860	44374
606.928	41721
606.996	41666
607.064	41284
607.132	41604
607.200	43436
607.267	44656
607.335	43203
607.403	45777
607.471	43572
607.539	43722
607.607	42526
607.674	40187
607.742	41375
607.810	41147
607.878	39249
607.946	40420
608.013	41878
608.081	42816
608.149	41854
608.216	42425
608.284	44353
608.352	43048
608.419	44708
608.487	55420
608.555	45168
608.622	43017
608.690	43046
608.757	46460
608.825	46537
608.893	48167
608.960	48950
609.028	51491
609.095	56689
609.163	46557
609.230	42035
609.298	41439
609.365	39792
609.432	41533
609.500	44427
609.567	49435
609.635	53234
609.702	55681
609.769	54699
609.837	50272
609.904	44769
609.971	46405
610.039	53538
610.106	71675
610.173	129046
610.241	282674
610.308	229408
610.375	106829
610.442	56824
610.509	46034
610.577	43864
610.644	43811
610.711	43072
610.778	44330
610.845	44319
610.912	47040
610.980	51316
611.047	62751
611.114	52157
611.181	46642
611.248	44462
611.315	47966
611.382	45936
611.449	48206
611.516	49004
611.583	48256
611.650	48407
611.717	49532
611.784	52805
611.851	55647
611.918	61722
611.984	74182
612.051	111761
612.118	229939
612.185	545402
612.252	383042
612.319	99464
612.386	68854
612.452	59922
612.519	60142
612.586	69153
612.653	58556
612.719	56031
612.786	52419
612.853	49054
612.919	48410
612.986	48890
613.053	46704
613.120	44601
613.186	44858
613.253	47587
613.319	44926
613.386	44680
613.453	46681
613.519	48032
613.586	52053
613.652	60198
613.719	54931
613.785	50837
613.852	48338
613.918	45474
613.985	50532
614.051	60513
614.118	91536
614.184	86137
614.250	49564
614.317	46364
614.383	43823
614.449	44593
614.516	46024
614.582	46423
614.648	45792
614.715	44805
614.781	45393
614.847	48740
614.914	49134
614.980	48250
615.046	49395
615.112	50655
615.179	55077
615.245	63422
615.311	85064
615.377	141729
615.443	173123
615.509	113479
615.575	80178
615.642	65593
615.708	66107
615.774	71710
615.840	84218
615.906	110321
615.972	177124
616.038	337760
616.104	522807
616.170	812497
616.236	698260
616.302	191642
616.368	112587
616.434	85105
616.500	75215
616.565	74315
616.631	82779
616.697	74319
616.763	72705
616.829	97556
616.895	154341
616.961	159531
617.026	89083
617.092	61360
617.158	55740
617.224	50430
617.289	49101
617.355	47506
617.421	46718
617.487	46570
617.552	44736
617.618	41527
617.684	42052
617.749	44973
617.815	42380
617.880	41043
617.946	41565
618.012	41690
618.077	41892
618.143	41154
618.208	43720
618.274	43913
618.339	44082
618.405	39252
618.470	40091
618.536	41053
618.601	43839
618.667	40353
618.732	38949
618.798	37392
618.863	37884
618.928	38703
618.994	39532
619.059	43089
619.124	49260
619.190	42287
619.255	37141
619.320	38429
619.386	37972
619.451	36022
619.516	36451
619.581	35367
619.647	36948
619.712	36757
619.777	36428
619.842	36946
619.907	38012
619.972	36901
620.038	38525
620.103	36020
620.168	34726
620.233	36279
620.298	36305
620.363	36306
620.428	36258
620.493	37183
620.558	37295
620.623	36523
620.688	36844
620.753	36597
620.818	36987
620.883	37143
620.948	37210
621.013	36645
621.078	38428
621.143	37396
621.207	40553
621.272	39720
621.337	40351
621.402	42097
621.467	49257
621.532	50600
621.596	43331
621.661	40688
621.726	39653
621.791	40826
621.855	41019
621.920	42308
621.985	44127
622.049	49137
622.114	45519
622.179	43526
622.243	45922
622.308	43867
622.373	45887
622.437	44500
622.502	42125
622.566	40946
622.631	41452
622.695	42210
622.760	43231
622.824	41398
622.889	42137
622.953	43907
623.018	54472
623.082	53241
623.147	43827
623.211	42369
623.276	43659
623.340	39199
623.404	38755
623.469	39940
623.533	40263
623.597	39015
623.662	39317
623.726	37500
623.790	37059
623.854	36684
623.919	37250
623.983	36307
624.047	37554
624.111	36367
624.176	38791
624.240	39570
624.304	41661
624.368	37038
624.432	37852
624.496	38392
624.560	40620
624.625	41229
624.689	39342
624.753	38088
624.817	38648
624.881	36377
624.945	35438
625.009	35672
625.073	36011
625.137	37685
625.201	42892
625.265	41415
625.329	37582
625.393	37618
625.456	37566
625.520	38055
625.584	41668
625.648	49122
625.712	69760
625.776	139639
625.839	152984
625.903	64903
625.967	43186
626.031	63141
626.095	90798
626.158	42198
626.222	31483
626.286	29899
626.349	28138
626.413	28256
626.477	31178
626.540	27785
626.604	28706
626.668	29074
626.731	28113
626.795	28962
626.858	30457
626.922	27253
626.986	28158
627.049	26488
627.113	28307
627.176	27071
627.240	26672
627.303	26647
627.366	26975
627.430	27285
627.493	26727
627.557	26454
627.620	28628
627.684	27193
627.747	27200
627.810	24365
627.874	25325
627.937	24017
628.000	27246
628.064	26138
628.127	22190
628.190	24366
628.253	24133
628.317	23114
628.380	23108
628.443	23173
628.506	23048
628.569	21737
628.632	21924
628.696	21612
628.759	20772
628.822	21281
628.885	19686
628.948	21169
629.011	20581
629.074	20164
629.137	19888
629.200	19975
629.263	22386
629.326	19717
629.389	20231
629.452	20861
629.515	21611
629.578	20314
629.641	22415
629.704	19896
629.767	21126
629.830	20196
629.892	19830
629.955	19729
630.018	22133
630.081	20144
630.144	24231
630.207	20559
630.269	23566
630.332	22859
630.395	20578
630.458	18318
630.520	17921
630.583	19110
630.646	19062
630.708	17591
630.771	18000
630.834	18513
630.896	18162
630.959	17717
631.021	17856
631.084	18423
631.146	20046
631.209	23071
631.272	18120
631.334	18403
631.397	18539
631.459	17884
631.522	18906
631.584	18408
631.646	19974
631.709	19890
631.771	22393
631.834	19260
631.896	18440
631.958	16336
632.021	18390
632.083	16204
632.145	18338
632.208	16721
632.270	17803
632.332	14627
632.395	16725
632.457	16987
632.519	15669
632.581	17365
632.643	14795
632.706	16663
632.768	14654
632.830	16308
632.892	15055
632.954	14589
633.016	16654
633.078	15094
633.141	15709
633.203	16470
633.265	16596
633.327	16137
633.389	15448
633.451	17472
633.513	18628
633.575	19239
633.637	18697
633.698	16369
633.760	16824
633.822	16478
633.884	16940
633.946	16312
634.008	16972
634.070	18338
634.132	21465
634.193	19279
634.255	18620
634.317	17183
634.379	18074
634.441	16931
634.502	16418
634.564	16116
634.626	15514
634.687	15628
634.749	16004
634.811	15330
634.873	13931
634.934	14373
634.996	15367
635.057	14795
635.119	13823
635.181	15151
635.242	16463
635.304	13168
635.365	17248
635.427	14132
635.488	15419
635.550	14255
635.611	15238
635.673	12864
635.734	17385
635.796	16483
635.857	18433
635.918	15596
635.980	17683
636.041	16038
636.102	17420
636.164	17180
636.225	17939
636.286	14711
636.348	16755
636.409	14968
636.470	15402
636.531	14770
636.593	16384
636.654	16287
636.715	13705
636.776	13903
636.838	13225
636.899	13763
636.960	13042
637.021	11937
637.082	13490
637.143	13593
637.204	12327
637.265	11939
637.326	13078
637.387	12979
637.448	11552
637.509	13517
637.570	12797
637.631	12705
637.692	10963
637.753	10833
637.814	13229
637.875	12117
637.936	13334
637.997	11549
638.058	11997
638.119	13325
638.179	11708
638.240	11548
638.301	11019
638.362	11178
638.423	11783
638.483	12457
638.544	10188
638.605	11391
638.666	11097
638.726	11648
638.787	12053
638.848	10775
638.908	11642
638.969	11301
639.030	11742
639.090	10138
639.151	10982
639.211	13290
639.272	15285
639.332	20000
639.393	13912
639.453	11763
639.514	12007
639.574	11047
639.635	10978
639.695	11722
639.756	10235
639.816	11570
639.877	12758
639.937	17082
639.997	21260
640.058	11296
640.118	10422
640.178	11022
640.239	10350
640.299	9976
640.359	10331
640.420	10292
640.480	11899
640.540	11068
640.600	11065
640.661	12374
640.721	11856
640.781	15106
640.841	11559
640.901	11535
640.961	11529
641.021	12275
641.082	11930
641.142	15368
641.202	12912
641.262	8507
641.322	10902
641.382	8806
641.442	10338
641.502	10790
641.562	10570
641.622	9934
641.682	10455
641.742	10814
641.802	11661
641.861	11795
641.921	12059
641.981	11139
642.041	11960
642.101	13569
642.161	9597
642.221	9331
642.280	9789
642.340	9436
642.400	9031
642.460	10799
642.519	9703
642.579	9421
642.639	10816
642.698	7778
642.758	11827
642.818	9624
642.877	9512
642.937	10258
642.997	12113
643.056	14540
643.116	9137
643.175	11598
643.235	9759
643.294	11634
643.354	11741
643.414	13096
643.473	16962
643.532	15965
643.592	20022
643.651	30695
643.711	52882
643.770	99336
643.830	235685
643.889	480322
643.948	117375
644.008	23663
644.067	15632
644.126	12536
644.186	11780
644.245	10737
644.304	9047
644.363	12318
644.423	8777
644.482	10637
644.541	10063
644.600	8299
644.659	11953
644.719	13347
644.778	16966
644.837	25330
644.896	49206
644.955	102983
645.014	38959
645.073	15026
645.132	11390
645.191	11552
645.250	9473
645.309	11478
645.368	10748
645.427	12475
645.486	15885
645.545	23857
645.604	11595
645.663	9324
645.722	9958
645.781	10468
645.840	12291
645.898	13722
645.957	18940
646.016	26790
646.075	47413
646.134	88575
646.192	232341
646.251	325417
646.310	52717
646.369	17136
646.427	14127
646.486	10503
646.545	10613
646.603	9346
646.662	8922
646.721	9912
646.779	8473
646.838	8627
646.896	10766
646.955	11997
647.014	16361
647.072	27309
647.131	65965
647.189	33600
647.248	9386
647.306	8931
647.365	9997
647.423	6215
647.481	9669
647.540	6510
647.598	7644
647.657	6203
647.715	8414
647.773	6544
647.832	7947
647.890	6963
647.948	7605
648.007	8377
648.065	6535
648.123	7749
648.181	10178
648.240	10428
648.298	9126
648.356	7299
648.414	8358
648.472	6831
648.531	7907
648.589	7460
648.647	6957
648.705	6765
648.763	7570
648.821	7953
648.879	7779
648.937	8522
648.995	9728
649.053	9970
649.111	14206
649.169	21093
649.227	36635
649.285	70466
649.343	187396
649.401	92796
649.459	30431
649.516	20867
649.574	15655
649.632	30237
649.690	34444
649.748	17801
649.806	21962
649.863	34474
649.921	48750
649.979	30542
650.037	9252
650.094	6426
650.152	7302
650.210	5794
650.268	7677
650.325	7255
650.383	7404
650.440	5299
650.498	6971
650.556	6656
650.613	5813
650.671	6327
650.728	7213
650.786	6717
650.843	7537
650.901	5244
650.958	7231
651.016	6124
651.073	5801
651.131	5168
651.188	5773
651.246	6896
651.303	5162
651.360	6190
651.418	5108
651.475	6462
651.532	5541
651.590	5923
651.647	4900
651.704	5686
651.762	6262
651.819	6180
651.876	5352
651.933	5448
651.990	5267
652.048	3652
652.105	6012
652.162	6621
652.219	4590
652.276	5225
652.333	6169
652.390	4697
652.448	5843
652.505	5747
652.562	5786
652.619	7415
652.676	11598
652.733	11132
652.790	5595
652.847	3619
652.904	4908
652.961	4407
653.017	4885
653.074	5678
653.131	5378
653.188	4092
653.245	4971
653.302	4592
653.359	5392
653.415	4886
653.472	5116
653.529	5667
653.586	4204
653.642	4339
653.699	5138
653.756	3968
653.813	4191
653.869	5098
653.926	4125
653.983	4126
654.039	5734
654.096	4705
654.152	7172
654.209	4250
654.266	6162
654.322	5248
654.379	6001
654.435	6837
654.492	6261
654.548	8750
654.605	12468
654.661	8265
654.717	5926
654.774	5525
654.830	5517
654.887	5533
654.943	5847
655.000	6204
655.056	5624
655.112	5786
655.168	5033
655.225	5427
655.281	8108
655.337	8570
655.394	13370
655.450	9576
655.506	8759
655.562	14968
655.618	11409
655.675	4511
655.731	5465
655.787	4381
655.843	5833
655.899	3912
655.955	5860
656.011	6039
656.067	4719
656.123	5243
656.179	5242
656.235	6274
656.291	4403
656.347	6405
656.403	5127
656.459	4915
656.515	6910
656.571	6053
656.627	5203
656.683	6232
656.739	5675
656.795	5700
656.850	4973
656.906	6476
656.962	6683
657.018	4296
657.074	5246
657.129	5489
657.185	6789
657.241	7614
657.297	6091
657.352	5369
657.408	5065
657.464	6303
657.519	5974
657.575	4083
657.630	4987
657.686	4856
657.742	4951
657.797	4812
657.853	4970
657.908	5452
657.964	4572
658.019	5369
658.075	4399
658.130	4953
658.186	3965
658.241	4953
658.297	4158
658.352	4926
658.407	5093
658.463	3514
658.518	5326
658.573	5054
658.629	3643
658.684	4842
658.739	5487
658.795	3648
658.850	4676
658.905	3578
658.960	4962
659.016	4141
659.071	4994
659.126	5273
659.181	5322
659.236	7595
659.291	8465
659.346	6479
659.401	6426
659.457	7034
659.512	8633
659.567	6655
659.622	4258
659.677	3890
659.732	4616
659.787	6107
659.842	6749
659.897	6272
659.952	5507
660.007	3923
660.061	5206
660.116	3813
660.171	4566
660.226	4753
660.281	4974
660.336	3983
660.391	5853
660.445	3951
660.500	4596
660.555	4513
660.610	4849
660.664	4817
660.719	4664
660.774	3849
660.828	5552
660.883	4373
660.938	4917
660.992	3301
661.047	4283
661.101	3624
661.156	3346
661.211	4012
661.265	4194
661.320	4140
661.374	4121
661.429	4061
661.483	5673
661.538	3823
661.592	4508
661.647	4227
661.701	5851
661.755	4394
661.810	5436
661.864	3205
661.919	4225
661.973	4068
662.027	4029
662.081	3707
662.136	3960
662.190	4379
662.244	5338
662.299	4629
662.353	4999
662.407	4149
662.461	4692
662.515	4782
662.569	5147
662.624	4811
662.678	4379
662.732	4896
662.786	4707
662.840	4432
662.894	4692
662.948	4002
663.002	5167
663.056	4074
663.110	3707
663.164	4192
663.218	4868
663.272	4546
663.326	5284
663.380	4390
663.434	5109
663.488	4255
663.542	4722
663.595	4987
663.649	4301
663.703	4129
663.757	4892
663.811	3465
663.864	4261
663.918	4165
663.972	4762
664.026	3653
664.079	4650
664.133	4363
664.187	4657
664.240	4344
664.294	4465
664.348	4797
664.401	4940
664.455	4377
664.508	3594
664.562	3506
664.615	4667
664.669	4051
664.722	4212
664.776	3546
664.829	4544
664.883	3889
664.936	4193
664.990	4970
665.043	5138
665.097	4987
665.150	6917
665.203	4370
665.257	4317
665.310	5033
665.363	5184
665.417	5246
665.470	4682
665.523	3668
665.576	5320
665.630	4148
665.683	5175
665.736	5292
665.789	4550
665.842	4603
665.895	5498
665.949	4513
666.002	5083
666.055	3973
666.108	6195
666.161	4976
666.214	5355
666.267	4172
666.320	5605
666.373	5790
666.426	4746
666.479	4870
666.532	5644
666.585	6153
666.638	6979
666.691	6352
666.744	6448
666.796	5806
666.849	6673
666.902	5684
666.955	4984
667.008	3984
667.060	4160
667.113	4493
667.166	4614
667.219	3753
667.271	5332
667.324	4761
667.377	5576
667.430	5065
667.482	6529
667.535	6289
667.587	5376
667.640	5037
667.693	6240
667.745	6903
667.798	9051
667.850	5460
667.903	5577
667.955	4469
668.008	4289
668.060	5820
668.113	5720
668.165	5857
668.218	6104
668.270	5829
668.322	5308
668.375	5007
668.427	5233
668.479	5297
668.532	5013
668.584	5805
668.636	5700
668.689	4587
668.741	4981
668.793	5298
668.845	5355
668.898	5721
668.950	5018
669.002	5630
669.054	5064
669.106	4888
669.158	5877
669.211	5175
669.263	5947
669.315	7440
669.367	7880
669.419	6779
669.471	6779
669.523	6937
669.575	9050
669.627	6769
669.679	5886
669.731	5974
669.783	6185
669.835	6240
669.886	6762
669.938	6144
669.990	5978
670.042	5680
670.094	6794
670.146	7267
670.197	8889
670.249	10156
670.301	11633
670.353	15847
670.404	22827
670.456	31875
670.508	47961
670.560	74634
670.611	122715
670.663	206225
670.715	462359
670.766	691998
670.818	243345
670.869	48028
670.921	24904
670.972	16956
671.024	13220
671.075	10843
671.127	10044
671.178	7894
671.230	8072
671.281	7043
671.333	8167
671.384	7542
671.436	8532
671.487	8132
671.538	9481
671.590	9850
671.641	12892
671.692	16871
671.744	25312
671.795	22148
671.846	13627
671.897	9287
671.949	7566
672.000	6787
672.051	6908
672.102	6537
672.153	5220
672.204	5845
672.256	5832
672.307	5188
672.358	6251
672.409	5637
672.460	5221
672.511	5052
672.562	5029
672.613	4327
672.664	5681
672.715	5478
672.766	5238
672.817	4706
672.868	5408
672.919	4912
672.970	5020
673.021	4559
673.071	5174
673.122	4822
673.173	5435
673.224	4779
673.275	5223
673.326	4373
673.376	5601
673.427	4630
673.478	4356
673.528	4627
673.579	5263
673.630	3715
673.680	5712
673.731	5408
673.782	4545
673.832	4499
673.883	5455
673.934	3675
673.984	4176
674.035	4646
674.085	5124
674.136	5647
674.186	5976
674.237	6460
674.287	8784
674.338	6175
674.388	4455
674.438	4708
674.489	5322
674.539	4499
674.589	4507
674.640	4884
674.690	4505
674.740	4753
674.791	5485
674.841	4511
674.891	5350
674.942	4283
674.992	4387
675.042	3774
675.092	3535
675.142	4259
675.193	3187
675.243	3863
675.293	4964
675.343	4396
675.393	4059
675.443	5097
675.493	4509
675.543	3860
675.593	4889
675.643	4230
675.693	4313
675.743	3802
675.793	4186
675.843	3284
675.893	4265
675.943	4812
675.993	4511
676.043	4668
676.093	3976
676.142	3396
676.192	4452
676.242	3814
676.292	4039
676.341	3546
676.391	3927
676.441	3723
676.491	3902
676.540	3197
676.590	4141
676.640	3211
676.689	3688
676.739	3465
676.789	3399
676.838	2867
676.888	3424
676.937	4281
676.987	3457
677.037	2790
677.086	3253
677.136	3499
677.185	3528
677.235	3057
677.284	3028
677.333	3252
677.383	3345
677.432	2682
677.482	4007
677.531	4044
677.580	3708
677.630	2394
677.679	4368
677.728	3803
677.778	4267
677.827	3660
677.876	3836
677.925	3517
677.975	3295
678.024	3188
678.073	3626
678.122	3484
678.171	4000
678.220	3056
678.269	4148
678.319	3890
678.368	3853
678.417	3594
678.466	3820
678.515	3838
678.564	4211
678.613	3199
678.662	3438
678.711	3845
678.760	3340
678.809	3007
678.857	3525
678.906	3808
678.955	3859
679.004	4316
679.053	4417
679.102	3856
679.151	3961
679.199	3129
679.248	3632
679.297	3488
679.346	3900
679.394	3168
679.443	3899
679.492	4014
679.540	3720
679.589	4535
679.638	4583
679.686	2885
679.735	4100
679.784	3168
679.832	2795
679.881	3701
679.929	3274
679.978	2920
680.026	2910
680.075	3871
680.123	2749
680.172	3343
680.220	3151
680.268	2902
680.317	2878
680.365	3471
680.414	3023
680.462	3282
680.510	3905
680.559	3026
680.607	3102
680.655	3120
680.703	2231
680.752	2987
680.800	2927
680.848	2613
680.896	3246
680.945	2527
680.993	2382
681.041	2585
681.089	3029
681.137	3109
681.185	2377
681.233	2409
681.258	2622
681.281	2806
681.329	2434
681.377	3914
681.380	3895
681.425	3264
681.473	3497
681.502	3465
681.521	3405
681.569	3602
681.617	2698
681.624	2731
681.665	2825
681.713	2968
681.745	3447
681.761	3654
681.809	2670
681.857	3492
681.867	3258
681.904	2378
681.952	3988
681.989	3891
682.000	3843
682.048	3743
682.096	2886
682.111	3047
682.143	3310
682.191	2403
682.233	3775
682.239	3972
682.286	2851
682.334	3969
682.354	3594
682.382	3037
682.430	3801
682.476	3656
682.477	3638
682.525	3394
682.572	3343
682.598	3170
682.620	3022
682.667	3069
682.715	3750
682.720	3758
682.763	3595
682.810	3586
682.841	3355
682.857	3238
682.905	3635
682.952	3938
682.963	3989
683.000	4094
683.047	3802
683.085	4168
683.095	4255
683.142	4089
683.190	4887
683.206	4313
683.237	3184
683.284	4114
683.328	3505
683.332	3449
683.379	4198
683.426	4443
683.449	4167
683.473	3832
683.521	3487
683.568	4519
683.571	4479
683.615	3849
683.662	4777
683.693	4355
683.709	4070
683.757	4155
683.804	4025
683.814	4090
683.851	4233
683.898	4267
683.936	3506
683.945	3330
683.992	3857
684.039	3812
684.057	4034
684.086	4375
684.133	4732
684.179	3897
684.180	3857
684.227	5213
684.274	4683
684.300	4612
684.321	4516
684.368	4016
684.415	4649
684.422	4612
684.462	4388
684.509	4254
684.543	4280
684.556	4275
684.603	4676
684.649	4026
684.665	4163
684.696	4413
684.743	4502
684.786	5328
684.790	5399
684.837	5054
684.883	5905
684.908	5571
684.930	5176
684.977	5798
685.023	5522
685.029	5492
685.070	5108
685.117	5405
685.150	5377
685.164	5387
685.210	6344
685.257	6149
685.272	5932
685.303	5452
685.350	5739
685.393	5872
685.396	5877
685.443	6272
685.490	6112
685.514	6117
685.536	6091
685.583	6843
685.629	5922
685.636	5975
685.675	6174
685.722	5777
685.757	5405
685.768	5303
685.815	5706
685.861	6399
685.878	6391
685.908	6366
685.954	6093
686.000	6738
686.000	6746
686.047	6411
686.093	7733
686.121	7571
686.139	7314
686.185	6881
686.232	5647
686.242	5853
686.278	6636
686.324	6335
686.363	6224
686.370	6193
686.416	5865
686.463	6613
686.484	6429
686.509	6311
686.555	6193
686.601	6014
686.606	6082
686.647	6538
686.693	6103
686.727	5793
686.739	5739
686.785	6139
686.831	6549
686.848	6676
686.877	6671
686.923	6262
686.969	5813
686.969	5811
687.015	5510
687.061	6539
687.090	6956
687.107	7085
687.153	6707
687.199	6449
687.211	6292
687.245	6292
687.291	6405
687.332	7684
687.336	7766
687.382	6857
687.428	6829
687.453	6788
687.474	6717
687.520	6852
687.565	6870
687.574	6618
687.611	5785
687.657	6716
687.695	6715
687.702	6748
687.748	7158
687.794	7646
687.816	7622
687.839	7318
687.885	6524
687.931	5949
687.937	5980
687.976	6508
688.022	6498
688.058	6531
688.067	6547
688.113	7204
688.158	6918
688.179	7027
688.204	7179
688.249	6840
688.295	8019
688.300	8016
688.340	7852
688.386	7684
688.421	7334
688.431	7242
688.477	7157
688.522	7143
688.542	7262
688.567	7548
688.613	7509
688.658	7420
688.663	7492
688.703	7913
688.749	7558
688.784	7212
688.794	7104
688.839	7325
688.884	7232
688.905	7229
688.930	7426
688.975	7205
689.020	7642
689.026	7627
689.065	7322
689.110	7811
689.146	7537
689.155	7503
689.201	7343
689.246	7489
689.267	7487
689.291	7452
689.336	7391
689.381	7471
689.388	7505
689.426	7776
689.471	7807
689.509	7354
689.516	7274
689.561	7853
689.606	7233
689.630	7476
689.651	7785
689.696	7456
689.741	7674
689.750	7783
689.785	7913
689.830	7433
689.871	6941
689.875	6935
689.920	7368
689.965	7943
689.992	7742
690.010	7606
690.054	7559
690.099	7792
690.112	7875
690.144	8007
690.189	8154
690.233	7654
690.233	7662
690.278	8004
690.323	8008
690.354	8071
690.367	8173
690.412	8697
690.457	9200
690.474	9362
690.501	9297
690.546	9163
690.590	8483
690.595	8468
690.635	9147
690.680	9612
690.716	10367
690.724	10573
690.769	11315
690.813	12403
690.836	12585
690.857	13621
690.902	16455
690.946	19450
690.957	20241
690.991	25579
691.035	33648
691.077	41476
691.080	41565
691.124	38218
691.168	34709
691.198	32679
691.213	30496
691.257	25098
691.301	19363
691.318	17329
691.346	16318
691.390	13955
691.434	12439
691.439	12215
691.478	11652
691.522	11214
691.559	10311
691.567	10213
691.611	10529
691.655	10005
691.680	9774
691.699	9625
691.743	9674
691.787	9291
691.800	9177
691.831	9314
691.875	9883
691.919	9727
691.921	9728
691.964	10120
692.008	10058
692.041	10344
692.052	10440
692.096	10269
692.139	10333
692.162	10344
692.183	10214
692.227	9801
692.271	9219
692.282	9204
692.315	9624
692.359	9841
692.402	10120
692.403	10136
692.447	9778
692.490	9630
692.523	9567
692.534	9721
692.578	10060
692.622	10062
692.643	10424
692.666	10525
692.709	10171
692.753	9915
692.763	9832
692.797	9897
692.840	10246
692.884	10009
692.884	10026
692.928	10216
692.971	10082
693.004	10100
693.015	10214
693.059	10170
693.102	10795
693.124	10767
693.146	10630
693.189	10988
693.233	10863
693.245	10872
693.276	11568
693.320	12193
693.363	13085
693.365	13082
693.407	13527
693.450	14393
693.485	14951
693.493	15425
693.537	18130
693.580	20132
693.605	21795
693.624	24503
693.667	30129
693.710	36672
693.725	38851
693.753	49287
693.797	67009
693.840	84872
693.845	86515
693.883	80841
693.926	72501
693.966	66124
693.970	64943
694.013	51735
694.056	39159
694.086	30708
694.099	29446
694.142	24898
694.185	20346
694.206	18382
694.229	17966
694.272	16138
694.315	15493
694.326	15126
694.358	14360
694.401	13502
694.444	12456
694.446	12394
694.487	12596
694.530	12365
694.566	12435
694.573	12389
694.616	11598
694.659	11165
694.686	10809
694.702	10853
694.745	10776
694.787	10668
694.806	10727
694.830	10671
694.873	10271
694.916	9894
694.926	9851
694.959	10119
695.002	10017
695.044	10039
695.046	10029
695.087	10354
695.130	10168
695.166	10457
695.172	10581
695.215	10853
695.258	11368
695.286	11576
695.301	11461
695.343	11083
695.386	10762
695.406	10573
695.428	10634
695.471	10656
695.514	10729
695.526	10662
695.556	10512
695.599	10800
695.641	10523
695.646	10496
695.684	10552
695.726	10612
695.766	10481
695.769	10483
695.811	10432
695.854	10218
695.886	10081
695.896	10213
695.938	10338
695.981	10735
696.005	10953
696.023	11014
696.065	11002
696.108	11284
696.125	11245
696.150	11244
696.192	11310
696.235	11163
696.245	11189
696.277	11328
696.319	11294
696.361	11163
696.365	11135
696.404	11426
696.446	11702
696.485	11902
696.488	11915
696.530	11664
696.572	11523
696.604	11322
696.614	11354
696.656	11446
696.698	11434
696.724	11417
696.740	11411
696.783	11435
696.825	11345
696.844	11314
696.867	11264
696.909	10895
696.951	10800
696.964	10744
696.992	10869
697.034	10775
697.076	10788
697.083	10784
697.118	11194
697.160	11504
697.202	11919
697.203	11898
697.244	11448
697.286	11099
697.323	10663
697.327	10717
697.369	11129
697.411	11352
697.442	11607
697.453	11613
697.494	11354
697.536	11269
697.562	11122
697.578	11152
697.620	11167
697.661	11162
697.682	11152
697.703	11135
697.744	11041
697.786	11063
697.801	10968
697.828	11160
697.869	11493
697.911	11751
697.921	11814
697.952	11456
697.994	10858
698.035	10304
698.040	10214
698.077	10553
698.118	10845
698.160	11092
698.160	11063
698.201	11297
698.243	11414
698.279	11558
698.284	11615
698.325	11811
698.367	12071
698.399	12182
698.408	12104
698.449	11628
698.491	11205
698.518	10855
698.532	10965
698.573	11227
698.614	11501
698.638	11614
698.656	11683
698.697	11799
698.738	11898
698.757	11909
698.779	11951
698.820	11997
698.862	12028
698.877	12009
698.903	12174
698.944	12387
698.985	12611
698.996	12642
699.026	12697
699.067	12730
699.116	12741
699.235	12075
699.354	11560
699.474	11540
699.593	14298
699.713	12325
699.832	11960
699.951	11433
700.070	12662
700.190	11328
700.309	12369
700.428	11685
700.547	11481
700.667	11801
700.786	12328
700.905	11995
701.024	11503
701.143	10512
701.262	11039
701.381	10586
701.500	10795
701.619	11449
701.738	11036
701.857	10156
701.976	10801
702.095	11815
702.214	11275
702.333	10977
702.452	10928
702.571	10775
702.690	10975
702.809	10030
702.928	10676
703.047	10691
703.165	10809
703.284	10762
703.403	11247
703.522	11906
703.640	11932
703.759	11896
703.878	15034
703.997	10617
704.115	11055
704.234	10804
704.353	11254
704.471	9597
704.590	9478
704.708	10147
704.827	10789
704.946	9746
705.064	11005
705.183	10174
705.301	12836
705.420	16188
705.538	14785
705.656	13358
705.775	14699
705.893	24342
706.012	25760
706.130	13617
706.249	13970
706.367	13629
706.485	14822
706.604	12225
706.722	13365
706.840	14072
706.958	15877
707.077	13296
707.195	12202
707.313	11781
707.431	12118
707.549	11270
707.668	12586
707.786	12515
707.904	12146
708.022	10981
708.140	12543
708.258	11610
708.376	12185
708.494	11227
708.612	13924
708.730	17156
708.848	16750
708.966	14501
709.084	13013
709.202	14019
709.320	14654
709.438	14752
709.556	13778
709.674	14559
709.791	14616
709.909	13092
710.027	14306
710.145	14008
710.263	14367
710.380	13307
710.498	13670
710.616	13731
710.733	13874
710.851	13404
710.969	13780
711.086	13050
711.204	13764
711.322	13045
711.439	13257
711.557	13077
711.674	14129
711.792	13883
711.909	14787
712.027	14597
712.144	13051
712.262	12295
712.379	15456
712.497	19490
712.614	19745
712.732	15386
712.849	15357
712.966	16189
713.084	18430
713.201	15322
713.318	16897
713.436	16480
713.553	16475
713.670	15940
713.787	17508
713.905	17415
714.022	16761
714.139	15169
714.256	16326
714.373	17838
714.490	24290
714.608	43022
714.725	154264
714.842	127074
714.959	19429
715.076	15325
715.193	15086
715.310	15126
715.427	14657
715.544	13922
715.661	14254
715.778	14827
715.895	15618
716.011	16050
716.128	14997
716.245	13419
716.362	15568
716.479	15046
716.596	14327
716.713	13889
716.829	14527
716.946	14143
717.063	14097
717.180	12462
717.296	13556
717.413	13444
717.530	13241
717.646	11819
717.763	13398
717.880	11145
717.996	12470
718.113	11986
718.229	12848
718.346	11650
718.462	12780
718.579	13704
718.695	16604
718.812	15261
718.928	15802
719.045	12451
719.161	11740
719.277	11081
719.394	12081
719.510	12764
719.626	12372
719.743	14425
719.859	14631
719.975	18471
720.092	46425
720.208	76875
720.324	18368
720.440	12720
720.557	13915
720.673	16062
720.789	22465
720.905	39138
721.021	15634
721.137	12480
721.253	11800
721.369	11361
721.486	14428
721.602	16819
721.718	11657
721.834	10187
721.950	11342
722.066	10158
722.181	11013
722.297	11666
722.413	11661
722.529	11053
722.645	11214
722.761	10600
722.877	10597
722.993	10035
723.108	11238
723.224	9360
723.340	10967
723.456	10265
723.571	10708
723.687	9341
723.803	10214
723.918	9827
724.034	9854
724.150	9865
724.265	11782
724.381	18375
724.497	19775
724.612	9661
724.728	9988
724.843	8788
724.959	11457
725.074	18452
725.190	18372
725.305	10451
725.421	9748
725.536	8667
725.651	9178
725.767	8503
725.882	9324
725.997	8909
726.113	8618
726.228	8590
726.343	8463
726.459	7967
726.574	10075
726.689	8175
726.804	9301
726.920	8947
727.035	9532
727.150	8105
727.265	9139
727.380	9169
727.495	9760
727.610	9298
727.725	10094
727.841	10196
727.956	16794
728.071	13121
728.186	8973
728.301	7937
728.416	9487
728.531	8657
728.645	7743
728.760	8958
728.875	8922
728.990	7961
729.105	8205
729.220	7886
729.335	8864
729.449	7552
729.564	7581
729.679	6860
729.794	8554
729.908	8739
730.023	8783
730.138	7239
730.253	7917
730.367	7312
730.482	8062
730.596	7415
730.711	7715
730.826	7581
730.940	8228
731.055	8228
731.169	8022
731.284	6519
731.398	7447
731.513	7398
731.627	8167
731.742	8716
731.856	9255
731.970	7565
732.085	8843
732.199	9292
732.313	11062
732.428	20040
732.542	42571
732.656	22743
732.771	9558
732.885	7919
732.999	8903
733.113	7396
733.227	8423
733.342	7165
733.456	7679
733.570	7429
733.684	7981
733.798	7463
733.912	8043
734.026	6962
734.140	7638
734.254	7719
734.368	12115
734.482	12330
734.596	7129
734.710	7015
734.824	7043
734.938	6745
735.052	7471
735.166	7445
735.280	7376
735.393	6840
735.507	8206
735.621	8654
735.735	13248
735.849	7382
735.962	6947
736.076	7456
736.190	7914
736.303	10492
736.417	10858
736.531	6887
736.644	6833
736.758	6640
736.872	6625
736.985	6902
737.099	6818
737.212	6246
737.326	7093
737.439	7122
737.553	6742
737.666	6518
737.780	5797
737.893	6931
738.007	6453
738.120	6078
738.233	6630
738.347	6490
738.460	7085
738.573	6768
738.687	7230
738.800	6953
738.913	7790
739.026	6855
739.140	7703
739.253	6368
739.366	6742
739.479	6079
739.592	5790
739.705	6695
739.818	7189
739.932	6452
740.045	6986
740.158	6045
740.271	6799
740.384	5981
740.497	7191
740.610	7023
740.723	6957
740.836	6393
740.949	7741
741.062	6878
741.174	6270
741.287	6800
741.400	6658
741.513	6367
741.626	7142
741.739	6826
741.851	6933
741.964	6314
742.077	6460
742.189	6543
742.302	7578
742.415	7082
742.527	6435
742.640	6310
742.753	5929
742.865	5681
742.978	5804
743.090	5384
743.203	5726
743.316	6200
743.428	5894
743.541	5867
743.653	6181
743.766	5093
743.878	5818
743.990	5997
744.103	8140
744.215	6962
744.327	6206
744.440	7340
744.552	8394
744.664	6194
744.777	6004
744.889	6008
745.001	6138
745.113	5912
745.226	5917
745.338	6372
745.450	4618
745.562	5303
745.674	5941
745.786	5282
745.898	6622
746.010	6087
746.122	5875
746.234	5421
746.347	5431
746.459	5918
746.570	5713
746.682	6026
746.794	7063
746.906	5748
747.018	5872
747.130	5936
747.242	5844
747.354	6030
747.466	6118
747.577	5078
747.689	7081
747.801	5474
747.913	5648
748.024	4874
748.136	5373
748.248	5228
748.359	5747
748.471	4436
748.583	6479
748.694	5751
748.806	7536
748.918	6451
749.029	6244
749.141	6255
749.252	6319
749.364	5469
749.475	8430
749.587	6757
749.698	5378
749.809	5688
749.921	5632
750.032	4924
750.144	5327
750.255	4410
750.366	5622
750.478	5609
750.589	6093
750.700	4882
750.811	6281
750.923	6049
751.034	9239
751.145	8016
751.256	6232
751.367	4850
751.479	6451
751.590	5209
751.701	5908
751.812	5915
751.923	5941
752.034	5184
752.145	5849
752.256	5820
752.367	5713
752.478	5536
752.589	6201
752.700	5912
752.811	6378
752.922	5768
753.032	5605
753.143	6052
753.254	5230
753.365	5208
753.476	5573
753.586	6049
753.697	5671
753.808	5415
753.919	5891
754.029	5229
754.140	5588
754.251	5366
754.361	5212
754.472	5874
754.582	5722
754.693	5665
754.804	6573
754.914	4981
755.025	6009
755.135	5877
755.246	6508
755.356	5329
755.466	6187
755.577	5342
755.687	6170
755.798	5739
755.908	6365
756.018	6245
756.129	5741
756.239	5850
756.349	6558
756.460	4730
756.570	5895
756.680	5647
756.790	6559
756.900	6926
757.011	6636
757.121	6321
757.231	5821
757.341	5697
757.451	5962
757.561	5626
757.671	5595
757.781	5326
757.891	7270
758.001	6054
758.111	7233
758.221	6350
758.331	7495
758.441	7205
758.551	7568
758.661	6969
758.771	8643
758.880	6623
758.990	7025
759.100	7003
759.210	7047
759.320	7625
759.429	7925
759.539	7084
759.649	8149
759.758	7651
759.868	7979
759.978	7315
760.087	8832
760.197	8394
760.307	8410
760.416	7575
760.526	7979
760.635	9234
760.745	9015
760.854	8824
760.964	9192
761.073	9272
761.182	10154
761.292	9335
761.401	10176
761.511	8966
761.620	9912
761.729	10430
761.839	10212
761.948	11359
762.057	10670
762.166	10606
762.276	11265
762.385	12854
762.494	12167
762.603	12189
762.712	13287
762.822	12485
762.931	14419
763.040	13210
763.149	13950
763.258	14439
763.367	16356
763.476	16115
763.585	17618
763.694	17805
763.803	18916
763.912	20576
764.021	20933
764.130	21012
764.238	23388
764.347	23917
764.456	25626
764.565	28298
764.674	31354
764.783	32640
764.891	36879
765.000	41354
765.109	47281
765.217	53936
765.326	65310
765.435	77271
765.543	94177
765.652	117778
765.761	157350
765.869	217161
765.978	321697
766.086	498309
766.195	816811
766.303	1185834
766.412	1065378
766.520	1193364
766.629	986956
766.737	589066
766.846	372568
766.954	253016
767.062	184941
767.171	142876
767.279	110447
767.387	88514
767.496	75579
767.604	64585
767.712	57952
767.820	52144
767.928	46893
768.037	42754
768.145	42533
768.253	40812
768.361	38289
768.469	38573
768.577	40458
768.685	41593
768.793	46039
768.901	49479
769.009	58948
769.117	70866
769.225	93266
769.333	131418
769.441	207119
769.549	358832
769.657	670627
769.765	1056019
769.873	1030449
769.981	878652
770.088	451926
770.196	250657
770.304	164106
770.412	119636
770.519	89927
770.627	70931
770.735	58851
770.842	48428
770.950	43720
771.058	36290
771.165	34318
771.273	29507
771.380	28505
771.488	24623
771.595	24477
771.703	21988
771.810	20961
771.918	19390
772.025	19741
772.133	17922
772.240	17309
772.348	16127
772.455	15999
772.562	14398
772.670	14980
772.777	13626
772.884	12914
772.991	11579
773.099	12701
773.206	11697
773.313	12791
773.420	10963
773.528	10390
773.635	9631
773.742	11033
773.849	11111
773.956	10364
774.063	10051
774.170	9118
774.277	10449
774.384	10499
774.491	8725
774.598	10067
774.705	9278
774.812	9301
774.919	9593
775.026	8843
775.133	7743
775.239	9220
775.346	6683
775.453	8711
775.560	6997
775.667	8348
775.773	7422
775.880	7781
775.987	7216
776.093	7656
776.200	6731
776.307	7209
776.413	6762
776.520	7655
776.627	7427
776.733	7104
776.840	6113
776.946	8778
777.053	8021
777.159	9998
777.266	7138
777.372	10731
777.478	7038
777.585	7147
777.691	6562
777.798	6266
777.904	6251
778.010	7813
778.117	6447
778.223	6544
778.329	5546
778.435	6240
778.542	5836
778.648	4657
778.754	5366
778.860	6788
778.966	6058
779.072	5906
779.178	5276
779.284	5589
779.391	5689
779.497	7015
779.603	10090
779.708	15136
779.815	38962
779.920	143129
780.026	148975
780.132	19064
780.238	6832
780.344	6943
780.450	6503
780.556	6265
780.661	5785
780.767	5625
780.873	4172
780.979	6315
781.085	4344
781.190	4728
781.296	4683
781.402	4664
781.507	3988
781.613	5175
781.719	3917
781.824	4575
781.930	4601
782.035	5883
782.141	3461
782.246	4303
782.352	3621
782.457	3836
782.563	4203
782.668	3676
782.773	4287
782.879	3529
782.984	4830
783.090	4926
783.195	5523
783.300	4464
783.405	4333
783.511	3716
783.616	3828
783.721	4142
783.826	2900
783.932	5150
784.037	4783
784.142	4367
784.247	3962
784.352	4056
784.457	4264
784.562	4638
784.667	4336
784.772	4423
784.877	3180
784.982	4095
785.087	2829
785.192	5262
785.297	2982
785.402	4395
785.507	3612
785.611	4338
785.716	3357
785.821	4251
785.926	2746
786.031	4343
786.135	3532
786.240	4488
786.345	3157
786.450	3973
786.554	3422
786.659	4147
786.763	2525
786.868	3534
786.973	4210
787.077	4433
787.182	3466
787.286	3791
787.391	3248
787.495	2928
787.600	2683
787.704	3060
787.809	3094
787.913	2714
788.017	3138
788.122	3881
788.226	3424
788.330	2556
788.435	2749
788.539	3138
788.643	3298
788.747	3097
788.852	2764
788.956	3176
789.060	3380
789.164	3430
789.268	2607
789.372	3998
789.476	2658
789.580	3305
789.684	3031
789.788	4774
789.892	2216
789.996	4076
790.100	2664
790.204	3341
790.308	2968
790.412	2713
790.516	3804
790.620	2782
790.724	2514
790.828	2848
790.931	1944
791.035	4674
791.139	2940
791.242	2546
791.346	3707
791.450	3182
791.554	2583
791.657	2244
791.761	3804
791.864	4264
791.968	2803
792.072	3946
792.175	2347
792.279	3333
792.382	3320
792.486	3105
792.589	2546
792.693	3329
792.796	2509
792.899	3348
793.003	3225
793.106	1964
793.209	2422
793.313	4332
793.416	1190
793.519	4218
793.623	3577
793.726	4192
793.829	2733
793.932	3705
794.035	1938
794.138	4171
794.242	4521
794.345	5680
794.448	9017
794.551	20670
794.654	74164
794.757	84790
794.860	10737
794.963	4435
795.066	2784
795.169	3506
795.272	2982
795.375	3535
795.477	2634
795.580	3589
795.683	992
795.786	2728
795.889	1477
795.991	3990
796.094	3427
796.197	2736
796.300	3286
796.402	2738
796.505	1370
796.608	2256
796.710	1978
796.813	3127
796.915	2068
797.018	2305
797.120	2721
797.223	1489
797.326	2178
797.428	1631
797.530	1055
797.633	2473
797.735	3172
797.838	3797
797.940	3077
798.042	1696
798.145	2074
798.247	3130
798.349	1087
798.452	2495
798.554	2202
798.656	1073
798.758	2692
798.860	2168
798.962	2190
799.065	2315
799.167	1280
799.269	3375
799.371	2480
799.473	2705
799.575	1481
799.677	2724
799.779	3778
799.881	2525
799.983	2653
800.085	2032
800.187	924
800.289	1038
800.390	1373
800.492	2685
800.594	2515
800.696	1577
800.798	2468
800.899	2152
801.001	1577
801.103	2026
801.205	629
801.306	2355
801.408	644
801.509	2379
801.611	1927
801.713	2115
801.814	510
801.916	1710
802.017	1225
802.119	1236
802.220	2251
802.322	280
802.423	4083
802.525	1741
802.626	1977
802.727	2377
802.829	3025
802.930	-482
803.031	2619
803.133	1941
803.234	1942
803.335	2246
803.436	949
803.538	1464
803.639	1002
803.740	2432
803.841	544
803.942	2113
804.043	2685
804.144	1235
804.245	1932
804.346	1234
804.447	963
804.548	1987
804.649	3249
804.750	1222
804.851	1657
804.952	1294
805.053	1436
805.154	781
805.255	1220
805.355	892
805.456	978
805.557	1047
805.658	684
805.758	2474
805.859	1248
805.960	2227
806.061	782
806.161	2113
806.262	1599
806.362	1461
806.463	1289
806.564	2223
806.664	1186
806.765	3103
806.865	2065
806.966	1541
807.066	566
807.166	2679
807.267	1744
807.367	1790
807.468	1374
807.568	1086
807.668	1367
807.769	1897
807.869	174
807.969	1814
808.069	1467
808.170	2909
808.270	404
808.370	2339
808.470	2620
808.570	809
808.670	1234
808.770	1928
808.870	989
808.970	1576
809.070	1112
809.170	1129
809.271	1399
809.370	1308
809.470	861
809.570	1006
809.670	991
809.770	1164
809.870	2431
809.970	1483
810.070	1406
810.169	2373
810.269	588
810.369	2005
810.469	692
810.568	744
810.668	853
810.768	1183
810.867	469
810.967	632
811.066	1220
811.166	1366
811.265	1708
811.365	792
811.464	1369
811.564	2380
811.663	1062
811.763	293
811.862	1067
811.962	1895
812.061	1069
812.160	1118
812.260	1010
812.359	1988
812.458	1375
812.557	4071
812.657	3175
812.756	2954
812.855	1666
812.954	1661
813.053	2101
813.153	1821
813.252	833
813.351	1823
813.450	1244
813.549	1470
813.648	1667
813.747	1920
813.846	1512
813.945	1374
814.044	731
814.143	2943
814.242	1602
814.341	1693
814.439	1277
814.538	1979
814.637	1211
814.736	1889
814.835	2479
814.933	2203
815.032	3071
815.131	2408
815.229	2139
815.328	3649
815.427	2116
815.525	3136
815.624	3499
815.722	3383
815.821	3612
815.919	4046
816.018	3412
816.116	4477
816.215	3413
816.313	4445
816.412	3224
816.510	4456
816.609	5722
816.707	5171
816.805	5046
816.904	5876
817.002	6942
817.100	8564
817.198	8344
817.296	10093
817.395	11120
817.493	16130
817.591	16888
817.689	23261
817.787	31204
817.885	52059
817.983	87272
818.081	170851
818.179	354821
818.277	631055
818.375	487905
818.473	223629
818.571	110769
818.669	74015
818.767	61481
818.865	61791
818.963	73342
819.061	101292
819.158	161433
819.256	295690
819.354	551528
819.452	765519
819.549	543474
819.647	287224
819.745	151535
819.842	93929
819.940	64580
820.038	46055
820.135	35519
820.233	29131
820.330	23096
820.428	18783
820.525	16172
820.623	14572
820.720	12126
820.818	12150
820.915	9278
821.012	9920
821.110	6889
821.207	8135
821.304	6710
821.402	6340
821.499	7290
821.596	6950
821.693	4938
821.791	5832
821.888	4566
821.985	6143
822.082	4944
822.179	4540
822.276	3146
822.373	3997
822.470	4195
822.567	3372
822.664	2769
822.761	4198
822.858	1361
822.955	3356
823.052	2282
823.149	3102
823.246	2045
823.343	2929
823.440	2734
823.536	2219
823.633	1719
823.730	2934
823.827	2384
823.923	2014
824.020	2590
824.117	1453
824.213	1020
824.310	2336
824.407	1697
824.503	2015
824.600	1201
824.696	1946
824.793	2020
824.889	1513
824.986	1451
825.082	1287
825.179	1616
825.275	1807
825.371	27
825.468	2489
825.564	428
825.660	2924
825.757	1032
825.853	2770
825.949	-755
826.045	1635
826.142	452
826.238	1131
826.334	1676
826.430	650
826.526	946
826.622	1009
826.718	665
826.814	289
826.910	1547
827.006	842
827.102	425
827.198	1931
827.294	767
827.390	1724
827.486	1106
827.582	783
827.678	-107
827.774	2053
827.869	-293
827.965	1330
828.061	313
828.157	1401
828.252	948
828.348	1176
828.444	1259
828.539	142
828.635	981
828.731	1537
828.826	-641
828.922	1191
829.017	-34
829.113	1845
829.208	-202
829.304	470
829.399	1849
829.495	489
829.590	811
829.685	396
829.781	979
829.876	909
829.971	-208
830.066	229
830.162	-306
830.257	460
830.352	-50
830.447	1955
830.543	334
830.638	-266
830.733	1113
830.828	324
830.923	1395
831.018	1256
831.113	-3
831.208	338
831.303	675
831.398	876
831.493	672
831.588	1131
831.683	-723
831.778	329
831.873	262
831.967	1666
832.062	-6
832.157	-788
832.252	573
832.346	848
832.441	697
832.536	1019
832.631	3148
832.725	1760
832.820	-620
832.914	736
833.009	21
833.104	919
833.198	-419
833.293	-197
833.387	569
833.482	521
833.576	-926
833.670	1142
833.765	195
833.859	553
833.954	635
834.048	-111
834.142	473
834.237	-178
834.331	-469
834.425	610
834.519	-65
834.613	1102
834.708	158
834.802	1411
834.896	165
834.990	310
835.084	423
835.178	471
835.272	-437
835.366	134
835.460	-84
835.554	476
835.648	-807
835.742	-223
835.836	434
835.930	-791
836.024	269
836.117	1504
836.211	-398
836.305	2205
836.399	888
836.493	-433
836.586	1399
836.680	-259
836.774	532
836.867	1154
836.961	-97
837.055	98
837.148	340
837.242	388
837.335	-363
837.429	-53
837.522	-7
837.616	1029
837.709	1957
837.803	1403
837.896	366
837.989	554
838.083	1304
838.176	2964
838.269	347
838.363	860
838.456	108
838.549	1469
838.642	978
838.735	2721
838.829	549
838.922	799
839.015	286
839.108	118
839.201	-88
839.294	843
839.387	205
839.480	697
839.573	911
839.666	1302
839.759	368
839.852	-216
839.945	-321
840.038	-605
840.131	-363
840.223	558
840.316	745
840.409	50
840.502	-722
840.594	640
840.687	-200
840.780	73
840.873	-316
840.965	-203
841.058	1269
841.150	2923
841.243	-207
841.336	835
841.428	235
841.521	-807
841.613	-820
841.706	913
841.798	-157
841.890	-159
841.983	-131
842.075	671
842.167	-733
842.260	395
842.352	790
842.444	1269
842.537	1910
842.629	3195
842.721	-382
842.813	1
842.905	-862
842.997	773
843.090	-30
843.182	1137
843.274	1582
843.366	7376
843.458	11326
843.550	7076
843.642	-295
843.734	538
843.826	-46
843.918	1325
844.009	-20
844.101	92
844.193	-870
844.285	606
844.377	493
844.469	1086
844.560	-269
844.652	673
844.744	737
844.835	-117
844.927	67
845.019	-337
845.110	-369
845.202	219
845.293	187
845.385	-554
845.476	339
845.568	930
845.659	371
845.751	334
845.842	-12
845.934	236
846.025	10
846.116	-22
846.208	-613
846.299	650
846.390	-1339
846.482	748
846.573	-529
846.664	628
846.755	463
846.846	1440
846.937	-1554
847.029	6
847.120	124
847.211	-338
847.302	440
847.393	-739
847.484	444
847.575	-25
847.666	-291
847.757	-305
847.847	-684
847.938	429
848.029	-464
848.120	-180
848.211	439
848.302	-612
848.392	-1051
848.483	-43
848.574	-1379
848.664	-649
848.755	-103
848.846	17
848.936	-744
849.027	487
849.118	-112
849.208	-264
849.299	544
849.389	781
849.480	1166
849.570	2143
849.661	4346
849.751	6929
849.841	2593
849.932	18
850.022	-961
850.112	-2
850.203	-960
850.293	-132
850.383	543
850.474	172
850.564	-639
850.654	362
850.744	302
850.834	206
850.924	-373
851.014	126
851.104	-869
851.194	202
851.284	679
851.374	567
851.464	-714
851.554	479
851.644	-219
851.734	1445
851.824	288
851.914	724
852.004	2028
852.094	791
852.183	-160
852.273	291
852.363	-871
852.452	264
852.542	-705
852.632	-633
852.721	-790
852.811	837
852.901	-347
852.990	-36
853.080	-785
853.169	839
853.259	-819
853.348	398
853.438	12
853.527	1000
853.617	-232
853.706	2571
853.795	2877
853.885	9357
853.974	16641
854.063	33379
854.152	47106
854.242	14927
854.331	2012
854.420	446
854.509	100
854.598	1350
854.687	-6
854.777	838
854.866	-598
854.955	694
855.044	-68
855.133	176
855.222	-167
855.311	-263
855.400	-197
855.488	477
855.577	80
855.666	553
855.755	821
855.844	1195
855.933	726
856.021	438
856.110	57
856.199	-418
856.288	-679
856.376	646
856.465	-701
856.554	-384
856.642	-518
856.731	166
856.819	-726
856.908	-342
856.996	-116
857.085	-544
857.173	-677
857.262	233
857.350	-25
857.438	20
857.527	-563
857.615	-340
857.703	-1176
857.792	115
857.880	-1189
857.968	-207
858.056	-714
858.145	-124
858.233	-225
858.321	-899
858.409	7
858.497	-547
858.585	-976
858.673	229
858.761	-220
858.849	86
858.937	-390
859.025	102
859.113	-743
859.201	-291
859.289	-169
859.377	57
859.465	-788
859.552	-321
859.640	-166
859.728	-298
859.816	-963
859.903	573
859.991	-1435
860.079	135
860.166	-530
860.254	-459
860.342	-445
860.429	-22
860.517	-1285
860.604	-358
860.692	-239
860.779	-518
860.867	-1187
860.954	-20
861.042	-551
861.129	-197
861.216	-1087
861.304	-660
861.391	-609
861.478	-430
861.565	-431
861.653	644
861.740	-1194
861.827	-163
861.914	-931
862.001	-1142
862.089	-1267
862.176	610
862.263	-1396
862.350	220
862.437	-1530
862.524	-297
862.611	-295
862.698	-129
862.785	-491
862.871	-339
862.958	-509
863.045	-376
863.132	73
863.219	-379
863.306	-1386
863.392	191
863.479	-623
863.566	181
863.652	-412
863.739	-828
863.826	-659
863.912	-996
863.999	-556
864.086	-885
864.172	-770
864.259	-295
864.345	-370
864.432	459
864.518	-741
864.604	47
864.691	-516
864.777	-418
864.863	-810
864.950	121
865.036	-420
865.122	636
865.209	322
865.295	408
865.381	-214
865.467	451
865.553	461
865.639	265
865.726	640
865.812	3916
865.898	8006
865.984	11030
866.070	21602
866.156	22341
866.242	4409
866.328	1371
866.414	-262
866.499	567
866.585	-779
866.671	9
866.757	413
866.843	-47
866.928	-530
867.014	104
867.100	-309
867.186	144
867.271	-118
867.357	511
867.442	561
867.528	639
867.614	213
867.699	193
867.785	-537
867.870	600
867.956	420
868.041	865
868.127	-799
868.212	1345
868.297	469
868.383	290
868.468	34
868.553	1363
868.639	614
868.724	2502
868.809	1523
868.894	419
868.979	-800
869.065	360
869.150	-1038
869.235	-384
869.320	-1837
869.405	-639
869.490	-928
869.575	344
869.660	-592
869.745	533
869.830	-1101
869.915	-76
870.000	-597
870.085	-405
870.169	-972
870.254	417
870.339	-649
870.424	84
870.509	-132
870.593	-488
870.678	-954
870.763	61
870.847	-824
870.932	-27
871.016	31
871.101	-8
871.186	-729
871.270	319
871.355	-952
871.439	-443
871.523	-919
871.608	-369
871.692	-779
871.777	-476
871.861	-1196
871.945	-52
872.030	-512
872.114	194
872.198	-376
872.282	-86
872.367	-363
872.451	-239
872.535	-1504
872.619	-743
872.703	-1202
872.787	-433
872.871	-1036
872.955	-192
873.039	-1172
873.123	134
873.207	276
873.291	-36
873.375	-1480
873.459	-45
873.543	-1190
873.627	-185
873.711	-803
873.794	-359
873.878	-850
873.962	350
874.045	-470
874.129	-864
874.137	-895
874.213	-1215
874.245	-747
874.296	15
874.352	-893
874.380	-1340
874.460	-380
874.464	-342
874.547	-1473
874.568	-1136
874.631	-160
874.676	-537
874.714	-851
874.784	-343
874.798	-246
874.881	910
874.892	650
874.965	-1095
874.999	-581
875.048	91
875.107	-300
875.131	-454
875.215	-976
875.215	-976
875.298	-486
875.323	-547
875.381	-668
875.430	-495
875.465	-368
875.538	-527
875.548	-554
875.631	-96
875.646	-226
875.714	-873
875.753	-570
875.798	-156
875.861	-844
875.881	-1095
875.964	-232
875.968	-236
876.047	-145
876.076	151
876.130	588
876.183	-444
876.213	-986
876.291	-93
876.296	-33
876.379	-420
876.398	-320
876.462	51
876.506	-46
876.545	-158
876.613	-253
876.628	-275
876.711	-490
876.721	-433
876.794	35
876.828	-141
876.877	-413
876.935	65
876.960	279
877.043	-665
877.043	-662
877.125	91
877.150	83
877.208	-140
877.258	-401
877.291	-440
877.365	28
877.374	71
877.456	-13
877.472	-39
877.539	-54
877.579	193
877.622	310
877.687	-62
877.704	-108
877.787	-305
877.794	-334
877.869	-657
877.901	-187
877.952	507
878.008	-211
878.034	-597
878.115	-391
878.117	-376
878.199	-113
878.222	-46
878.282	-183
878.329	-393
878.364	-492
878.437	147
878.447	260
878.529	-221
878.544	-91
878.611	286
878.651	67
878.694	-53
878.758	2
878.776	-6
878.858	-39
878.865	-31
878.941	113
878.972	-87
879.023	-405
879.078	-395
879.105	-318
879.185	6
879.187	7
879.269	324
879.292	106
879.351	-446
879.399	-266
879.433	75
879.506	9
879.516	-45
879.598	140
879.613	40
879.680	-126
879.720	-85
879.762	-233
879.827	-613
879.844	-624
879.926	13
879.933	42
880.007	10
880.040	-55
880.089	-43
880.147	91
880.171	160
880.253	989
880.254	987
880.335	791
880.360	905
880.417	1018
880.467	1104
880.499	1519
880.574	2886
880.580	2873
880.662	832
880.680	632
880.744	289
880.787	-284
880.825	-663
880.893	-540
880.907	-453
880.989	-559
881.000	-478
881.070	-216
881.106	-294
881.152	-270
881.213	147
881.233	159
881.315	-416
881.319	-424
881.396	-28
881.426	-178
881.478	-384
881.532	-16
881.559	169
881.639	41
881.641	29
881.722	377
881.745	168
881.803	126
881.852	176
881.885	-18
881.958	-85
881.966	-34
882.047	646
882.064	646
882.129	339
882.171	354
882.210	635
882.277	969
882.291	943
882.372	361
882.383	320
882.454	88
882.489	220
882.535	354
882.596	-266
882.616	-349
882.697	297
882.702	289
882.778	136
882.808	287
882.859	467
882.914	294
882.940	177
883.020	131
883.021	137
883.102	22
883.127	219
883.183	583
883.233	434
883.264	363
883.339	1068
883.345	1108
883.426	504
883.445	460
883.507	383
883.551	208
883.587	68
883.657	164
883.668	275
883.749	327
883.763	500
883.830	97
883.869	-504
883.910	-289
883.975	438
883.991	422
884.072	39
884.081	-6
884.152	343
884.187	456
884.233	287
884.292	379
884.314	520
884.394	321
884.398	336
884.475	542
884.504	551
884.555	496
884.610	523
884.636	586
884.716	201
884.716	207
884.797	838
884.821	860
884.877	315
884.927	-210
884.958	-57
885.033	481
885.038	481
885.118	401
885.139	328
885.199	573
885.244	985
885.279	1020
885.350	680
885.359	641
885.439	726
885.456	541
885.520	112
885.561	365
885.600	659
885.667	730
885.680	697
885.760	614
885.773	594
885.840	872
885.878	1026
885.920	965
885.984	630
886.000	576
886.080	569
886.089	581
886.160	962
886.195	1052
886.240	1192
886.300	1155
886.320	1019
886.400	895
886.406	867
886.480	805
886.511	800
886.560	586
886.616	207
886.640	511
886.720	1941
886.722	1959
886.800	795
886.827	452
886.879	578
886.932	554
886.959	727
887.038	1590
887.039	1589
887.119	600
887.143	329
887.198	824
887.248	1279
887.278	1260
887.354	1054
887.358	1050
887.437	965
887.459	925
887.517	1137
887.564	1229
887.596	1111
887.669	903
887.676	903
887.755	743
887.774	721
887.835	913
887.880	1025
887.914	1051
887.985	1069
887.994	1052
888.073	900
888.090	849
888.153	1001
888.195	1120
888.232	1062
888.300	963
888.311	1038
888.391	1416
888.405	1498
888.470	887
888.510	447
888.549	741
888.615	1331
888.628	1332
888.708	1239
888.720	1214
888.787	782
888.825	521
888.866	786
888.930	1266
888.945	1279
889.024	1202
889.035	1199
889.103	1673
889.140	1872
889.182	1699
889.245	1488
889.261	1413
889.340	984
889.349	934
889.419	1469
889.454	1719
889.498	1273
889.559	666
889.577	728
889.656	979
889.664	1003
889.735	796
889.768	689
889.814	1126
889.873	1700
889.978	329
890.083	1769
890.187	392
890.292	1535
890.397	1321
890.501	1598
890.606	1264
890.710	1741
890.815	1715
890.919	1176
891.024	1184
891.128	1149
891.233	948
891.337	688
891.442	481
891.546	1414
891.650	1331
891.755	905
891.859	1798
891.963	1341
892.068	1464
892.172	1230
892.276	673
892.380	1098
892.484	979
892.589	1457
892.693	1479
892.797	1571
892.901	1866
893.005	1367
893.109	848
893.213	1803
893.317	450
893.421	2281
893.525	1063
893.629	109
893.733	1065
893.837	683
893.941	1364
894.045	1857
894.148	641
894.252	2575
894.356	1062
894.460	1685
894.564	185
894.667	805
894.771	672
894.875	579
894.978	824
895.082	1495
895.186	1454
895.289	1893
895.393	1448
895.496	1636
895.600	868
895.703	1422
895.807	921
895.910	1500
896.014	1167
896.117	1041
896.221	1540
896.324	539
896.427	1223
896.531	1024
896.634	914
896.737	951
896.840	1161
896.944	1136
897.047	474
897.150	1813
897.253	1068
897.356	1548
897.460	590
897.563	1938
897.666	1182
897.769	891
897.872	734
897.975	1241
898.078	590
898.181	859
898.284	714
898.387	925
898.490	835
898.593	1405
898.695	811
898.798	1511
898.901	1380
899.004	1793
899.107	702
899.209	955
899.312	646
899.415	481
899.518	959
899.620	271
899.723	1368
899.826	1801
899.928	1503
900.031	1218
900.133	649
900.236	752
900.338	1180
900.441	1444
900.543	1050
900.646	800
900.748	489
900.851	1202
900.953	1161
901.055	1441
901.158	1184
901.260	1129
901.362	1604
901.465	572
901.567	632
901.669	1944
901.771	617
901.873	1618
901.976	1040
902.078	1457
902.180	385
902.282	903
902.384	1375
902.486	1484
902.588	1089
902.690	1280
902.792	1109
902.894	1895
902.996	1138
903.098	1471
903.200	1228
903.302	1845
903.404	1411
903.505	2363
903.607	692
903.709	945
903.811	626
903.913	1539
904.014	1016
904.116	995
904.218	1383
904.319	1427
904.421	788
904.523	1094
904.624	553
904.726	1236
904.827	1105
904.929	606
905.030	2020
905.132	2233
905.233	885
905.335	1147
905.436	518
905.537	1374
905.639	1027
905.740	1282
905.841	1292
905.943	1385
906.044	770
906.145	1164
906.247	306
906.348	1114
906.449	1091
906.550	340
906.651	1916
906.752	1768
906.854	791
906.955	1031
907.056	1116
907.157	912
907.258	547
907.359	403
907.460	870
907.561	2104
907.662	620
907.762	1770
907.863	1337
907.964	673
908.065	1209
908.166	1143
908.267	869
908.367	603
908.468	964
908.569	385
908.670	1444
908.770	1283
908.871	1525
908.971	1670
909.072	1180
909.173	2480
909.273	431
909.374	486
909.474	1101
909.575	1166
909.675	-191
909.776	1134
909.876	918
909.977	1345
910.077	834
910.177	686
910.278	1280
910.378	1363
910.478	675
910.579	2149
910.679	654
910.779	1113
910.879	1378
910.980	980
911.080	705
911.180	625
911.280	408
911.380	1042
911.480	300
911.580	1031
911.680	1186
911.780	916
911.880	960
911.980	1360
912.080	613
912.180	1437
912.280	1041
912.380	985
912.480	1258
912.580	1376
912.679	600
912.779	1100
912.879	236
912.979	1285
913.078	1640
913.178	423
913.278	307
913.377	1006
913.477	931
913.577	1372
913.676	994
913.776	548
913.875	305
913.975	1141
914.074	862
914.174	883
914.273	1090
914.373	1476
914.472	1116
914.572	1203
914.671	1518
914.770	1062
914.870	844
914.969	877
915.068	873
915.167	1766
915.267	801
915.366	770
915.465	911
915.564	1169
915.663	983
915.763	1202
915.862	1357
915.961	1320
916.060	968
916.159	1206
916.258	309
916.357	839
916.456	758
916.555	1041
916.654	1022
916.752	864
916.851	963
916.950	1859
917.049	682
917.148	1126
917.247	270
917.345	2049
917.444	357
917.543	1436
917.642	858
917.740	1303
917.839	1078
917.937	1468
918.036	563
918.135	802
918.233	999
918.332	608
918.430	950
918.529	1684
918.627	869
918.726	1355
918.824	840
918.923	1277
919.021	867
919.119	514
919.218	963
919.316	1384
919.414	814
919.512	1000
919.611	310
919.709	1981
919.807	472
919.905	1253
920.003	1755
920.102	1097
920.200	599
920.298	1405
920.396	690
920.494	1184
920.592	227
920.690	788
920.788	888
920.886	1562
920.984	1017
921.082	699
921.180	1019
921.277	1429
921.375	631
921.473	1486
921.571	355
921.669	1656
921.766	995
921.864	1932
921.962	1277
922.060	686
922.157	1413
922.255	1272
922.352	1915
922.450	1085
922.548	870
922.645	948
922.743	1471
922.840	1853
922.938	1625
923.035	2160
923.133	1104
923.230	1376
923.327	1422
923.425	1457
923.522	933
923.619	1264
923.717	825
923.814	2356
923.911	1504
924.008	1974
924.106	1708
924.203	1340
924.300	38
924.397	752
924.494	2040
924.591	1887
924.688	1745
924.786	1514
924.883	1907
924.979	1546
925.077	1190
925.173	1918
925.270	1846
925.367	1454
925.464	1825
925.561	1086
925.658	1734
925.755	2439
925.852	1407
925.948	1916
926.045	925
926.142	1388
926.239	1265
926.335	1903
926.432	1737
926.529	1887
926.625	1549
926.722	1722
926.818	1574
926.915	1525
927.011	1587
927.108	850
927.204	1335
927.301	1256
927.397	1663
927.494	1597
927.590	872
927.687	1619
927.783	521
927.879	1249
927.976	954
928.072	1877
928.168	805
928.264	1486
928.361	532
928.457	1223
928.553	1814
928.649	1533
928.745	1255
928.841	1548
928.937	966
929.033	685
929.129	788
929.225	1189
929.321	1211
929.417	1602
929.513	1290
929.609	889
929.705	1473
929.801	2179
929.897	721
929.993	1328
930.089	1354
930.184	1277
930.280	1449
930.376	1423
930.471	652
930.567	2057
930.663	1665
930.758	1834
930.854	695
930.950	1485
931.045	1564
931.141	2135
931.236	1391
931.332	1062
931.427	423
931.523	2331
931.618	1400
931.714	665
931.809	2374
931.905	1428
932.000	1671
932.095	1002
932.191	1154
932.286	1507
932.381	1048
932.476	1742
932.572	1822
932.667	1581
932.762	741
932.857	1327
932.952	1603
933.047	1083
933.142	1929
933.237	1181
933.332	847
933.427	1681
933.522	1043
933.617	1929
933.712	915
933.807	1283
933.902	720
933.997	1993
934.092	1219
934.187	1945
934.282	1251
934.376	1147
934.471	1031
934.566	1265
934.661	694
934.755	2002
934.850	1014
934.945	2410
935.039	1271
935.134	1755
935.228	1431
935.323	2191
935.417	557
935.512	1847
935.606	1375
935.701	1609
935.795	641
935.890	1859
935.984	1204
936.079	1455
936.173	801
936.267	1142
936.362	313
936.456	1753
936.550	1467
936.644	1909
936.738	1692
936.833	784
936.927	1176
937.021	1297
937.115	1326
937.209	794
937.303	2114
937.397	1529
937.491	941
937.585	1687
937.679	1605
937.773	1117
937.867	391
937.961	1487
938.055	1184
938.149	2147
938.243	1409
938.337	1263
938.430	1045
938.524	1329
938.618	2064
938.712	2161
938.805	1460
938.899	1246
938.993	1510
939.086	1216
939.180	1477
939.274	2143
939.367	1696
939.461	2030
939.554	956
939.648	868
939.741	1843
939.835	1791
939.928	1305
940.022	1125
940.115	840
940.208	1925
940.302	1607
940.395	1634
940.488	1009
940.582	2171
940.675	1446
940.768	2045
940.861	1288
940.954	1233
941.048	1184
941.141	1623
941.234	512
941.327	2174
941.420	2275
941.513	1558
941.606	548
941.699	2161
941.792	916
941.885	1380
941.978	1054
942.071	1227
942.164	1134
942.257	1587
942.349	1103
942.442	1021
942.535	925
942.628	1419
942.721	1933
942.813	685
942.906	1576
942.999	1256
943.091	720
943.184	1602
943.277	1966
943.369	2553
943.462	1293
943.554	1833
943.647	1173
943.739	1745
943.832	1279
943.924	1275
944.017	1702
944.109	1282
944.201	1563
944.294	2210
944.386	1627
944.478	942
944.571	1703
944.663	1631
944.755	1277
944.847	1477
944.940	1280
945.032	1184
945.124	1058
945.216	2627
945.308	779
945.400	2120
945.492	1432
945.584	768
945.676	1413
945.768	1353
945.860	1503
945.952	375
946.044	1350
946.136	1826
946.228	731
946.320	617
946.412	408
946.503	1046
946.595	1400
946.687	1561
946.779	382
946.870	1631
946.962	742
947.054	1224
947.145	1694
947.237	792
947.329	1162
947.420	835
947.512	144
947.603	1066
947.695	1242
947.786	640
947.878	634
947.969	1963
948.061	118
948.152	1210
948.243	1695
948.335	1586
948.426	1343
948.517	948
948.609	1182
948.700	1288
948.791	549
948.882	1328
948.973	396
949.065	1569
949.156	576
949.247	661
949.338	1993
949.429	1114
949.520	575
949.611	943
949.702	1324
949.793	1479
949.884	1179
949.975	1132
950.066	67
950.157	853
950.247	907
950.338	1047
950.429	442
950.520	1224
950.611	669
950.701	1332
950.792	858
950.883	1623
950.973	827
951.064	841
951.155	233
951.245	2096
951.336	1385
951.427	805
951.517	981
951.608	1935
951.698	417
951.788	1451
951.879	1459
951.969	859
952.060	485
952.150	1089
952.240	640
952.331	-41
952.421	2092
952.511	1384
952.602	1265
952.692	1475
952.782	1139
952.872	1137
952.962	504
953.052	694
953.143	91
953.233	606
953.323	1021
953.413	709
953.503	1124
953.593	1083
953.683	549
953.773	671
953.863	935
953.953	1151
954.042	-45
954.132	1105
954.222	1700
954.312	1133
954.402	722
954.492	1083
954.581	1315
954.671	1946
954.761	-608
954.850	1661
954.940	614
955.030	1056
955.119	-25
955.209	1541
955.298	72
955.388	1091
955.477	1805
955.567	653
955.656	1089
955.746	868
955.835	1409
955.925	1137
956.014	1043
956.103	683
956.193	1422
956.282	861
956.371	1142
956.461	366
956.550	-21
956.639	571
956.728	-104
956.817	631
956.906	523
956.995	763
957.085	541
957.174	1430
957.263	819
957.352	591
957.441	545
957.530	-210
957.619	923
957.708	492
957.796	933
957.885	1125
957.974	1098
958.063	1451
958.152	320
958.241	895
958.329	802
958.418	915
958.507	465
958.596	2280
958.684	899
958.773	1287
958.861	327
958.950	1728
959.039	877
959.127	856
959.216	1505
959.304	477
959.393	718
959.481	1672
959.570	1161
959.658	750
959.746	458
959.835	2101
959.923	1441
960.011	859
960.100	1200
960.188	1590
960.276	-200
960.365	1638
960.453	137
960.541	149
960.629	545
960.717	557
960.805	252
960.893	1094
960.981	-407
961.069	2044
961.158	448
961.245	1049
961.333	637
961.421	678
961.509	713
961.597	599
961.685	-109
961.773	645
961.861	222
961.949	1558
962.036	-138
962.124	362
962.212	458
962.299	147
962.387	552
962.475	1002
962.562	-688
962.650	1509
962.738	822
962.825	160
962.913	505
963.000	523
963.088	-171
963.175	747
963.263	392
963.350	327
963.438	-743
963.525	645
963.612	1838
963.700	4033
963.787	6464
963.874	2994
963.962	596
964.049	1343
964.136	-213
964.223	580
964.310	815
964.398	61
964.485	222
964.572	1504
964.659	913
964.746	1311
964.833	-251
964.920	854
965.007	386
965.094	219
965.181	90
965.268	207
965.355	505
965.441	276
965.528	-292
965.615	1253
965.702	464
965.789	-61
965.875	596
965.962	782
966.049	798
966.136	567
966.222	-261
966.309	493
966.395	49
966.482	1126
966.569	-291
966.655	376
966.742	352
966.828	652
966.915	134
967.001	503
967.087	1
967.174	262
967.260	795
967.347	1663
967.433	2290
967.519	4675
967.605	1433
967.692	1298
967.778	72
967.864	1537
967.950	-366
968.036	682
968.123	724
968.209	52
968.295	-1363
968.381	1316
968.467	325
968.553	-388
968.639	957
968.725	144
968.811	1331
968.897	1000
968.983	-216
969.069	-431
969.154	703
969.240	729
969.326	-827
969.412	-493
969.497	-17
969.583	1145
969.669	1340
969.755	361
969.840	-59
969.926	603
970.012	526
970.097	1839
970.183	310
970.268	337
970.354	624
970.439	1058
970.525	3300
970.610	1044
970.696	590
970.781	788
970.866	-173
970.952	1721
971.037	82
971.122	754
971.208	939
971.293	557
971.378	-159
971.463	267
971.549	598
971.634	-109
971.719	339
971.804	686
971.889	910
971.974	-495
972.059	198
972.144	496
972.229	90
972.314	-237
972.399	928
972.484	187
972.569	509
972.654	-201
972.739	1818
972.824	1306
972.908	-193
972.993	132
973.078	281
973.163	618
973.247	374
973.332	-155
973.417	1460
973.501	-243
973.586	-113
973.671	543
973.755	-90
973.840	1143
973.924	1153
974.009	63
974.093	-34
974.178	1928
974.262	811
974.346	728
974.431	493
974.515	686
974.600	410
974.684	302
974.768	277
974.852	1213
974.937	-1052
975.021	1034
975.105	-187
975.189	567
975.273	1263
975.358	-488
975.442	-821
975.526	806
975.610	-596
975.694	559
975.778	1211
975.862	880
975.946	-2424
976.030	2052
976.114	-893
976.198	479
976.281	-238
976.365	890
976.449	-135
976.533	640
976.617	386
976.700	884
976.784	-289
976.868	430
976.951	463
977.035	344
977.119	1124
977.202	1056
977.286	611
977.369	236
977.453	445
977.536	189
977.620	-576
977.703	803
977.787	-146
977.870	1020
977.953	502
978.037	-534
978.120	1591
978.203	1090
978.287	907
978.370	881
978.453	399
978.536	698
978.620	1216
978.703	1035
978.786	236
978.869	-32
978.952	-1039
979.035	2608
979.118	308
979.201	23
979.284	742
979.367	441
979.450	1217
979.533	-435
979.616	-552
979.699	405
979.782	710
979.865	607
979.948	1258
980.030	721
980.113	360
980.196	629
980.279	-116
980.361	230
980.444	-266
980.526	357
980.609	213
980.692	123
980.774	-99
980.857	-533
980.939	395
981.022	803
981.104	-101
981.187	350
981.269	137
981.352	842
981.434	-700
981.516	157
981.599	706
981.681	504
981.763	-96
981.846	234
981.928	66
982.010	258
982.092	-1020
982.174	709
982.256	-412
982.339	570
982.421	-270
982.503	90
982.585	-973
982.667	353
982.749	251
982.831	-309
982.913	-835
982.995	1456
983.077	-279
983.158	1816
983.240	-429
983.322	611
983.404	1051
983.486	-505
983.568	448
983.649	389
983.731	-35
983.813	305
983.894	353
983.976	20
984.058	-697
984.139	1323
984.221	-906
984.302	689
984.384	-160
984.465	-416
984.547	-304
984.628	-639
984.710	387
984.791	-186
984.872	427
984.954	324
985.035	-172
985.116	505
985.198	-418
985.279	1515
985.360	-332
985.441	3
985.522	495
985.604	520
985.685	-1619
985.766	1076
985.847	969
985.928	-889
986.009	-849
986.090	711
986.171	44
986.252	-373
986.333	194
986.414	-630
986.495	682
986.576	343
986.656	5
986.737	420
986.818	33
986.899	-291
986.980	-719
987.060	770
987.141	-726
987.222	860
987.302	-357
987.383	337
987.464	-733
987.544	-448
987.625	60
987.705	553
987.786	100
987.866	109
987.947	-476
988.027	-261
988.108	-956
988.188	1027
988.268	-22
988.349	58
988.429	-368
988.509	511
988.589	-469
988.670	-1535
988.750	536
988.830	-664
988.910	-294
988.990	948
989.070	-876
989.151	-86
989.231	-1152
989.311	908
989.391	610
989.471	-29
989.551	-151
989.631	-134
989.711	-278
989.791	-286
989.870	-912
989.950	542
990.030	-564
990.110	177
990.190	-1418
990.269	226
990.349	98
990.429	-314
990.509	-648
990.588	-414
990.668	220
990.747	345
990.827	-301
990.907	-187
990.986	-591
991.066	-29
991.145	-703
991.225	320
991.304	-230
991.383	-147
991.463	-842
991.542	-14
991.622	-523
991.701	-573
991.780	-1095
991.859	268
991.939	-1203
992.018	-393
992.097	-418
992.176	715
992.256	-1127
992.335	-959
992.414	413
992.493	-258
992.572	-328
992.651	832
992.730	-549
992.809	-623
992.888	-545
992.967	-568
993.046	-472
993.125	-221
993.203	-679
993.282	19
993.361	-419
993.440	-398
993.519	-508
993.597	-1012
993.676	-563
993.755	493
993.834	-1
993.912	-831
993.991	897
994.069	-54
994.148	-613
994.226	-810
994.305	-808
994.384	-1394
994.462	514
994.540	-524
994.619	-852
994.697	-840
994.776	-1022
994.854	15
994.932	-1132
995.011	-128
995.089	-1317
995.167	-892
995.245	-352
995.324	-982
995.402	-284
995.480	-748
995.558	-660
995.636	-751
995.714	-1691
995.792	720
995.870	-1715
995.948	-534
996.026	-501
996.104	-1764
996.182	-339
996.260	-505
996.338	-1031
996.416	-437
996.494	-1121
996.572	-182
996.649	-1125
996.727	-827
996.805	-315
996.883	-449
996.960	-995
997.038	-162
997.116	-721
997.193	-455
997.271	-775
997.348	-888
997.426	408
997.504	-1509
997.581	-559
997.658	478
997.736	-1166
997.813	-620
997.891	-362
997.968	-753
998.046	-1088
998.123	-427
998.200	39
998.277	-2118
998.355	-799
998.432	-1313
998.509	-1380
998.586	-371
998.663	-501
998.741	-492
998.818	-1507
998.895	-723
998.972	-344
999.049	192
999.126	-1276
999.203	341
999.280	-402
999.357	-1319
999.434	-570
999.511	-644
999.587	-377
999.664	-898
999.741	-411
999.818	-714
999.895	-1043
999.971	-681
1000.048	-951
1000.125	159
1000.202	-1133
1000.278	-161
1000.355	-693
1000.431	-627
1000.508	-885
1000.584	-589
1000.661	-673
1000.738	-1154
1000.814	-1134
1000.890	-330
1000.967	-1205
1001.043	38
1001.120	-1504
1001.196	-471
1001.272	-1071
1001.349	319
1001.425	324
1001.501	366
1001.577	-966
1001.654	125
1001.730	-876
1001.806	-911
1001.882	-1345
1001.958	67
1002.034	-135
1002.110	-1035
1002.186	-1079
1002.262	-637
1002.338	-1453
1002.414	-582
1002.490	-492
1002.566	-854
1002.642	-978
1002.718	267
1002.794	-919
1002.870	-575
1002.945	-844
1003.021	-942
1003.097	-1012
1003.173	58
1003.248	-646
1003.324	-118
1003.400	-1333
1003.475	-642
1003.551	331
1003.626	-572
1003.702	-765
1003.777	803
1003.853	-991
1003.928	-1279
1004.004	-897
1004.079	-114
1004.155	-1470
1004.230	-1888
1004.305	535
1004.381	-1340
1004.456	-1712
1004.531	-602
1004.607	-372
1004.682	-1084
1004.757	-524
1004.832	-1189
1004.907	-1223
1004.982	-75
1005.057	-574
1005.133	-895
1005.208	-636
1005.283	-960
1005.358	-144
1005.433	-1105
1005.508	-1178
1005.583	-235
1005.657	-159
1005.732	-248
1005.807	-1544
1005.882	-1096
1005.957	-394
1006.032	-235
1006.106	-259
1006.181	-1010
1006.256	-215
1006.331	-1813
1006.405	-1065
1006.480	-340
1006.554	-924
1006.629	-950
1006.704	-924
1006.778	-729
1006.853	-1036
1006.927	-693
1007.002	-1080
1007.076	-1036
1007.150	-1057
1007.225	136
1007.299	-835
1007.373	-955
1007.448	-1036
1007.522	314
1007.596	-811
1007.671	-1496
1007.745	-612
1007.819	-1035
1007.893	-1379
1007.967	-189
1008.041	-1772
1008.115	74
1008.190	-1398
1008.264	-318
1008.338	-1389
1008.412	-1830
1008.486	-1131
1008.560	-1214
1008.633	-570
1008.707	-657
1008.781	-1227
1008.855	-1213
1008.929	-294
1009.003	-1037
1009.076	-1453
1009.150	-596
1009.224	-1135
1009.298	-491
1009.371	-1407
1009.445	-347
1009.519	-1110
1009.592	-1120
1009.666	-1190
1009.739	-454
1009.813	-2136
1009.886	-193
1009.960	-1112
1010.033	-775
1010.107	-628
1010.180	-1794
1010.253	-1759
1010.327	-1153
1010.400	-658
1010.473	-946
1010.547	24
1010.620	-767
1010.693	-1081
1010.766	-1241
1010.840	-247
1010.913	-309
1010.986	-954
1011.059	-633
1011.132	-932
1011.205	60
1011.278	-992
1011.351	-565
1011.424	-981
1011.497	-1236
1011.570	-307
1011.643	-344
1011.716	-1086
1011.789	-53
1011.862	-921
1011.934	-142
1012.007	-2141
1012.080	-1018
1012.153	-1016
1012.225	214
1012.298	-1350
1012.371	-546
1012.443	-879
1012.516	-1231
1012.588	-696
1012.661	-1217
1012.733	-2044
1012.806	-267
1012.879	-1466
1012.951	-42
1013.023	-1230
1013.096	-323
1013.168	-1775
1013.241	-724
1013.313	-1269
1013.385	-759
1013.458	-974
1013.530	-217
1013.602	-1807
1013.674	-138
1013.746	-1113
1013.819	-1960
1013.891	-1057
1013.963	-1751
1014.035	-1458
1014.107	-388
1014.179	-641
1014.251	-1527
1014.323	-632
1014.395	-290
1014.467	-658
1014.539	-727
1014.611	-1190
1014.683	92
1014.754	-1170
1014.826	-1355
1014.898	-757
1014.970	-837
1015.042	-17
1015.113	-1359
1015.185	-1851
1015.257	-1517
1015.328	-1067
1015.400	-1300
1015.471	-844
1015.543	-2321
1015.615	-1125
1015.686	-1030
1015.757	-773
1015.829	140
1015.901	-337
1015.972	-826
1016.043	-1428
1016.115	-1148
1016.186	-1561
1016.257	-1515
1016.328	-924
1016.400	-422
1016.471	-1596
1016.542	-996
1016.613	-1173
1016.685	-661
1016.756	-949
1016.827	-875
1016.898	-1715
1016.969	-510
1017.040	-1600
1017.111	-743
1017.182	-1014
1017.253	-943
1017.324	-2027
1017.395	-1650
1017.466	-736
1017.537	-1996
1017.608	-1269
1017.678	-834
1017.749	-1468
1017.820	-730
1017.891	-1557
1017.961	-1040
1018.032	-1256
1018.103	-283
1018.173	-1530
1018.244	-1962
1018.315	-1736
1018.385	-715
1018.456	-1127
1018.526	-1794
1018.597	-1934
1018.667	-1251
1018.738	-1473
1018.808	-476
1018.878	-805
1018.949	-1317
1019.019	-1098
1019.089	-676
1019.160	-1092
1019.230	-1081
1019.300	-683
1019.371	-1492
1019.441	-1690
1019.511	-937
1019.581	-1199
1019.651	-713
1019.721	-1021
1019.791	-727
1019.861	-1090
1019.931	-920
1020.001	-1546
1020.071	-1033
1020.141	-1640
1020.211	-1197
1020.281	-1248
1020.351	-1177
1020.421	-505
1020.491	-521
1020.560	-1811
1020.630	-1250
1020.700	-1242
1020.770	-1154
1020.839	-1344
1020.909	-891
1020.979	-968
1021.048	-1523
1021.118	-1358
1021.187	-1052
1021.257	-1061
1021.326	-1597
1021.396	-1842
1021.465	-1398
1021.535	-1382
1021.604	-1342
1021.674	-599
1021.743	-770
1021.812	-2144
1021.882	-1042
1021.951	-1877
1022.020	-1478
1022.089	-1881
1022.159	-1268
1022.228	-1830
1022.297	-886
1022.366	-2085
1022.435	-1322
1022.504	-2029
1022.573	-1490
1022.642	-908
1022.711	-1423
1022.781	-887
1022.849	-1106
1022.918	-1617
1022.987	-628
1023.056	-1520
1023.125	-1397
1023.194	-1570
1023.263	-601
1023.331	-1585
1023.400	-1556
1023.469	-1320
1023.538	-1263
1023.606	-1662
1023.675	-1552
1023.744	-1713
1023.812	-1024
1023.881	-962
1023.949	-1047
1024.018	-1224
1024.086	-758
1024.155	-1807
1024.223	-1149
1024.292	-1600
1024.360	-1131
1024.429	-1571
1024.497	-1308
1024.565	-1417
1024.634	-877
1024.702	-1667
1024.770	-770
1024.838	-2059
1024.907	-1097
1024.975	-1038
1025.043	-895
1025.111	-1021
1025.179	-1013
1025.247	-1171
1025.315	-1265
1025.383	-1371
1025.451	-1251
1025.519	-1869
1025.587	-1219
1025.655	-1769
1025.723	-1298
1025.791	-943
1025.859	-581
1025.927	-1857
1025.995	-1107
1026.062	-1343
1026.130	-835
1026.198	-886
1026.266	-1144
1026.333	-1983
1026.401	-873
1026.469	-1727
1026.536	-1785
1026.604	-1361
1026.671	-1524
1026.739	-1483
1026.806	-1037
1026.874	-1591
1026.941	-971
1027.009	-2127
1027.076	-1347
1027.144	-515
1027.211	-2234
1027.278	-1839
1027.345	-965
1027.413	-1844
1027.480	-1895
1027.547	-1221
1027.614	-1483
1027.682	-1552
1027.749	-1640
1027.816	-1405
1027.883	-1286
1027.950	-1212
1028.017	-1267
1028.084	-1275
1028.151	-1902
1028.218	-1207
1028.285	-1089
1028.352	-1714
1028.419	-2077
1028.486	-1603
1028.553	-1325
1028.619	-1845
1028.686	-1464
1028.753	-1283
1028.820	-1303
1028.886	-1857
1028.953	-1133
1029.020	-1989
1029.086	-1074
1029.153	-1586
1029.220	-1274
1029.286	-1903
1029.353	-1175
1029.419	-1211
1029.486	-1563
1029.552	-1178
1029.619	-1441
1029.685	-1355
1029.751	-2251
1029.818	-671
1029.884	-1217
1029.951	-1409
1030.017	-1434
1030.083	-1751
1030.149	-1454
1030.216	-1157
1030.282	-791
1030.348	-1564
1030.414	-1513
1030.480	-2003
1030.546	-1916
1030.612	-1122
1030.678	-1904
1030.744	-2452
1030.810	-648
1030.876	-1536
1030.942	-1645
1031.008	-1912
1031.074	-1447
1031.140	-1675
1031.206	-1248
1031.272	-1905
1031.337	-1475
1031.403	-2137
1031.469	-1152
1031.534	-2165
1031.600	-1038
1031.666	-1802
1031.731	-1465
1031.797	-1817
1031.863	-1599
1031.928	-1617
1031.994	-1701
1032.059	-746
1032.125	-2004
1032.190	-1753
1032.256	-2027
1032.321	-2677
1032.386	-1530
1032.452	-753
1032.517	-2018
1032.582	-1813
1032.647	-1557
1032.713	-1953
1032.778	-1025
1032.843	-1578
1032.908	-1882
1032.974	-1525
1033.039	-1726
1033.104	-1087
1033.169	-1439
1033.234	-802
1033.299	-1004
1033.364	-1553
1033.429	-1425
1033.494	-1568
1033.559	-1216
1033.624	-1903
1033.688	-2068
1033.753	-2038
1033.818	-1378
1033.883	-1921
1033.948	-2170
1034.013	-1870
1034.077	-1927
1034.142	-1622
1034.207	-1187
1034.271	-1872
1034.336	-914
1034.400	-1487
1034.465	-1467
1034.530	-2360
1034.594	-1393
1034.658	-1481
1034.723	-2090
1034.787	-1835
1034.852	-1964
1034.916	-2133
1034.981	-1946
1035.045	-623
1035.109	-1953
1035.173	-2161
1035.238	-1456
1035.302	-2182
1035.366	-1545
1035.430	-2009
1035.495	-1393
1035.559	-1663
1035.623	-1080
1035.687	-2464
1035.751	-2465
1035.815	-1689
1035.879	-1294
1035.943	-1761
1036.007	-1917
1036.071	-1945
1036.135	-1211
1036.198	-1563
1036.262	-1892
1036.326	-1840
1036.390	-768
1036.454	-1804
1036.517	-947
1036.581	-1772
1036.645	-1448
1036.709	-1002
1036.772	-1703
1036.836	-2254
1036.900	-1670
1036.963	-1699
1037.026	-2254
1037.090	-2416
1037.154	-1931
1037.217	-2338
1037.280	-2001
1037.344	-1833
1037.407	-1441
1037.471	-2114
1037.534	-1637
1037.597	-2747
1037.661	-2390
1037.724	-1230
1037.787	-1980
1037.850	-1625
1037.913	-1006
1037.977	-2171
1038.040	-1845
1038.103	-2010
1038.166	-1838
1038.229	-2721
1038.292	-1787
1038.355	-2477
1038.418	-1943
1038.481	-2219
1038.544	-2135
1038.607	-1457
1038.670	-1236
1038.732	-2097
1038.795	-2324
1038.858	-1996
1038.921	-1673
1038.984	-2113
1039.046	-1803
1039.109	-2772
1039.172	-2030
1039.234	-1986
1039.297	-1919
1039.360	-2384
1039.422	-2615
1039.485	-1043
1039.547	-2384
1039.610	-2107
1039.672	-1314
1039.734	-2804
1039.797	-2199
1039.859	-2039
1039.922	-1583
1039.984	-1861
1040.046	-2142
1040.109	-2209
1040.171	-2104
1040.233	-2221
1040.295	-1965
1040.358	-3144
1040.420	-1576
1040.482	-2816
1040.544	-2636
1040.606	-1634
1040.668	-1762
1040.730	-2387
1040.792	-2010
1040.854	-2451
1040.916	-1261
1040.978	-2551
1041.040	-1264
1041.102	-2457
1041.164	-2597
1041.225	-1998
1041.287	-1546
1041.349	-2375
1041.411	-1964
1041.472	-2229
1041.534	-2290
1041.596	-3266
1041.657	-2089
1041.719	-2133
1041.781	-2668
1041.842	-2312
1041.904	-1565
1041.965	-2595
1042.027	-2173
1042.088	-1954
1042.150	-2101
1042.211	-2206
1042.272	-1091
1042.334	-2030
1042.395	-2380
1042.456	-2049
1042.518	-2015
1042.579	-1915
1042.640	-1102
1042.701	-1891
1042.763	-2289
1042.824	-2450
1042.885	-1006
1042.946	-2381
1043.007	-2169
1043.068	-2292
1043.129	-2081
1043.190	-1948
1043.251	-1763
1043.312	-1988
1043.373	-1268
1043.434	-2170
1043.495	-1927
1043.556	-1716
1043.616	-2120
1043.677	-2750
1043.738	-1929
1043.799	-2141
1043.859	-2286
1043.920	-2272
1043.981	-2256
1044.041	-2047
1044.102	-2123
1044.162	-1753
1044.223	-2272
1044.284	-1849
1044.344	-2462
1044.405	-2987
1044.465	-2397
1044.525	-2766
1044.586	-1698
1044.646	-2208
1044.707	-2029
1044.767	-1794
1044.827	-2220
1044.887	-3027
1044.948	-2245
1045.008	-1834
1045.068	-1824
1045.128	-2146
1045.188	-1299
1045.249	-2014
1045.309	-1808
1045.369	-1348
1045.429	-1716
1045.489	-2090
1045.549	-2384
1045.609	-2341
1045.669	-2288
1045.729	-2162
1045.789	-1589
1045.848	-1865
1045.908	-1842
1045.968	-1832
1046.028	-2084
1046.088	-1587
1046.147	-1739
1046.207	-1553
1046.267	-1120
1046.326	-2011
1046.386	-1362
1046.446	-1924
1046.505	-516
1046.565	-1303
1046.624	-1645
1046.684	-1244
1046.743	-245
1046.803	-359
1046.862	-1009
1046.922	0
