'Start Wavelength	183.907
'End Wavelength	1046.922
'Gate Delay	5.000
'Gate Width (ms)	1.050
'Laser Output Level	0.000
'X Position	0.000
'Y Position	0.000
'Z Position	0.000
'Grid Point Number	1.000
'Shot Number	100.000
183.907	602.000
183.977	-28.000
184.047	-304
184.116	579
184.186	164
184.256	165
184.325	56
184.395	-611
184.465	491
184.534	207
184.604	35
184.674	330
184.743	82
184.813	141
184.883	80
184.952	292
185.022	244
185.092	-186
185.161	488
185.231	15
185.301	845
185.370	395
185.440	-229
185.509	215
185.579	131
185.649	425
185.718	361
185.788	237
185.857	354
185.927	595
185.996	117
186.066	-7
186.136	-65
186.205	-19
186.275	1370
186.344	328
186.414	169
186.483	206
186.553	718
186.622	782
186.692	83
186.761	-127
186.831	326
186.900	-65
186.970	951
187.039	1384
187.109	559
187.178	478
187.248	393
187.317	882
187.387	-322
187.456	296
187.526	373
187.595	1519
187.664	829
187.734	870
187.803	1584
187.873	711
187.942	347
188.012	532
188.081	529
188.150	-617
188.220	1118
188.289	829
188.358	31
188.428	858
188.497	749
188.567	802
188.636	33
188.705	1175
188.775	422
188.844	-145
188.913	1569
188.983	289
189.052	770
189.121	71
189.191	16
189.260	1191
189.329	118
189.399	946
189.468	1170
189.537	256
189.606	887
189.676	682
189.745	535
189.814	1974
189.883	33
189.953	820
190.022	813
190.091	1045
190.161	1140
190.230	682
190.299	221
190.368	-78
190.437	37
190.507	879
190.576	54
190.645	414
190.714	728
190.783	-517
190.853	1206
190.922	672
190.991	130
191.060	86
191.129	104
191.198	978
191.268	-228
191.337	673
191.406	1110
191.475	807
191.544	926
191.613	598
191.682	281
191.752	1107
191.821	171
191.890	682
191.959	934
192.028	312
192.097	501
192.166	897
192.235	-100
192.304	805
192.373	-271
192.442	1418
192.511	442
192.580	-282
192.650	545
192.719	376
192.788	1351
192.857	491
192.926	261
192.995	323
193.064	630
193.133	906
193.202	1251
193.271	1741
193.340	842
193.409	1279
193.478	2172
193.547	1339
193.615	1936
193.684	1569
193.753	921
193.822	1712
193.891	905
193.960	1790
194.029	674
194.098	503
194.167	620
194.236	836
194.305	614
194.374	518
194.443	-134
194.512	1110
194.580	1250
194.649	1137
194.718	1503
194.787	1367
194.856	371
194.925	1682
194.994	918
195.062	253
195.131	1158
195.200	625
195.269	1865
195.338	1642
195.407	919
195.475	629
195.544	1613
195.613	1180
195.682	1497
195.751	978
195.819	1036
195.888	1278
195.957	2165
196.026	1648
196.094	1181
196.163	901
196.232	1458
196.301	1359
196.369	2027
196.438	1823
196.507	1524
196.576	1000
196.644	177
196.713	1021
196.782	-369
196.850	1530
196.919	89
196.988	712
197.056	1436
197.125	1135
197.194	1191
197.262	197
197.331	721
197.400	813
197.468	506
197.537	970
197.606	734
197.674	1612
197.743	1839
197.812	404
197.880	773
197.949	1261
198.017	1976
198.086	1111
198.155	2393
198.223	1039
198.292	1050
198.360	921
198.429	833
198.497	861
198.566	1011
198.635	2196
198.703	2192
198.772	1535
198.840	1897
198.909	1434
198.977	582
199.046	547
199.114	1224
199.183	524
199.251	1168
199.320	1062
199.388	1454
199.457	838
199.525	991
199.594	1536
199.662	735
199.731	1193
199.799	690
199.867	1508
199.936	971
200.004	1651
200.073	1539
200.141	823
200.210	-470
200.278	1208
200.346	1916
200.415	1818
200.483	1492
200.552	1420
200.620	1495
200.688	1872
200.757	1200
200.825	860
200.893	777
200.962	1672
201.030	312
201.098	976
201.167	510
201.235	484
201.303	821
201.372	1965
201.440	1293
201.508	1901
201.577	1524
201.645	1580
201.713	944
201.781	993
201.850	1792
201.918	1476
201.986	1007
202.055	1522
202.123	1148
202.191	1734
202.259	1633
202.327	1693
202.396	1346
202.464	2088
202.532	1847
202.600	3733
202.669	2751
202.737	1612
202.805	1132
202.873	809
202.941	1780
203.009	726
203.078	216
203.146	1145
203.214	1064
203.282	843
203.350	1247
203.418	1456
203.487	1727
203.555	1728
203.623	831
203.691	1729
203.759	386
203.827	1297
203.895	1167
203.963	1851
204.031	1809
204.099	1471
204.168	906
204.236	1783
204.304	1354
204.372	1440
204.440	1421
204.508	1716
204.576	306
204.644	1759
204.712	1191
204.780	1039
204.848	1685
204.916	712
204.984	1177
205.052	1375
205.120	1060
205.188	1692
205.256	1309
205.324	1352
205.392	1549
205.460	1729
205.528	831
205.596	1834
205.664	1486
205.732	396
205.799	1936
205.867	3458
205.935	993
206.003	1570
206.071	869
206.139	1182
206.207	1550
206.275	1277
206.343	901
206.411	1717
206.478	1725
206.546	1636
206.614	1089
206.682	1453
206.750	1249
206.818	1902
206.885	1530
206.953	276
207.021	2876
207.089	1405
207.157	1428
207.225	1571
207.292	703
207.360	1212
207.428	2324
207.496	1498
207.563	1392
207.631	1829
207.699	1387
207.767	1104
207.834	920
207.902	2515
207.970	2375
208.038	1599
208.105	1685
208.173	1598
208.241	1950
208.309	3021
208.376	1830
208.444	2527
208.512	1699
208.579	1233
208.647	2257
208.715	2711
208.782	1507
208.850	1894
208.918	1748
208.985	879
209.053	2565
209.120	2935
209.188	1914
209.256	2158
209.323	1030
209.391	2430
209.459	3400
209.526	2763
209.594	1749
209.661	1419
209.729	1972
209.796	2158
209.864	1567
209.932	999
209.999	2855
210.067	2223
210.134	1477
210.202	1734
210.269	2497
210.337	3483
210.404	2116
210.472	2422
210.539	1684
210.607	2153
210.674	2552
210.742	2815
210.809	1904
210.877	2770
210.944	2583
211.012	2445
211.079	3836
211.146	2207
211.214	2468
211.281	2971
211.349	2587
211.416	2215
211.484	2734
211.551	2242
211.618	2729
211.686	2207
211.753	1511
211.821	2792
211.888	2071
211.955	2415
212.023	1986
212.090	2609
212.157	2775
212.225	2355
212.292	4418
212.359	4548
212.427	9709
212.494	6005
212.561	3441
212.629	2516
212.696	2076
212.763	2765
212.831	3101
212.898	2457
212.965	2510
213.032	2969
213.100	2777
213.167	2717
213.234	3302
213.301	2663
213.369	2985
213.436	2870
213.503	2641
213.570	3042
213.638	2723
213.705	1643
213.772	1504
213.839	1945
213.906	3505
213.973	3169
214.041	2452
214.108	2871
214.175	2874
214.242	3008
214.309	2196
214.376	2681
214.444	3160
214.511	3792
214.578	2999
214.645	3069
214.712	3338
214.779	3176
214.846	2261
214.913	4294
214.980	4211
215.048	3671
215.115	5080
215.182	4780
215.249	3027
215.316	3014
215.383	3677
215.450	3563
215.517	2896
215.584	3260
215.651	2408
215.718	2782
215.785	3622
215.852	3279
215.919	4675
215.986	3900
216.053	2755
216.120	2097
216.187	3285
216.254	3363
216.321	2835
216.388	3444
216.455	2916
216.522	3644
216.589	3581
216.656	6023
216.722	5003
216.789	4904
216.856	5880
216.923	4290
216.990	4341
217.057	4121
217.124	5228
217.191	3848
217.258	5555
217.324	5913
217.391	7710
217.458	5950
217.525	5023
217.592	3606
217.659	2650
217.725	4462
217.792	4371
217.859	5271
217.926	2896
217.993	2735
218.059	3406
218.126	2445
218.193	2930
218.260	2491
218.327	2886
218.393	2801
218.460	3210
218.527	2963
218.594	2515
218.660	4763
218.727	4767
218.794	3213
218.860	3693
218.927	2665
218.994	2247
219.061	2812
219.127	3179
219.194	4407
219.261	3130
219.327	2067
219.394	3203
219.461	1668
219.527	2722
219.594	3965
219.661	2676
219.727	1297
219.794	2672
219.860	2001
219.927	3228
219.994	3485
220.060	5297
220.127	5223
220.193	4223
220.260	3114
220.326	4825
220.393	7656
220.460	9593
220.526	7365
220.593	4477
220.659	5266
220.726	4433
220.792	7838
220.859	7867
220.925	10140
220.992	14564
221.058	13024
221.125	10437
221.191	7753
221.258	4374
221.324	4245
221.391	3708
221.457	3167
221.524	2967
221.590	4595
221.657	7573
221.723	6251
221.789	5937
221.856	6549
221.922	3980
221.989	3886
222.055	2618
222.121	2733
222.188	4699
222.254	4061
222.321	3220
222.387	2929
222.453	3237
222.520	2921
222.586	2482
222.652	3333
222.719	2647
222.785	3688
222.851	1864
222.918	2851
222.984	2785
223.050	3041
223.116	1993
223.183	3624
223.249	1967
223.315	1726
223.382	3382
223.448	2129
223.514	1528
223.580	1929
223.647	2218
223.713	1359
223.779	1370
223.845	2964
223.911	2955
223.978	2265
224.044	2742
224.110	2530
224.176	2747
224.242	2552
224.309	2330
224.375	3126
224.441	2892
224.507	2027
224.573	2329
224.639	3197
224.705	2159
224.772	2763
224.838	2025
224.904	3506
224.970	2635
225.036	2169
225.102	2102
225.168	3293
225.234	3106
225.300	2904
225.366	2737
225.432	1771
225.499	2221
225.565	3267
225.631	3703
225.697	3168
225.763	4239
225.829	4643
225.895	4129
225.961	4769
226.027	5026
226.093	5241
226.159	5997
226.225	6786
226.291	12013
226.357	21263
226.423	12367
226.489	8408
226.554	6267
226.620	5886
226.686	6612
226.752	9836
226.818	12865
226.884	22625
226.950	22098
227.016	10712
227.082	6961
227.148	5761
227.214	5895
227.279	5562
227.345	4256
227.411	4526
227.477	4462
227.543	7452
227.609	7891
227.674	6130
227.740	3345
227.806	5262
227.872	3076
227.938	3463
228.003	5293
228.069	3935
228.135	3225
228.201	3439
228.267	3212
228.332	4851
228.398	4295
228.464	3445
228.530	2061
228.595	3801
228.661	2486
228.727	4595
228.792	5432
228.858	3021
228.924	2337
228.990	6004
229.055	3504
229.121	5884
229.187	2784
229.252	3333
229.318	2927
229.384	3274
229.449	4024
229.515	1515
229.581	1185
229.646	4038
229.712	3286
229.777	5464
229.843	6357
229.909	6795
229.974	5779
230.040	6284
230.105	5292
230.171	4574
230.236	6290
230.302	7143
230.368	6493
230.433	4576
230.499	4854
230.564	5881
230.630	4203
230.695	4637
230.761	4578
230.826	2454
230.892	5488
230.957	4216
231.023	4032
231.088	3828
231.154	3108
231.219	4573
231.284	4488
231.350	6347
231.415	3780
231.481	3705
231.546	3190
231.612	4069
231.677	2879
231.742	2073
231.808	4124
231.873	2596
231.939	2002
232.004	5792
232.069	6116
232.135	3205
232.200	3306
232.265	3765
232.331	2958
232.396	2694
232.461	2905
232.527	3236
232.592	3217
232.657	3027
232.723	4063
232.788	3567
232.853	3572
232.918	3985
232.984	2840
233.049	2449
233.114	3157
233.179	4807
233.245	4928
233.310	5631
233.375	2372
233.440	3322
233.506	2303
233.571	2447
233.636	3699
233.701	2849
233.766	4434
233.832	5782
233.897	4097
233.962	3680
234.027	5950
234.092	4320
234.157	3884
234.222	3282
234.288	4658
234.353	9974
234.418	9722
234.483	8067
234.548	8515
234.613	5081
234.678	5682
234.743	6750
234.808	12040
234.873	8526
234.938	6523
235.004	4549
235.069	5404
235.134	4146
235.199	5112
235.264	5155
235.329	2737
235.394	5168
235.459	5027
235.524	4597
235.589	5093
235.654	4522
235.719	3097
235.784	4196
235.849	4473
235.913	7473
235.978	6618
236.043	8445
236.108	4788
236.173	3503
236.238	5250
236.303	3724
236.368	3484
236.433	5861
236.498	7773
236.563	7017
236.627	10518
236.692	30625
236.757	26698
236.822	12208
236.887	10349
236.952	8970
237.017	6500
237.081	8489
237.146	9235
237.211	16965
237.276	29758
237.341	46004
237.405	24857
237.470	13336
237.535	9834
237.600	7559
237.664	7024
237.729	5402
237.794	7284
237.859	13215
237.923	8624
237.988	6055
238.053	6664
238.118	7206
238.182	12416
238.247	14036
238.312	6603
238.376	6920
238.441	4807
238.506	6784
238.570	2746
238.635	5515
238.700	4886
238.764	3741
238.829	7291
238.893	9126
238.958	7155
239.023	6378
239.087	4747
239.152	6268
239.216	3136
239.281	4821
239.346	4519
239.410	3979
239.475	4462
239.539	12366
239.604	9788
239.668	5988
239.733	4082
239.797	5062
239.862	11210
239.926	12379
239.991	6297
240.055	4870
240.120	3935
240.184	5175
240.249	3313
240.313	3750
240.378	4883
240.442	8595
240.507	13164
240.571	5401
240.635	6531
240.700	10048
240.764	5574
240.829	4497
240.893	2628
240.957	4405
241.022	7918
241.086	12894
241.151	7391
241.215	4146
241.279	5541
241.344	8029
241.408	6732
241.472	6648
241.537	7057
241.601	7886
241.665	5360
241.730	5769
241.794	6521
241.858	6578
241.922	7057
241.987	6624
242.051	5059
242.115	4894
242.179	5822
242.244	4808
242.308	5357
242.372	6389
242.436	5622
242.501	6582
242.565	4841
242.629	4626
242.693	4942
242.757	3666
242.822	4545
242.886	5811
242.950	5477
243.014	5568
243.078	5977
243.142	6204
243.206	5680
243.271	6362
243.335	5855
243.399	7191
243.463	12846
243.527	33963
243.591	14129
243.655	9147
243.719	5930
243.783	7185
243.847	8791
243.911	10097
243.975	13607
244.040	12334
244.104	8015
244.168	5585
244.232	8758
244.296	11099
244.360	10432
244.424	5837
244.488	6103
244.552	6663
244.615	3121
244.679	4881
244.743	5970
244.807	6195
244.871	5137
244.935	5120
244.999	4151
245.063	6177
245.127	6582
245.191	8514
245.255	8015
245.319	7805
245.383	7069
245.446	6601
245.510	3825
245.574	6414
245.638	6621
245.702	4592
245.766	11748
245.829	9583
245.893	5795
245.957	5611
246.021	7101
246.085	6852
246.149	7750
246.212	15212
246.276	21827
246.340	11506
246.404	9641
246.467	9876
246.531	11227
246.595	9423
246.659	9249
246.722	7669
246.786	11584
246.850	9596
246.913	11637
246.977	6715
247.041	5981
247.104	8091
247.168	7307
247.232	15520
247.295	27302
247.359	17161
247.423	9335
247.486	12915
247.550	10140
247.614	7927
247.677	11748
247.741	7174
247.804	6356
247.868	8527
247.932	13458
247.995	27910
248.059	13442
248.122	6748
248.186	10428
248.249	16431
248.313	38725
248.376	43299
248.440	31708
248.503	14202
248.567	13387
248.630	15965
248.694	21926
248.757	27780
248.821	43750
248.884	33781
248.948	28742
249.011	39292
249.075	50028
249.138	45836
249.202	24130
249.265	15651
249.328	14719
249.392	12232
249.455	13408
249.519	10404
249.582	12493
249.645	16393
249.709	13778
249.772	9763
249.835	9290
249.899	10283
249.962	8907
250.025	8723
250.089	19429
250.152	28359
250.215	15356
250.279	10939
250.342	10439
250.405	10640
250.468	8786
250.532	11938
250.595	16231
250.658	34919
250.721	59178
250.785	26116
250.848	16902
250.911	10951
250.974	10866
251.038	14311
251.101	28789
251.164	16932
251.227	16854
251.290	14667
251.354	17505
251.417	47827
251.480	50219
251.543	33706
251.606	84616
251.669	66296
251.732	29987
251.795	35256
251.859	34530
251.922	56783
251.985	38252
252.048	18505
252.111	16147
252.174	15961
252.237	28224
252.300	51737
252.363	49009
252.426	79089
252.489	38421
252.552	22682
252.615	15732
252.678	18910
252.741	37212
252.804	42547
252.867	77855
252.930	56937
252.993	34980
253.056	23313
253.119	17920
253.182	13476
253.245	17243
253.308	15632
253.371	16795
253.434	16667
253.497	16805
253.559	28369
253.622	22228
253.685	27078
253.748	31215
253.811	15001
253.874	15873
253.937	15011
254.000	12948
254.062	20697
254.125	31371
254.188	26581
254.251	23554
254.314	13223
254.376	21002
254.439	24938
254.502	25308
254.565	21446
254.628	36189
254.690	25490
254.753	15566
254.816	13292
254.878	12554
254.941	20434
255.004	21886
255.067	11231
255.129	13267
255.192	8259
255.255	7392
255.317	9360
255.380	7216
255.443	4838
255.505	5229
255.568	5035
255.631	5560
255.693	7370
255.756	5224
255.819	5910
255.881	5078
255.944	5262
256.006	4454
256.069	5010
256.132	5815
256.194	8133
256.257	13321
256.319	10758
256.382	9395
256.444	9741
256.507	7976
256.569	6369
256.632	7204
256.694	8913
256.757	20626
256.819	53416
256.882	23948
256.944	13007
257.007	11803
257.069	11817
257.132	8754
257.194	7754
257.257	7789
257.319	6846
257.381	7447
257.444	16054
257.506	57806
257.569	69949
257.631	35260
257.693	21557
257.756	11193
257.818	9976
257.880	8453
257.943	8538
258.005	7492
258.067	7061
258.130	6898
258.192	8378
258.254	16358
258.317	10285
258.379	7672
258.441	16085
258.503	16344
258.566	14641
258.628	19717
258.690	7592
258.753	9180
258.815	18029
258.877	10185
258.939	7340
259.001	7685
259.064	6701
259.126	7387
259.188	9272
259.250	7701
259.312	9341
259.375	16269
259.437	14600
259.499	7877
259.561	7614
259.623	7560
259.685	7535
259.747	6299
259.809	14689
259.872	25752
259.934	35693
259.996	38043
260.058	13516
260.120	7556
260.182	6532
260.244	6866
260.306	5572
260.368	7235
260.430	6262
260.492	12370
260.554	20179
260.616	13293
260.678	23212
260.740	28592
260.802	10233
260.864	10533
260.926	8209
260.988	8465
261.050	8410
261.112	16260
261.174	31443
261.236	22564
261.298	11254
261.359	13607
261.421	18104
261.483	8882
261.545	8859
261.607	4561
261.669	6424
261.731	9464
261.793	21214
261.854	12837
261.916	10858
261.978	7644
262.040	9818
262.102	6798
262.164	8116
262.225	8176
262.287	7029
262.349	16001
262.411	13365
262.472	7986
262.534	8740
262.596	16897
262.658	6964
262.719	5521
262.781	6916
262.843	14681
262.904	9414
262.966	8412
263.028	9046
263.090	24724
263.151	57437
263.213	25966
263.275	19584
263.336	10115
263.398	7205
263.459	5133
263.521	7038
263.583	13779
263.644	11677
263.706	6084
263.767	4833
263.829	5202
263.891	4289
263.952	4143
264.014	3768
264.075	6950
264.137	18519
264.198	11106
264.260	4465
264.321	4697
264.383	11469
264.444	28741
264.506	11267
264.567	7379
264.629	10976
264.690	22419
264.752	11867
264.813	7116
264.875	5521
264.936	5753
264.998	4544
265.059	3919
265.120	5236
265.182	9434
265.243	30807
265.305	31467
265.366	9510
265.427	6320
265.489	5964
265.550	3819
265.611	6507
265.673	6649
265.734	5813
265.795	4173
265.857	3996
265.918	4775
265.979	10253
266.040	45665
266.102	39502
266.163	13745
266.224	14034
266.286	8985
266.347	6698
266.408	6611
266.469	6593
266.530	5195
266.592	5988
266.653	10776
266.714	19288
266.775	7898
266.836	6397
266.898	4876
266.959	9507
267.020	7828
267.081	6664
267.142	5553
267.203	5645
267.264	4903
267.326	7122
267.387	5876
267.448	5215
267.509	5627
267.570	6215
267.631	4866
267.692	3613
267.753	4768
267.814	5558
267.875	9738
267.936	18803
267.997	10868
268.058	11173
268.119	6547
268.180	7581
268.241	6011
268.302	5579
268.363	4344
268.424	6000
268.485	5867
268.546	4217
268.607	3964
268.668	3565
268.729	3598
268.790	4514
268.851	5152
268.912	13105
268.972	17416
269.033	11600
269.094	5030
269.155	4686
269.216	3870
269.277	5257
269.338	4681
269.398	4213
269.459	7109
269.520	10355
269.581	12905
269.642	16284
269.702	10278
269.763	8071
269.824	6071
269.885	8201
269.945	12743
270.006	5936
270.067	4248
270.128	3910
270.188	4190
270.249	4763
270.310	4207
270.370	4726
270.431	4466
270.492	4198
270.553	5653
270.613	11755
270.674	20660
270.734	10575
270.795	6065
270.856	9326
270.916	8375
270.977	5917
271.038	7330
271.098	8128
271.159	12162
271.219	11219
271.280	5427
271.340	4749
271.401	5876
271.462	10313
271.522	10295
271.583	6985
271.643	5826
271.704	6374
271.764	8630
271.825	17589
271.885	46882
271.946	62925
272.006	27381
272.066	29950
272.127	48403
272.187	18290
272.248	11805
272.308	11102
272.369	30569
272.429	20899
272.489	17334
272.550	19275
272.610	19122
272.671	16081
272.731	10214
272.791	16532
272.852	13735
272.912	11861
272.972	7864
273.033	7175
273.093	10116
273.153	11753
273.214	8803
273.274	10547
273.334	25219
273.394	46990
273.455	27433
273.515	23003
273.575	42540
273.635	21619
273.696	26006
273.756	45558
273.816	24651
273.876	14750
273.936	18022
273.997	28963
274.057	11584
274.117	11212
274.177	16221
274.237	52763
274.297	47085
274.358	29412
274.418	35716
274.478	31237
274.538	14441
274.598	10095
274.658	21185
274.718	28813
274.778	15307
274.838	9242
274.898	13487
274.958	35988
275.018	41836
275.078	32246
275.138	14817
275.198	9140
275.258	6125
275.318	9268
275.378	16879
275.438	20962
275.498	13237
275.558	18993
275.618	38184
275.678	31535
275.738	22250
275.798	18820
275.858	10478
275.918	7025
275.978	9759
276.038	10042
276.098	7425
276.157	12957
276.217	34813
276.277	19365
276.337	17065
276.397	9553
276.457	11360
276.517	8268
276.576	5908
276.636	6159
276.696	11598
276.756	21397
276.815	17272
276.875	10220
276.935	10447
276.995	10986
277.055	6404
277.114	6672
277.174	9120
277.234	27395
277.293	15352
277.353	9154
277.413	6961
277.472	8142
277.532	9268
277.592	9892
277.651	25181
277.711	46056
277.771	18882
277.830	50823
277.890	46172
277.950	31771
278.009	76067
278.069	34835
278.128	35568
278.188	52788
278.248	25675
278.307	50512
278.367	33281
278.426	12675
278.486	9101
278.545	7713
278.605	6357
278.664	7534
278.724	8323
278.783	18008
278.843	43241
278.902	15223
278.962	10748
279.021	11940
279.081	11405
279.140	13048
279.199	12121
279.259	13539
279.318	12847
279.378	15461
279.437	25438
279.496	70833
279.556	160783
279.615	139020
279.675	47112
279.734	28850
279.793	38492
279.853	52630
279.912	24923
279.971	16461
280.031	15011
280.090	21697
280.149	38078
280.208	33038
280.268	107899
280.327	120533
280.386	38137
280.445	27864
280.505	28542
280.564	15250
280.623	13454
280.682	16332
280.742	25720
280.801	11394
280.860	9573
280.919	8288
280.978	7684
281.037	7609
281.097	6695
281.156	7866
281.215	6416
281.274	8221
281.333	25780
281.392	22628
281.451	7650
281.510	7627
281.569	6817
281.628	5751
281.688	5668
281.747	7827
281.806	7512
281.865	6067
281.924	6233
281.983	6740
282.042	5713
282.101	5886
282.160	5712
282.219	5466
282.278	5775
282.337	18276
282.396	14754
282.454	7894
282.513	8974
282.572	28440
282.631	20239
282.690	8534
282.749	6548
282.808	8807
282.867	9382
282.926	9659
282.985	6450
283.043	6282
283.102	6658
283.161	6741
283.220	13993
283.279	28750
283.338	11957
283.396	8747
283.455	9471
283.514	9991
283.573	15944
283.631	12050
283.690	9169
283.749	9695
283.808	15987
283.866	21232
283.925	9992
283.984	9822
284.043	13119
284.101	15720
284.160	11769
284.219	12793
284.277	13864
284.336	17218
284.395	42730
284.453	39873
284.512	21602
284.570	27358
284.629	27443
284.688	27836
284.746	32788
284.805	37646
284.863	48806
284.922	62669
284.981	72995
285.039	97509
285.098	141350
285.156	190163
285.215	146798
285.273	138347
285.332	187922
285.390	158116
285.449	115758
285.507	83662
285.566	63895
285.624	49723
285.683	40066
285.741	33577
285.799	28455
285.858	25322
285.916	23673
285.975	19824
286.033	16657
286.091	14697
286.150	12881
286.208	13601
286.267	13590
286.325	13673
286.383	19254
286.442	16902
286.500	10090
286.558	8221
286.616	9754
286.675	12610
286.733	11124
286.791	9424
286.850	10554
286.908	13233
286.966	20041
287.024	10550
287.083	7447
287.141	7224
287.199	7275
287.257	12431
287.315	9442
287.374	9160
287.432	19396
287.490	15706
287.548	9084
287.606	7492
287.664	7532
287.723	9930
287.781	13006
287.839	7873
287.897	7729
287.955	7748
288.013	11402
288.071	21032
288.129	64433
288.187	170469
288.245	84152
288.303	27890
288.361	17019
288.419	14205
288.477	9928
288.535	8426
288.593	6457
288.651	6885
288.709	4306
288.767	5352
288.825	5541
288.883	4586
288.941	4749
288.999	4582
289.057	4661
289.115	4149
289.173	4934
289.231	5048
289.289	5464
289.346	4607
289.404	6162
289.462	11143
289.520	12877
289.578	6791
289.636	3729
289.694	3573
289.751	3197
289.809	3515
289.867	4531
289.925	6531
289.983	8253
290.040	4681
290.098	3847
290.156	6538
290.214	8060
290.271	5023
290.329	3768
290.387	3234
290.444	3733
290.502	3221
290.560	4100
290.617	4121
290.675	4533
290.733	4685
290.790	5687
290.848	4609
290.906	4835
290.963	5462
291.021	4399
291.078	4678
291.136	5645
291.194	14042
291.251	31387
291.309	10562
291.366	4113
291.424	5243
291.481	4614
291.539	5510
291.596	5455
291.654	4412
291.711	3759
291.769	4939
291.826	11979
291.884	8510
291.941	4363
291.999	4907
292.056	5745
292.114	7788
292.171	4937
292.228	5233
292.286	6671
292.343	11989
292.401	14408
292.458	8633
292.515	5714
292.573	8033
292.630	8240
292.687	6954
292.745	5921
292.802	7709
292.859	18437
292.917	32086
292.974	22730
293.031	8940
293.089	5238
293.146	4979
293.203	5029
293.260	4802
293.318	5756
293.375	8589
293.432	4723
293.489	5176
293.546	5166
293.604	8754
293.661	19432
293.718	49562
293.775	30340
293.832	16415
293.889	14192
293.947	11374
294.004	7433
294.061	8577
294.118	17224
294.175	32479
294.232	39934
294.289	18847
294.346	10919
294.403	11325
294.460	7770
294.517	7744
294.574	6454
294.631	6146
294.688	7454
294.745	16534
294.802	50402
294.859	60269
294.916	24139
294.973	14730
295.030	14077
295.087	13541
295.144	8605
295.201	7900
295.258	7039
295.315	9675
295.372	21399
295.429	39834
295.486	21254
295.542	13241
295.599	23675
295.656	41253
295.713	29032
295.770	38029
295.827	17584
295.883	10208
295.940	9393
295.997	16368
296.054	16005
296.111	10237
296.167	6530
296.224	5974
296.281	5529
296.338	5632
296.394	6486
296.451	8023
296.508	16617
296.564	33946
296.621	25926
296.678	43993
296.734	65486
296.791	29194
296.848	15952
296.904	16361
296.961	36348
297.018	46030
297.074	34838
297.131	15198
297.187	11493
297.244	16226
297.301	37902
297.357	68178
297.414	29277
297.470	13455
297.527	9865
297.583	8422
297.640	9121
297.696	7370
297.753	6340
297.809	5438
297.866	4472
297.922	5176
297.979	5047
298.035	6458
298.092	10648
298.148	24291
298.204	27913
298.261	15786
298.317	21920
298.374	53446
298.430	36430
298.486	17220
298.543	12111
298.599	10025
298.656	12082
298.712	19131
298.768	36878
298.824	25767
298.881	10931
298.937	7403
298.993	7991
299.050	10059
299.106	9795
299.162	7596
299.218	8370
299.275	6728
299.331	8655
299.387	14882
299.443	43584
299.500	51182
299.556	21882
299.612	11463
299.668	10937
299.724	10746
299.780	11910
299.837	9507
299.893	13109
299.949	37486
300.005	49044
300.061	40735
300.117	65161
300.173	35977
300.229	18489
300.285	22768
300.341	28415
300.397	16255
300.453	9334
300.510	7565
300.566	8746
300.622	10162
300.678	19321
300.734	41203
300.790	41137
300.845	47405
300.901	31604
300.957	39920
301.013	34892
301.069	15348
301.125	10850
301.181	13206
301.237	11028
301.293	7496
301.349	6298
301.405	6427
301.461	6047
301.516	7141
301.572	8051
301.628	18624
301.684	16493
301.740	18052
301.796	31222
301.851	22590
301.907	35785
301.963	39011
302.019	49974
302.074	111520
302.130	123072
302.186	63817
302.242	28672
302.297	20350
302.353	17723
302.409	30018
302.464	28411
302.520	23996
302.576	48713
302.631	61219
302.687	40182
302.743	18549
302.798	12027
302.854	10869
302.910	10757
302.965	11635
303.021	20379
303.076	20889
303.132	25894
303.187	32373
303.243	18747
303.299	10331
303.354	8876
303.410	7999
303.465	7631
303.521	7778
303.576	9349
303.632	10046
303.687	16346
303.743	41387
303.798	40046
303.853	18808
303.909	12281
303.964	11072
304.020	15931
304.075	26251
304.130	22687
304.186	39404
304.241	41299
304.297	33036
304.352	18604
304.358	17812
304.407	11388
304.449	11834
304.463	11997
304.518	12447
304.539	11511
304.573	10006
304.629	10431
304.630	10517
304.684	14863
304.720	26351
304.739	32069
304.794	51336
304.811	44745
304.850	29010
304.902	15601
304.905	14745
304.960	9596
304.992	9849
305.015	10043
305.071	10258
305.083	10190
305.126	9851
305.173	7426
305.181	7053
305.236	6310
305.264	6769
305.292	7223
305.347	8294
305.354	8478
305.402	9692
305.445	10191
305.457	10316
305.512	11937
305.535	12660
305.567	13652
305.622	12599
305.626	12863
305.678	19827
305.716	35105
305.733	40325
305.788	51680
305.807	45085
305.843	33776
305.897	40465
305.898	40515
305.953	44237
305.988	30140
306.008	22462
306.063	15000
306.078	13678
306.118	10721
306.168	8783
306.173	8607
306.228	6825
306.259	6304
306.283	5989
306.338	5706
306.349	5860
306.393	6432
306.440	7092
306.448	7230
306.503	7901
306.530	8616
306.558	11098
306.613	20500
306.620	22215
306.668	32634
306.711	43188
306.723	44286
306.778	38005
306.801	29737
306.833	20490
306.888	11413
306.892	11030
306.943	7776
306.982	6999
306.997	6812
307.052	6441
307.072	6603
307.107	7562
307.162	8998
307.163	9031
307.217	13452
307.253	16305
307.272	16624
307.327	17452
307.343	16517
307.381	14774
307.434	13308
307.436	13651
307.491	25528
307.524	36765
307.546	38826
307.600	39949
307.614	35680
307.655	22975
307.704	12238
307.710	11847
307.765	13874
307.795	17015
307.819	20144
307.874	30641
307.885	31124
307.929	25199
307.975	17332
307.984	17328
308.038	22484
308.065	27349
308.093	45374
308.148	89553
308.156	99937
308.202	148484
308.246	181210
308.257	178292
308.312	106170
308.336	77930
308.366	59889
308.421	41960
308.426	39972
308.475	25699
308.517	18361
308.530	17072
308.585	14399
308.607	13955
308.639	14715
308.694	16405
308.697	16595
308.748	28870
308.787	41305
308.803	40554
308.857	31689
308.877	27037
308.912	24192
308.967	23547
308.967	23575
309.021	34675
309.058	44284
309.076	53751
309.130	90096
309.148	102840
309.185	155534
309.238	239249
309.239	239838
309.293	262472
309.328	252066
309.348	225217
309.402	123202
309.418	97108
309.457	70339
309.508	47085
309.511	46855
309.566	52156
309.598	57888
309.620	72100
309.674	116100
309.688	127939
309.729	121289
309.778	94317
309.783	91771
309.837	58920
309.868	43757
309.892	46447
309.946	58747
309.959	63561
310.001	75946
310.049	86189
310.055	83588
310.109	51126
310.139	32332
310.163	25527
310.218	15992
310.229	14430
310.272	11953
310.319	10066
310.326	9818
310.381	8657
310.409	8234
310.435	8044
310.489	7524
310.499	7478
310.543	7656
310.589	8032
310.598	7997
310.652	7958
310.679	7804
310.706	7126
310.760	5592
310.769	5375
310.814	5051
310.859	4852
310.868	4905
310.923	5210
310.948	5485
310.977	6033
311.031	6840
311.038	6994
311.085	6731
311.128	6141
311.139	6148
311.193	6375
311.218	6437
311.247	5939
311.301	5045
311.308	4939
311.356	5173
311.398	5311
311.410	5126
311.464	4516
311.488	4126
311.518	4367
311.572	4953
311.578	5040
311.626	7593
311.668	9892
311.680	9836
311.734	9269
311.758	9043
311.788	8181
311.842	6693
311.847	6544
311.896	9924
311.937	12924
311.950	12630
312.004	11272
312.027	10646
312.058	9253
312.112	6792
312.117	6552
312.165	5858
312.207	5286
312.297	8372
312.386	7173
312.476	7211
312.566	16439
312.656	8565
312.745	4727
312.835	5836
312.925	6167
313.015	6125
313.104	7132
313.194	5371
313.284	5036
313.374	9750
313.463	6894
313.553	5789
313.643	5199
313.732	4397
313.822	3524
313.912	5370
314.001	6452
314.091	7182
314.180	9056
314.270	9442
314.360	10689
314.449	8826
314.539	4502
314.628	4705
314.718	5317
314.808	8266
314.897	4895
314.987	5171
315.076	7525
315.166	9959
315.255	9246
315.345	9429
315.434	9642
315.524	9490
315.613	9660
315.703	12838
315.792	13846
315.881	25620
315.971	12410
316.060	19965
316.150	27795
316.239	26955
316.328	9308
316.418	5861
316.507	5385
316.597	8833
316.686	7346
316.775	13003
316.865	27833
316.954	6849
317.043	4382
317.133	5749
317.222	5094
317.311	5613
317.400	4124
317.490	9475
317.579	9996
317.668	6471
317.757	10577
317.847	18647
317.936	47723
318.025	29430
318.114	15722
318.203	10896
318.293	13000
318.382	21057
318.471	20563
318.560	26806
318.649	55004
318.738	13157
318.828	10259
318.917	12304
319.006	13730
319.095	34333
319.184	75708
319.273	45824
319.362	25444
319.451	9646
319.540	8876
319.629	24012
319.718	35045
319.807	15350
319.896	27915
319.985	93434
320.074	33434
320.163	10950
320.252	16879
320.341	13082
320.430	11234
320.519	17853
320.608	9142
320.697	7969
320.786	8150
320.875	11739
320.964	15444
321.053	26689
321.142	37477
321.230	35483
321.319	26384
321.408	62281
321.497	24143
321.586	25249
321.675	29446
321.764	26699
321.852	17760
321.941	37610
322.030	23393
322.119	26334
322.207	65692
322.296	40847
322.385	19347
322.474	25445
322.562	78625
322.651	35598
322.740	27674
322.829	38536
322.917	39466
323.006	23858
323.095	19433
323.183	15294
323.272	24952
323.361	40495
323.449	110419
323.538	35820
323.626	80034
323.715	44385
323.804	20810
323.892	74605
323.981	37903
324.069	13453
324.158	39465
324.246	33987
324.335	15434
324.424	23126
324.512	7793
324.601	10476
324.689	12528
324.778	18030
324.866	26777
324.954	8679
325.043	9540
325.131	18037
325.220	30483
325.308	35337
325.397	25586
325.485	14563
325.574	5348
325.662	5911
325.750	6941
325.839	5150
325.927	5065
326.015	7526
326.104	12971
326.192	17361
326.280	6376
326.369	6648
326.457	10849
326.545	19181
326.634	6973
326.722	3678
326.810	4936
326.898	5238
326.987	5935
327.075	17209
327.163	15701
327.251	7714
327.340	5086
327.428	5685
327.516	3302
327.604	4664
327.692	5611
327.781	7223
327.869	12937
327.957	8340
328.045	7984
328.133	5241
328.221	6597
328.309	6832
328.397	4889
328.485	8388
328.574	12198
328.662	40872
328.750	20878
328.838	8492
328.926	4752
329.014	3794
329.102	9370
329.190	21578
329.278	13214
329.366	3959
329.454	3433
329.542	3795
329.630	2753
329.718	4512
329.806	6392
329.893	5232
329.981	3982
330.069	6357
330.157	19858
330.245	50671
330.333	24041
330.421	7356
330.509	13789
330.597	52590
330.684	29293
330.772	10613
330.860	12381
330.948	14925
331.036	6361
331.123	3717
331.211	3489
331.299	5718
331.387	14110
331.475	23050
331.562	8787
331.650	4712
331.738	5598
331.825	8528
331.913	3631
332.001	3800
332.089	6921
332.176	15282
332.264	38379
332.352	27607
332.439	8285
332.527	6132
332.614	5542
332.702	8147
332.790	6028
332.877	19705
332.965	40535
333.052	14315
333.140	16753
333.228	41038
333.315	10104
333.403	8416
333.490	23762
333.578	25751
333.665	54219
333.753	21518
333.840	6682
333.928	8603
334.015	23420
334.103	35524
334.190	95278
334.278	22647
334.365	9794
334.452	7260
334.540	4810
334.627	7597
334.715	12175
334.802	26936
334.889	130363
334.977	112500
335.064	13935
335.151	7250
335.239	7436
335.326	11966
335.413	47975
335.501	56144
335.588	9700
335.675	6999
335.762	7026
335.850	12889
335.937	9981
336.024	30029
336.111	125994
336.199	44710
336.286	8151
336.373	5367
336.460	4022
336.547	5022
336.635	6508
336.722	6003
336.809	5589
336.896	11378
336.983	33252
337.070	71308
337.157	94695
337.245	83292
337.332	52222
337.419	8559
337.506	4975
337.593	7131
337.680	24243
337.767	60742
337.854	19863
337.941	21888
338.028	31142
338.115	10296
338.202	11711
338.289	25632
338.376	85665
338.463	25766
338.550	38724
338.637	37596
338.724	17694
338.811	26073
338.898	6152
338.984	5162
339.071	5320
339.158	9949
339.245	25359
339.332	15047
339.419	20334
339.506	18058
339.593	3501
339.679	5664
339.766	4293
339.853	7838
339.940	17295
340.027	5526
340.113	5834
340.200	9535
340.287	6486
340.374	9794
340.460	16613
340.547	7570
340.634	13845
340.720	48406
340.807	23693
340.894	5313
340.980	5284
341.067	5446
341.154	6390
341.240	13300
341.327	23868
341.414	10896
341.500	9285
341.587	6563
341.674	5120
341.760	17262
341.847	18754
341.933	5670
342.020	2113
342.106	3083
342.193	6169
342.279	12853
342.366	10647
342.452	17513
342.539	9352
342.625	24740
342.712	50800
342.798	20097
342.885	7449
342.971	2978
343.058	2438
343.144	3807
343.230	3243
343.317	5757
343.403	4130
343.490	3306
343.576	2457
343.662	4860
343.749	5230
343.835	7733
343.921	14596
344.008	76556
344.094	137662
344.180	30343
344.267	16939
344.353	47553
344.439	47264
344.525	24664
344.612	10226
344.698	8452
344.784	5494
344.870	4655
344.957	5026
345.043	10075
345.129	7652
345.215	16526
345.301	10304
345.387	7690
345.474	2681
345.560	4213
345.646	4489
345.732	4569
345.818	6559
345.904	6105
345.990	7096
346.076	7296
346.162	13702
346.249	7272
346.335	4010
346.421	5460
346.507	20850
346.593	58357
346.679	12645
346.765	6138
346.851	4141
346.937	4306
347.023	3946
347.108	7655
347.194	5426
347.280	5197
347.366	7698
347.452	22942
347.538	71618
347.624	56791
347.710	44325
347.796	8023
347.882	4284
347.967	4520
348.053	5814
348.139	5079
348.225	3489
348.311	5055
348.397	3825
348.482	7302
348.568	7072
348.654	3565
348.740	3663
348.825	4050
348.911	11045
348.997	39359
349.083	61117
349.168	11132
349.254	6586
349.340	6419
349.425	4100
349.511	7468
349.597	7758
349.682	19192
349.768	48948
349.854	19352
349.939	5034
350.025	4756
350.110	4492
350.196	4472
350.282	3769
350.367	3926
350.453	9000
350.538	8739
350.624	8748
350.709	7559
350.795	4141
350.880	4933
350.966	6812
351.051	10180
351.137	6068
351.222	7273
351.308	20311
351.393	46935
351.479	12506
351.564	5579
351.649	4687
351.735	3957
351.820	3383
351.906	5099
351.991	8437
352.076	33939
352.162	42624
352.247	9897
352.332	8171
352.418	17211
352.503	21303
352.588	75892
352.673	54681
352.759	14602
352.844	6816
352.929	9074
353.014	11568
353.100	6826
353.185	10996
353.270	20368
353.355	17610
353.441	6199
353.526	7545
353.611	18640
353.696	19273
353.781	12293
353.866	4903
353.952	8215
354.037	18294
354.122	41205
354.207	34819
354.292	12368
354.377	5343
354.462	5950
354.547	7739
354.632	7202
354.717	9953
354.802	11452
354.887	5027
354.972	4263
355.057	4079
355.142	4467
355.227	7199
355.312	11976
355.397	29206
355.482	64745
355.567	26867
355.652	22375
355.737	23584
355.822	62435
355.907	41562
355.991	9293
356.076	4743
356.161	5135
356.246	4003
356.331	6018
356.416	15838
356.501	89016
356.585	78528
356.670	14112
356.755	10942
356.840	17543
356.924	73886
357.009	212523
357.094	75713
357.179	21800
357.263	12304
357.348	13759
357.433	13568
357.517	12986
357.602	9474
357.687	6569
357.771	9252
357.856	12442
357.941	13981
358.025	56100
358.110	188815
358.195	82192
358.279	16350
358.364	15192
358.448	52995
358.533	121825
358.617	85295
358.702	80540
358.787	28793
358.871	20864
358.956	15603
359.040	5065
359.125	4954
359.209	4791
359.294	5985
359.378	10007
359.462	14002
359.547	9196
359.631	6197
359.716	4909
359.800	4669
359.885	9439
359.969	5992
360.053	5796
360.138	5869
360.222	11088
360.306	19578
360.391	13698
360.475	18022
360.559	38910
360.644	46861
360.728	32866
360.812	56090
360.896	122001
360.981	57429
361.065	31189
361.149	9787
361.233	10012
361.318	6800
361.402	7956
361.486	7723
361.570	6522
361.654	9676
361.739	25785
361.823	93674
361.907	115156
361.991	23677
362.075	17629
362.159	37151
362.243	23978
362.327	17379
362.411	18507
362.495	11598
362.580	7449
362.664	4973
362.748	4365
362.832	5680
362.916	8228
363.000	28651
363.084	98042
363.168	133344
363.252	34660
363.336	14270
363.420	22739
363.503	69585
363.587	70015
363.671	15311
363.755	12781
363.839	17539
363.923	8002
364.007	19636
364.091	19750
364.175	28605
364.258	101379
364.342	53523
364.426	44779
364.510	24011
364.594	19530
364.677	30132
364.761	111234
364.845	69887
364.929	34405
365.013	27099
365.096	23902
365.180	25919
365.264	33384
365.347	103170
365.431	39682
365.515	12243
365.598	8237
365.682	7345
365.766	12156
365.849	11846
365.933	9994
366.017	11658
366.100	7658
366.184	3850
366.267	7103
366.351	5221
366.435	5088
366.518	3356
366.602	4822
366.685	6442
366.769	6706
366.852	12420
366.936	21756
367.019	12231
367.103	8488
367.186	14891
367.270	5374
367.353	3216
367.436	6176
367.520	4552
367.603	8198
367.687	13136
367.770	22720
367.853	13783
367.937	37971
368.020	50173
368.104	14812
368.187	18424
368.270	25763
368.353	21258
368.437	29040
368.520	60607
368.603	37505
368.687	50333
368.770	75393
368.853	18658
368.936	22227
369.020	18246
369.103	6944
369.186	4827
369.269	5450
369.352	16855
369.436	20649
369.519	12617
369.602	4749
369.685	8658
369.768	8692
369.851	6656
369.934	4926
370.018	7542
370.101	19941
370.184	14943
370.267	10841
370.350	16911
370.433	26740
370.516	59370
370.599	61619
370.682	25658
370.765	54811
370.848	61350
370.931	92993
371.014	32497
371.097	9235
371.180	9124
371.263	6901
371.346	5144
371.429	7503
371.511	7482
371.594	15066
371.677	20682
371.760	20969
371.843	23009
371.926	85776
372.009	152986
372.091	55688
372.174	45405
372.257	81086
372.340	33424
372.423	32997
372.505	31567
372.588	17362
372.671	40990
372.754	99062
372.836	45871
372.919	38342
373.002	61412
373.085	22911
373.167	22852
373.250	50024
373.332	85348
373.415	120705
373.498	212278
373.580	79984
373.663	106116
373.746	122445
373.828	32514
373.911	18066
373.993	19748
374.076	62397
374.159	52839
374.241	33399
374.324	86824
374.406	52701
374.489	72790
374.571	167282
374.654	63362
374.736	41583
374.819	110023
374.901	158569
374.983	143421
375.066	27383
375.148	13194
375.231	54928
375.313	88847
375.395	32049
375.478	8434
375.560	8606
375.643	11441
375.725	41795
375.807	141036
375.890	107312
375.972	53668
376.054	31846
376.136	47426
376.219	21531
376.301	48504
376.383	116443
376.465	43312
376.548	37374
376.630	44260
376.712	105642
376.794	42401
376.877	7379
376.959	4542
377.041	7358
377.123	13299
377.205	13690
377.287	4625
377.369	5242
377.452	4977
377.534	4610
377.616	5267
377.698	6304
377.780	4598
377.862	6593
377.944	5839
378.026	3832
378.108	4253
378.190	3914
378.272	5508
378.354	4049
378.436	3712
378.518	9821
378.600	29490
378.682	30110
378.764	63797
378.846	42172
378.928	15513
379.010	22619
379.091	10612
379.173	6614
379.255	5606
379.337	10160
379.419	34212
379.501	82490
379.583	27735
379.664	11011
379.746	26472
379.828	66349
379.910	83243
379.991	63134
380.073	11663
380.155	9619
380.237	7035
380.318	5016
380.400	7360
380.482	17651
380.564	24081
380.645	23571
380.727	20610
380.809	13453
380.890	8499
380.972	7142
381.053	7844
381.135	9839
381.217	26977
381.298	65819
381.380	29816
381.461	30722
381.543	116537
381.624	118931
381.706	23913
381.787	15527
381.869	16739
381.951	57511
382.032	169034
382.113	100638
382.195	27188
382.276	20945
382.358	43834
382.439	96524
382.521	110532
382.602	156117
382.684	84599
382.765	165215
382.846	225962
382.928	389263
383.009	198958
383.090	156516
383.172	496610
383.253	623808
383.334	218577
383.416	170102
383.497	89166
383.578	65043
383.659	132609
383.741	428907
383.822	840250
383.903	418024
383.984	162178
384.066	202384
384.147	115657
384.228	32753
384.309	26454
384.390	20314
384.471	15908
384.553	17526
384.634	21728
384.715	21547
384.796	13378
384.877	18603
384.958	64332
385.039	67763
385.120	26054
385.201	14463
385.282	15581
385.363	16615
385.444	14856
385.525	25934
385.606	71454
385.687	53518
385.768	17078
385.849	25217
385.930	88754
386.011	121866
386.092	32251
386.173	10212
386.254	7610
386.335	9721
386.416	11579
386.496	42226
386.577	59243
386.658	20694
386.739	13186
386.820	12306
386.901	8522
386.981	8928
387.062	6009
387.143	18038
387.224	63060
387.304	49948
387.385	18662
387.466	10421
387.547	12667
387.627	9402
387.708	27647
387.789	105131
387.869	105147
387.950	26007
388.031	5345
388.111	4435
388.192	16062
388.273	23189
388.353	13485
388.434	9276
388.514	24277
388.595	88004
388.676	106345
388.756	57885
388.837	62574
388.917	33495
388.998	6327
389.078	7018
389.159	5513
389.239	5604
389.320	12404
389.400	11067
389.480	25641
389.561	57451
389.641	24112
389.722	13197
389.802	20573
389.883	29289
389.963	66184
390.043	37607
390.124	13067
390.204	25593
390.284	71929
390.365	40104
390.445	43698
390.525	93169
390.605	78665
390.686	30277
390.766	9341
390.846	7183
390.927	4369
391.007	4710
391.087	6475
391.167	4991
391.247	3898
391.328	12022
391.408	15800
391.488	9449
391.568	4285
391.648	10068
391.728	13436
391.808	13551
391.888	15149
391.969	37094
392.049	49107
392.129	20708
392.209	28048
392.289	61841
392.369	30064
392.449	24460
392.529	15977
392.609	14475
392.689	21681
392.769	63080
392.849	45639
392.929	37231
393.009	81789
393.089	50720
393.169	36964
393.248	127962
393.328	488870
393.408	464819
393.488	107154
393.568	31631
393.648	16714
393.728	12303
393.807	7635
393.887	9596
393.967	8543
394.047	12193
394.127	13955
394.206	25131
394.286	93545
394.366	341956
394.446	311536
394.525	70496
394.605	19305
394.685	18689
394.764	39624
394.844	64262
394.924	40200
395.003	14708
395.083	10393
395.163	9206
395.242	8999
395.322	9050
395.402	5266
395.481	10956
395.561	30599
395.640	75087
395.720	52879
395.799	76949
395.879	55168
395.958	36105
396.038	134907
396.117	446758
396.197	422632
396.276	123864
396.356	42932
396.435	29936
396.515	20195
396.594	24614
396.673	41578
396.753	150067
396.832	448314
396.912	320225
396.991	76794
397.070	21486
397.150	12131
397.229	9414
397.308	9856
397.388	14188
397.467	7508
397.546	5895
397.625	4152
397.705	9611
397.784	10351
397.863	4461
397.942	2916
398.022	4760
398.101	25043
398.180	65259
398.259	28584
398.338	9255
398.417	6877
398.497	4521
398.576	5805
398.655	2502
398.734	3546
398.813	4375
398.892	24171
398.971	72091
399.050	28271
399.129	4254
399.208	2367
399.287	3752
399.366	1831
399.445	3862
399.524	3895
399.603	3340
399.682	10036
399.761	30454
399.840	80237
399.919	52362
399.998	5967
400.077	2433
400.156	1283
400.235	6354
400.313	2465
400.392	7106
400.471	38246
400.550	53483
400.629	12246
400.708	6094
400.786	4451
400.865	15736
400.944	15941
401.023	9086
401.102	1510
401.180	3074
401.259	2412
401.338	4594
401.416	6605
401.495	5594
401.574	3832
401.652	3185
401.731	5902
401.810	4119
401.888	1950
401.967	788
402.046	1017
402.124	5852
402.203	7629
402.281	3841
402.360	4927
402.438	19353
402.517	11615
402.596	4777
402.674	3708
402.753	2390
402.831	2539
402.910	5606
402.988	24023
403.066	65301
403.145	31088
403.223	25229
403.302	53953
403.380	38805
403.459	37245
403.537	12950
403.615	4482
403.694	1329
403.772	2603
403.850	1879
403.929	972
404.007	1823
404.085	7574
404.164	7775
404.242	1919
404.320	3971
404.398	8686
404.477	35088
404.555	138843
404.633	100187
404.711	13292
404.789	4787
404.868	2971
404.946	2119
405.024	1153
405.102	1754
405.180	791
405.258	1646
405.336	2542
405.415	2453
405.493	7620
405.571	7184
405.649	902
405.727	2533
405.805	4164
405.883	4964
405.961	5121
406.039	5726
406.117	2100
406.195	9372
406.273	41761
406.351	123744
406.429	59479
406.507	9951
406.585	3365
406.663	4962
406.740	5925
406.818	5968
406.896	2793
406.974	4074
407.052	14161
407.130	81121
407.208	92345
407.285	16187
407.363	2834
407.441	4010
407.519	2795
407.596	4279
407.674	7645
407.752	11641
407.830	15799
407.907	10848
407.985	3728
408.063	2247
408.141	1358
408.218	5625
408.296	4416
408.373	4290
408.451	4963
408.529	4544
408.606	1176
408.684	1250
408.762	826
408.839	335
408.917	208
408.994	1819
409.072	324
409.149	998
409.227	2555
409.304	2788
409.382	1382
409.459	2683
409.537	3837
409.614	3758
409.692	1548
409.769	2691
409.846	4277
409.924	7204
410.001	2010
410.079	2957
410.156	2453
410.233	2861
410.311	1471
410.388	1658
410.465	1641
410.543	1462
410.620	2181
410.697	4244
410.775	4376
410.852	1089
410.929	3781
411.006	5467
411.083	1663
411.161	5441
411.238	6196
411.315	3937
411.392	1528
411.469	4355
411.547	2276
411.624	427
411.701	614
411.778	4809
411.855	10812
411.932	3904
412.009	2251
412.086	1962
412.163	3973
412.240	3220
412.317	3970
412.394	3566
412.471	1559
412.548	1395
412.625	1752
412.702	3878
412.779	6419
412.856	4209
412.933	862
413.010	2157
413.087	6676
413.164	36584
413.241	42516
413.318	10060
413.395	7098
413.471	9350
413.548	2642
413.625	3147
413.702	3209
413.779	2425
413.855	22
413.932	594
414.009	275
414.086	1016
414.162	1574
414.239	6436
414.316	36239
414.393	70052
414.469	19635
414.546	2184
414.623	1453
414.699	1901
414.776	3514
414.853	2361
414.929	2378
415.006	2341
415.082	2639
415.159	3041
415.236	1667
415.312	3636
415.389	8566
415.465	11076
415.542	4624
415.618	3122
415.695	6677
415.771	3993
415.848	3045
415.924	3354
416.000	1736
416.077	1727
416.153	-98
416.230	-1034
416.306	686
416.383	1243
416.459	1133
416.535	649
416.612	990
416.688	1876
416.764	1905
416.841	2528
416.917	779
416.993	2502
417.069	3316
417.146	5654
417.222	6569
417.298	4119
417.374	1842
417.451	3620
417.527	5200
417.603	5544
417.679	3086
417.755	2171
417.831	269
417.908	939
417.984	328
418.060	1164
418.136	9980
418.212	11928
418.288	3074
418.364	1862
418.440	2227
418.516	6011
418.592	7252
418.668	16304
418.744	25397
418.820	15456
418.896	3690
418.972	254
419.048	2253
419.124	11132
419.200	6074
419.276	1521
419.352	-227
419.428	2202
419.504	2080
419.579	4546
419.655	2770
419.731	3772
419.807	16350
419.883	28549
419.959	16569
420.034	4403
420.110	13226
420.186	46730
420.262	29573
420.337	5612
420.413	4053
420.489	2619
420.565	2045
420.640	1002
420.716	2072
420.792	203
420.867	2375
420.943	1129
421.019	6282
421.094	4237
421.170	384
421.245	402
421.321	1425
421.397	861
421.472	3061
421.548	6020
421.623	7126
421.699	4934
421.774	4078
421.850	3882
421.925	7497
422.001	6525
422.076	3504
422.152	5157
422.227	9428
422.302	9306
422.378	11816
422.453	23269
422.529	61256
422.604	211342
422.679	346130
422.755	183655
422.830	50532
422.905	18833
422.981	9497
423.056	6464
423.131	5128
423.207	4294
423.282	6136
423.357	15366
423.432	8385
423.508	9739
423.583	24422
423.658	15090
423.733	4501
423.808	4693
423.883	7392
423.959	5549
424.034	2480
424.109	3222
424.184	237
424.259	1229
424.334	1174
424.409	1264
424.484	1003
424.559	2908
424.634	2177
424.709	4783
424.784	5860
424.859	3374
424.934	8073
425.009	37045
425.084	52584
425.159	16188
425.234	2187
425.309	1000
425.384	1189
425.459	1754
425.534	1505
425.609	1479
425.683	1398
425.758	1267
425.833	1255
425.908	5840
425.983	23747
426.058	58408
426.132	19879
426.207	4149
426.282	5002
426.357	3575
426.431	1265
426.506	1794
426.581	1911
426.655	2004
426.730	2027
426.805	1390
426.879	2199
426.954	2761
427.029	10144
427.103	56856
427.178	111052
427.253	39743
427.327	4651
427.402	4595
427.476	7347
427.551	3209
427.625	2179
427.700	2336
427.774	728
427.849	2481
427.923	-3
427.998	1203
428.072	1061
428.147	7283
428.221	29725
428.296	59566
428.370	22682
428.444	4102
428.519	7340
428.593	13171
428.667	11151
428.742	14204
428.816	13588
428.890	41604
428.965	48434
429.039	17936
429.113	16479
429.188	5989
429.262	1583
429.336	10000
429.410	27212
429.485	14769
429.559	11826
429.633	8212
429.707	2565
429.781	10845
429.855	53085
429.930	70950
430.004	46688
430.078	68262
430.152	53353
430.226	84156
430.300	69546
430.374	10837
430.448	5920
430.522	25716
430.596	64929
430.670	39657
430.744	96842
430.818	124008
430.892	24998
430.966	4718
431.040	2266
431.114	375
431.188	907
431.262	1057
431.336	1563
431.410	8126
431.484	21394
431.557	13060
431.631	1122
431.705	2008
431.779	11938
431.853	48391
431.927	27819
432.000	3807
432.074	1547
432.148	3081
432.222	1369
432.295	1206
432.369	1353
432.443	7296
432.516	50958
432.590	107863
432.664	34555
432.737	4714
432.811	740
432.885	1198
432.958	619
433.032	24
433.106	-488
433.179	1070
433.253	429
433.326	343
433.400	-1175
433.473	-102
433.547	-444
433.620	996
433.694	5741
433.767	4997
433.841	529
433.914	-120
433.988	-129
434.061	660
434.134	327
434.208	-453
434.281	-846
434.355	129
434.428	962
434.501	510
434.575	114
434.648	659
434.721	81
434.795	150
434.868	312
434.941	62
435.014	-156
435.088	592
435.161	3998
435.234	7700
435.307	7598
435.381	3812
435.454	1806
435.527	2822
435.600	1523
435.673	1758
435.746	-14
435.819	513
435.892	93
435.966	355
436.039	-302
436.112	603
436.185	-210
436.258	-342
436.331	-1252
436.404	217
436.477	-812
436.550	-480
436.623	-541
436.696	343
436.769	1441
436.842	1555
436.915	509
436.987	2883
437.060	757
437.133	-345
437.206	-626
437.279	123
437.352	165
437.425	141
437.498	1016
437.570	8672
437.643	6586
437.716	977
437.789	292
437.861	2751
437.934	7800
438.007	3658
438.080	251
438.152	2349
438.225	8829
438.298	65830
438.370	144944
438.443	52721
438.516	9303
438.588	2967
438.661	531
438.734	1091
438.806	992
438.879	2041
438.951	1769
439.024	5032
439.096	1188
439.169	494
439.241	166
439.314	914
439.386	3003
439.459	5032
439.531	6496
439.604	2535
439.676	629
439.749	152
439.821	456
439.893	358
439.966	782
440.038	1751
440.110	1926
440.183	1290
440.255	769
440.327	4445
440.400	29344
440.472	106259
440.544	57873
440.617	7875
440.689	4112
440.761	5008
440.833	8431
440.905	5001
440.978	200
441.050	-243
441.122	-103
441.194	301
441.266	458
441.338	147
441.411	6288
441.483	40088
441.555	50205
441.627	9530
441.699	4115
441.771	4465
441.843	795
441.915	854
441.987	391
442.059	659
442.131	1423
442.203	3908
442.275	4452
442.347	4290
442.419	4085
442.491	22682
442.563	47837
442.635	22849
442.706	23223
442.778	16426
442.850	2068
442.922	849
442.994	1520
443.066	4363
443.137	2913
443.209	2101
443.281	3038
443.353	8833
443.425	32336
443.496	98252
443.568	84479
443.640	28151
443.711	4868
443.783	2814
443.855	1304
443.926	750
443.998	2062
444.070	2981
444.141	2426
444.213	6379
444.285	8424
444.356	6628
444.428	4022
444.499	1801
444.571	-131
444.642	1750
444.714	1753
444.785	6670
444.857	6088
444.928	12725
445.000	7688
445.071	9395
445.143	8429
445.214	5374
445.285	8469
445.357	27778
445.428	77702
445.500	159663
445.571	94193
445.642	41652
445.714	21831
445.785	22426
445.856	7856
445.928	7763
445.999	5340
446.070	3436
446.141	6248
446.213	7971
446.284	2967
446.355	3450
446.426	1401
446.497	2143
446.569	4101
446.640	9582
446.711	7469
446.782	2389
446.853	4139
446.924	4928
446.995	3203
447.066	2683
447.138	4780
447.209	3191
447.280	-243
447.351	320
447.422	387
447.493	2365
447.564	4343
447.635	7687
447.706	2696
447.777	492
447.847	-254
447.918	733
447.989	2923
448.060	4815
448.131	9646
448.202	9910
448.273	8143
448.344	3037
448.414	1892
448.485	1978
448.556	845
448.627	631
448.698	535
448.768	279
448.839	1259
448.910	4731
448.981	4391
449.051	1843
449.122	1198
449.193	417
449.263	1376
449.334	838
449.405	4178
449.475	11280
449.546	5732
449.616	5952
449.687	4106
449.758	1848
449.828	883
449.899	1040
449.969	597
450.040	1608
450.110	2231
450.181	3702
450.251	1842
450.322	1323
450.392	581
450.463	993
450.533	619
450.604	1005
450.674	492
450.744	1179
450.815	506
450.885	1483
450.955	534
451.026	735
451.096	721
451.166	1927
451.237	6341
451.307	14243
451.377	5172
451.447	1035
451.518	594
451.588	1690
451.658	1732
451.728	4940
451.799	17577
451.869	16889
451.939	3572
452.009	1682
452.079	357
452.149	1691
452.219	4570
452.289	20049
452.360	12062
452.430	2806
452.500	2422
452.570	4278
452.640	4955
452.710	13818
452.780	20135
452.850	19875
452.920	18740
452.990	6265
453.060	3284
453.129	6543
453.199	5778
453.269	26301
453.339	47325
453.409	68392
453.479	72883
453.549	101340
453.619	100841
453.688	37014
453.758	5863
453.828	3051
453.898	1660
453.968	1599
454.037	1272
454.087	1160
454.107	1098
454.168	958
454.177	915
454.247	1634
454.249	1600
454.316	262
454.330	753
454.386	2564
454.411	5264
454.456	9552
454.492	11314
454.525	12924
454.574	6897
454.595	4277
454.655	2356
454.665	2061
454.734	2358
454.736	2504
454.804	6714
454.817	8774
454.873	16680
454.898	17729
454.943	19404
454.979	13530
455.013	8359
455.060	5206
455.082	3980
455.141	4125
455.152	3987
455.221	13492
455.222	13621
455.291	19647
455.303	17451
455.360	7768
455.384	6326
455.430	4119
455.465	6159
455.499	7682
455.546	13427
455.569	15760
455.627	10499
455.638	9618
455.707	2706
455.708	2727
455.777	2217
455.789	2237
455.846	2226
455.869	2277
455.916	2354
455.950	2133
455.985	1922
456.031	2357
456.054	2480
456.112	1960
456.124	1893
456.193	2267
456.193	2245
456.262	2507
456.274	2721
456.332	3560
456.355	3725
456.401	3691
456.436	3170
456.470	2815
456.516	2199
456.540	1770
456.597	1488
456.609	1475
456.678	1532
456.678	1514
456.747	1261
456.759	1274
456.817	1424
456.840	1646
456.886	1920
456.920	1921
456.955	2114
457.001	2681
457.024	2972
457.082	3681
457.093	3746
457.162	5544
457.163	5569
457.232	5427
457.243	5186
457.301	3943
457.324	2984
457.370	1615
457.405	1992
457.439	2214
457.485	2279
457.508	2383
457.566	2700
457.577	2776
457.646	3740
457.647	3767
457.715	4965
457.727	5127
457.784	6228
457.808	7803
457.853	9964
457.889	10859
457.922	10725
457.969	7991
457.991	8014
458.050	9417
458.060	9468
458.129	14928
458.130	15048
458.198	14599
458.211	13262
458.267	8134
458.292	6151
458.336	4146
458.372	4208
458.405	5290
458.453	6902
458.474	8162
458.533	14773
458.543	15381
458.611	23598
458.614	23659
458.680	15584
458.694	12815
458.749	6840
458.775	5531
458.818	3914
458.855	3403
458.887	3106
458.936	3419
458.955	3439
459.016	3038
459.024	3099
459.093	4373
459.097	4371
459.162	3866
459.177	4207
459.230	5550
459.257	6124
459.299	6121
459.338	5898
459.368	5943
459.418	5567
459.437	5256
459.499	4329
459.505	4262
459.574	4257
459.579	4247
459.643	3985
459.659	3779
459.711	3973
459.740	4570
459.780	4977
459.820	5283
459.849	5357
459.900	5407
459.917	5553
459.981	6410
459.986	6420
460.054	5519
460.061	5530
460.123	6784
460.141	7328
460.191	9808
460.222	11197
460.260	12535
460.302	14844
460.328	13834
460.382	9784
460.397	9180
460.462	5731
460.465	5689
460.534	6457
460.543	6595
460.602	9631
460.623	10812
460.671	14473
460.703	18323
460.739	18011
460.783	15238
460.808	12949
460.864	5667
460.876	5191
460.944	4970
460.945	4972
461.013	5918
461.024	6049
461.081	6110
461.104	6615
461.150	6833
461.184	6185
461.218	5777
461.264	5066
461.286	5009
461.345	5370
461.355	5368
461.423	5687
461.425	5682
461.491	4980
461.505	4989
461.559	7944
461.585	9043
461.628	12823
461.665	17793
461.696	20582
461.745	26524
461.764	24482
461.825	10833
461.832	10418
461.901	6558
461.905	6518
461.969	5769
461.985	5524
462.037	5611
462.065	5676
462.105	5421
462.145	5358
462.173	7397
462.225	11392
462.241	12314
462.305	17405
462.310	17101
462.378	11448
462.385	10418
462.446	7178
462.465	6804
462.514	6412
462.545	6244
462.582	5949
462.625	5702
462.650	5652
462.705	5377
462.718	5481
462.785	6097
462.786	6124
462.854	7479
462.865	7837
462.922	9340
462.945	9971
462.990	9071
463.025	7421
463.058	6491
463.104	5529
463.126	5265
463.184	4969
463.194	5162
463.262	6161
463.264	6218
463.330	6961
463.344	6960
463.398	6999
463.424	7155
463.466	6776
463.504	6304
463.533	6497
463.583	7015
463.601	7284
463.663	7795
463.669	7936
463.737	9939
463.743	10137
463.805	14106
463.823	15210
463.873	19864
463.903	22898
463.940	23958
463.982	25862
464.008	22164
464.062	11497
464.076	10745
464.142	6937
464.144	6896
464.211	6533
464.221	6526
464.279	6940
464.301	7112
464.347	7908
464.381	8514
464.414	8612
464.461	8680
464.482	8912
464.540	9685
464.550	9596
464.617	8336
464.620	8292
464.685	11489
464.699	12226
464.753	14608
464.779	15842
464.820	17868
464.859	19406
464.888	17609
464.938	14653
464.956	14747
465.018	14761
465.023	14677
465.091	13580
465.098	13395
465.158	12499
465.177	12352
465.226	12725
465.257	12875
465.293	13719
465.336	14708
465.361	15698
465.416	17799
465.428	18393
465.495	21829
465.496	21894
465.563	27021
465.575	27955
465.631	33078
465.654	35447
465.698	25154
465.734	15471
465.765	14016
465.813	12017
465.833	11776
465.893	11546
465.900	11566
465.968	11635
465.972	11624
466.035	12124
466.052	12248
466.102	12251
466.131	12192
466.170	12269
466.210	12284
466.237	12549
466.290	13057
466.304	13092
466.369	13059
466.372	13113
466.439	14174
466.449	14289
466.506	14498
466.528	14585
466.573	18720
466.607	21730
466.641	29295
466.687	39855
466.708	43260
466.766	52791
466.775	49566
466.842	24420
466.845	23183
466.909	18026
466.925	16863
466.977	15629
467.004	15016
467.044	16318
467.083	17582
467.111	19291
467.163	22420
467.178	23236
467.242	26469
467.245	26429
467.312	24636
467.321	24358
467.379	22299
467.400	21486
467.446	21186
467.480	20903
467.559	20731
467.638	18096
467.717	19220
467.796	21605
467.875	24048
467.955	21117
468.034	25912
468.113	44311
468.192	60763
468.271	24343
468.350	18203
468.429	19145
468.508	18517
468.588	18013
468.667	17308
468.746	18175
468.825	17447
468.904	15750
468.983	18821
469.062	24496
469.141	27987
469.220	17626
469.299	16926
469.378	19155
469.456	24662
469.535	22120
469.614	20431
469.693	19705
469.772	23898
469.851	27071
469.930	23893
470.009	20709
470.088	23011
470.166	30648
470.245	50277
470.324	62656
470.403	36342
470.482	23546
470.560	19445
470.639	21254
470.718	25225
470.797	18149
470.875	21116
470.954	24739
471.033	25817
471.111	15678
471.190	15901
471.269	13954
471.347	15081
471.426	16291
471.505	18323
471.583	19912
471.662	21287
471.740	18139
471.819	17315
471.898	15917
471.976	16331
472.055	16713
472.133	17255
472.212	19507
472.290	20536
472.369	16410
472.447	15732
472.526	14534
472.604	16345
472.683	16638
472.761	18655
472.839	16952
472.918	16611
472.996	17217
473.075	17230
473.153	16618
473.231	16062
473.310	18057
473.388	18281
473.466	17066
473.545	20860
473.623	27584
473.701	27331
473.780	17106
473.858	15215
473.936	17064
474.014	16144
474.093	16259
474.171	20572
474.249	24764
474.327	19694
474.405	14356
474.484	14668
474.562	15405
474.640	14648
474.718	14522
474.796	15597
474.874	13717
474.952	13306
475.030	13591
475.108	14474
475.187	14498
475.265	15900
475.343	24453
475.421	27416
475.499	15746
475.577	15652
475.655	17333
475.733	26579
475.811	41058
475.889	37335
475.966	29920
476.044	14974
476.122	18000
476.200	22851
476.278	18445
476.356	13641
476.434	15150
476.512	17387
476.590	21611
476.667	19701
476.745	13904
476.823	14774
476.901	13882
476.979	14258
477.056	13963
477.134	15425
477.212	15318
477.290	14728
477.367	11981
477.445	12100
477.523	11654
477.601	12711
477.678	12547
477.756	15621
477.834	15311
477.911	13060
477.989	13879
478.066	13224
478.144	13625
478.222	18093
478.299	26238
478.377	24062
478.454	11583
478.532	12038
478.609	13113
478.687	14451
478.764	12657
478.842	13908
478.919	14372
478.997	14246
479.074	11542
479.152	12695
479.229	14642
479.307	11711
479.384	10595
479.461	10322
479.539	10330
479.616	12314
479.694	10924
479.771	12206
479.848	12817
479.926	13641
480.003	16958
480.080	12258
480.157	10118
480.235	11069
480.312	10685
480.389	10801
480.467	16979
480.544	19324
480.621	13317
480.698	11646
480.775	13486
480.853	13002
480.930	11792
481.007	11718
481.084	11064
481.161	13093
481.238	12433
481.315	10966
481.392	10502
481.470	10655
481.547	11583
481.624	11250
481.701	9444
481.778	10766
481.855	12269
481.932	16830
482.009	23403
482.086	19282
482.163	11252
482.240	18596
482.317	30820
482.393	25052
482.470	10444
482.547	10664
482.624	10028
482.701	10597
482.778	9366
482.855	9792
482.932	9097
483.009	9803
483.085	11331
483.162	11373
483.239	11249
483.316	9739
483.393	10285
483.469	10530
483.546	11051
483.623	12505
483.699	10515
483.776	10412
483.853	12134
483.930	17646
484.006	36960
484.083	60501
484.160	52812
484.236	82227
484.313	62858
484.389	45818
484.466	40634
484.543	37407
484.619	37132
484.696	39986
484.772	40535
484.849	40151
484.925	35744
485.002	35221
485.078	37004
485.155	36766
485.231	34184
485.308	34169
485.384	34745
485.461	38446
485.537	49895
485.614	58588
485.690	34186
485.766	32652
485.843	35716
485.919	51230
485.995	55263
486.072	31229
486.148	28437
486.224	29602
486.301	31372
486.377	33635
486.453	33868
486.530	35444
486.606	47586
486.682	52969
486.758	52893
486.835	56011
486.911	48039
486.987	65038
487.063	94931
487.139	126809
487.215	84258
487.292	42246
487.368	34108
487.444	36486
487.520	39224
487.596	36741
487.672	44211
487.748	80658
487.824	108821
487.900	48052
487.976	33287
488.052	33111
488.128	38304
488.204	35463
488.280	31253
488.356	34178
488.432	52893
488.508	74786
488.584	41106
488.660	32100
488.736	32194
488.812	35049
488.888	43596
488.964	56854
489.039	118775
489.115	184493
489.191	109076
489.267	32972
489.343	29285
489.418	26577
489.494	27452
489.570	23746
489.646	27821
489.722	26275
489.797	25890
489.873	32189
489.949	54878
490.024	53745
490.100	25070
490.176	25402
490.251	32136
490.327	43910
490.403	27204
490.478	23838
490.554	21220
490.629	23093
490.705	21334
490.781	24860
490.856	22298
490.932	28022
491.007	27788
491.083	27174
491.158	22422
491.234	27124
491.309	42004
491.385	48476
491.460	24438
491.536	26661
491.611	25861
491.686	27822
491.762	37547
491.837	75521
491.913	123795
491.988	169879
492.063	221966
492.139	51297
492.214	30242
492.289	21674
492.365	21006
492.440	25261
492.515	22491
492.590	23721
492.666	18912
492.741	24881
492.816	28118
492.891	21827
492.967	19130
493.042	16229
493.117	18172
493.192	17956
493.267	20111
493.342	25993
493.418	23322
493.493	19205
493.568	16657
493.643	17423
493.718	21919
493.793	30567
493.868	40939
493.943	28529
494.018	21467
494.093	16852
494.168	17491
494.243	17788
494.318	16021
494.393	16697
494.468	16723
494.543	17732
494.618	21975
494.693	18660
494.768	16589
494.842	18611
494.917	16510
494.992	18164
495.067	15840
495.142	16165
495.217	18870
495.292	19598
495.366	22500
495.441	26575
495.516	31328
495.591	45555
495.665	158404
495.740	377164
495.815	161974
495.890	27620
495.964	19719
496.039	23273
496.114	21223
496.188	20910
496.263	21728
496.338	19138
496.412	20527
496.487	23705
496.561	25940
496.636	29686
496.710	21281
496.785	22624
496.860	25496
496.934	20599
497.009	22145
497.083	22798
497.158	22892
497.232	24824
497.307	29739
497.381	25001
497.455	26207
497.530	31113
497.604	23953
497.679	24442
497.753	34127
497.827	43816
497.902	39737
497.976	41830
498.050	83217
498.125	304406
498.199	368642
498.273	78576
498.348	54702
498.422	43273
498.496	43650
498.570	40993
498.645	25623
498.719	23671
498.793	27557
498.867	38606
498.941	48643
499.016	122420
499.090	335029
499.164	161353
499.238	24872
499.312	21984
499.386	31458
499.460	27514
499.534	24665
499.609	32242
499.683	34821
499.757	31142
499.831	53222
499.905	217002
499.979	242426
500.053	43462
500.127	45786
500.201	41706
500.275	25430
500.349	24498
500.422	27338
500.496	41748
500.570	85698
500.644	153720
500.718	250817
500.792	77065
500.866	20040
500.940	23358
501.013	21289
501.087	22821
501.161	44581
501.235	52883
501.309	70049
501.382	198676
501.456	211474
501.530	49712
501.603	66538
501.677	37069
501.751	15310
501.825	19189
501.898	29804
501.972	80341
502.046	63798
502.119	19437
502.193	41570
502.266	89201
502.340	54541
502.413	39394
502.487	78868
502.561	49506
502.634	21108
502.708	18978
502.781	16995
502.855	15707
502.928	11640
503.002	12232
503.075	11231
503.149	13602
503.222	13048
503.295	14318
503.369	16790
503.442	20710
503.516	56197
503.589	150694
503.662	110627
503.736	34436
503.809	67397
503.882	65442
503.956	81278
504.029	89031
504.102	58065
504.175	67528
504.249	23374
504.322	16927
504.395	17049
504.468	12712
504.542	10516
504.615	10668
504.688	10954
504.761	10015
504.834	15668
504.907	22998
504.980	38036
505.053	19009
505.127	24103
505.200	26651
505.273	17909
505.346	13594
505.419	9813
505.492	11542
505.565	8506
505.638	9139
505.711	9421
505.784	9039
505.857	8877
505.930	12515
506.003	8997
506.076	12133
506.149	13497
506.221	15876
506.294	15356
506.367	32354
506.440	110706
506.513	80063
506.586	18415
506.659	13156
506.731	11791
506.804	14234
506.877	23288
506.950	15018
507.022	9638
507.095	12444
507.168	16418
507.241	13349
507.313	10497
507.386	12670
507.459	21040
507.531	13789
507.604	10840
507.677	11965
507.749	9138
507.822	16354
507.894	34733
507.967	42706
508.040	23260
508.112	18928
508.185	17433
508.257	18341
508.330	28762
508.402	17860
508.475	14698
508.547	16494
508.620	15928
508.692	20627
508.765	17376
508.837	14200
508.909	13935
508.982	14001
509.054	17251
509.127	15003
509.199	13218
509.271	13124
509.344	12113
509.416	13857
509.488	13602
509.560	15297
509.633	15686
509.705	18564
509.777	17103
509.849	25750
509.922	16834
509.994	13084
510.066	14243
510.138	15883
510.210	33574
510.283	30452
510.355	24164
510.427	23253
510.499	20254
510.571	18266
510.643	19451
510.715	34237
510.787	31327
510.859	21756
510.931	21974
511.003	34518
511.076	32004
511.148	17631
511.219	16593
511.291	22265
511.363	26620
511.435	17307
511.507	14958
511.579	15796
511.651	16501
511.723	15756
511.795	14738
511.867	15820
511.939	18089
512.010	27664
512.082	27684
512.154	17205
512.226	17814
512.298	28452
512.369	41683
512.441	32456
512.513	32063
512.585	24080
512.656	23718
512.728	27918
512.800	20325
512.871	20430
512.943	20075
513.015	17167
513.086	20243
513.158	21243
513.230	21250
513.301	31001
513.373	38390
513.444	23040
513.516	17851
513.588	19141
513.659	21222
513.731	27725
513.802	23834
513.874	49183
513.945	85874
514.016	32051
514.088	19399
514.159	22062
514.231	30056
514.302	39966
514.374	28023
514.445	24315
514.516	34723
514.588	30563
514.659	22273
514.730	32477
514.802	31549
514.873	24091
514.944	23849
515.016	22055
515.087	26356
515.158	27730
515.229	34604
515.301	23295
515.372	25009
515.443	18760
515.514	18873
515.585	17274
515.656	19332
515.728	18571
515.799	18085
515.870	20096
515.941	20543
516.012	22290
516.083	29857
516.154	34197
516.225	45446
516.296	43449
516.367	39574
516.438	46551
516.509	58836
516.580	83973
516.651	267487
516.722	965124
516.793	450011
516.864	84232
516.935	73567
517.006	82173
517.077	108146
517.148	242710
517.219	914548
517.289	1449137
517.360	318693
517.431	100321
517.502	38964
517.573	33828
517.643	32321
517.714	36583
517.785	39356
517.856	41499
517.926	50975
517.997	61982
518.068	77931
518.138	101184
518.209	150564
518.280	557903
518.350	1923194
518.421	861590
518.492	111285
518.562	53153
518.633	40862
518.703	34016
518.774	39189
518.845	66126
518.915	68719
518.986	35570
519.056	37251
519.127	66986
519.197	93184
519.268	154082
519.338	106664
519.408	33995
519.479	47734
519.549	36181
519.620	23200
519.690	18340
519.760	17944
519.831	20435
519.901	20586
519.971	16197
520.042	17140
520.112	19134
520.182	25546
520.253	29626
520.323	18318
520.393	18445
520.463	24841
520.534	16846
520.604	23537
520.674	20618
520.744	19446
520.814	28392
520.885	32130
520.955	42322
521.025	149288
521.095	80642
521.165	19095
521.235	17195
521.305	15995
521.375	16876
521.445	17956
521.515	24862
521.585	32021
521.655	30709
521.725	23947
521.795	20495
521.865	13378
521.935	21094
522.005	19253
522.075	14759
522.145	16090
522.215	16706
522.285	22326
522.355	28294
522.424	46782
522.494	45499
522.564	29988
522.634	63565
522.704	200291
522.774	84040
522.843	20837
522.913	18684
522.983	24771
523.053	19294
523.122	17903
523.192	27310
523.262	102765
523.331	104463
523.401	21033
523.471	14654
523.540	15210
523.610	12316
523.680	11316
523.749	13578
523.819	14643
523.888	14653
523.958	12104
524.027	12674
524.097	13960
524.166	14110
524.236	15910
524.305	16919
524.375	12670
524.444	11746
524.514	14511
524.583	13788
524.653	15947
524.722	18706
524.791	12493
524.861	14701
524.930	12351
524.999	13828
525.069	21357
525.138	16094
525.207	15902
525.277	14985
525.346	13735
525.415	13166
525.484	13640
525.554	14408
525.623	14241
525.692	13241
525.761	12900
525.830	14128
525.900	13960
525.969	20281
526.038	25490
526.107	38071
526.176	104213
526.245	93734
526.314	44697
526.383	64533
526.452	80367
526.522	129018
526.591	157126
526.660	96752
526.729	48504
526.797	44609
526.867	96635
526.935	439823
527.004	497093
527.073	235920
527.142	28687
527.211	17966
527.280	20016
527.349	21354
527.418	11329
527.487	12612
527.555	9878
527.624	10956
527.693	8832
527.762	12273
527.831	9168
527.899	10907
527.968	11215
528.037	10620
528.106	16013
528.174	30796
528.243	22652
528.312	30504
528.380	46519
528.449	15486
528.518	12460
528.586	8486
528.655	10092
528.723	9238
528.792	9562
528.861	10534
528.929	7921
528.998	9815
529.066	8932
529.135	9070
529.203	8780
529.272	7980
529.340	10802
529.409	11644
529.477	8162
529.545	11307
529.614	14556
529.682	11132
529.751	15130
529.819	16044
529.887	12383
529.956	10015
530.024	10524
530.092	8948
530.161	12780
530.229	23877
530.297	12602
530.365	9651
530.434	9907
530.502	8132
530.570	8308
530.638	7836
530.707	10677
530.775	11907
530.843	9220
530.911	10017
530.979	8580
531.047	8834
531.115	10220
531.183	9871
531.252	9479
531.320	8921
531.388	8647
531.456	9226
531.524	7594
531.592	10624
531.660	11983
531.728	9210
531.796	9400
531.864	9050
531.932	9964
532.000	11127
532.067	11127
532.135	13456
532.203	15143
532.271	14254
532.339	28206
532.407	81823
532.475	49551
532.542	23347
532.610	22989
532.678	30548
532.746	133865
532.814	366236
532.881	100230
532.949	18084
533.017	13021
533.084	11540
533.152	10145
533.220	11035
533.287	13838
533.355	11174
533.423	9986
533.490	10396
533.558	10221
533.625	10801
533.693	12868
533.761	12432
533.828	12866
533.896	12271
533.963	25197
534.031	32988
534.098	50518
534.166	21736
534.233	10296
534.300	11950
534.368	10740
534.435	10140
534.503	10281
534.570	11601
534.637	10071
534.705	11189
534.772	12232
534.840	14710
534.907	48417
534.974	67475
535.041	15239
535.109	13528
535.176	11448
535.243	10520
535.310	11359
535.378	10582
535.445	8747
535.512	9399
535.579	9651
535.646	8908
535.714	10928
535.781	15203
535.848	12618
535.915	13449
535.982	12099
536.049	11964
536.116	13413
536.183	12155
536.250	12519
536.317	12436
536.384	15752
536.451	25388
536.518	27219
536.585	17788
536.652	21367
536.719	35554
536.786	27539
536.853	21311
536.920	29345
536.987	50367
537.053	49421
537.120	187804
537.187	173525
537.254	20471
537.321	13880
537.388	13792
537.454	10708
537.521	12213
537.588	11382
537.654	14141
537.721	16327
537.788	16200
537.855	13369
537.921	12996
537.988	13895
538.055	14721
538.121	13601
538.188	15366
538.254	23771
538.321	51565
538.388	32745
538.454	15141
538.521	13006
538.587	13328
538.654	12840
538.720	11683
538.787	12518
538.853	13150
538.920	18289
538.986	17482
539.053	15246
539.119	16126
539.185	15288
539.252	19553
539.318	31808
539.385	23650
539.451	20161
539.517	20823
539.583	23351
539.650	55186
539.716	153570
539.782	45701
539.849	17731
539.915	16067
539.981	16841
540.047	21462
540.114	17925
540.180	20124
540.246	18050
540.312	24485
540.378	50612
540.444	53861
540.510	56528
540.576	170766
540.643	57786
540.709	17386
540.775	15996
540.841	15749
540.907	19176
540.973	26062
541.039	27737
541.105	32794
541.171	17405
541.237	15487
541.303	16937
541.369	19570
541.435	24318
541.500	46578
541.566	30264
541.632	15260
541.698	13848
541.764	14603
541.830	12444
541.896	13614
541.961	14655
542.027	15797
542.093	15085
542.159	17717
542.224	16760
542.290	25440
542.356	43862
542.421	57301
542.487	24848
542.553	17897
542.618	19421
542.684	18203
542.750	18033
542.815	21484
542.881	35983
542.947	146152
543.012	113360
543.078	19923
543.143	16728
543.209	18088
543.274	18176
543.340	21777
543.405	54742
543.471	96050
543.536	23967
543.602	15469
543.667	13939
543.732	15932
543.798	13487
543.863	15388
543.928	13950
543.994	13748
544.059	13518
544.124	14622
544.190	15010
544.255	16156
544.320	17184
544.386	17328
544.451	24566
544.516	30525
544.581	28840
544.646	87665
544.712	149631
544.777	31294
544.842	19634
544.907	19197
544.972	17418
545.037	17630
545.102	18737
545.168	19090
545.233	20646
545.298	21672
545.363	23626
545.428	27496
545.493	50108
545.558	124567
545.623	51878
545.688	20773
545.753	18850
545.818	17927
545.883	19912
545.947	18018
546.012	20256
546.077	19524
546.142	20136
546.207	18909
546.272	27425
546.337	30603
546.401	21684
546.466	20299
546.531	19232
546.596	22203
546.661	22044
546.725	20336
546.790	18422
546.855	19269
546.919	19754
546.984	21972
547.049	22328
547.113	25578
547.178	24279
547.243	26270
547.307	29015
547.372	31733
547.436	33461
547.501	29017
547.565	31004
547.630	37086
547.695	35493
547.759	33740
547.823	31563
547.888	28009
547.952	27245
548.017	30052
548.081	32935
548.146	38493
548.210	34483
548.274	30666
548.339	30622
548.403	29457
548.468	26591
548.532	27243
548.596	27457
548.660	27311
548.725	31721
548.789	36231
548.853	36167
548.917	31771
548.982	35357
549.046	36644
549.110	26678
549.174	26201
549.238	28321
549.303	30141
549.367	31435
549.431	30694
549.495	29812
549.559	29025
549.623	32695
549.687	37164
549.751	51637
549.815	43553
549.879	38123
549.943	35436
550.007	38812
550.071	40097
550.135	46516
550.199	39041
550.263	35406
550.327	36029
550.391	39460
550.455	36832
550.519	36195
550.582	40743
550.646	55161
550.710	59244
550.774	42662
550.838	41398
550.901	42071
550.965	44241
551.029	44705
551.093	49211
551.156	54340
551.220	75019
551.284	91203
551.347	57658
551.411	75611
551.475	90073
551.538	47468
551.602	41458
551.666	39617
551.729	37350
551.793	36449
551.856	36447
551.920	33966
551.983	35908
552.047	34729
552.110	35398
552.174	35325
552.237	37224
552.301	36421
552.364	34564
552.428	34911
552.491	36861
552.554	38653
552.618	38257
552.681	41536
552.745	46807
552.808	84210
552.871	121521
552.934	60860
552.998	40922
553.061	38296
553.124	35493
553.187	34711
553.251	35783
553.314	35748
553.377	33470
553.440	35688
553.503	38547
553.567	40077
553.630	35444
553.693	33529
553.756	36032
553.819	33473
553.882	33951
553.945	33881
554.008	33221
554.071	33117
554.134	34655
554.197	32139
554.260	32290
554.323	34827
554.386	34839
554.449	33937
554.512	34784
554.575	32699
554.638	32866
554.701	32421
554.764	31514
554.827	30665
554.889	30546
554.952	29391
555.015	28815
555.078	28692
555.141	29222
555.203	28487
555.266	29593
555.329	29535
555.391	28193
555.454	29998
555.517	29877
555.580	26996
555.642	26250
555.705	25522
555.768	27315
555.830	26501
555.893	25246
555.955	25806
556.018	25556
556.080	24525
556.143	25700
556.206	24537
556.268	27030
556.330	27301
556.393	25423
556.455	25204
556.518	31542
556.580	34218
556.643	23398
556.705	23223
556.767	23145
556.830	24655
556.892	26947
556.955	42571
557.017	31983
557.079	23741
557.142	23176
557.204	27629
557.266	54607
557.328	45507
557.391	23130
557.453	20559
557.515	22071
557.577	27337
557.639	28480
557.701	21025
557.764	19809
557.826	19974
557.888	22734
557.950	21447
558.012	23409
558.074	26023
558.136	41394
558.198	92799
558.260	44957
558.322	26030
558.384	26657
558.446	29500
558.508	32878
558.570	39930
558.632	68177
558.694	99245
558.756	71386
558.818	174920
558.880	458101
558.942	148485
559.003	100522
559.065	57114
559.127	30553
559.189	29306
559.251	32218
559.312	39434
559.374	83176
559.436	274049
559.498	147436
559.559	32198
559.621	30233
559.683	32912
559.744	46791
559.806	130867
559.868	200433
559.929	47195
559.991	32074
560.052	40183
560.114	90439
560.176	64885
560.237	57739
560.299	96885
560.360	31771
560.422	20369
560.483	20385
560.545	17710
560.606	18403
560.667	17761
560.729	18413
560.790	17713
560.852	18821
560.913	17990
560.974	17379
561.036	18518
561.097	18864
561.158	19332
561.220	20356
561.281	19366
561.342	20580
561.403	25130
561.465	31829
561.526	74423
561.587	99861
561.648	28384
561.709	20853
561.771	20062
561.832	19381
561.893	19211
561.954	20313
562.015	19106
562.076	19738
562.137	19640
562.198	18815
562.259	19427
562.320	19989
562.381	21675
562.442	31897
562.503	25375
562.564	18599
562.625	18046
562.686	17657
562.747	19976
562.808	19054
562.869	18593
562.930	22888
562.991	22283
563.051	20787
563.112	19463
563.173	20330
563.234	18110
563.294	18898
563.355	19013
563.416	20420
563.477	19229
563.537	19740
563.598	19879
563.659	19454
563.720	19876
563.780	21827
563.841	20844
563.901	20597
563.962	19279
564.023	19773
564.083	20037
564.144	20527
564.204	20018
564.265	19277
564.325	21743
564.386	34709
564.446	33329
564.507	19372
564.567	18595
564.628	20284
564.688	19515
564.749	18823
564.809	20055
564.869	24532
564.930	20793
564.990	20034
565.050	18952
565.111	19595
565.171	18418
565.231	19036
565.292	19582
565.352	18612
565.412	19320
565.472	20321
565.532	21987
565.593	20457
565.653	18218
565.713	19944
565.773	21444
565.833	26736
565.893	31616
565.953	21964
566.013	19587
566.074	19921
566.134	23931
566.194	34668
566.254	37724
566.314	25654
566.374	20160
566.434	21469
566.494	20264
566.554	20293
566.614	20619
566.673	21149
566.733	20334
566.793	22188
566.853	20447
566.913	20508
566.973	21637
567.033	22186
567.092	22463
567.152	20983
567.212	21936
567.272	22537
567.331	21765
567.391	21644
567.451	23061
567.511	27750
567.570	29435
567.630	22200
567.690	20848
567.749	20790
567.809	22006
567.868	24282
567.928	25922
567.988	27200
568.047	27849
568.107	31850
568.166	38944
568.226	59535
568.285	81921
568.345	61960
568.404	45263
568.464	39929
568.523	38038
568.582	39289
568.642	42524
568.701	49907
568.761	78216
568.820	131030
568.879	112973
568.939	76782
568.998	52002
569.057	40162
569.116	33590
569.176	29541
569.235	25240
569.294	24685
569.353	22639
569.413	22897
569.472	22630
569.531	19891
569.590	19891
569.649	20199
569.708	19640
569.767	20129
569.827	22386
569.886	20153
569.945	17761
570.004	19070
570.063	19001
570.122	20583
570.181	21730
570.240	21727
570.299	22072
570.358	21678
570.417	17970
570.475	18566
570.534	20218
570.593	20420
570.652	19330
570.711	20686
570.770	19157
570.829	22647
570.887	21512
570.946	25896
571.005	19381
571.064	20483
571.122	22683
571.181	22650
571.240	18200
571.299	18375
571.357	17728
571.416	18111
571.475	20116
571.533	21457
571.592	17387
571.650	19091
571.709	17157
571.768	19213
571.826	17556
571.885	15567
571.943	16048
572.002	17123
572.060	18171
572.119	15320
572.177	15792
572.236	16200
572.294	15474
572.352	15760
572.411	16775
572.469	15738
572.528	15059
572.586	16515
572.644	17204
572.703	18862
572.761	16825
572.819	16026
572.877	16458
572.936	15208
572.994	15416
573.052	14751
573.110	15921
573.169	16407
573.227	15225
573.285	14710
573.343	14594
573.401	14587
573.459	14317
573.517	14896
573.576	15150
573.634	14971
573.692	15649
573.750	14643
573.808	14167
573.866	16219
573.924	19180
573.982	18078
574.040	14852
574.098	15419
574.155	14074
574.213	14490
574.271	14294
574.329	15140
574.387	13681
574.445	14140
574.503	14134
574.560	12932
574.618	13231
574.676	13375
574.734	13463
574.792	13809
574.849	14005
574.907	13661
574.965	12321
575.022	13052
575.080	13434
575.138	14281
575.195	15201
575.253	14848
575.311	16553
575.368	13770
575.426	13124
575.483	13569
575.541	12527
575.598	13593
575.656	15169
575.713	14055
575.771	13938
575.828	13628
575.886	13117
575.943	14780
576.001	13561
576.058	14493
576.115	14996
576.173	17195
576.230	19554
576.287	23026
576.345	18519
576.402	15205
576.459	14375
576.517	14171
576.574	16704
576.631	17502
576.688	15202
576.746	14091
576.803	13489
576.860	14128
576.917	14560
576.974	14039
577.031	13825
577.089	13776
577.146	14254
577.203	14377
577.260	15233
577.317	15945
577.374	16238
577.431	15779
577.488	15131
577.545	14289
577.602	14206
577.659	13528
577.716	12647
577.773	13017
577.830	12361
577.886	13842
577.943	12915
578.000	13770
578.057	14353
578.114	14015
578.171	13055
578.227	12927
578.284	13151
578.341	14051
578.398	13501
578.454	14851
578.511	15909
578.568	18444
578.625	15319
578.681	14357
578.738	13316
578.794	13466
578.851	12985
578.908	14440
578.964	16888
579.021	16940
579.077	16071
579.134	14994
579.190	14220
579.247	15086
579.303	13669
579.360	13717
579.416	12581
579.473	13413
579.529	13128
579.586	13315
579.642	14042
579.698	13581
579.755	13994
579.811	15298
579.867	14182
579.924	12883
579.980	12804
580.036	13682
580.093	14806
580.149	14527
580.205	14506
580.261	14118
580.317	15261
580.374	15679
580.430	18158
580.486	17454
580.542	14033
580.598	15238
580.619	15267
580.654	15333
580.692	15036
580.710	14919
580.765	15429
580.767	15463
580.823	15599
580.838	15461
580.879	15110
580.911	14608
580.935	14279
580.984	13801
580.991	13754
581.047	15069
581.057	14926
581.103	14352
581.130	14378
581.159	14442
581.203	14069
581.215	13978
581.270	14554
581.276	14466
581.326	13777
581.349	14053
581.382	14480
581.422	14205
581.438	14121
581.494	16121
581.494	16107
581.550	15747
581.567	15895
581.606	16155
581.640	16148
581.661	16193
581.713	15531
581.717	15491
581.773	14454
581.786	14616
581.829	15166
581.859	15592
581.885	15981
581.932	15784
581.940	15757
581.996	15361
582.004	15484
582.052	16149
582.077	15210
582.107	14157
582.150	15324
582.163	15675
582.219	14942
582.223	14967
582.274	15511
582.296	15494
582.330	15245
582.368	15879
582.386	16322
582.441	15482
582.441	15485
582.497	14716
582.514	14732
582.552	15092
582.587	15520
582.608	15573
582.659	15482
582.663	15495
582.719	15935
582.732	15535
582.774	14380
582.805	15044
582.830	15565
582.877	15075
582.885	15010
582.941	15363
582.950	15388
582.996	15105
583.023	15434
583.052	16084
583.095	15157
583.107	14902
583.162	15730
583.168	15727
583.218	15440
583.240	15365
583.273	15374
583.313	15481
583.328	15511
583.384	15567
583.385	15553
583.439	14994
583.458	14934
583.494	14965
583.531	14761
583.549	14691
583.603	15722
583.605	15744
583.660	15287
583.676	15324
583.715	15614
583.748	15930
583.770	16149
583.820	16455
583.825	16475
583.881	16035
583.893	15939
583.936	15670
583.965	15631
583.991	15426
584.038	16042
584.046	16202
584.101	15426
584.110	15530
584.156	15887
584.183	15553
584.211	15260
584.255	15943
584.266	16092
584.321	14999
584.328	15099
584.376	15934
584.400	15871
584.431	15830
584.472	15889
584.486	15833
584.541	16642
584.545	16621
584.596	16536
584.617	16427
584.651	16318
584.689	17071
584.706	17330
584.761	17267
584.762	17273
584.816	17756
584.834	17753
584.871	17621
584.906	17781
584.926	17852
584.978	17365
584.980	17361
585.035	18513
585.051	18758
585.090	19207
585.123	20236
585.145	20862
585.195	20800
585.200	20855
585.254	22226
585.267	22361
585.309	22126
585.340	23060
585.364	24150
585.412	25806
585.419	25989
585.473	27357
585.484	27686
585.528	30241
585.556	34058
585.583	41001
585.628	57183
585.637	63033
585.692	118396
585.700	128201
585.747	161162
585.772	134030
585.801	85455
585.845	38300
585.856	32597
585.910	26996
585.917	26325
585.965	24160
585.989	23711
586.019	23296
586.061	22563
586.074	22484
586.128	23352
586.133	23519
586.183	25684
586.205	25966
586.237	25715
586.277	24732
586.292	24430
586.346	24364
586.349	24374
586.401	24859
586.421	25113
586.455	25523
586.493	26525
586.509	28024
586.564	33392
586.565	33663
586.618	47711
586.637	48622
586.672	41788
586.709	32388
586.727	29729
586.781	28237
586.781	28236
586.835	28192
586.853	28069
586.889	27075
586.925	26073
586.944	26020
586.996	27423
586.998	27474
587.052	28677
587.068	29039
587.106	29393
587.140	29182
587.161	28981
587.212	29552
587.215	29627
587.269	31227
587.284	31611
587.323	32309
587.356	32675
587.377	32816
587.427	33564
587.431	33645
587.485	34521
587.499	34754
587.539	35947
587.571	37080
587.593	37583
587.643	39561
587.648	39783
587.702	40305
587.715	40997
587.755	43490
587.786	44475
587.810	45169
587.858	47593
587.864	47967
587.917	51403
587.930	52394
587.971	56450
588.001	59152
588.025	60762
588.073	64369
588.079	65176
588.133	72652
588.145	74577
588.187	81311
588.217	85969
588.241	90997
588.288	102302
588.295	104052
588.348	119966
588.360	123637
588.402	139045
588.431	150594
588.456	162153
588.503	186102
588.510	190215
588.564	226941
588.575	235621
588.617	276498
588.646	307243
588.671	347093
588.718	434570
588.725	457006
588.778	651878
588.789	698437
588.832	1002390
588.861	1225636
588.886	1436908
588.932	1789262
588.939	1794809
588.993	1687250
589.004	1685145
589.047	1503422
589.075	1296602
589.100	1082743
589.147	688565
589.154	660247
589.207	490874
589.218	461417
589.261	422968
589.290	405736
589.314	420728
589.361	465059
589.368	485427
589.421	677480
589.433	724687
589.475	1061961
589.504	1311792
589.528	1454865
589.576	1634091
589.582	1599769
589.635	1263521
589.647	1170618
589.689	773797
589.718	508139
589.742	415049
589.790	263792
589.795	255675
589.849	195058
589.861	182750
589.902	159190
589.932	141908
589.955	129831
590.004	105391
590.009	103909
590.062	90802
590.075	87801
590.115	81314
590.146	76358
590.168	73710
590.218	68319
590.222	67992
590.275	63867
590.289	62800
590.328	60250
590.360	58244
590.381	56717
590.431	53074
590.435	52978
590.488	51146
590.503	50860
590.541	50082
590.574	48950
590.594	48179
590.645	46446
590.647	46400
590.700	44697
590.716	44224
590.753	43054
590.787	41927
590.806	41661
590.859	41080
590.859	41086
590.912	40694
590.930	40536
590.965	39850
591.001	39283
591.018	39115
591.071	38731
591.072	38714
591.124	37988
591.143	37844
591.177	37812
591.214	37684
591.230	38120
591.283	39633
591.285	39672
591.336	39827
591.356	39961
591.389	40018
591.427	39684
591.442	38715
591.495	35139
591.498	34873
591.547	34688
591.569	34665
591.600	34518
591.640	34122
591.653	34298
591.706	35103
591.711	35177
591.759	35533
591.782	35756
591.811	36884
591.853	38379
591.864	37777
591.917	34539
591.924	34055
591.969	34387
591.995	34644
592.022	34400
592.066	33918
592.075	34226
592.127	36131
592.137	36474
592.180	38515
592.208	39766
592.233	37559
592.279	33209
592.285	33133
592.338	32538
592.350	32402
592.390	31783
592.421	31319
592.443	31467
592.491	31744
592.495	31753
592.548	31793
592.562	31801
592.600	31428
592.633	31100
592.653	31368
592.704	31887
592.705	32065
592.775	31853
592.846	31393
592.916	34376
592.987	35684
593.058	33942
593.128	31074
593.199	29703
593.270	29592
593.341	31082
593.411	31812
593.482	31487
593.553	30174
593.623	29695
593.694	29745
593.764	31587
593.835	30910
593.906	29641
593.976	29445
594.047	31225
594.117	35183
594.188	35109
594.258	30071
594.329	29071
594.399	30051
594.470	30294
594.540	31176
594.611	30450
594.681	30497
594.751	29942
594.822	32583
594.892	33451
594.963	33646
595.033	32234
595.103	33679
595.174	35510
595.244	44861
595.314	48828
595.384	33958
595.455	32787
595.525	34851
595.595	34932
595.665	36157
595.736	33663
595.806	34781
595.876	33759
595.946	33483
596.016	33398
596.087	35198
596.157	34654
596.227	35808
596.297	37013
596.367	38560
596.437	40619
596.507	47369
596.577	53078
596.647	40233
596.717	39087
596.787	39326
596.857	39576
596.927	39823
596.997	38839
597.067	39566
597.137	40397
597.207	40475
597.277	40181
597.347	40330
597.417	39117
597.487	41039
597.557	41110
597.626	41532
597.696	44096
597.766	46485
597.836	51274
597.906	40319
597.975	36614
598.045	37429
598.115	38391
598.185	40103
598.254	43531
598.324	47593
598.394	47400
598.464	46383
598.533	44054
598.603	42875
598.672	42627
598.742	41783
598.812	41524
598.881	41802
598.951	41581
599.020	40445
599.090	42251
599.159	42466
599.229	41766
599.299	40502
599.368	40903
599.437	40252
599.507	39012
599.576	38736
599.646	37545
599.715	37590
599.785	37549
599.854	38151
599.924	39154
599.993	37403
600.062	37216
600.132	37178
600.201	39785
600.270	46934
600.340	45184
600.409	44220
600.478	41933
600.547	43504
600.617	41094
600.686	36962
600.755	36056
600.824	36398
600.894	33144
600.963	30415
601.032	31247
601.101	30144
601.170	29662
601.239	29269
601.308	31254
601.378	31015
601.447	29583
601.516	30047
601.585	31188
601.654	33369
601.723	32129
601.792	30091
601.861	32099
601.930	35562
601.999	37712
602.068	34055
602.137	35445
602.206	35504
602.275	35001
602.343	41007
602.412	40607
602.481	33606
602.550	32514
602.619	33947
602.688	35096
602.756	32685
602.825	33347
602.894	33544
602.963	34127
603.032	33886
603.100	32566
603.169	34879
603.238	34787
603.307	33916
603.375	34629
603.444	35254
603.513	34470
603.581	35437
603.650	36052
603.719	34523
603.787	35141
603.856	36495
603.924	36594
603.993	39388
604.061	38298
604.130	41247
604.198	42263
604.267	41790
604.335	40579
604.404	41273
604.472	42361
604.541	41540
604.609	42221
604.678	42581
604.746	42984
604.815	43915
604.883	43489
604.951	44126
605.020	45177
605.088	45533
605.156	47693
605.225	46228
605.293	46969
605.361	47470
605.429	47454
605.498	49392
605.566	51210
605.634	51656
605.702	52464
605.771	53659
605.839	54137
605.907	52461
605.975	50820
606.043	49384
606.111	50305
606.180	49981
606.248	49129
606.316	49755
606.384	51453
606.452	57769
606.520	64225
606.588	55245
606.656	50904
606.724	50666
606.792	47385
606.860	43976
606.928	40949
606.996	39944
607.064	38177
607.132	40161
607.200	42709
607.267	42244
607.335	42418
607.403	44550
607.471	42522
607.539	41672
607.607	42195
607.674	38734
607.742	39618
607.810	41781
607.878	40303
607.946	39075
608.013	39541
608.081	41571
608.149	40570
608.216	41988
608.284	44277
608.352	42851
608.419	43112
608.487	49658
608.555	43330
608.622	43035
608.690	46416
608.757	48656
608.825	48960
608.893	48762
608.960	49533
609.028	49537
609.095	52456
609.163	46227
609.230	41717
609.298	39223
609.365	39992
609.432	42350
609.500	46219
609.567	53075
609.635	58620
609.702	59892
609.769	57587
609.837	49400
609.904	44107
609.971	45468
610.039	53576
610.106	73790
610.173	138877
610.241	317743
610.308	305140
610.375	178873
610.442	60638
610.509	46192
610.577	44443
610.644	44289
610.711	43207
610.778	45436
610.845	46286
610.912	49490
610.980	49885
611.047	50200
611.114	49165
611.181	46816
611.248	45503
611.315	51189
611.382	48878
611.449	50924
611.516	53239
611.583	52038
611.650	52726
611.717	53798
611.784	54067
611.851	58481
611.918	62198
611.984	75439
612.051	111713
612.118	230454
612.185	571452
612.252	293518
612.319	77262
612.386	65842
612.452	60280
612.519	60635
612.586	64668
612.653	60916
612.719	60506
612.786	58005
612.853	53445
612.919	51382
612.986	53937
613.053	49637
613.120	46143
613.186	45798
613.253	48558
613.319	45766
613.386	47699
613.453	47741
613.519	54785
613.586	63235
613.652	77262
613.719	66044
613.785	59807
613.852	49727
613.918	46353
613.985	48268
614.051	50171
614.118	52091
614.184	50176
614.250	48018
614.317	48308
614.383	47617
614.449	47933
614.516	48291
614.582	50060
614.648	47292
614.715	47778
614.781	47070
614.847	47816
614.914	46970
614.980	47488
615.046	46079
615.112	46968
615.179	46794
615.245	49185
615.311	51594
615.377	61308
615.443	61320
615.509	52357
615.575	52255
615.642	50497
615.708	53922
615.774	57300
615.840	62304
615.906	72010
615.972	95384
616.038	162966
616.104	317740
616.170	745960
616.236	525513
616.302	111035
616.368	83321
616.434	63631
616.500	61768
616.565	67385
616.631	75487
616.697	64261
616.763	70011
616.829	98591
616.895	165902
616.961	144894
617.026	67026
617.092	51526
617.158	51278
617.224	48460
617.289	47986
617.355	45615
617.421	45619
617.487	45177
617.552	43237
617.618	41889
617.684	41856
617.749	44200
617.815	40790
617.880	39455
617.946	41016
618.012	41607
618.077	41693
618.143	40794
618.208	42837
618.274	44595
618.339	44678
618.405	37622
618.470	39676
618.536	39781
618.601	41191
618.667	38101
618.732	36997
618.798	35258
618.863	36260
618.928	34982
618.994	37749
619.059	42367
619.124	56526
619.190	40828
619.255	35310
619.320	35698
619.386	35331
619.451	32954
619.516	33487
619.581	33975
619.647	35673
619.712	34375
619.777	32925
619.842	34556
619.907	35828
619.972	35482
620.038	35478
620.103	34468
620.168	32737
620.233	34800
620.298	33636
620.363	33318
620.428	34154
620.493	35678
620.558	35057
620.623	34512
620.688	35412
620.753	35753
620.818	35958
620.883	35631
620.948	35036
621.013	34969
621.078	34978
621.143	35299
621.207	38961
621.272	36374
621.337	38872
621.402	38176
621.467	44637
621.532	43655
621.596	38670
621.661	36035
621.726	36271
621.791	37344
621.855	39159
621.920	39725
621.985	39252
622.049	43623
622.114	40601
622.179	39873
622.243	40395
622.308	39114
622.373	42902
622.437	40188
622.502	37944
622.566	39428
622.631	38969
622.695	40565
622.760	40288
622.824	40408
622.889	40740
622.953	45442
623.018	64353
623.082	60091
623.147	41949
623.211	41579
623.276	42169
623.340	37489
623.404	37777
623.469	37145
623.533	37489
623.597	36738
623.662	36021
623.726	35322
623.790	33404
623.854	32028
623.919	33933
623.983	34009
624.047	35006
624.111	33746
624.176	35025
624.240	36196
624.304	37704
624.368	34905
624.432	34828
624.496	37276
624.560	41042
624.625	44131
624.689	37447
624.753	36923
624.817	36085
624.881	34295
624.945	33603
625.009	32988
625.073	34047
625.137	35846
625.201	46619
625.265	44674
625.329	35416
625.393	38248
625.456	35049
625.520	36304
625.584	39099
625.648	43453
625.712	56315
625.776	96877
625.839	102685
625.903	46025
625.967	34174
626.031	49390
626.095	64338
626.158	35442
626.222	27013
626.286	28019
626.349	25933
626.413	24678
626.477	29399
626.540	25868
626.604	25106
626.668	24380
626.731	24727
626.795	24840
626.858	24692
626.922	24291
626.986	24384
627.049	21717
627.113	24616
627.176	24911
627.240	23763
627.303	23605
627.366	23338
627.430	24518
627.493	23606
627.557	22991
627.620	24930
627.684	24202
627.747	24234
627.810	19916
627.874	22211
627.937	20356
628.000	24115
628.064	22592
628.127	18824
628.190	20631
628.253	20391
628.317	18951
628.380	19695
628.443	19778
628.506	19480
628.569	18174
628.632	17063
628.696	17818
628.759	16714
628.822	16702
628.885	17380
628.948	17524
629.011	18267
629.074	18351
629.137	16154
629.200	15395
629.263	18700
629.326	15855
629.389	15806
629.452	16754
629.515	16507
629.578	16171
629.641	18050
629.704	16778
629.767	18695
629.830	14984
629.892	15668
629.955	14992
630.018	19030
630.081	20459
630.144	26719
630.207	18538
630.269	19591
630.332	17155
630.395	16650
630.458	14966
630.520	13805
630.583	14907
630.646	14642
630.708	14974
630.771	13932
630.834	15685
630.896	14481
630.959	14376
631.021	14483
631.084	14508
631.146	16457
631.209	16839
631.272	14047
631.334	14546
631.397	14711
631.459	14476
631.522	15440
631.584	15935
631.646	16127
631.709	18513
631.771	22259
631.834	16778
631.896	15035
631.958	12510
632.021	14635
632.083	13074
632.145	14900
632.208	14246
632.270	15172
632.332	12501
632.395	12631
632.457	14562
632.519	12278
632.581	13597
632.643	11976
632.706	12546
632.768	11747
632.830	13194
632.892	13313
632.954	13083
633.016	13804
633.078	13202
633.141	12563
633.203	13506
633.265	12987
633.327	13444
633.389	13160
633.451	17108
633.513	19111
633.575	17016
633.637	19079
633.698	15766
633.760	13468
633.822	13455
633.884	13684
633.946	13037
634.008	13339
634.070	13379
634.132	14421
634.193	14103
634.255	15016
634.317	14867
634.379	16235
634.441	13648
634.502	13225
634.564	13395
634.626	12948
634.687	13174
634.749	12587
634.811	12060
634.873	11726
634.934	11973
634.996	12770
635.057	10846
635.119	10569
635.181	12195
635.242	13121
635.304	9692
635.365	14459
635.427	12548
635.488	12885
635.550	10899
635.611	12432
635.673	10717
635.734	14493
635.796	13191
635.857	15339
635.918	13141
635.980	14781
636.041	13418
636.102	15709
636.164	16109
636.225	16339
636.286	11077
636.348	13261
636.409	12691
636.470	11451
636.531	11062
636.593	13346
636.654	12376
636.715	11057
636.776	10364
636.838	10242
636.899	11981
636.960	10421
637.021	9797
637.082	9887
637.143	10576
637.204	9323
637.265	8719
637.326	10235
637.387	10598
637.448	8787
637.509	9813
637.570	9758
637.631	11105
637.692	9407
637.753	8637
637.814	10319
637.875	8932
637.936	10462
637.997	9352
638.058	9430
638.119	10705
638.179	9625
638.240	8579
638.301	9760
638.362	8238
638.423	9145
638.483	10808
638.544	7899
638.605	9919
638.666	8680
638.726	8904
638.787	9525
638.848	8127
638.908	7157
638.969	8789
639.030	9301
639.090	8088
639.151	9375
639.211	11322
639.272	15462
639.332	25854
639.393	12701
639.453	7970
639.514	9650
639.574	8402
639.635	8482
639.695	8746
639.756	8497
639.816	10241
639.877	13190
639.937	25829
639.997	30549
640.058	9600
640.118	8065
640.178	8962
640.239	7902
640.299	7429
640.359	7265
640.420	8096
640.480	8939
640.540	8386
640.600	8891
640.661	9388
640.721	8678
640.781	13357
640.841	7289
640.901	8830
640.961	9323
641.021	9683
641.082	11828
641.142	19040
641.202	11175
641.262	6093
641.322	8253
641.382	6777
641.442	8865
641.502	7682
641.562	8725
641.622	6919
641.682	8412
641.742	8145
641.802	8613
641.861	8574
641.921	9238
641.981	11838
642.041	11411
642.101	14063
642.161	8958
642.221	6687
642.280	7521
642.340	6261
642.400	5675
642.460	8000
642.519	6667
642.579	7254
642.639	8640
642.698	4433
642.758	8733
642.818	7798
642.877	7359
642.937	7735
642.997	11163
643.056	16463
643.116	8581
643.175	9107
643.235	7408
643.294	7462
643.354	8368
643.414	8688
643.473	10845
643.532	12117
643.592	17381
643.651	27660
643.711	47919
643.770	93926
643.830	234991
643.889	465488
643.948	87567
644.008	17023
644.067	11534
644.126	9003
644.186	8593
644.245	8649
644.304	6728
644.363	8511
644.423	5861
644.482	7213
644.541	7766
644.600	6100
644.659	9258
644.719	10543
644.778	14940
644.837	22590
644.896	43788
644.955	92338
645.014	27523
645.073	9444
645.132	8080
645.191	8204
645.250	6988
645.309	9141
645.368	7585
645.427	9469
645.486	11425
645.545	19750
645.604	7804
645.663	7895
645.722	7001
645.781	8466
645.840	9266
645.898	10928
645.957	16664
646.016	22108
646.075	42351
646.134	80549
646.192	226178
646.251	299337
646.310	37938
646.369	12499
646.427	9881
646.486	7744
646.545	7495
646.603	7046
646.662	7048
646.721	6830
646.779	5831
646.838	6698
646.896	10022
646.955	9355
647.014	14262
647.072	23775
647.131	58052
647.189	24348
647.248	6293
647.306	7099
647.365	6992
647.423	4244
647.481	7811
647.540	3927
647.598	5814
647.657	4542
647.715	5863
647.773	4539
647.832	5739
647.890	4160
647.948	4631
648.007	6242
648.065	4040
648.123	5257
648.181	7669
648.240	4733
648.298	4849
648.356	4640
648.414	6022
648.472	4915
648.531	4783
648.589	5148
648.647	4667
648.705	4582
648.763	4957
648.821	4834
648.879	5631
648.937	5892
648.995	7083
649.053	9174
649.111	11858
649.169	17754
649.227	31819
649.285	65180
649.343	178769
649.401	78165
649.459	37514
649.516	20374
649.574	7649
649.632	8046
649.690	7444
649.748	8415
649.806	8788
649.863	16307
649.921	41191
649.979	24534
650.037	6070
650.094	3672
650.152	5368
650.210	4366
650.268	5144
650.325	3978
650.383	4151
650.440	2940
650.498	4232
650.556	4753
650.613	3286
650.671	5051
650.728	4479
650.786	4324
650.843	4287
650.901	2611
650.958	5039
651.016	2771
651.073	4165
651.131	4108
651.188	3001
651.246	3921
651.303	3256
651.360	4150
651.418	3713
651.475	4121
651.532	3607
651.590	4067
651.647	3504
651.704	3205
651.762	3679
651.819	4123
651.876	2955
651.933	3412
651.990	3365
652.048	1905
652.105	3767
652.162	4435
652.219	2634
652.276	3803
652.333	3431
652.390	3428
652.448	4191
652.505	4199
652.562	3071
652.619	3876
652.676	4017
652.733	3888
652.790	2788
652.847	2581
652.904	3400
652.961	2555
653.017	3143
653.074	3936
653.131	4419
653.188	2702
653.245	3245
653.302	3039
653.359	3816
653.415	3429
653.472	2976
653.529	3743
653.586	2171
653.642	2219
653.699	3683
653.756	2609
653.813	3328
653.869	3236
653.926	2727
653.983	2572
654.039	2933
654.096	2705
654.152	3537
654.209	2078
654.266	2615
654.322	2279
654.379	3843
654.435	4868
654.492	4820
654.548	7497
654.605	11597
654.661	5839
654.717	3806
654.774	3174
654.830	3554
654.887	3966
654.943	3685
655.000	3481
655.056	4574
655.112	3622
655.168	3141
655.225	2915
655.281	4902
655.337	5841
655.394	7982
655.450	6314
655.506	5935
655.562	7425
655.618	7060
655.675	2886
655.731	3586
655.787	2843
655.843	3810
655.899	3152
655.955	4146
656.011	3352
656.067	2285
656.123	3843
656.179	3914
656.235	4631
656.291	2323
656.347	4008
656.403	3469
656.459	3792
656.515	4703
656.571	3903
656.627	3818
656.683	3165
656.739	3849
656.795	4126
656.850	4819
656.906	5450
656.962	4582
657.018	2048
657.074	2763
657.129	4043
657.185	4496
657.241	7371
657.297	4510
657.352	4060
657.408	2637
657.464	5463
657.519	3021
657.575	1923
657.630	3045
657.686	2210
657.742	2518
657.797	2519
657.853	2811
657.908	2923
657.964	2699
658.019	2701
658.075	3029
658.130	3524
658.186	2341
658.241	2920
658.297	2342
658.352	2726
658.407	2651
658.463	1823
658.518	3226
658.573	2995
658.629	2497
658.684	2696
658.739	3004
658.795	1997
658.850	3037
658.905	2080
658.960	3528
659.016	2019
659.071	3740
659.126	3564
659.181	3929
659.236	9049
659.291	9351
659.346	4326
659.401	4115
659.457	2836
659.512	1381
659.567	4030
659.622	3304
659.677	3210
659.732	2565
659.787	3609
659.842	2861
659.897	4191
659.952	3748
660.007	3081
660.061	3180
660.116	2017
660.171	1978
660.226	2911
660.281	3999
660.336	2879
660.391	2797
660.445	2310
660.500	2612
660.555	3428
660.610	3277
660.664	2804
660.719	2456
660.774	3460
660.828	3215
660.883	3752
660.938	3604
660.992	2360
661.047	3486
661.101	2437
661.156	2850
661.211	1595
661.265	2582
661.320	2238
661.374	3664
661.429	1944
661.483	3953
661.538	1806
661.592	2263
661.647	2138
661.701	2354
661.755	2784
661.810	2654
661.864	2397
661.919	2455
661.973	3236
662.027	2246
662.081	2061
662.136	2679
662.190	3142
662.244	2569
662.299	1898
662.353	3207
662.407	2914
662.461	2942
662.515	3511
662.569	2306
662.624	2993
662.678	2748
662.732	2751
662.786	2884
662.840	2698
662.894	3089
662.948	2670
663.002	2653
663.056	2760
663.110	2370
663.164	2587
663.218	2166
663.272	2999
663.326	4286
663.380	3401
663.434	3081
663.488	2230
663.542	3232
663.595	3390
663.649	2721
663.703	2815
663.757	3067
663.811	2242
663.864	2642
663.918	2392
663.972	2826
664.026	2083
664.079	2751
664.133	3413
664.187	2814
664.240	2276
664.294	3019
664.348	2723
664.401	3127
664.455	2062
664.508	2450
664.562	2668
664.615	2677
664.669	1427
664.722	3454
664.776	1634
664.829	2684
664.883	2700
664.936	3142
664.990	3682
665.043	3188
665.097	2784
665.150	4049
665.203	2766
665.257	2798
665.310	2522
665.363	2606
665.417	3204
665.470	3407
665.523	2886
665.576	3026
665.630	3376
665.683	3380
665.736	3270
665.789	3330
665.842	2754
665.895	3281
665.949	2534
666.002	2364
666.055	3041
666.108	3711
666.161	2405
666.214	3545
666.267	3853
666.320	4662
666.373	3141
666.426	3041
666.479	3604
666.532	3847
666.585	4267
666.638	3916
666.691	3669
666.744	3327
666.796	2984
666.849	3883
666.902	3931
666.955	2903
667.008	3039
667.060	2490
667.113	1885
667.166	2855
667.219	2933
667.271	3702
667.324	2642
667.377	2767
667.430	3857
667.482	3264
667.535	3833
667.587	3137
667.640	3563
667.693	4677
667.745	9891
667.798	8977
667.850	3927
667.903	3505
667.955	2701
668.008	3217
668.060	3503
668.113	3782
668.165	3619
668.218	3182
668.270	3891
668.322	4269
668.375	2998
668.427	3194
668.479	2870
668.532	3421
668.584	3700
668.636	3289
668.689	3021
668.741	3179
668.793	3676
668.845	3551
668.898	3499
668.950	3023
669.002	3475
669.054	3091
669.106	3929
669.158	4245
669.211	3751
669.263	3352
669.315	3457
669.367	4024
669.419	4184
669.471	5819
669.523	6445
669.575	7172
669.627	5694
669.679	4204
669.731	4397
669.783	5904
669.835	5867
669.886	5066
669.938	5576
669.990	4765
670.042	5481
670.094	6228
670.146	6327
670.197	8555
670.249	11043
670.301	12381
670.353	17735
670.404	26080
670.456	37509
670.508	57676
670.560	92459
670.611	151661
670.663	266876
670.715	585925
670.766	791382
670.818	306096
670.869	70146
670.921	33959
670.972	21676
671.024	15820
671.075	12627
671.127	10309
671.178	8336
671.230	8595
671.281	6675
671.333	6195
671.384	5928
671.436	6647
671.487	7317
671.538	7394
671.590	9185
671.641	10858
671.692	17372
671.744	28123
671.795	16945
671.846	7309
671.897	6324
671.949	4515
672.000	4532
672.051	4512
672.102	4791
672.153	3809
672.204	3967
672.256	3724
672.307	4003
672.358	4049
672.409	3655
672.460	3256
672.511	3794
672.562	4297
672.613	3649
672.664	3471
672.715	3913
672.766	3354
672.817	3107
672.868	3309
672.919	3818
672.970	3826
673.021	3188
673.071	2365
673.122	3230
673.173	3385
673.224	3193
673.275	3936
673.326	3098
673.376	3206
673.427	2925
673.478	2591
673.528	3506
673.579	2340
673.630	2946
673.680	3191
673.731	2438
673.782	3166
673.832	2699
673.883	3356
673.934	3307
673.984	2417
674.035	2865
674.085	3370
674.136	2496
674.186	3376
674.237	3757
674.287	5138
674.338	3273
674.388	3301
674.438	1786
674.489	3120
674.539	3196
674.589	2966
674.640	2439
674.690	3554
674.740	2832
674.791	3626
674.841	4103
674.891	3427
674.942	2947
674.992	3063
675.042	2550
675.092	3151
675.142	2306
675.193	2902
675.243	2786
675.293	2408
675.343	2196
675.393	2757
675.443	3194
675.493	2795
675.543	2199
675.593	2932
675.643	2326
675.693	2867
675.743	2112
675.793	2739
675.843	2225
675.893	2698
675.943	2718
675.993	2440
676.043	2080
676.093	2619
676.142	2360
676.192	2475
676.242	2562
676.292	1873
676.341	2016
676.391	2667
676.441	2293
676.491	1970
676.540	2547
676.590	2618
676.640	1875
676.689	2521
676.739	772
676.789	2781
676.838	1435
676.888	2642
676.937	2223
676.987	2289
677.037	1350
677.086	1096
677.136	1683
677.185	1866
677.235	1651
677.284	2426
677.333	1874
677.383	2420
677.432	1834
677.482	1880
677.531	2117
677.580	1589
677.630	1049
677.679	1398
677.728	1696
677.778	2497
677.827	2085
677.876	1939
677.925	1911
677.975	2571
678.024	1709
678.073	1783
678.122	1967
678.171	2270
678.220	1625
678.269	2695
678.319	2852
678.368	1952
678.417	2547
678.466	2320
678.515	2615
678.564	2719
678.613	2652
678.662	1662
678.711	2722
678.760	1918
678.809	1602
678.857	2419
678.906	2354
678.955	1834
679.004	2727
679.053	1535
679.102	2247
679.151	1727
679.199	2197
679.248	2152
679.297	2137
679.346	2057
679.394	1685
679.443	2692
679.492	1707
679.540	1927
679.589	2280
679.638	1653
679.686	2465
679.735	2010
679.784	2198
679.832	2095
679.881	1827
679.929	1662
679.978	1955
680.026	2125
680.075	2403
680.123	1156
680.172	1112
680.220	1037
680.268	1497
680.317	1984
680.365	1781
680.414	1045
680.462	1646
680.510	2126
680.559	1725
680.607	1529
680.655	975
680.703	2095
680.752	2067
680.800	1109
680.848	1448
680.896	941
680.945	2138
680.993	1137
681.041	1761
681.089	953
681.137	1984
681.185	1964
681.233	1268
681.258	1276
681.281	1251
681.329	987
681.377	2081
681.380	2082
681.425	1473
681.473	2886
681.502	2033
681.521	1378
681.569	2359
681.617	1926
681.624	1958
681.665	1910
681.713	2826
681.745	2730
681.761	2632
681.809	1794
681.857	2871
681.867	2799
681.904	2446
681.952	3505
681.989	2877
682.000	2636
682.048	2444
682.096	3039
682.111	2957
682.143	2676
682.191	2679
682.233	3247
682.239	3301
682.286	3428
682.334	3369
682.354	3187
682.382	2869
682.430	3362
682.476	3185
682.477	3152
682.525	3066
682.572	3130
682.598	3126
682.620	3115
682.667	3440
682.715	3819
682.720	3857
682.763	3815
682.810	4818
682.841	4456
682.857	4206
682.905	3508
682.952	4478
682.963	4400
683.000	4047
683.047	4302
683.085	4788
683.095	4886
683.142	4400
683.190	3555
683.206	3695
683.237	3948
683.284	4095
683.328	4474
683.332	4465
683.379	5168
683.426	3945
683.449	4413
683.473	4915
683.521	4444
683.568	4688
683.571	4720
683.615	4749
683.662	4458
683.693	4705
683.709	4797
683.757	4283
683.804	5039
683.814	4914
683.851	4475
683.898	5082
683.936	5697
683.945	5823
683.992	6117
684.039	6453
684.057	6182
684.086	5687
684.133	6052
684.179	5885
684.180	5851
684.227	6895
684.274	6496
684.300	6616
684.321	6643
684.368	5334
684.415	5908
684.422	5859
684.462	5493
684.509	5962
684.543	5720
684.556	5641
684.603	5648
684.649	5841
684.665	6019
684.696	6372
684.743	6592
684.786	6565
684.790	6548
684.837	6693
684.883	7068
684.908	7374
684.930	7555
684.977	7488
685.023	7244
685.029	7235
685.070	6981
685.117	6813
685.150	6860
685.164	6942
685.210	7706
685.257	8237
685.272	8122
685.303	7705
685.350	7681
685.393	7930
685.396	7957
685.443	8696
685.490	9318
685.514	9474
685.536	9241
685.583	8410
685.629	8815
685.636	8678
685.675	8122
685.722	8265
685.757	8472
685.768	8540
685.815	8301
685.861	8752
685.878	8841
685.908	8953
685.954	9079
686.000	9201
686.000	9203
686.047	9696
686.093	10753
686.121	10977
686.139	10672
686.185	10176
686.232	9119
686.242	9160
686.278	9339
686.324	8845
686.363	8336
686.370	8322
686.416	8222
686.463	9024
686.484	8893
686.509	8639
686.555	8511
686.601	8221
686.606	8296
686.647	9082
686.693	8709
686.727	8716
686.739	8685
686.785	8940
686.831	8729
686.848	8852
686.877	8997
686.923	8451
686.969	8218
686.969	8216
687.015	8183
687.061	9040
687.090	9135
687.107	9110
687.153	9499
687.199	9478
687.211	9424
687.245	9514
687.291	10133
687.332	10217
687.336	10193
687.382	9998
687.428	9658
687.453	9878
687.474	10019
687.520	9799
687.565	9654
687.574	9643
687.611	9621
687.657	9445
687.695	9232
687.702	9291
687.748	9484
687.794	10608
687.816	10703
687.839	10441
687.885	10045
687.931	9928
687.937	9933
687.976	10335
688.022	9961
688.058	10278
688.067	10327
688.113	10183
688.158	9944
688.179	9869
688.204	9822
688.249	10431
688.295	10618
688.300	10564
688.340	10532
688.386	11609
688.421	11390
688.431	11204
688.477	11272
688.522	10477
688.542	10584
688.567	10908
688.613	11240
688.658	10684
688.663	10720
688.703	11152
688.749	11411
688.784	11280
688.794	11209
688.839	11337
688.884	11513
688.905	11305
688.930	11038
688.975	11000
689.020	11142
689.026	11071
689.065	10848
689.110	11307
689.146	11301
689.155	11279
689.201	11196
689.246	11118
689.267	11070
689.291	11156
689.336	11052
689.381	11298
689.388	11266
689.426	11026
689.471	11373
689.509	11373
689.516	11395
689.561	11097
689.606	11284
689.630	11272
689.651	11337
689.696	11121
689.741	11591
689.750	11587
689.785	11525
689.830	11561
689.871	10817
689.875	10748
689.920	11288
689.965	11062
689.992	10921
690.010	10996
690.054	10978
690.099	11318
690.112	11424
690.144	11624
690.189	11281
690.233	11280
690.233	11296
690.278	11873
690.323	11729
690.354	11621
690.367	11611
690.412	11510
690.457	11747
690.474	11921
690.501	11985
690.546	11496
690.590	10872
690.595	10840
690.635	11103
690.680	10904
690.716	11193
690.724	11310
690.769	11392
690.813	11727
690.836	11592
690.857	11507
690.902	12258
690.946	11877
690.957	11948
690.991	12213
691.035	12941
691.077	13025
691.080	13065
691.124	13460
691.168	13929
691.198	14214
691.213	14203
691.257	14108
691.301	13916
691.318	13776
691.346	13432
691.390	12931
691.434	12504
691.439	12449
691.478	12919
691.522	13220
691.559	13573
691.567	13658
691.611	14232
691.655	14224
691.680	14307
691.699	14149
691.743	13933
691.787	13443
691.800	13368
691.831	13675
691.875	13899
691.919	14108
691.921	14087
691.964	14151
692.008	14790
692.041	14472
692.052	14394
692.096	14518
692.139	14920
692.162	14443
692.183	13964
692.227	14717
692.271	14428
692.282	14351
692.315	14164
692.359	14043
692.402	14203
692.403	14234
692.447	14125
692.490	14341
692.523	14479
692.534	14540
692.578	14930
692.622	14829
692.643	14886
692.666	14717
692.709	14243
692.753	13729
692.763	13666
692.797	13983
692.840	14021
692.884	13993
692.884	14024
692.928	14247
692.971	14439
693.004	14471
693.015	14453
693.059	14470
693.102	14307
693.124	14249
693.146	14375
693.189	14416
693.233	14787
693.245	14788
693.276	14975
693.320	15314
693.363	15313
693.365	15289
693.407	15310
693.450	15398
693.485	15115
693.493	15138
693.537	15564
693.580	15790
693.605	15949
693.624	15991
693.667	15481
693.710	15459
693.725	15390
693.753	15722
693.797	16221
693.840	16767
693.845	16782
693.883	16426
693.926	15864
693.966	15275
693.970	15259
694.013	15012
694.056	14671
694.086	14399
694.099	14615
694.142	15198
694.185	15660
694.206	15923
694.229	16106
694.272	16394
694.315	16683
694.326	16621
694.358	17025
694.401	18000
694.444	18793
694.446	18789
694.487	18476
694.530	17910
694.566	17639
694.573	17558
694.616	16718
694.659	15734
694.686	15160
694.702	15170
694.745	15053
694.787	14986
694.806	14941
694.830	15061
694.873	14969
694.916	14981
694.926	14947
694.959	15142
695.002	15444
695.044	15700
695.046	15680
695.087	15848
695.130	15645
695.166	15414
695.172	15461
695.215	15724
695.258	15896
695.286	15946
695.301	15953
695.343	15980
695.386	16100
695.406	15918
695.428	15571
695.471	15264
695.514	14580
695.526	14452
695.556	14803
695.599	15081
695.641	15330
695.646	15329
695.684	15511
695.726	15537
695.766	15415
695.769	15440
695.811	15440
695.854	15445
695.886	15415
695.896	15567
695.938	16038
695.981	16282
696.005	16490
696.023	16427
696.065	16147
696.108	15828
696.125	15673
696.150	15864
696.192	16061
696.235	16200
696.245	16246
696.277	16224
696.319	15883
696.361	15722
696.365	15662
696.404	15649
696.446	15672
696.485	15582
696.488	15652
696.530	15969
696.572	16408
696.604	16605
696.614	16589
696.656	16363
696.698	16264
696.724	16041
696.740	16061
696.783	16104
696.825	16172
696.844	16179
696.867	16180
696.909	15958
696.951	15785
696.964	15710
696.992	15784
697.034	15789
697.076	15755
697.083	15715
697.118	16032
697.160	16323
697.202	16574
697.203	16539
697.244	16566
697.286	16452
697.323	16221
697.327	16300
697.369	16698
697.411	17035
697.442	17342
697.453	17471
697.494	17692
697.536	17893
697.562	18016
697.578	18047
697.620	17986
697.661	17839
697.682	17782
697.703	18041
697.744	18449
697.786	18878
697.801	18914
697.828	19001
697.869	19177
697.911	19300
697.921	19300
697.952	18672
697.994	17700
698.035	16831
698.040	16663
698.077	16643
698.118	16649
698.160	16638
698.160	16592
698.201	17282
698.243	17953
698.279	18508
698.284	18541
698.325	18348
698.367	18195
698.399	18007
698.408	17946
698.449	17444
698.491	16948
698.518	16567
698.532	16713
698.573	16970
698.614	17304
698.638	17434
698.656	17485
698.697	17482
698.738	17487
698.757	17444
698.779	17705
698.820	18088
698.862	18490
698.877	18585
698.903	18654
698.944	18689
698.985	18722
698.996	18680
699.026	18302
699.067	17708
699.116	16953
699.235	18364
699.354	17083
699.474	18503
699.593	18767
699.713	18628
699.832	18427
699.951	19302
700.070	18100
700.190	17582
700.309	17818
700.428	18461
700.547	17460
700.667	17633
700.786	19141
700.905	17166
701.024	18229
701.143	16823
701.262	14472
701.381	16638
701.500	17537
701.619	19742
701.738	16142
701.857	14953
701.976	15552
702.095	15937
702.214	17963
702.333	18830
702.452	17422
702.571	15500
702.690	15674
702.809	15644
702.928	15456
703.047	15524
703.165	15192
703.284	15518
703.403	15568
703.522	17167
703.640	17000
703.759	20369
703.878	24160
703.997	15278
704.115	15082
704.234	14329
704.353	15150
704.471	13729
704.590	14224
704.708	13938
704.827	13992
704.946	14623
705.064	14393
705.183	14604
705.301	17202
705.420	21853
705.538	19622
705.656	16611
705.775	16748
705.893	17765
706.012	17932
706.130	17900
706.249	17482
706.367	18702
706.485	19251
706.604	18381
706.722	19357
706.840	22958
706.958	19482
707.077	17380
707.195	16855
707.313	16009
707.431	15819
707.549	15562
707.668	16575
707.786	17531
707.904	16315
708.022	15331
708.140	15372
708.258	16028
708.376	15653
708.494	16402
708.612	17891
708.730	24139
708.848	22041
708.966	21447
709.084	19797
709.202	19370
709.320	19925
709.438	19170
709.556	19195
709.674	18882
709.791	19641
709.909	18680
710.027	18111
710.145	18282
710.263	18680
710.380	18113
710.498	17907
710.616	18167
710.733	18635
710.851	18874
710.969	19494
711.086	18375
711.204	18665
711.322	17827
711.439	18473
711.557	18155
711.674	17142
711.792	17756
711.909	16774
712.027	16314
712.144	17477
712.262	17152
712.379	19453
712.497	26500
712.614	24837
712.732	21722
712.849	20966
712.966	23975
713.084	28663
713.201	21652
713.318	21298
713.436	19886
713.553	20973
713.670	21571
713.787	22997
713.905	23118
714.022	20502
714.139	20099
714.256	23423
714.373	27698
714.490	37531
714.608	84331
714.725	327597
714.842	262365
714.959	29541
715.076	21946
715.193	19665
715.310	18600
715.427	18152
715.544	18595
715.661	18281
715.778	18355
715.895	18961
716.011	19334
716.128	17959
716.245	17704
716.362	24423
716.479	21906
716.596	17391
716.713	17981
716.829	18115
716.946	17393
717.063	16790
717.180	16955
717.296	15885
717.413	16799
717.530	15938
717.646	16506
717.763	15480
717.880	16056
717.996	15532
718.113	17677
718.229	15963
718.346	15486
718.462	17236
718.579	22926
718.695	40320
718.812	25124
718.928	21665
719.045	16118
719.161	15049
719.277	14447
719.394	14627
719.510	15667
719.626	14873
719.743	18079
719.859	19868
719.975	28488
720.092	92987
720.208	167360
720.324	25309
720.440	15865
720.557	19326
720.673	30708
720.789	35829
720.905	61813
721.021	21611
721.137	14340
721.253	15140
721.369	15711
721.486	16671
721.602	20513
721.718	13935
721.834	13277
721.950	13973
722.066	13333
722.181	13090
722.297	14885
722.413	12513
722.529	13684
722.645	12058
722.761	12017
722.877	11695
722.993	11605
723.108	12994
723.224	11710
723.340	12156
723.456	11592
723.571	12199
723.687	11548
723.803	12301
723.918	12183
724.034	12095
724.150	11850
724.265	13836
724.381	26947
724.497	27830
724.612	10603
724.728	11453
724.843	11313
724.959	13684
725.074	25223
725.190	24605
725.305	12763
725.421	10935
725.536	10734
725.651	10963
725.767	10436
725.882	10429
725.997	10363
726.113	10841
726.228	10393
726.343	10115
726.459	10087
726.574	9817
726.689	9544
726.804	10127
726.920	9409
727.035	10696
727.150	10682
727.265	9376
727.380	10340
727.495	10935
727.610	9169
727.725	9846
727.841	9658
727.956	9174
728.071	11314
728.186	9778
728.301	8808
728.416	9947
728.531	10257
728.645	8611
728.760	10545
728.875	11738
728.990	10171
729.105	10240
729.220	11422
729.335	10218
729.449	9395
729.564	8554
729.679	7894
729.794	8817
729.908	10069
730.023	9831
730.138	7504
730.253	8660
730.367	8338
730.482	8473
730.596	9325
730.711	9460
730.826	9677
730.940	8805
731.055	10176
731.169	8525
731.284	7955
731.398	8357
731.513	9527
731.627	9319
731.742	10385
731.856	10875
731.970	8984
732.085	9620
732.199	10811
732.313	15470
732.428	33114
732.542	91021
732.656	45590
732.771	12291
732.885	9270
732.999	9851
733.113	8826
733.227	9194
733.342	8071
733.456	8370
733.570	7839
733.684	7838
733.798	8187
733.912	7913
734.026	7049
734.140	8390
734.254	8625
734.368	15702
734.482	16066
734.596	7973
734.710	8179
734.824	7476
734.938	7397
735.052	8134
735.166	8955
735.280	8003
735.393	8048
735.507	8299
735.621	10974
735.735	16974
735.849	8291
735.962	7504
736.076	8444
736.190	8539
736.303	11766
736.417	12544
736.531	6508
736.644	7505
736.758	6461
736.872	6859
736.985	6723
737.099	6878
737.212	7440
737.326	7654
737.439	6817
737.553	7059
737.666	6804
737.780	6928
737.893	6727
738.007	6892
738.120	7048
738.233	6860
738.347	6651
738.460	6232
738.573	8657
738.687	7314
738.800	8717
738.913	10662
739.026	7856
739.140	7169
739.253	5690
739.366	6715
739.479	5629
739.592	6293
739.705	5884
739.818	5737
739.932	6504
740.045	6379
740.158	7435
740.271	7231
740.384	5817
740.497	6298
740.610	7287
740.723	6915
740.836	6932
740.949	8368
741.062	12056
741.174	8727
741.287	6048
741.400	6551
741.513	7391
741.626	7146
741.739	6835
741.851	7217
741.964	6081
742.077	6427
742.189	7166
742.302	6798
742.415	6618
742.527	6139
742.640	5015
742.753	5293
742.865	5337
742.978	6387
743.090	5827
743.203	5522
743.316	5505
743.428	5009
743.541	5510
743.653	5415
743.766	4889
743.878	5319
743.990	7873
744.103	7148
744.215	6449
744.327	6110
744.440	9410
744.552	14332
744.664	6748
744.777	5845
744.889	5060
745.001	5585
745.113	5130
745.226	5755
745.338	5387
745.450	5912
745.562	5057
745.674	4813
745.786	5707
745.898	4832
746.010	4281
746.122	4780
746.234	4859
746.347	5091
746.459	4325
746.570	5071
746.682	6119
746.794	5493
746.906	3825
747.018	4793
747.130	5397
747.242	5441
747.354	5169
747.466	5845
747.577	5034
747.689	5137
747.801	4355
747.913	4012
748.024	3947
748.136	4456
748.248	5488
748.359	4961
748.471	5677
748.583	5081
748.694	4382
748.806	5318
748.918	6770
749.029	5596
749.141	6179
749.252	6380
749.364	8147
749.475	17000
749.587	8881
749.698	4570
749.809	5319
749.921	4450
750.032	4160
750.144	3750
750.255	3751
750.366	4374
750.478	3969
750.589	5055
750.700	4753
750.811	6128
750.923	8826
751.034	20149
751.145	15732
751.256	4387
751.367	4154
751.479	4226
751.590	3526
751.701	3600
751.812	2932
751.923	4391
752.034	3756
752.145	3849
752.256	3778
752.367	4293
752.478	3843
752.589	3651
752.700	4032
752.811	4114
752.922	4118
753.032	4564
753.143	5470
753.254	3657
753.365	3798
753.476	3826
753.586	3681
753.697	3683
753.808	3866
753.919	3588
754.029	3750
754.140	3870
754.251	3235
754.361	3641
754.472	3625
754.582	3393
754.693	3820
754.804	3703
754.914	3251
755.025	3415
755.135	3762
755.246	3371
755.356	2868
755.466	3282
755.577	3097
755.687	3787
755.798	3175
755.908	4450
756.018	2965
756.129	3553
756.239	3657
756.349	3993
756.460	3922
756.570	4184
756.680	3812
756.790	4509
756.900	5780
757.011	3316
757.121	3998
757.231	3120
757.341	3987
757.451	3755
757.561	3060
757.671	3756
757.781	3252
757.891	3566
758.001	3023
758.111	3463
758.221	3752
758.331	5327
758.441	5415
758.551	7454
758.661	6376
758.771	4614
758.880	3638
758.990	3997
759.100	4402
759.210	3895
759.320	4515
759.429	3976
759.539	3872
759.649	4568
759.758	4134
759.868	4999
759.978	4239
760.087	4233
760.197	4438
760.307	4138
760.416	4196
760.526	3329
760.635	4711
760.745	3350
760.854	3735
760.964	4690
761.073	3844
761.182	4275
761.292	4205
761.401	4869
761.511	3619
761.620	3911
761.729	3961
761.839	3570
761.948	4896
762.057	4793
762.166	3973
762.276	3595
762.385	4614
762.494	3651
762.603	3708
762.712	5241
762.822	4232
762.931	4491
763.040	3236
763.149	3318
763.258	3875
763.367	3723
763.476	3045
763.585	3756
763.694	3606
763.803	3889
763.912	4665
764.021	4824
764.130	3269
764.238	3609
764.347	2948
764.456	3842
764.565	4394
764.674	3531
764.783	3878
764.891	3378
765.000	5186
765.109	4235
765.217	4324
765.326	5869
765.435	6324
765.543	6002
765.652	5093
765.761	7105
765.869	7932
765.978	11087
766.086	17710
766.195	34074
766.303	102318
766.412	348262
766.520	239501
766.629	36814
766.737	14839
766.846	9493
766.954	8072
767.062	7833
767.171	5687
767.279	6522
767.387	4842
767.496	5643
767.604	4609
767.712	5135
767.820	5154
767.928	4450
768.037	4621
768.145	5047
768.253	4875
768.361	4102
768.469	4194
768.577	4346
768.685	4868
768.793	4154
768.901	4742
769.009	4904
769.117	4678
769.225	4852
769.333	7027
769.441	8882
769.549	15611
769.657	34398
769.765	132052
769.873	279122
769.981	58438
770.088	11477
770.196	7008
770.304	6671
770.412	6107
770.519	5345
770.627	4692
770.735	4605
770.842	4434
770.950	5381
771.058	4695
771.165	4860
771.273	3665
771.380	4380
771.488	4619
771.595	3700
771.703	3396
771.810	4780
771.918	4200
772.025	5017
772.133	4917
772.240	4395
772.348	5035
772.455	4861
772.562	3489
772.670	4067
772.777	5167
772.884	4319
772.991	4112
773.099	3926
773.206	3320
773.313	4245
773.420	4185
773.528	2984
773.635	3763
773.742	4579
773.849	3850
773.956	3615
774.063	3921
774.170	4097
774.277	4407
774.384	4095
774.491	3936
774.598	4173
774.705	4987
774.812	6220
774.919	5117
775.026	5170
775.133	4365
775.239	4198
775.346	3654
775.453	3939
775.560	3702
775.667	4563
775.773	2658
775.880	4984
775.987	4255
776.093	3442
776.200	3551
776.307	4370
776.413	4331
776.520	3747
776.627	4437
776.733	3688
776.840	2554
776.946	5344
777.053	4643
777.159	5364
777.266	2797
777.372	6113
777.478	3404
777.585	3699
777.691	2963
777.798	4212
777.904	5329
778.010	7883
778.117	6266
778.223	3888
778.329	3693
778.435	4112
778.542	4162
778.648	3171
778.754	2056
778.860	4068
778.966	3686
779.072	3765
779.178	3694
779.284	3839
779.391	2972
779.497	2930
779.603	4880
779.708	3230
779.815	4481
779.920	5446
780.026	7693
780.132	4536
780.238	2979
780.344	3012
780.450	3955
780.556	3027
780.661	2549
780.767	3488
780.873	3351
780.979	3868
781.085	2895
781.190	3532
781.296	3158
781.402	2827
781.507	2671
781.613	3225
781.719	2850
781.824	3590
781.930	3208
782.035	3342
782.141	3576
782.246	3056
782.352	4170
782.457	3109
782.563	2750
782.668	3615
782.773	3468
782.879	2738
782.984	3962
783.090	4637
783.195	8703
783.300	4927
783.405	3724
783.511	3713
783.616	4651
783.721	2962
783.826	2704
783.932	4511
784.037	3338
784.142	3585
784.247	2830
784.352	3092
784.457	2815
784.562	3798
784.667	2935
784.772	3481
784.877	3185
784.982	3697
785.087	2592
785.192	3942
785.297	2930
785.402	2847
785.507	2702
785.611	2871
785.716	3192
785.821	2802
785.926	2503
786.031	2980
786.135	2404
786.240	2946
786.345	2071
786.450	3137
786.554	2576
786.659	2830
786.763	1369
786.868	2952
786.973	3378
787.077	2624
787.182	2506
787.286	2594
787.391	1850
787.495	2207
787.600	2086
787.704	1903
787.809	2829
787.913	1925
788.017	3546
788.122	2650
788.226	1851
788.330	1764
788.435	2315
788.539	2475
788.643	2594
788.747	2521
788.852	2557
788.956	1515
789.060	3223
789.164	2564
789.268	1197
789.372	2313
789.476	2845
789.580	2472
789.684	1645
789.788	2605
789.892	2357
789.996	3165
790.100	2653
790.204	2491
790.308	2548
790.412	2985
790.516	2779
790.620	2146
790.724	3002
790.828	2544
790.931	1985
791.035	3484
791.139	2199
791.242	931
791.346	3275
791.450	1635
791.554	2199
791.657	1502
791.761	3032
791.864	2973
791.968	1907
792.072	2326
792.175	1930
792.279	2108
792.382	2951
792.486	1988
792.589	1524
792.693	2676
792.796	2355
792.899	2768
793.003	3428
793.106	707
793.209	2150
793.313	3360
793.416	1068
793.519	4190
793.623	6114
793.726	7582
793.829	2597
793.932	2799
794.035	2414
794.138	3378
794.242	3630
794.345	3144
794.448	3810
794.551	6551
794.654	7074
794.757	5910
794.860	4193
794.963	2475
795.066	1390
795.169	2414
795.272	1363
795.375	2158
795.477	991
795.580	2588
795.683	588
795.786	1918
795.889	1345
795.991	2976
796.094	2934
796.197	983
796.300	2825
796.402	2097
796.505	1926
796.608	1316
796.710	3489
796.813	1297
796.915	1509
797.018	2568
797.120	2531
797.223	797
797.326	2887
797.428	1179
797.530	1319
797.633	1876
797.735	2864
797.838	4211
797.940	3211
798.042	733
798.145	916
798.247	3078
798.349	-361
798.452	2394
798.554	1932
798.656	1117
798.758	2884
798.860	2211
798.962	1607
799.065	1387
799.167	1140
799.269	3181
799.371	3029
799.473	2930
799.575	2408
799.677	3158
799.779	4941
799.881	5361
799.983	2896
800.085	1662
800.187	1944
800.289	973
800.390	1148
800.492	825
800.594	2079
800.696	1044
800.798	1353
800.899	1206
801.001	1143
801.103	1369
801.205	1923
801.306	2843
801.408	240
801.509	2096
801.611	2197
801.713	1322
801.814	-14
801.916	1079
802.017	1404
802.119	535
802.220	2177
802.322	439
802.423	3696
802.525	317
802.626	1395
802.727	2419
802.829	2689
802.930	-556
803.031	2589
803.133	1249
803.234	1052
803.335	1732
803.436	548
803.538	1864
803.639	502
803.740	1483
803.841	-45
803.942	2176
804.043	1765
804.144	1292
804.245	1465
804.346	1373
804.447	1911
804.548	4531
804.649	4466
804.750	872
804.851	855
804.952	725
805.053	249
805.154	31
805.255	1329
805.355	1138
805.456	657
805.557	791
805.658	394
805.758	1868
805.859	1873
805.960	1151
806.061	420
806.161	1580
806.262	637
806.362	1137
806.463	1498
806.564	2202
806.664	1596
806.765	2386
806.865	1778
806.966	1547
807.066	869
807.166	1951
807.267	1626
807.367	1190
807.468	1389
807.568	-151
807.668	2727
807.769	2524
807.869	545
807.969	1467
808.069	521
808.170	1463
808.270	1083
808.370	1811
808.470	3655
808.570	2251
808.670	759
808.770	841
808.870	478
808.970	1106
809.070	1015
809.170	865
809.271	1590
809.370	1059
809.470	1026
809.570	937
809.670	135
809.770	391
809.870	2410
809.970	637
810.070	1641
810.169	1376
810.269	726
810.369	1798
810.469	113
810.568	166
810.668	1305
810.768	1654
810.867	717
810.967	166
811.066	334
811.166	1531
811.265	1639
811.365	475
811.464	337
811.564	1336
811.663	1110
811.763	255
811.862	1467
811.962	2253
812.061	472
812.160	996
812.260	1581
812.359	2770
812.458	4942
812.557	13113
812.657	14086
812.756	3538
812.855	1300
812.954	1669
813.053	1388
813.153	615
813.252	771
813.351	494
813.450	698
813.549	945
813.648	751
813.747	729
813.846	1688
813.945	726
814.044	1748
814.143	1431
814.242	1092
814.341	225
814.439	1585
814.538	1942
814.637	1087
814.736	782
814.835	1627
814.933	1334
815.032	1436
815.131	1161
815.229	1123
815.328	2203
815.427	1689
815.525	2278
815.624	1480
815.722	808
815.821	1940
815.919	1831
816.018	1666
816.116	2133
816.215	1954
816.313	1673
816.412	2091
816.510	1589
816.609	3403
816.707	2206
816.805	2863
816.904	1665
817.002	2816
817.100	4071
817.198	4055
817.296	3096
817.395	3806
817.493	5411
817.591	4775
817.689	8311
817.787	9290
817.885	15857
817.983	29197
818.081	62941
818.179	154293
818.277	375665
818.375	269590
818.473	67677
818.571	26911
818.669	18785
818.767	16715
818.865	16831
818.963	19671
819.061	30862
819.158	53707
819.256	121592
819.354	289795
819.452	566428
819.549	319702
819.647	89958
819.745	37844
819.842	24027
819.940	16200
820.038	11418
820.135	9725
820.233	8685
820.330	6141
820.428	5092
820.525	6286
820.623	4536
820.720	3967
820.818	5155
820.915	4045
821.012	3020
821.110	1747
821.207	3595
821.304	2191
821.402	2339
821.499	3686
821.596	3713
821.693	3217
821.791	3453
821.888	4901
821.985	10749
822.082	6205
822.179	2804
822.276	2091
822.373	2509
822.470	1610
822.567	1869
822.664	832
822.761	2343
822.858	672
822.955	1947
823.052	1150
823.149	2223
823.246	1915
823.343	1160
823.440	2686
823.536	1726
823.633	1786
823.730	1408
823.827	1861
823.923	1299
824.020	2089
824.117	1232
824.213	251
824.310	2249
824.407	1179
824.503	2418
824.600	981
824.696	1320
824.793	650
824.889	913
824.986	1544
825.082	901
825.179	1554
825.275	1163
825.371	249
825.468	1476
825.564	458
825.660	2009
825.757	1299
825.853	1560
825.949	792
826.045	971
826.142	-366
826.238	909
826.334	1495
826.430	668
826.526	1520
826.622	1287
826.718	1585
826.814	497
826.910	1857
827.006	982
827.102	627
827.198	2221
827.294	756
827.390	659
827.486	1777
827.582	220
827.678	-20
827.774	1568
827.869	-306
827.965	2068
828.061	-388
828.157	866
828.252	507
828.348	-221
828.444	1159
828.539	-30
828.635	950
828.731	1680
828.826	-184
828.922	1531
829.017	665
829.113	1811
829.208	365
829.304	112
829.399	2203
829.495	998
829.590	1553
829.685	748
829.781	502
829.876	1169
829.971	349
830.066	280
830.162	721
830.257	548
830.352	772
830.447	1187
830.543	1490
830.638	225
830.733	1924
830.828	1103
830.923	1243
831.018	545
831.113	1296
831.208	-129
831.303	971
831.398	1111
831.493	433
831.588	995
831.683	-722
831.778	653
831.873	1291
831.967	1536
832.062	528
832.157	516
832.252	1731
832.346	1531
832.441	2155
832.536	2742
832.631	9195
832.725	6113
832.820	984
832.914	1383
833.009	1143
833.104	1765
833.198	3062
833.293	530
833.387	1279
833.482	1609
833.576	-73
833.670	1132
833.765	944
833.859	978
833.954	1137
834.048	868
834.142	488
834.237	919
834.331	-52
834.425	819
834.519	-218
834.613	1481
834.708	691
834.802	1312
834.896	305
834.990	274
835.084	913
835.178	1157
835.272	544
835.366	361
835.460	1533
835.554	133
835.648	1114
835.742	281
835.836	1320
835.930	-873
836.024	1676
836.117	1026
836.211	-81
836.305	1506
836.399	1689
836.493	781
836.586	1570
836.680	849
836.774	127
836.867	714
836.961	455
837.055	25
837.148	260
837.242	484
837.335	-51
837.429	648
837.522	333
837.616	715
837.709	3650
837.803	1322
837.896	1248
837.989	867
838.083	2102
838.176	4808
838.269	2747
838.363	1700
838.456	1412
838.549	3454
838.642	4589
838.735	10796
838.829	4065
838.922	62
839.015	1245
839.108	352
839.201	1269
839.294	353
839.387	1135
839.480	626
839.573	980
839.666	1666
839.759	715
839.852	367
839.945	498
840.038	691
840.131	379
840.223	464
840.316	1183
840.409	278
840.502	301
840.594	1031
840.687	-950
840.780	628
840.873	390
840.965	1349
841.058	1298
841.150	4099
841.243	1174
841.336	556
841.428	940
841.521	191
841.613	572
841.706	1237
841.798	752
841.890	229
841.983	-153
842.075	1816
842.167	821
842.260	406
842.352	2401
842.444	1231
842.537	4378
842.629	6376
842.721	1903
842.813	423
842.905	-380
842.997	743
843.090	581
843.182	2407
843.274	4196
843.366	10294
843.458	18632
843.550	10199
843.642	937
843.734	1095
843.826	1040
843.918	1279
844.009	715
844.101	304
844.193	-273
844.285	557
844.377	790
844.469	1446
844.560	229
844.652	1059
844.744	1573
844.835	1569
844.927	389
845.019	1242
845.110	1103
845.202	193
845.293	138
845.385	-785
845.476	1150
845.568	729
845.659	-36
845.751	761
845.842	-396
845.934	444
846.025	31
846.116	584
846.208	-629
846.299	302
846.390	43
846.482	-47
846.573	1505
846.664	3111
846.755	3112
846.846	2748
846.937	-233
847.029	697
847.120	343
847.211	154
847.302	2321
847.393	328
847.484	900
847.575	701
847.666	-162
847.757	841
847.847	1344
847.938	542
848.029	1283
848.120	426
848.211	670
848.302	-275
848.392	22
848.483	898
848.574	-528
848.664	-756
848.755	944
848.846	405
848.936	-361
849.027	385
849.118	74
849.208	423
849.299	1301
849.389	2557
849.480	5405
849.570	10380
849.661	18631
849.751	30029
849.841	8500
849.932	1436
850.022	17
850.112	1630
850.203	259
850.293	280
850.383	-241
850.474	-350
850.564	278
850.654	1096
850.744	721
850.834	1003
850.924	380
851.014	1179
851.104	452
851.194	1128
851.284	2049
851.374	2219
851.464	865
851.554	1023
851.644	703
851.734	2492
851.824	515
851.914	-431
852.004	307
852.094	616
852.183	152
852.273	557
852.363	370
852.452	471
852.542	243
852.632	353
852.721	-58
852.811	3
852.901	519
852.990	52
853.080	614
853.169	588
853.259	1247
853.348	27
853.438	804
853.527	2348
853.617	3349
853.706	7331
853.795	12845
853.885	30864
853.974	58970
854.063	114199
854.152	167230
854.242	50998
854.331	7907
854.420	3311
854.509	2623
854.598	3137
854.687	1682
854.777	1980
854.866	155
854.955	1274
855.044	558
855.133	813
855.222	-108
855.311	437
855.400	627
855.488	449
855.577	361
855.666	913
855.755	416
855.844	841
855.933	-158
856.021	968
856.110	775
856.199	192
856.288	-79
856.376	477
856.465	-200
856.554	870
856.642	148
856.731	619
856.819	357
856.908	500
856.996	251
857.085	314
857.173	-105
857.262	485
857.350	-311
857.438	-105
857.527	767
857.615	454
857.703	1030
857.792	-428
857.880	196
857.968	160
858.056	-267
858.145	566
858.233	442
858.321	34
858.409	-153
858.497	-269
858.585	530
858.673	861
858.761	1010
858.849	-282
858.937	379
859.025	405
859.113	-48
859.201	-48
859.289	1402
859.377	-670
859.465	765
859.552	-273
859.640	162
859.728	179
859.816	449
859.903	754
859.991	-530
860.079	168
860.166	3
860.254	571
860.342	494
860.429	-89
860.517	-545
860.604	1290
860.692	836
860.779	108
860.867	247
860.954	603
861.042	1013
861.129	1145
861.216	294
861.304	814
861.391	588
861.478	393
861.565	1035
861.653	1696
861.740	489
861.827	-152
861.914	328
862.001	-195
862.089	90
862.176	361
862.263	93
862.350	330
862.437	267
862.524	-136
862.611	350
862.698	859
862.785	954
862.871	1065
862.958	-254
863.045	376
863.132	100
863.219	625
863.306	-312
863.392	705
863.479	180
863.566	-90
863.652	809
863.739	59
863.826	645
863.912	-188
863.999	-47
864.086	631
864.172	-211
864.259	-10
864.345	-221
864.432	-281
864.518	109
864.604	-24
864.691	535
864.777	615
864.863	1002
864.950	1716
865.036	454
865.122	1237
865.209	1865
865.295	1263
865.381	858
865.467	1836
865.553	3339
865.639	4137
865.726	6718
865.812	14925
865.898	30009
865.984	44316
866.070	87086
866.156	82973
866.242	16787
866.328	4118
866.414	1636
866.499	2837
866.585	1953
866.671	1326
866.757	1495
866.843	1109
866.928	926
867.014	1679
867.100	790
867.186	1521
867.271	1882
867.357	3159
867.442	2115
867.528	1457
867.614	-255
867.699	864
867.785	1115
867.870	1298
867.956	1392
868.041	1528
868.127	822
868.212	1656
868.297	1082
868.383	1302
868.468	2310
868.553	4794
868.639	6341
868.724	12734
868.809	9251
868.894	1390
868.979	396
869.065	789
869.150	1022
869.235	851
869.320	783
869.405	-129
869.490	723
869.575	503
869.660	711
869.745	1119
869.830	553
869.915	863
870.000	209
870.085	184
870.169	295
870.254	766
870.339	-635
870.424	578
870.509	980
870.593	-46
870.678	310
870.763	1025
870.847	955
870.932	912
871.016	467
871.101	1017
871.186	963
871.270	-137
871.355	-157
871.439	366
871.523	301
871.608	434
871.692	519
871.777	664
871.861	321
871.945	-21
872.030	827
872.114	795
872.198	874
872.282	545
872.367	815
872.451	505
872.535	87
872.619	-697
872.703	-174
872.787	10
872.871	253
872.955	236
873.039	-110
873.123	420
873.207	729
873.291	65
873.375	117
873.459	1269
873.543	234
873.627	925
873.711	528
873.794	564
873.878	988
873.962	-338
874.045	292
874.129	94
874.137	100
874.213	164
874.245	240
874.296	366
874.352	109
874.380	-21
874.460	-57
874.464	-58
874.547	-189
874.568	71
874.631	812
874.676	797
874.714	786
874.784	440
874.798	371
874.881	601
874.892	571
874.965	410
874.999	444
875.048	476
875.107	1008
875.131	1224
875.215	624
875.215	624
875.298	324
875.323	359
875.381	494
875.430	802
875.465	1014
875.538	596
875.548	526
875.631	-351
875.646	-343
875.714	-315
875.753	-163
875.798	131
875.861	755
875.881	906
875.964	239
875.968	258
876.047	748
876.076	1018
876.130	1453
876.183	972
876.213	719
876.291	1088
876.296	1102
876.379	708
876.398	680
876.462	780
876.506	362
876.545	-85
876.613	371
876.628	500
876.711	507
876.721	546
876.794	609
876.828	444
876.877	394
876.935	1046
876.960	1259
877.043	1392
877.043	1392
877.125	1704
877.150	1839
877.208	2050
877.258	1932
877.291	1940
877.365	1050
877.374	922
877.456	1525
877.472	1469
877.539	1334
877.579	1454
877.622	1495
877.687	1029
877.704	997
877.787	1748
877.794	1709
877.869	833
877.901	1044
877.952	1540
878.008	899
878.034	534
878.115	1090
878.117	1108
878.199	1366
878.222	1344
878.282	1340
878.329	1527
878.364	1605
878.437	1103
878.447	1028
878.529	1257
878.544	1226
878.611	1144
878.651	1077
878.694	962
878.758	1272
878.776	1424
878.858	672
878.865	745
878.941	1013
878.972	681
879.023	732
879.078	1508
879.105	1771
879.185	1615
879.187	1613
879.269	1625
879.292	1571
879.351	1077
879.399	834
879.433	974
879.506	1274
879.516	1257
879.598	1326
879.613	1186
879.680	937
879.720	1363
879.762	1670
879.827	1001
879.844	865
879.926	1487
879.933	1544
880.007	1954
880.040	2308
880.089	3121
880.147	3650
880.171	3821
880.253	7349
880.254	7364
880.335	10608
880.360	11845
880.417	16702
880.467	25580
880.499	31039
880.574	33620
880.580	32777
880.662	10464
880.680	7549
880.744	2929
880.787	1750
880.825	1464
880.893	1418
880.907	1494
880.989	1503
881.000	1509
881.070	1392
881.106	1395
881.152	1554
881.213	1634
881.233	1547
881.315	1223
881.319	1209
881.396	1699
881.426	1752
881.478	1414
881.532	1429
881.559	1614
881.639	1550
881.641	1541
881.722	1099
881.745	1136
881.803	1682
881.852	1880
881.885	1794
881.958	1639
881.966	1695
882.047	2724
882.064	2813
882.129	2940
882.171	3241
882.210	4075
882.277	5884
882.291	5900
882.372	3623
882.383	3478
882.454	2624
882.489	2145
882.535	1910
882.596	1663
882.616	1604
882.697	1684
882.702	1670
882.778	1702
882.808	1701
882.859	1631
882.914	1527
882.940	1466
883.020	1498
883.021	1508
883.102	1850
883.127	2060
883.183	1850
883.233	1305
883.264	1295
883.339	1557
883.345	1564
883.426	1272
883.445	1328
883.507	1521
883.551	1521
883.587	1421
883.657	1239
883.668	1403
883.749	2561
883.763	2713
883.830	2069
883.869	1676
883.910	1682
883.975	1733
883.991	1610
884.072	1274
884.081	1209
884.152	2127
884.187	2512
884.233	2246
884.292	1833
884.314	1771
884.394	1272
884.398	1270
884.475	1393
884.504	1357
884.555	1564
884.610	1767
884.636	1771
884.716	1606
884.716	1615
884.797	2035
884.821	2010
884.877	1695
884.927	1509
884.958	1637
885.033	2189
885.038	2185
885.118	1668
885.139	1529
885.199	1485
885.244	1676
885.279	1773
885.350	1615
885.359	1728
885.439	2727
885.456	2897
885.520	1886
885.561	1328
885.600	1529
885.667	1880
885.680	1861
885.760	1447
885.773	1396
885.840	1964
885.878	2273
885.920	2103
885.984	1746
886.000	1751
886.080	1992
886.089	2003
886.160	2040
886.195	2093
886.240	2525
886.300	2715
886.320	2550
886.400	2240
886.406	2217
886.480	2719
886.511	2860
886.560	3319
886.616	3691
886.640	3491
886.720	2828
886.722	2800
886.800	1658
886.827	1308
886.879	1862
886.932	2385
886.959	2539
887.038	2931
887.039	2939
887.119	2529
887.143	2464
887.198	2337
887.248	2240
887.278	2646
887.354	3363
887.358	3318
887.437	2300
887.459	1988
887.517	2304
887.564	2606
887.596	2371
887.669	1640
887.676	1719
887.755	2792
887.774	3000
887.835	2519
887.880	2230
887.914	2580
887.985	3174
887.994	3072
888.073	2024
888.090	1796
888.153	2239
888.195	2547
888.232	2673
888.300	2927
888.311	2854
888.391	2142
888.405	2020
888.470	2140
888.510	2155
888.549	2741
888.615	3790
888.628	3710
888.708	3048
888.720	2941
888.787	3092
888.825	3116
888.866	2703
888.930	2161
888.945	2257
889.024	2601
889.035	2644
889.103	3153
889.140	3391
889.182	3291
889.245	3130
889.261	3079
889.340	2785
889.349	2743
889.419	3104
889.454	3266
889.498	2871
889.559	2291
889.577	2310
889.656	2380
889.664	2382
889.735	2932
889.768	3181
889.814	3413
889.873	3696
889.978	2055
890.083	2752
890.187	3152
890.292	2813
890.397	2099
890.501	2610
890.606	2380
890.710	3318
890.815	2397
890.919	2693
891.024	2562
891.128	2283
891.233	2236
891.337	3979
891.442	2281
891.546	3161
891.650	2034
891.755	2247
891.859	3133
891.963	3095
892.068	1966
892.172	3878
892.276	2508
892.380	3637
892.484	2291
892.589	3157
892.693	2624
892.797	2591
892.901	1504
893.005	3458
893.109	3038
893.213	3218
893.317	1983
893.421	3209
893.525	1384
893.629	2704
893.733	2191
893.837	2204
893.941	2194
894.045	2759
894.148	1797
894.252	3018
894.356	2236
894.460	4092
894.564	2532
894.667	3168
894.771	2084
894.875	2868
894.978	2128
895.082	2783
895.186	3148
895.289	3583
895.393	2638
895.496	3479
895.600	2252
895.703	2544
895.807	2333
895.910	2026
896.014	2225
896.117	3205
896.221	3087
896.324	2787
896.427	2032
896.531	2757
896.634	2440
896.737	2748
896.840	1787
896.944	2617
897.047	2933
897.150	2879
897.253	1975
897.356	3170
897.460	2225
897.563	2768
897.666	2420
897.769	2750
897.872	2434
897.975	2593
898.078	2005
898.181	2533
898.284	2086
898.387	2867
898.490	2538
898.593	2437
898.695	1864
898.798	2649
898.901	2528
899.004	2627
899.107	2329
899.209	2766
899.312	2332
899.415	2685
899.518	1541
899.620	2562
899.723	2611
899.826	4916
899.928	5375
900.031	2952
900.133	2185
900.236	2592
900.338	1962
900.441	3152
900.543	1894
900.646	2281
900.748	2624
900.851	2632
900.953	2738
901.055	2728
901.158	2274
901.260	3046
901.362	2579
901.465	2461
901.567	2180
901.669	2265
901.771	2326
901.873	2221
901.976	2415
902.078	1990
902.180	1880
902.282	2174
902.384	2484
902.486	3510
902.588	2563
902.690	3072
902.792	2929
902.894	2528
902.996	2193
903.098	2371
903.200	2078
903.302	2135
903.404	1201
903.505	2439
903.607	2498
903.709	2998
903.811	2549
903.913	3095
904.014	1462
904.116	1668
904.218	2127
904.319	2289
904.421	2778
904.523	2680
904.624	2571
904.726	1755
904.827	1568
904.929	1961
905.030	1874
905.132	3062
905.233	2416
905.335	2893
905.436	1637
905.537	2641
905.639	1889
905.740	1792
905.841	2032
905.943	2866
906.044	1693
906.145	2786
906.247	1971
906.348	2328
906.449	2309
906.550	2678
906.651	2571
906.752	3552
906.854	2327
906.955	2726
907.056	1761
907.157	3431
907.258	2280
907.359	2723
907.460	1966
907.561	2234
907.662	2060
907.762	2920
907.863	1911
907.964	2442
908.065	2136
908.166	1748
908.267	2198
908.367	2301
908.468	2876
908.569	2524
908.670	3576
908.770	4032
908.871	3256
908.971	3896
909.072	3450
909.173	3406
909.273	2468
909.374	2847
909.474	1439
909.575	2841
909.675	2548
909.776	2749
909.876	2562
909.977	3297
910.077	2034
910.177	2145
910.278	1677
910.378	2656
910.478	1931
910.579	2950
910.679	1849
910.779	2781
910.879	2748
910.980	2443
911.080	1947
911.180	2753
911.280	2115
911.380	2315
911.480	2765
911.580	2714
911.680	2968
911.780	3180
911.880	2524
911.980	2329
912.080	1910
912.180	3406
912.280	2266
912.380	2860
912.480	2103
912.580	2759
912.679	761
912.779	2696
912.879	2292
912.979	1953
913.078	2093
913.178	1717
913.278	2077
913.377	2086
913.477	1823
913.577	2757
913.676	2105
913.776	2726
913.875	3162
913.975	2614
914.074	2413
914.174	2598
914.273	1703
914.373	3399
914.472	2772
914.572	3223
914.671	2392
914.770	2862
914.870	1846
914.969	2150
915.068	2090
915.167	2877
915.267	2280
915.366	2276
915.465	2675
915.564	2596
915.663	2651
915.763	2367
915.862	2848
915.961	2642
916.060	1954
916.159	2720
916.258	1352
916.357	2401
916.456	2470
916.555	1731
916.654	2283
916.752	2027
916.851	1872
916.950	2579
917.049	1618
917.148	1653
917.247	2443
917.345	2866
917.444	2299
917.543	2695
917.642	2219
917.740	2127
917.839	2234
917.937	2751
918.036	1965
918.135	2744
918.233	1822
918.332	2053
918.430	1853
918.529	2578
918.627	1701
918.726	1994
918.824	2457
918.923	2540
919.021	2118
919.119	2487
919.218	2012
919.316	2882
919.414	1729
919.512	2819
919.611	2127
919.709	3869
919.807	3038
919.905	2807
920.003	2222
920.102	2783
920.200	1807
920.298	2917
920.396	2312
920.494	2743
920.592	2824
920.690	2791
920.788	2587
920.886	2648
920.984	2172
921.082	2754
921.180	2673
921.277	2819
921.375	3103
921.473	2927
921.571	1757
921.669	3184
921.766	2596
921.864	3685
921.962	2794
922.060	2549
922.157	2880
922.255	3108
922.352	3105
922.450	3470
922.548	2656
922.645	3401
922.743	4148
922.840	4482
922.938	4809
923.035	5231
923.133	3532
923.230	5236
923.327	5746
923.425	5506
923.522	4010
923.619	4757
923.717	4513
923.814	4732
923.911	3690
924.008	5107
924.106	3997
924.203	5038
924.300	3672
924.397	4027
924.494	4033
924.591	5019
924.688	3949
924.786	4245
924.883	4749
924.979	3801
925.077	5075
925.173	4664
925.270	3609
925.367	4132
925.464	4462
925.561	5207
925.658	4423
925.755	5106
925.852	5302
925.948	4857
926.045	3666
926.142	4563
926.239	4612
926.335	4583
926.432	4064
926.529	5431
926.625	4670
926.722	4840
926.818	4179
926.915	4301
927.011	3709
927.108	3469
927.204	3645
927.301	3748
927.397	3979
927.494	4024
927.590	2865
927.687	4119
927.783	4048
927.879	5225
927.976	2952
928.072	3743
928.168	3691
928.264	3982
928.361	3448
928.457	4480
928.553	4208
928.649	4200
928.745	3358
928.841	4235
928.937	3463
929.033	3806
929.129	2982
929.225	4749
929.321	3169
929.417	4408
929.513	3131
929.609	3518
929.705	2920
929.801	4011
929.897	3191
929.993	3521
930.089	3010
930.184	3612
930.280	3429
930.376	4357
930.471	2714
930.567	3800
930.663	3207
930.758	3369
930.854	3361
930.950	3880
931.045	3432
931.141	3397
931.236	4260
931.332	2973
931.427	3064
931.523	3657
931.618	3331
931.714	3044
931.809	3737
931.905	4265
932.000	3040
932.095	3414
932.191	3208
932.286	3284
932.381	2799
932.476	3376
932.572	2553
932.667	3024
932.762	2635
932.857	4224
932.952	3774
933.047	3732
933.142	3400
933.237	3263
933.332	3109
933.427	3612
933.522	3656
933.617	2614
933.712	3253
933.807	4387
933.902	3263
933.997	3689
934.092	1791
934.187	3810
934.282	2574
934.376	3589
934.471	2880
934.566	3133
934.661	2708
934.755	3150
934.850	3390
934.945	3470
935.039	2867
935.134	3262
935.228	3099
935.323	4406
935.417	2450
935.512	2707
935.606	2648
935.701	3162
935.795	2718
935.890	2692
935.984	3222
936.079	3491
936.173	3961
936.267	3302
936.362	2470
936.456	3081
936.550	2885
936.644	3570
936.738	2394
936.833	3415
936.927	2066
937.021	2677
937.115	2290
937.209	2643
937.303	2920
937.397	2420
937.491	2241
937.585	3961
937.679	2179
937.773	2491
937.867	2242
937.961	2741
938.055	3539
938.149	4496
938.243	2568
938.337	3163
938.430	2750
938.524	3457
938.618	1630
938.712	2765
938.805	2766
938.899	2567
938.993	2567
939.086	1792
939.180	1494
939.274	2814
939.367	2586
939.461	2927
939.554	1921
939.648	2148
939.741	1818
939.835	3621
939.928	3286
940.022	3917
940.115	2721
940.208	3071
940.302	2450
940.395	4309
940.488	823
940.582	2986
940.675	2376
940.768	2296
940.861	1712
940.954	3514
941.048	1121
941.141	2193
941.234	2076
941.327	3224
941.420	2863
941.513	1866
941.606	1766
941.699	3493
941.792	2354
941.885	1893
941.978	2215
942.071	2984
942.164	1783
942.257	2268
942.349	2078
942.442	2537
942.535	1551
942.628	2971
942.721	2022
942.813	1664
942.906	2457
942.999	2045
943.091	1654
943.184	1942
943.277	1543
943.369	2858
943.462	953
943.554	2393
943.647	1691
943.739	2613
943.832	1519
943.924	1252
944.017	2097
944.109	1679
944.201	1473
944.294	3274
944.386	1387
944.478	1565
944.571	1216
944.663	2050
944.755	1548
944.847	2372
944.940	2167
945.032	1514
945.124	1159
945.216	2736
945.308	1809
945.400	1399
945.492	1620
945.584	2431
945.676	1572
945.768	2447
945.860	2095
945.952	2790
946.044	1903
946.136	767
946.228	1620
946.320	2452
946.412	1359
946.503	1753
946.595	2315
946.687	1408
946.779	1578
946.870	1511
946.962	500
947.054	2707
947.145	2272
947.237	936
947.329	1576
947.420	2243
947.512	1591
947.603	1873
947.695	1104
947.786	1314
947.878	1187
947.969	2413
948.061	1803
948.152	1373
948.243	891
948.335	2120
948.426	1121
948.517	1152
948.609	1442
948.700	1588
948.791	1116
948.882	1751
948.973	1073
949.065	2282
949.156	1872
949.247	841
949.338	616
949.429	1966
949.520	1862
949.611	1002
949.702	1460
949.793	1122
949.884	1241
949.975	2242
950.066	496
950.157	979
950.247	1579
950.338	1604
950.429	1473
950.520	1974
950.611	1495
950.701	1648
950.792	1999
950.883	2154
950.973	1688
951.064	1985
951.155	1464
951.245	1613
951.336	1279
951.427	1779
951.517	2292
951.608	1485
951.698	747
951.788	1823
951.879	656
951.969	1897
952.060	1729
952.150	1671
952.240	2016
952.331	25
952.421	1941
952.511	1992
952.602	1324
952.692	1366
952.782	1256
952.872	1612
952.962	1323
953.052	1569
953.143	33
953.233	1784
953.323	1393
953.413	738
953.503	1466
953.593	1613
953.683	1187
953.773	1010
953.863	1194
953.953	1185
954.042	471
954.132	1796
954.222	1262
954.312	2063
954.402	993
954.492	2083
954.581	2154
954.671	1194
954.761	651
954.850	2157
954.940	76
955.030	1218
955.119	538
955.209	1466
955.298	879
955.388	1236
955.477	867
955.567	1649
955.656	1356
955.746	2615
955.835	678
955.925	399
956.014	934
956.103	1811
956.193	1312
956.282	1963
956.371	1044
956.461	1362
956.550	216
956.639	1888
956.728	345
956.817	868
956.906	-129
956.995	1774
957.085	162
957.174	1807
957.263	1188
957.352	1361
957.441	244
957.530	1521
957.619	967
957.708	1559
957.796	306
957.885	724
957.974	644
958.063	1246
958.152	122
958.241	842
958.329	224
958.418	1517
958.507	176
958.596	1769
958.684	336
958.773	295
958.861	940
958.950	2246
959.039	1345
959.127	1029
959.216	911
959.304	804
959.393	-212
959.481	1684
959.570	1445
959.658	396
959.746	542
959.835	2462
959.923	1550
960.011	1123
960.100	1401
960.188	1645
960.276	187
960.365	1264
960.453	361
960.541	766
960.629	458
960.717	464
960.805	-250
960.893	1783
960.981	351
961.069	1874
961.158	708
961.245	1514
961.333	1950
961.421	784
961.509	362
961.597	1531
961.685	599
961.773	1602
961.861	1153
961.949	1374
962.036	414
962.124	1378
962.212	213
962.299	1100
962.387	-111
962.475	1398
962.562	-451
962.650	1482
962.738	1595
962.825	1030
962.913	318
963.000	531
963.088	538
963.175	944
963.263	837
963.350	1611
963.438	465
963.525	1556
963.612	3034
963.700	6681
963.787	8735
963.874	2784
963.962	529
964.049	1240
964.136	1130
964.223	1
964.310	906
964.398	1394
964.485	58
964.572	2764
964.659	1382
964.746	1790
964.833	917
964.920	917
965.007	739
965.094	1399
965.181	157
965.268	1920
965.355	656
965.441	590
965.528	-294
965.615	1893
965.702	1164
965.789	453
965.875	503
965.962	1482
966.049	-107
966.136	883
966.222	315
966.309	1291
966.395	102
966.482	1623
966.569	-287
966.655	1495
966.742	216
966.828	846
966.915	330
967.001	789
967.087	459
967.174	738
967.260	1384
967.347	2030
967.433	4429
967.519	5922
967.605	1403
967.692	-62
967.778	399
967.864	1297
967.950	31
968.036	-59
968.123	100
968.209	881
968.295	-162
968.381	2845
968.467	727
968.553	-258
968.639	1136
968.725	720
968.811	1806
968.897	2028
968.983	662
969.069	5
969.154	966
969.240	1408
969.326	-214
969.412	1009
969.497	718
969.583	-366
969.669	1140
969.755	1289
969.840	-304
969.926	1337
970.012	154
970.097	2035
970.183	456
970.268	1230
970.354	1603
970.439	1519
970.525	3808
970.610	1244
970.696	1297
970.781	1233
970.866	-265
970.952	1284
971.037	59
971.122	557
971.208	358
971.293	1044
971.378	-1003
971.463	481
971.549	574
971.634	1218
971.719	51
971.804	918
971.889	844
971.974	666
972.059	-132
972.144	631
972.229	357
972.314	534
972.399	409
972.484	96
972.569	1607
972.654	-42
972.739	2472
972.824	2182
972.908	865
972.993	-163
973.078	359
973.163	896
973.247	859
973.332	-308
973.417	529
973.501	36
973.586	-325
973.671	1299
973.755	673
973.840	1270
973.924	551
974.009	1280
974.093	-274
974.178	2111
974.262	2053
974.346	1144
974.431	-2
974.515	1066
974.600	-163
974.684	750
974.768	198
974.852	440
974.937	-588
975.021	530
975.105	-87
975.189	-218
975.273	142
975.358	392
975.442	-360
975.526	803
975.610	-900
975.694	-638
975.778	957
975.862	1092
975.946	-1751
976.030	2025
976.114	-334
976.198	775
976.281	-134
976.365	818
976.449	-558
976.533	641
976.617	-889
976.700	118
976.784	215
976.868	795
976.951	-88
977.035	219
977.119	-601
977.202	280
977.286	-443
977.369	666
977.453	459
977.536	-79
977.620	-87
977.703	1085
977.787	-1368
977.870	225
977.953	545
978.037	-77
978.120	772
978.203	623
978.287	1788
978.370	288
978.453	-400
978.536	119
978.620	859
978.703	1029
978.786	373
978.869	-91
978.952	-623
979.035	887
979.118	831
979.201	-890
979.284	-198
979.367	-1263
979.450	262
979.533	143
979.616	258
979.699	-641
979.782	71
979.865	-502
979.948	-278
980.030	-203
980.113	-444
980.196	-695
980.279	-224
980.361	104
980.444	-218
980.526	544
980.609	715
980.692	319
980.774	-571
980.857	-787
980.939	211
981.022	-46
981.104	-896
981.187	129
981.269	-179
981.352	146
981.434	-706
981.516	-252
981.599	329
981.681	289
981.763	-644
981.846	855
981.928	-797
982.010	896
982.092	-1188
982.174	341
982.256	-114
982.339	-691
982.421	-554
982.503	482
982.585	-1212
982.667	129
982.749	-697
982.831	120
982.913	-1734
982.995	777
983.077	-630
983.158	1561
983.240	-1546
983.322	246
983.404	514
983.486	-418
983.568	567
983.649	-247
983.731	85
983.813	111
983.894	264
983.976	-597
984.058	-67
984.139	472
984.221	-1740
984.302	297
984.384	-316
984.465	-608
984.547	-398
984.628	-597
984.710	-74
984.791	-167
984.872	-745
984.954	244
985.035	-182
985.116	-927
985.198	-1842
985.279	1331
985.360	-834
985.441	-132
985.522	32
985.604	-389
985.685	-1886
985.766	1381
985.847	201
985.928	-473
986.009	-814
986.090	311
986.171	-469
986.252	-223
986.333	-650
986.414	-438
986.495	-91
986.576	-432
986.656	-59
986.737	273
986.818	-894
986.899	-801
986.980	-1121
987.060	804
987.141	-1094
987.222	505
987.302	306
987.383	290
987.464	-1113
987.544	72
987.625	-955
987.705	562
987.786	-328
987.866	315
987.947	-457
988.027	-258
988.108	-1236
988.188	168
988.268	-241
988.349	153
988.429	-502
988.509	7
988.589	-587
988.670	-1033
988.750	989
988.830	-313
988.910	-372
988.990	117
989.070	-537
989.151	595
989.231	-1397
989.311	391
989.391	-1156
989.471	156
989.551	-521
989.631	-343
989.711	624
989.791	-137
989.870	-1202
989.950	686
990.030	-1168
990.110	-840
990.190	-723
990.269	-399
990.349	-1221
990.429	-336
990.509	-483
990.588	-885
990.668	-300
990.747	-303
990.827	-1029
990.907	-254
990.986	-1289
991.066	-897
991.145	-1124
991.225	86
991.304	-1143
991.383	354
991.463	-613
991.542	657
991.622	-310
991.701	-21
991.780	-1284
991.859	-559
991.939	-1370
992.018	-538
992.097	-842
992.176	174
992.256	137
992.335	-731
992.414	-631
992.493	-1087
992.572	-771
992.651	805
992.730	-557
992.809	39
992.888	-1077
992.967	-732
993.046	-253
993.125	-981
993.203	-1422
993.282	-199
993.361	-1369
993.440	-113
993.519	-2286
993.597	246
993.676	-906
993.755	851
993.834	-696
993.912	-903
993.991	82
994.069	-1360
994.148	-386
994.226	-675
994.305	-723
994.384	-435
994.462	-129
994.540	-1745
994.619	-1317
994.697	486
994.776	-1967
994.854	-79
994.932	-871
995.011	-761
995.089	-1419
995.167	-818
995.245	-1098
995.324	-916
995.402	-962
995.480	-896
995.558	-255
995.636	-1384
995.714	-1382
995.792	549
995.870	-1344
995.948	-672
996.026	-348
996.104	-1384
996.182	455
996.260	-975
996.338	-105
996.416	-694
996.494	-621
996.572	1291
996.649	-1762
996.727	-1135
996.805	-1553
996.883	-430
996.960	-1290
997.038	-822
997.116	-1173
997.193	-1011
997.271	-1294
997.348	-733
997.426	-1165
997.504	-1089
997.581	-593
997.658	119
997.736	-850
997.813	-1331
997.891	-120
997.968	-1172
998.046	-1396
998.123	-656
998.200	-991
998.277	-1107
998.355	-627
998.432	-2119
998.509	-1335
998.586	-993
998.663	-166
998.741	-228
998.818	-956
998.895	-1348
998.972	-1013
999.049	-369
999.126	-1541
999.203	-318
999.280	-1335
999.357	-1155
999.434	-1154
999.511	-787
999.587	-1002
999.664	-1365
999.741	-1594
999.818	-565
999.895	-1650
999.971	-780
1000.048	-1646
1000.125	-265
1000.202	-1529
1000.278	63
1000.355	-1776
1000.431	-268
1000.508	-1324
1000.584	-919
1000.661	-1116
1000.738	-1542
1000.814	-1796
1000.890	-850
1000.967	-2079
1001.043	-953
1001.120	-2153
1001.196	-403
1001.272	-2118
1001.349	-1014
1001.425	-1134
1001.501	-630
1001.577	-1316
1001.654	-1013
1001.730	-1850
1001.806	-632
1001.882	-2558
1001.958	-788
1002.034	-1270
1002.110	-900
1002.186	-1554
1002.262	-1126
1002.338	-1827
1002.414	-819
1002.490	-1564
1002.566	-1293
1002.642	-1474
1002.718	-1004
1002.794	-1226
1002.870	-1729
1002.945	-1088
1003.021	-1810
1003.097	-2418
1003.173	-1253
1003.248	-1489
1003.324	-1088
1003.400	-1939
1003.475	-739
1003.551	-2252
1003.626	-429
1003.702	-1675
1003.777	-1033
1003.853	-1141
1003.928	-1867
1004.004	-2368
1004.079	-636
1004.155	-2363
1004.230	-2307
1004.305	-558
1004.381	-1141
1004.456	-1972
1004.531	-1302
1004.607	-1465
1004.682	-1369
1004.757	-2572
1004.832	-1986
1004.907	-1840
1004.982	-1041
1005.057	-931
1005.133	-1003
1005.208	-835
1005.283	-1249
1005.358	-1655
1005.433	-2156
1005.508	-1281
1005.583	-1659
1005.657	-1580
1005.732	-798
1005.807	-2175
1005.882	-2006
1005.957	-1941
1006.032	-877
1006.106	-1920
1006.181	-2111
1006.256	-1417
1006.331	-2010
1006.405	-1575
1006.480	-344
1006.554	-2342
1006.629	-994
1006.704	-1606
1006.778	-1394
1006.853	-1773
1006.927	-1011
1007.002	-2333
1007.076	-1840
1007.150	-1509
1007.225	-1337
1007.299	-1775
1007.373	-1888
1007.448	-2109
1007.522	-553
1007.596	-1286
1007.671	-1465
1007.745	-1439
1007.819	-2269
1007.893	-1603
1007.967	-1037
1008.041	-2757
1008.115	-1048
1008.190	-2545
1008.264	-1124
1008.338	-2349
1008.412	-1167
1008.486	-1436
1008.560	-1350
1008.633	-2188
1008.707	-1520
1008.781	-2025
1008.855	-1643
1008.929	-2596
1009.003	-1816
1009.076	-2585
1009.150	-1597
1009.224	-1905
1009.298	-1573
1009.371	-3147
1009.445	-1446
1009.519	-1953
1009.592	-2529
1009.666	-821
1009.739	-896
1009.813	-2563
1009.886	-530
1009.960	-3442
1010.033	-1941
1010.107	-1811
1010.180	-1998
1010.253	-2172
1010.327	-1543
1010.400	-2088
1010.473	-1128
1010.547	-965
1010.620	-2444
1010.693	-1813
1010.766	-1800
1010.840	-1306
1010.913	-1685
1010.986	-2319
1011.059	-1392
1011.132	-1903
1011.205	-941
1011.278	-2090
1011.351	-1910
1011.424	-2047
1011.497	-1660
1011.570	-1757
1011.643	-2099
1011.716	-2396
1011.789	-2211
1011.862	-1992
1011.934	-1417
1012.007	-2657
1012.080	-1845
1012.153	-1999
1012.225	-429
1012.298	-2694
1012.371	-1688
1012.443	-2019
1012.516	-2029
1012.588	-1820
1012.661	-1679
1012.733	-2805
1012.806	-1321
1012.879	-2685
1012.951	-1782
1013.023	-1989
1013.096	-1493
1013.168	-2676
1013.241	-1161
1013.313	-2839
1013.385	-1923
1013.458	-2322
1013.530	-1412
1013.602	-2901
1013.674	-1660
1013.746	-2197
1013.819	-1639
1013.891	-1662
1013.963	-2028
1014.035	-1717
1014.107	-860
1014.179	-1539
1014.251	-1819
1014.323	-2329
1014.395	-974
1014.467	-1965
1014.539	-1352
1014.611	-2829
1014.683	-943
1014.754	-1809
1014.826	-2071
1014.898	-3041
1014.970	-2620
1015.042	-1302
1015.113	-1824
1015.185	-1877
1015.257	-2171
1015.328	-1152
1015.400	-2003
1015.471	-1869
1015.543	-2448
1015.615	-1577
1015.686	-2283
1015.757	-2058
1015.829	-1233
1015.901	-2066
1015.972	-1180
1016.043	-1929
1016.115	-1276
1016.186	-2020
1016.257	-1601
1016.328	-2162
1016.400	-1227
1016.471	-2919
1016.542	-2884
1016.613	-2446
1016.685	-2284
1016.756	-1756
1016.827	-1814
1016.898	-2791
1016.969	-1249
1017.040	-2799
1017.111	-1717
1017.182	-2721
1017.253	-1671
1017.324	-2381
1017.395	-1777
1017.466	-2210
1017.537	-1805
1017.608	-2519
1017.678	-1997
1017.749	-2229
1017.820	-1611
1017.891	-2849
1017.961	-1828
1018.032	-1855
1018.103	-1661
1018.173	-1556
1018.244	-1732
1018.315	-2785
1018.385	-1673
1018.456	-1886
1018.526	-1480
1018.597	-2772
1018.667	-1401
1018.738	-2071
1018.808	-1687
1018.878	-2937
1018.949	-1911
1019.019	-1784
1019.089	-1131
1019.160	-2507
1019.230	-2132
1019.300	-1977
1019.371	-1881
1019.441	-1993
1019.511	-2162
1019.581	-2637
1019.651	-1363
1019.721	-1911
1019.791	-1496
1019.861	-2025
1019.931	-2046
1020.001	-2605
1020.071	-962
1020.141	-2590
1020.211	-2292
1020.281	-2684
1020.351	-1562
1020.421	-1747
1020.491	-1025
1020.560	-2896
1020.630	-1371
1020.700	-2045
1020.770	-1903
1020.839	-2141
1020.909	-2049
1020.979	-2518
1021.048	-1924
1021.118	-1749
1021.187	-1809
1021.257	-2956
1021.326	-1726
1021.396	-2049
1021.465	-1078
1021.535	-2494
1021.604	-2302
1021.674	-2457
1021.743	-2412
1021.812	-2315
1021.882	-1139
1021.951	-2296
1022.020	-2050
1022.089	-1903
1022.159	-2669
1022.228	-2657
1022.297	-1822
1022.366	-1975
1022.435	-1483
1022.504	-2480
1022.573	-1594
1022.642	-1455
1022.711	-2248
1022.781	-2417
1022.849	-1210
1022.918	-2003
1022.987	-1641
1023.056	-2927
1023.125	-1480
1023.194	-2390
1023.263	-1861
1023.331	-1282
1023.400	-2551
1023.469	-1983
1023.538	-1284
1023.606	-2563
1023.675	-1774
1023.744	-2486
1023.812	-2004
1023.881	-2801
1023.949	-1653
1024.018	-1605
1024.086	-1358
1024.155	-1923
1024.223	-2103
1024.292	-1390
1024.360	-1268
1024.429	-2164
1024.497	-2089
1024.565	-2056
1024.634	-1588
1024.702	-1832
1024.770	-1199
1024.838	-2611
1024.907	-1034
1024.975	-2297
1025.043	-1331
1025.111	-2357
1025.179	-1146
1025.247	-1925
1025.315	-2156
1025.383	-2514
1025.451	-2734
1025.519	-2888
1025.587	-2302
1025.655	-1879
1025.723	-1397
1025.791	-2137
1025.859	-2470
1025.927	-2628
1025.995	-2166
1026.062	-2129
1026.130	-2013
1026.198	-3236
1026.266	-2242
1026.333	-1972
1026.401	-1941
1026.469	-2621
1026.536	-1235
1026.604	-1648
1026.671	-2460
1026.739	-2377
1026.806	-2302
1026.874	-2773
1026.941	-1108
1027.009	-2251
1027.076	-2861
1027.144	-2190
1027.211	-1542
1027.278	-2032
1027.345	-2100
1027.413	-2542
1027.480	-1416
1027.547	-1838
1027.614	-1960
1027.682	-2219
1027.749	-1370
1027.816	-2414
1027.883	-2126
1027.950	-1648
1028.017	-1704
1028.084	-2112
1028.151	-2250
1028.218	-2451
1028.285	-1695
1028.352	-2196
1028.419	-2472
1028.486	-2726
1028.553	-1873
1028.619	-1443
1028.686	-1530
1028.753	-2566
1028.820	-1565
1028.886	-2147
1028.953	-2863
1029.020	-2955
1029.086	-2093
1029.153	-2956
1029.220	-2365
1029.286	-2301
1029.353	-1388
1029.419	-2247
1029.486	-1827
1029.552	-2117
1029.619	-1597
1029.685	-2164
1029.751	-1760
1029.818	-1473
1029.884	-2490
1029.951	-1686
1030.017	-1600
1030.083	-3584
1030.149	-2399
1030.216	-2334
1030.282	-885
1030.348	-2478
1030.414	-2192
1030.480	-2915
1030.546	-1963
1030.612	-1974
1030.678	-2425
1030.744	-1893
1030.810	-2571
1030.876	-2173
1030.942	-1595
1031.008	-2326
1031.074	-2489
1031.140	-2852
1031.206	-1356
1031.272	-2299
1031.337	-2751
1031.403	-1911
1031.469	-2700
1031.534	-3349
1031.600	-1128
1031.666	-2913
1031.731	-2284
1031.797	-2208
1031.863	-2255
1031.928	-3017
1031.994	-2388
1032.059	-2519
1032.125	-2471
1032.190	-3087
1032.256	-2814
1032.321	-2995
1032.386	-2097
1032.452	-2126
1032.517	-2531
1032.582	-2502
1032.647	-2305
1032.713	-2523
1032.778	-3184
1032.843	-2588
1032.908	-2844
1032.974	-2615
1033.039	-2170
1033.104	-2318
1033.169	-2498
1033.234	-2049
1033.299	-1279
1033.364	-1700
1033.429	-1353
1033.494	-2321
1033.559	-2735
1033.624	-2408
1033.688	-1996
1033.753	-2637
1033.818	-1581
1033.883	-2431
1033.948	-2045
1034.013	-2284
1034.077	-1286
1034.142	-2459
1034.207	-1861
1034.271	-1728
1034.336	-322
1034.400	-1156
1034.465	-463
1034.530	-1827
1034.594	-2012
1034.658	-2754
1034.723	-3424
1034.787	-2047
1034.852	-1785
1034.916	-3303
1034.981	-2362
1035.045	-2390
1035.109	-2662
1035.173	-2575
1035.238	-2476
1035.302	-2516
1035.366	-1869
1035.430	-2444
1035.495	-2402
1035.559	-2523
1035.623	-1554
1035.687	-2951
1035.751	-1768
1035.815	-2186
1035.879	-2936
1035.943	-2100
1036.007	-2631
1036.071	-2226
1036.135	-2198
1036.198	-3042
1036.262	-2420
1036.326	-2770
1036.390	-1598
1036.454	-2218
1036.517	-1218
1036.581	-2804
1036.645	-675
1036.709	-2075
1036.772	-1593
1036.836	-2629
1036.900	-2189
1036.963	-2819
1037.026	-2505
1037.090	-3066
1037.154	-1664
1037.217	-2823
1037.280	-2966
1037.344	-1913
1037.407	-2338
1037.471	-2919
1037.534	-2089
1037.597	-3478
1037.661	-1747
1037.724	-2603
1037.787	-2635
1037.850	-1885
1037.913	-2621
1037.977	-1589
1038.040	-2010
1038.103	-2790
1038.166	-2572
1038.229	-2565
1038.292	-3253
1038.355	-3223
1038.418	-1581
1038.481	-2754
1038.544	-2308
1038.607	-2277
1038.670	-1957
1038.732	-3030
1038.795	-2928
1038.858	-2752
1038.921	-1593
1038.984	-2539
1039.046	-2057
1039.109	-2589
1039.172	-1454
1039.234	-2985
1039.297	-2247
1039.360	-2313
1039.422	-2644
1039.485	-3548
1039.547	-2124
1039.610	-2800
1039.672	-3178
1039.734	-2756
1039.797	-2143
1039.859	-2912
1039.922	-2370
1039.984	-2581
1040.046	-3038
1040.109	-1977
1040.171	-2602
1040.233	-2718
1040.295	-2000
1040.358	-2428
1040.420	-2548
1040.482	-3083
1040.544	-3522
1040.606	-2611
1040.668	-3447
1040.730	-2910
1040.792	-2386
1040.854	-3520
1040.916	-2428
1040.978	-3537
1041.040	-1697
1041.102	-2453
1041.164	-2534
1041.225	-2591
1041.287	-2921
1041.349	-2541
1041.411	-2377
1041.472	-2538
1041.534	-2990
1041.596	-4013
1041.657	-2828
1041.719	-2319
1041.781	-2445
1041.842	-3064
1041.904	-1757
1041.965	-2718
1042.027	-2103
1042.088	-2377
1042.150	-2880
1042.211	-2660
1042.272	-2895
1042.334	-2908
1042.395	-2296
1042.456	-3048
1042.518	-2156
1042.579	-2119
1042.640	-2655
1042.701	-2950
1042.763	-2361
1042.824	-2770
1042.885	-3026
1042.946	-3167
1043.007	-2449
1043.068	-3196
1043.129	-2773
1043.190	-3293
1043.251	-1695
1043.312	-2604
1043.373	-2196
1043.434	-2663
1043.495	-3215
1043.556	-2656
1043.616	-3467
1043.677	-3075
1043.738	-2983
1043.799	-3374
1043.859	-1663
1043.920	-3168
1043.981	-2848
1044.041	-2633
1044.102	-3067
1044.162	-2974
1044.223	-2869
1044.284	-2583
1044.344	-2076
1044.405	-2747
1044.465	-2871
1044.525	-2711
1044.586	-2660
1044.646	-2926
1044.707	-2602
1044.767	-2371
1044.827	-2564
1044.887	-2365
1044.948	-2139
1045.008	-2531
1045.068	-2972
1045.128	-2620
1045.188	-2865
1045.249	-2538
1045.309	-1639
1045.369	-2779
1045.429	-2092
1045.489	-3329
1045.549	-2631
1045.609	-2965
1045.669	-2745
1045.729	-3479
1045.789	-2605
1045.848	-3152
1045.908	-2014
1045.968	-2096
1046.028	-2142
1046.088	-3448
1046.147	-2347
1046.207	-2722
1046.267	-2581
1046.326	-2694
1046.386	-1746
1046.446	-1942
1046.505	-1993
1046.565	-1057
1046.624	-1270
1046.684	-1931
1046.743	-489
1046.803	-1401
1046.862	-931
1046.922	0
