'Start Wavelength	183.907
'End Wavelength	1046.922
'Gate Delay	5.000
'Gate Width (ms)	1.050
'Laser Output Level	0.000
'X Position	0.000
'Y Position	0.000
'Z Position	0.000
'Grid Point Number	1.000
'Shot Number	100.000
183.907	283.000
183.977	103.000
184.047	-190
184.116	165
184.186	381
184.256	-51
184.325	-259
184.395	-433
184.465	570
184.534	-492
184.604	-74
184.674	-528
184.743	737
184.813	50
184.883	-56
184.952	36
185.022	-110
185.092	260
185.161	667
185.231	-391
185.301	708
185.370	547
185.440	-165
185.509	393
185.579	-365
185.649	-56
185.718	2
185.788	437
185.857	-250
185.927	-228
185.996	163
186.066	-101
186.136	413
186.205	78
186.275	331
186.344	-130
186.414	326
186.483	-259
186.553	1632
186.622	1058
186.692	191
186.761	-353
186.831	140
186.900	-414
186.970	318
187.039	239
187.109	1166
187.178	25
187.248	69
187.317	628
187.387	-64
187.456	406
187.526	546
187.595	705
187.664	-419
187.734	-85
187.803	216
187.873	495
187.942	1130
188.012	128
188.081	516
188.150	464
188.220	1630
188.289	573
188.358	66
188.428	1291
188.497	-109
188.567	129
188.636	224
188.705	137
188.775	-170
188.844	-132
188.913	153
188.983	357
189.052	482
189.121	425
189.191	529
189.260	1153
189.329	1127
189.399	596
189.468	1111
189.537	634
189.606	893
189.676	274
189.745	80
189.814	829
189.883	506
189.953	371
190.022	1352
190.091	4901
190.161	6945
190.230	1668
190.299	501
190.368	554
190.437	338
190.507	861
190.576	320
190.645	280
190.714	318
190.783	865
190.853	1622
190.922	583
190.991	102
191.060	591
191.129	-177
191.198	1191
191.268	-276
191.337	716
191.406	1562
191.475	151
191.544	325
191.613	357
191.682	708
191.752	86
191.821	-398
191.890	215
191.959	916
192.028	904
192.097	1152
192.166	1480
192.235	139
192.304	779
192.373	884
192.442	-845
192.511	77
192.580	865
192.650	954
192.719	1169
192.788	525
192.857	627
192.926	1413
192.995	979
193.064	1829
193.133	2647
193.202	4427
193.271	3501
193.340	2633
193.409	2501
193.478	3160
193.547	4406
193.615	6285
193.684	5282
193.753	3311
193.822	1759
193.891	1536
193.960	1234
194.029	736
194.098	1249
194.167	921
194.236	2214
194.305	398
194.374	783
194.443	796
194.512	1076
194.580	268
194.649	1228
194.718	600
194.787	634
194.856	1068
194.925	1306
194.994	743
195.062	993
195.131	1072
195.200	602
195.269	343
195.338	666
195.407	1594
195.475	1029
195.544	1273
195.613	437
195.682	1257
195.751	1420
195.819	683
195.888	1514
195.957	1678
196.026	864
196.094	1317
196.163	1370
196.232	1424
196.301	1320
196.369	2040
196.438	1334
196.507	1245
196.576	819
196.644	1156
196.713	973
196.782	378
196.850	1428
196.919	1848
196.988	1596
197.056	749
197.125	1429
197.194	1066
197.262	971
197.331	1078
197.400	1127
197.468	1146
197.537	717
197.606	1943
197.674	2766
197.743	7302
197.812	2609
197.880	6732
197.949	4794
198.017	5595
198.086	4091
198.155	2094
198.223	2884
198.292	7437
198.360	4262
198.429	2339
198.497	1846
198.566	3735
198.635	7487
198.703	3262
198.772	2666
198.840	8171
198.909	9773
198.977	3121
199.046	2973
199.114	2222
199.183	2258
199.251	1699
199.320	1410
199.388	1594
199.457	994
199.525	1362
199.594	1291
199.662	2196
199.731	1059
199.799	1608
199.867	1832
199.936	1603
200.004	1449
200.073	2403
200.141	1590
200.210	1320
200.278	751
200.346	1988
200.415	1579
200.483	2257
200.552	1792
200.620	761
200.688	1523
200.757	1392
200.825	2006
200.893	1328
200.962	1697
201.030	1372
201.098	825
201.167	1912
201.235	1339
201.303	2257
201.372	1686
201.440	2210
201.508	1703
201.577	1619
201.645	1923
201.713	937
201.781	1006
201.850	2312
201.918	2297
201.986	1906
202.055	1588
202.123	1306
202.191	2522
202.259	1838
202.327	1659
202.396	1715
202.464	1409
202.532	1948
202.600	5413
202.669	3205
202.737	1151
202.805	1682
202.873	1604
202.941	1999
203.009	2136
203.078	1679
203.146	2077
203.214	2056
203.282	1671
203.350	1553
203.418	1798
203.487	2196
203.555	1942
203.623	2271
203.691	1864
203.759	1924
203.827	1395
203.895	1601
203.963	2393
204.031	1965
204.099	2710
204.168	2790
204.236	2767
204.304	2225
204.372	1871
204.440	2194
204.508	2086
204.576	2225
204.644	1982
204.712	1292
204.780	1170
204.848	1918
204.916	2362
204.984	2003
205.052	2721
205.120	2131
205.188	2376
205.256	2504
205.324	2134
205.392	2747
205.460	3153
205.528	2608
205.596	2917
205.664	2105
205.732	2898
205.799	9621
205.867	14989
205.935	5077
206.003	3465
206.071	3378
206.139	2854
206.207	2836
206.275	2245
206.343	2534
206.411	2810
206.478	2811
206.546	3157
206.614	2211
206.682	1995
206.750	2399
206.818	3253
206.885	3007
206.953	2221
207.021	3786
207.089	2822
207.157	2028
207.225	3180
207.292	1812
207.360	2762
207.428	3775
207.496	2332
207.563	2415
207.631	2717
207.699	1867
207.767	2001
207.834	2616
207.902	3426
207.970	3080
208.038	2879
208.105	3079
208.173	3584
208.241	4800
208.309	4794
208.376	3312
208.444	6198
208.512	5015
208.579	2373
208.647	4117
208.715	4490
208.782	3536
208.850	3484
208.918	3233
208.985	3060
209.053	2859
209.120	2688
209.188	2907
209.256	2832
209.323	2003
209.391	3093
209.459	4301
209.526	4073
209.594	2931
209.661	3010
209.729	2887
209.796	3233
209.864	3164
209.932	2256
209.999	3711
210.067	3677
210.134	2953
210.202	3169
210.269	4491
210.337	4607
210.404	2967
210.472	3560
210.539	3233
210.607	2989
210.674	2997
210.742	3399
210.809	3469
210.877	3744
210.944	3509
211.012	2856
211.079	5376
211.146	3523
211.214	3192
211.281	4522
211.349	4156
211.416	4353
211.484	4218
211.551	3285
211.618	3861
211.686	4164
211.753	3420
211.821	4384
211.888	4438
211.955	3729
212.023	4190
212.090	3592
212.157	3593
212.225	5052
212.292	9332
212.359	17509
212.427	46166
212.494	20345
212.561	8480
212.629	6080
212.696	5734
212.763	4552
212.831	4437
212.898	5217
212.965	3510
213.032	4295
213.100	4192
213.167	3816
213.234	5021
213.301	5049
213.369	4454
213.436	4487
213.503	3782
213.570	4714
213.638	3820
213.705	4048
213.772	3552
213.839	4024
213.906	4566
213.973	3521
214.041	3691
214.108	4108
214.175	4271
214.242	3714
214.309	3713
214.376	4561
214.444	3960
214.511	4870
214.578	5641
214.645	4806
214.712	4472
214.779	4681
214.846	4574
214.913	5708
214.980	6395
215.048	6222
215.115	6231
215.182	5552
215.249	4832
215.316	4232
215.383	4370
215.450	3445
215.517	3903
215.584	3486
215.651	3200
215.718	2901
215.785	2917
215.852	2484
215.919	3296
215.986	2935
216.053	3264
216.120	2794
216.187	2980
216.254	3020
216.321	3192
216.388	3006
216.455	3070
216.522	4272
216.589	4903
216.656	6233
216.722	8448
216.789	8529
216.856	9052
216.923	7929
216.990	5969
217.057	6206
217.124	6043
217.191	5844
217.258	8819
217.324	12074
217.391	13661
217.458	10722
217.525	7898
217.592	5578
217.659	3919
217.725	5832
217.792	5562
217.859	6332
217.926	3404
217.993	4086
218.059	3603
218.126	4171
218.193	3056
218.260	2380
218.327	2303
218.393	3293
218.460	2332
218.527	2958
218.594	2712
218.660	4793
218.727	5059
218.794	3081
218.860	3261
218.927	1923
218.994	2180
219.061	2021
219.127	2149
219.194	3414
219.261	2608
219.327	1991
219.394	2210
219.461	2020
219.527	2267
219.594	3389
219.661	2710
219.727	2211
219.794	3474
219.860	2459
219.927	3604
219.994	4035
220.060	5649
220.127	4491
220.193	5085
220.260	5287
220.326	8400
220.393	16058
220.460	22901
220.526	14314
220.593	8370
220.659	7994
220.726	8827
220.792	23606
220.859	20038
220.925	27142
220.992	38618
221.058	35701
221.125	33172
221.191	25472
221.258	10649
221.324	6849
221.391	6141
221.457	4877
221.524	5508
221.590	8089
221.657	28112
221.723	18744
221.789	17999
221.856	16195
221.922	8110
221.989	4984
222.055	3500
222.121	2995
222.188	4931
222.254	4238
222.321	2940
222.387	2707
222.453	2586
222.520	2999
222.586	2510
222.652	2684
222.719	1670
222.785	2941
222.851	2099
222.918	1932
222.984	3047
223.050	1882
223.116	1573
223.183	3846
223.249	2142
223.315	1481
223.382	2310
223.448	1877
223.514	813
223.580	2101
223.647	2231
223.713	1910
223.779	1989
223.845	2688
223.911	2004
223.978	2119
224.044	2091
224.110	1474
224.176	2873
224.242	1889
224.309	1567
224.375	2400
224.441	2098
224.507	2429
224.573	927
224.639	1895
224.705	1528
224.772	2272
224.838	1614
224.904	2775
224.970	1634
225.036	2691
225.102	812
225.168	1659
225.234	2552
225.300	1773
225.366	1938
225.432	1886
225.499	2101
225.565	2674
225.631	2314
225.697	3394
225.763	4765
225.829	4693
225.895	3817
225.961	6262
226.027	6113
226.093	4575
226.159	7785
226.225	13045
226.291	31229
226.357	55895
226.423	26640
226.489	12297
226.554	8933
226.620	8257
226.686	7585
226.752	12267
226.818	26975
226.884	69036
226.950	61206
227.016	24102
227.082	12640
227.148	8537
227.214	7035
227.279	5107
227.345	3909
227.411	3255
227.477	4644
227.543	6852
227.609	5257
227.674	3066
227.740	2410
227.806	3416
227.872	3759
227.938	3000
228.003	3018
228.069	2441
228.135	2642
228.201	2676
228.267	2836
228.332	2339
228.398	2321
228.464	2709
228.530	3008
228.595	1875
228.661	1409
228.727	2399
228.792	4002
228.858	2104
228.924	2069
228.990	5325
229.055	2366
229.121	4050
229.187	2194
229.252	1691
229.318	1689
229.384	2148
229.449	2122
229.515	988
229.581	520
229.646	2966
229.712	1113
229.777	3059
229.843	4527
229.909	3337
229.974	3283
230.040	3412
230.105	2842
230.171	2937
230.236	5657
230.302	10663
230.368	6156
230.433	4201
230.499	3676
230.564	3831
230.630	2127
230.695	1959
230.761	3115
230.826	1304
230.892	4279
230.957	1245
231.023	2156
231.088	2256
231.154	2585
231.219	3007
231.284	3055
231.350	3504
231.415	2114
231.481	2189
231.546	2055
231.612	2982
231.677	1659
231.742	1417
231.808	3215
231.873	1686
231.939	291
232.004	4025
232.069	3634
232.135	2523
232.200	2682
232.265	3443
232.331	1760
232.396	1934
232.461	792
232.527	1871
232.592	434
232.657	1701
232.723	2197
232.788	1263
232.853	2971
232.918	2216
232.984	1463
233.049	964
233.114	2042
233.179	3086
233.245	3253
233.310	4513
233.375	1096
233.440	2608
233.506	1492
233.571	1340
233.636	1773
233.701	1491
233.766	1663
233.832	3344
233.897	2305
233.962	601
234.027	3062
234.092	1855
234.157	1866
234.222	1371
234.288	3520
234.353	9925
234.418	6984
234.483	5207
234.548	2998
234.613	3703
234.678	3565
234.743	3631
234.808	8478
234.873	5849
234.938	5293
235.004	2766
235.069	3349
235.134	2923
235.199	3633
235.264	3021
235.329	1794
235.394	3438
235.459	3688
235.524	3424
235.589	3657
235.654	3179
235.719	1717
235.784	2819
235.849	3131
235.913	5257
235.978	5159
236.043	6215
236.108	3690
236.173	3609
236.238	4423
236.303	3420
236.368	3576
236.433	5408
236.498	6986
236.563	8944
236.627	20901
236.692	84034
236.757	69603
236.822	23729
236.887	15261
236.952	13648
237.017	10451
237.081	10553
237.146	13525
237.211	36240
237.276	83876
237.341	136734
237.405	56970
237.470	21018
237.535	13621
237.600	9640
237.664	8514
237.729	5822
237.794	9723
237.859	22735
237.923	10962
237.988	6304
238.053	6219
238.118	6216
238.182	17619
238.247	17136
238.312	5555
238.376	4807
238.441	3210
238.506	4840
238.570	1885
238.635	4435
238.700	2895
238.764	2391
238.829	5694
238.893	6418
238.958	4349
239.023	3910
239.087	3216
239.152	3675
239.216	2267
239.281	2753
239.346	2262
239.410	3303
239.475	3174
239.539	13454
239.604	11907
239.668	4149
239.733	2535
239.797	4048
239.862	10112
239.926	9919
239.991	4574
240.055	3375
240.120	2433
240.184	2344
240.249	2285
240.313	1881
240.378	2214
240.442	6098
240.507	11572
240.571	3680
240.635	4601
240.700	5033
240.764	2329
240.829	2624
240.893	385
240.957	2500
241.022	6688
241.086	10531
241.151	3961
241.215	1657
241.279	3657
241.344	4920
241.408	3240
241.472	2323
241.537	3576
241.601	3490
241.665	3298
241.730	2368
241.794	4570
241.858	2367
241.922	3435
241.987	3664
242.051	3257
242.115	1459
242.179	3241
242.244	3095
242.308	3858
242.372	2923
242.436	2572
242.501	3712
242.565	3251
242.629	3327
242.693	4152
242.757	2485
242.822	2895
242.886	3272
242.950	3232
243.014	3188
243.078	2899
243.142	2998
243.206	3328
243.271	3835
243.335	4911
243.399	9276
243.463	43088
243.527	129422
243.591	37995
243.655	12554
243.719	7101
243.783	7358
243.847	11429
243.911	15732
243.975	7480
244.040	3611
244.104	5416
244.168	3470
244.232	3004
244.296	7690
244.360	13111
244.424	3785
244.488	3657
244.552	3448
244.615	2254
244.679	2874
244.743	2699
244.807	2286
244.871	1877
244.935	3051
244.999	1193
245.063	2224
245.127	4481
245.191	9075
245.255	9825
245.319	3421
245.383	1688
245.446	4494
245.510	1596
245.574	2254
245.638	2853
245.702	1780
245.766	5017
245.829	5247
245.893	2689
245.957	3351
246.021	3523
246.085	3063
246.149	2761
246.212	7300
246.276	13983
246.340	5426
246.404	4033
246.467	4109
246.531	3336
246.595	5478
246.659	3931
246.722	2392
246.786	3579
246.850	3781
246.913	5001
246.977	1888
247.041	3185
247.104	3778
247.168	4389
247.232	7156
247.295	19353
247.359	8498
247.423	4010
247.486	4938
247.550	4398
247.614	2641
247.677	3944
247.741	3131
247.804	2961
247.868	4554
247.932	7076
247.995	18759
248.059	5738
248.122	2702
248.186	5335
248.249	6382
248.313	31053
248.376	30041
248.440	18260
248.503	6715
248.567	6315
248.630	5387
248.694	7427
248.757	13139
248.821	36870
248.884	17949
248.948	15782
249.011	23741
249.075	41416
249.138	34133
249.202	11790
249.265	7950
249.328	9817
249.392	6210
249.455	6876
249.519	5832
249.582	5878
249.645	8188
249.709	8077
249.772	8878
249.835	6964
249.899	7220
249.962	6512
250.025	7019
250.089	13924
250.152	17330
250.215	8755
250.279	7692
250.342	8103
250.405	8699
250.468	8083
250.532	11285
250.595	22507
250.658	111862
250.721	195540
250.785	52124
250.848	24630
250.911	15735
250.974	13966
251.038	16694
251.101	26661
251.164	14842
251.227	14106
251.290	16597
251.354	32494
251.417	159761
251.480	160268
251.543	97688
251.606	310112
251.669	220936
251.732	69921
251.795	52042
251.859	62583
251.922	186548
251.985	99950
252.048	30467
252.111	20949
252.174	17503
252.237	23732
252.300	53427
252.363	78388
252.426	224420
252.489	79678
252.552	29314
252.615	19602
252.678	20924
252.741	43704
252.804	85899
252.867	238497
252.930	98266
252.993	35723
253.056	22272
253.119	15517
253.182	15448
253.245	35167
253.308	20829
253.371	11174
253.434	8742
253.497	8573
253.559	15027
253.622	10129
253.685	8232
253.748	8671
253.811	5682
253.874	8315
253.937	5850
254.000	5778
254.062	10038
254.125	16728
254.188	9307
254.251	7509
254.314	4656
254.376	6482
254.439	7601
254.502	6549
254.565	9367
254.628	19353
254.690	7564
254.753	3678
254.816	4419
254.878	4122
254.941	10803
255.004	12113
255.067	4747
255.129	3284
255.192	2705
255.255	1911
255.317	3217
255.380	3024
255.443	2745
255.505	2958
255.568	1667
255.631	2541
255.693	2996
255.756	2133
255.819	4138
255.881	2663
255.944	2693
256.006	2822
256.069	2743
256.132	1919
256.194	3484
256.257	7720
256.319	6731
256.382	5472
256.444	5301
256.507	4407
256.569	4316
256.632	5678
256.694	9763
256.757	37465
256.819	127130
256.882	46839
256.944	15841
257.007	11008
257.069	7870
257.132	6748
257.194	6169
257.257	4809
257.319	5452
257.381	9660
257.444	27514
257.506	144948
257.569	147698
257.631	43537
257.693	20590
257.756	13006
257.818	9337
257.880	7274
257.943	6292
258.005	4097
258.067	3770
258.130	3573
258.192	5026
258.254	5348
258.317	3856
258.379	3662
258.441	7295
258.503	8997
258.566	10899
258.628	14955
258.690	3666
258.753	5043
258.815	5857
258.877	4222
258.939	3884
259.001	3835
259.064	3204
259.126	3514
259.188	4260
259.250	4010
259.312	5008
259.375	9098
259.437	5712
259.499	3921
259.561	3083
259.623	3646
259.685	2749
259.747	3968
259.809	10419
259.872	19385
259.934	35033
259.996	27752
260.058	6673
260.120	4518
260.182	4034
260.244	3258
260.306	2647
260.368	2708
260.430	1922
260.492	3010
260.554	6049
260.616	5872
260.678	11046
260.740	17454
260.802	4706
260.864	3345
260.926	2423
260.988	4506
261.050	2486
261.112	4171
261.174	15869
261.236	16290
261.298	4553
261.359	8105
261.421	10464
261.483	2633
261.545	3508
261.607	1205
261.669	3211
261.731	4090
261.793	9408
261.854	3949
261.916	3013
261.978	2070
262.040	2620
262.102	3359
262.164	3706
262.225	4203
262.287	2715
262.349	4168
262.411	3883
262.472	2624
262.534	4699
262.596	10454
262.658	4280
262.719	1990
262.781	3960
262.843	9322
262.904	5305
262.966	5141
263.028	9120
263.090	48510
263.151	152391
263.213	42062
263.275	12979
263.336	7670
263.398	5743
263.459	4362
263.521	3184
263.583	4701
263.644	3468
263.706	2040
263.767	998
263.829	2347
263.891	1471
263.952	1847
264.014	870
264.075	501
264.137	1800
264.198	2242
264.260	1271
264.321	1713
264.383	2292
264.444	3547
264.506	1302
264.567	2418
264.629	2575
264.690	319
264.752	2173
264.813	2717
264.875	1198
264.936	2704
264.998	2170
265.059	2626
265.120	4681
265.182	9731
265.243	62045
265.305	63927
265.366	13209
265.427	6292
265.489	5751
265.550	2864
265.611	3452
265.673	2815
265.734	2336
265.795	2846
265.857	1943
265.918	5022
265.979	16894
266.040	105933
266.102	84587
266.163	17528
266.224	9817
266.286	7267
266.347	3041
266.408	3524
266.469	3083
266.530	2739
266.592	2465
266.653	2760
266.714	4296
266.775	1997
266.836	1786
266.898	1757
266.959	3124
267.020	1936
267.081	3180
267.142	2916
267.203	2192
267.264	1856
267.326	3346
267.387	960
267.448	1105
267.509	1576
267.570	1738
267.631	936
267.692	1021
267.753	2563
267.814	808
267.875	3066
267.936	5149
267.997	2689
268.058	3605
268.119	1342
268.180	1830
268.241	777
268.302	1233
268.363	374
268.424	1237
268.485	2330
268.546	590
268.607	1160
268.668	1716
268.729	1520
268.790	1323
268.851	1614
268.912	2038
268.972	2635
269.033	1079
269.094	861
269.155	1196
269.216	963
269.277	1934
269.338	1879
269.398	2407
269.459	881
269.520	1905
269.581	1978
269.642	2679
269.702	1588
269.763	2896
269.824	2089
269.885	1838
269.945	3095
270.006	1434
270.067	1192
270.128	801
270.188	738
270.249	1370
270.310	1422
270.370	1225
270.431	821
270.492	887
270.553	1540
270.613	3125
270.674	3661
270.734	1902
270.795	1403
270.856	1636
270.916	1279
270.977	1066
271.038	2035
271.098	1976
271.159	2690
271.219	1770
271.280	1753
271.340	1483
271.401	2106
271.462	4086
271.522	2956
271.583	1882
271.643	1599
271.704	1671
271.764	2453
271.825	5347
271.885	24619
271.946	43082
272.006	10182
272.066	16040
272.127	33864
272.187	8983
272.248	4455
272.308	5069
272.369	17751
272.429	9821
272.489	3472
272.550	3579
272.610	4365
272.671	3169
272.731	3454
272.791	4903
272.852	3225
272.912	2170
272.972	2423
273.033	2093
273.093	2257
273.153	2100
273.214	1360
273.274	1583
273.334	8353
273.394	17845
273.455	5560
273.515	5155
273.575	11371
273.635	6047
273.696	8864
273.756	22760
273.816	8165
273.876	3840
273.936	9092
273.997	16279
274.057	3607
274.117	3062
274.177	4656
274.237	22590
274.297	22352
274.358	11516
274.418	13653
274.478	8333
274.538	3321
274.598	3114
274.658	12137
274.718	15899
274.778	4949
274.838	3638
274.898	6802
274.958	24081
275.018	25269
275.078	15971
275.138	4594
275.198	2958
275.258	3048
275.318	3144
275.378	2833
275.438	2558
275.498	3629
275.558	10001
275.618	23426
275.678	11992
275.738	5531
275.798	3921
275.858	2015
275.918	1603
275.978	2004
276.038	1636
276.098	1287
276.157	2783
276.217	7153
276.277	3758
276.337	1963
276.397	2531
276.457	1787
276.517	1675
276.576	2265
276.636	1540
276.696	1975
276.756	5170
276.815	3469
276.875	1472
276.935	1598
276.995	2481
277.055	968
277.114	2843
277.174	1469
277.234	7330
277.293	2877
277.353	1879
277.413	2200
277.472	2207
277.532	2069
277.592	2565
277.651	9438
277.711	18512
277.771	5767
277.830	17714
277.890	16294
277.950	14155
278.009	55690
278.069	19477
278.128	13607
278.188	18243
278.248	8238
278.307	20104
278.367	14152
278.426	5187
278.486	3724
278.545	3126
278.605	2400
278.664	2564
278.724	3212
278.783	8944
278.843	25410
278.902	8029
278.962	4123
279.021	3685
279.081	6880
279.140	6734
279.199	5072
279.259	4678
279.318	7306
279.378	9153
279.437	17258
279.496	61885
279.556	248257
279.615	209605
279.675	42727
279.734	22921
279.793	26008
279.853	41496
279.912	16389
279.971	9338
280.031	7710
280.090	12866
280.149	26040
280.208	28025
280.268	163151
280.327	189879
280.386	35803
280.445	18301
280.505	13513
280.564	9224
280.623	7700
280.682	6651
280.742	8724
280.801	3679
280.860	3168
280.919	1965
280.978	2892
281.037	2508
281.097	2401
281.156	3333
281.215	2440
281.274	3438
281.333	12190
281.392	9499
281.451	3224
281.510	2577
281.569	2399
281.628	2685
281.688	3052
281.747	2950
281.806	1534
281.865	2037
281.924	561
281.983	1506
282.042	1040
282.101	1413
282.160	1981
282.219	2089
282.278	1433
282.337	3410
282.396	3362
282.454	1365
282.513	1834
282.572	5019
282.631	4417
282.690	1373
282.749	1324
282.808	1265
282.867	1428
282.926	2201
282.985	1845
283.043	215
283.102	1109
283.161	1721
283.220	4283
283.279	8534
283.338	3695
283.396	2234
283.455	2423
283.514	2075
283.573	2166
283.631	2233
283.690	1539
283.749	1934
283.808	3522
283.866	4561
283.925	1364
283.984	2427
284.043	3079
284.101	2204
284.160	1909
284.219	2787
284.277	2776
284.336	2967
284.395	9680
284.453	8756
284.512	3162
284.570	3859
284.629	3714
284.688	3799
284.746	2671
284.805	4228
284.863	5280
284.922	6684
284.981	7624
285.039	12666
285.098	24551
285.156	68280
285.215	281582
285.273	278275
285.332	87934
285.390	38952
285.449	24332
285.507	16046
285.566	12280
285.624	9938
285.683	7019
285.741	4982
285.799	4351
285.858	3781
285.916	4058
285.975	2731
286.033	2660
286.091	2892
286.150	2431
286.208	2985
286.267	3318
286.325	2896
286.383	3879
286.442	2678
286.500	2176
286.558	2540
286.616	2562
286.675	2998
286.733	2831
286.791	2534
286.850	3258
286.908	3258
286.966	4039
287.024	3188
287.083	2449
287.141	2714
287.199	3672
287.257	3334
287.315	3427
287.374	3830
287.432	5424
287.490	5229
287.548	3346
287.606	4189
287.664	3832
287.723	4388
287.781	6514
287.839	5881
287.897	7400
287.955	11792
288.013	24585
288.071	62718
288.129	233862
288.187	660645
288.245	303505
288.303	90616
288.361	50861
288.419	33849
288.477	25486
288.535	18485
288.593	12811
288.651	9698
288.709	6286
288.767	5698
288.825	4284
288.883	3767
288.941	3705
288.999	3684
289.057	3103
289.115	2605
289.173	2672
289.231	2072
289.289	2330
289.346	2272
289.404	3238
289.462	2374
289.520	2419
289.578	2734
289.636	2226
289.694	2050
289.751	1924
289.809	2292
289.867	2258
289.925	2968
289.983	1919
290.040	2137
290.098	1984
290.156	1757
290.214	1729
290.271	792
290.329	2334
290.387	1148
290.444	1354
290.502	981
290.560	1329
290.617	1456
290.675	818
290.733	724
290.790	1465
290.848	2128
290.906	564
290.963	1281
291.021	666
291.078	368
291.136	1124
291.194	1932
291.251	5633
291.309	1885
291.366	242
291.424	970
291.481	1338
291.539	602
291.596	1173
291.654	165
291.711	688
291.769	1051
291.826	1609
291.884	2152
291.941	91
291.999	645
292.056	1255
292.114	688
292.171	530
292.228	600
292.286	1072
292.343	1756
292.401	2387
292.458	948
292.515	379
292.573	1153
292.630	1516
292.687	1461
292.745	771
292.802	1228
292.859	3213
292.917	7357
292.974	5132
293.031	1746
293.089	1132
293.146	1080
293.203	922
293.260	778
293.318	1243
293.375	1611
293.432	1679
293.489	871
293.546	1446
293.604	3048
293.661	9895
293.718	27776
293.775	11963
293.832	4466
293.889	3434
293.947	3832
294.004	2586
294.061	1838
294.118	2904
294.175	5400
294.232	2944
294.289	1867
294.346	2105
294.403	3090
294.460	1582
294.517	1618
294.574	1237
294.631	1307
294.688	2219
294.745	6272
294.802	23785
294.859	16075
294.916	6652
294.973	4984
295.030	3065
295.087	2093
295.144	1904
295.201	2037
295.258	1774
295.315	3132
295.372	8748
295.429	19622
295.486	7288
295.542	2939
295.599	3029
295.656	2376
295.713	5341
295.770	12447
295.827	5575
295.883	2359
295.940	2093
295.997	2309
296.054	2530
296.111	2038
296.167	1562
296.224	1111
296.281	1346
296.338	1323
296.394	2006
296.451	1980
296.508	4917
296.564	9686
296.621	9377
296.678	27206
296.734	45616
296.791	14293
296.848	5799
296.904	5408
296.961	8082
297.018	17364
297.074	15313
297.131	6496
297.187	4414
297.244	7290
297.301	24653
297.357	48981
297.414	17475
297.470	6407
297.527	3220
297.583	2265
297.640	2563
297.696	2514
297.753	1676
297.809	1500
297.866	673
297.922	1019
297.979	1390
298.035	1832
298.092	2803
298.148	8926
298.204	9167
298.261	6297
298.317	11149
298.374	35074
298.430	22140
298.486	7937
298.543	4823
298.599	4711
298.656	6763
298.712	15656
298.768	58079
298.824	54208
298.881	15548
298.937	6774
298.993	5475
299.050	4885
299.106	4295
299.162	2973
299.218	3330
299.275	2069
299.331	4210
299.387	8238
299.443	30013
299.500	33570
299.556	12909
299.612	5397
299.668	3877
299.724	6034
299.780	6863
299.837	3103
299.893	4994
299.949	14145
300.005	19360
300.061	17921
300.117	39990
300.173	20991
300.229	7261
300.285	5627
300.341	4813
300.397	2916
300.453	2271
300.510	2566
300.566	2149
300.622	4118
300.678	11344
300.734	19940
300.790	16961
300.845	24898
300.901	15377
300.957	15055
301.013	10720
301.069	4640
301.125	2724
301.181	2782
301.237	2545
301.293	1095
301.349	2039
301.405	1437
301.461	1204
301.516	1231
301.572	1170
301.628	2647
301.684	2498
301.740	4131
301.796	6989
301.851	5463
301.907	8626
301.963	13741
302.019	32001
302.074	99764
302.130	105055
302.186	44342
302.242	16110
302.297	9881
302.353	8333
302.409	11010
302.464	10195
302.520	8831
302.576	19637
302.631	25238
302.687	11145
302.743	5716
302.798	3439
302.854	3003
302.910	2959
302.965	3983
303.021	4884
303.076	4103
303.132	4459
303.187	4964
303.243	3452
303.299	2834
303.354	2372
303.410	3381
303.465	2650
303.521	2098
303.576	2423
303.632	4216
303.687	8240
303.743	26106
303.798	23219
303.853	9253
303.909	4404
303.964	3085
304.020	3993
304.075	4710
304.130	4611
304.186	6782
304.241	6925
304.297	5944
304.352	3382
304.358	3288
304.407	2529
304.449	2666
304.463	2718
304.518	3374
304.539	3065
304.573	2554
304.629	3971
304.630	4030
304.684	6837
304.720	15324
304.739	19590
304.794	35740
304.811	30201
304.850	17105
304.902	7392
304.905	6767
304.960	6154
304.992	7714
305.015	8793
305.071	8447
305.083	7507
305.126	4202
305.173	2310
305.181	1993
305.236	1654
305.264	1781
305.292	1944
305.347	3094
305.354	3156
305.402	3597
305.445	5288
305.457	5738
305.512	8535
305.535	7268
305.567	5543
305.622	6072
305.626	6349
305.678	11787
305.716	23828
305.733	28345
305.788	29580
305.807	25163
305.843	17881
305.897	24769
305.898	24836
305.953	29037
305.988	19459
306.008	14148
306.063	7162
306.078	6335
306.118	4423
306.168	3553
306.173	3479
306.228	3120
306.259	3112
306.283	3219
306.338	3185
306.349	3560
306.393	5069
306.440	7514
306.448	7862
306.503	5851
306.530	5661
306.558	5819
306.613	8272
306.620	8578
306.668	10727
306.711	13315
306.723	13663
306.778	11793
306.801	9628
306.833	7148
306.888	4259
306.892	4175
306.943	3147
306.982	3274
306.997	3401
307.052	3212
307.072	3156
307.107	2983
307.162	2706
307.163	2709
307.217	3040
307.253	3095
307.272	3129
307.327	3141
307.343	3345
307.381	3788
307.434	3459
307.436	3489
307.491	5674
307.524	7343
307.546	7954
307.600	10311
307.614	9747
307.655	7769
307.704	5910
307.710	5800
307.765	5827
307.795	6301
307.819	6720
307.874	8609
307.885	8940
307.929	11093
307.975	15439
307.984	17052
308.038	31863
308.065	44864
308.093	80797
308.148	175455
308.156	199660
308.202	309346
308.246	373991
308.257	371006
308.312	195594
308.336	129018
308.366	82617
308.421	42634
308.426	40515
308.475	27908
308.517	22735
308.530	21297
308.585	17216
308.607	16179
308.639	14596
308.694	11944
308.697	11885
308.748	11454
308.787	11683
308.803	11528
308.857	11147
308.877	11257
308.912	12630
308.967	15987
308.967	16089
309.021	24658
309.058	32798
309.076	43927
309.130	88030
309.148	107815
309.185	218996
309.238	425511
309.239	426248
309.293	467887
309.328	401041
309.348	345034
309.402	155289
309.418	112982
309.457	70332
309.508	40677
309.511	39323
309.566	29914
309.598	26475
309.620	25413
309.674	25181
309.688	25416
309.729	22863
309.778	17395
309.783	16816
309.837	12555
309.868	10297
309.892	9988
309.946	11259
309.959	11933
310.001	13453
310.049	14689
310.055	14342
310.109	9745
310.139	6901
310.163	5569
310.218	4077
310.229	3906
310.272	3642
310.319	3643
310.326	3557
310.381	2565
310.409	2382
310.435	2456
310.489	2310
310.499	2321
310.543	2351
310.589	2478
310.598	2442
310.652	2206
310.679	2114
310.706	2155
310.760	2077
310.769	2120
310.814	2284
310.859	2240
310.868	2199
310.923	1977
310.948	2048
310.977	2215
311.031	2197
311.038	2227
311.085	2205
311.128	2030
311.139	2016
311.193	2039
311.218	2070
311.247	2141
311.301	2169
311.308	2191
311.356	2099
311.398	1985
311.410	2012
311.464	2120
311.488	2166
311.518	1928
311.572	1464
311.578	1423
311.626	1938
311.668	2372
311.680	2302
311.734	1981
311.758	1820
311.788	1801
311.842	1824
311.847	1827
311.896	1708
311.937	1626
311.950	1658
312.004	1816
312.027	1894
312.058	1964
312.112	2080
312.117	2093
312.165	1974
312.207	1876
312.297	1984
312.386	1569
312.476	2156
312.566	2471
312.656	2682
312.745	1492
312.835	1748
312.925	2341
313.015	2266
313.104	1666
313.194	2151
313.284	1421
313.374	2058
313.463	2458
313.553	2013
313.643	1307
313.732	1488
313.822	1258
313.912	1952
314.001	1474
314.091	2025
314.180	1673
314.270	2832
314.360	2094
314.449	1745
314.539	1163
314.628	1716
314.718	1680
314.808	1798
314.897	1507
314.987	2395
315.076	2316
315.166	1815
315.255	2615
315.345	2591
315.434	2361
315.524	2253
315.613	2379
315.703	4993
315.792	14427
315.881	50104
315.971	13152
316.060	4842
316.150	3369
316.239	2061
316.328	1905
316.418	2533
316.507	1687
316.597	2765
316.686	1463
316.775	1598
316.865	2205
316.954	1838
317.043	1482
317.133	1779
317.222	1574
317.311	1846
317.400	764
317.490	4605
317.579	3458
317.668	4285
317.757	7634
317.847	27002
317.936	91285
318.025	21912
318.114	13583
318.203	5992
318.293	2567
318.382	2451
318.471	2094
318.560	2207
318.649	2146
318.738	1018
318.828	1936
318.917	1256
319.006	1758
319.095	1725
319.184	3820
319.273	2989
319.362	2933
319.451	1856
319.540	1762
319.629	3032
319.718	3323
319.807	1353
319.896	1392
319.985	3641
320.074	2433
320.163	1080
320.252	959
320.341	1415
320.430	718
320.519	2519
320.608	979
320.697	1865
320.786	1125
320.875	1899
320.964	1714
321.053	2568
321.142	3492
321.230	4154
321.319	3010
321.408	6297
321.497	3087
321.586	2778
321.675	2253
321.764	3248
321.852	2108
321.941	3961
322.030	1718
322.119	2615
322.207	6364
322.296	3599
322.385	3090
322.474	4435
322.562	8746
322.651	3300
322.740	3676
322.829	4249
322.917	1977
323.006	2494
323.095	2375
323.183	1213
323.272	1908
323.361	2920
323.449	5217
323.538	2539
323.626	3556
323.715	2478
323.804	1154
323.892	3577
323.981	2474
324.069	1974
324.158	2183
324.246	2820
324.335	1281
324.424	3400
324.512	2365
324.601	3561
324.689	13185
324.778	22836
324.866	3489
324.954	1839
325.043	1000
325.131	1681
325.220	2594
325.308	2002
325.397	2862
325.485	1758
325.574	868
325.662	1622
325.750	861
325.839	1964
325.927	728
326.015	1493
326.104	436
326.192	1435
326.280	1005
326.369	1250
326.457	1147
326.545	2147
326.634	1235
326.722	1824
326.810	1062
326.898	851
326.987	1306
327.075	1637
327.163	2535
327.251	2337
327.340	8761
327.428	11871
327.516	1926
327.604	1671
327.692	843
327.781	1145
327.869	1276
327.957	1821
328.045	1030
328.133	1826
328.221	330
328.309	1385
328.397	1574
328.485	1121
328.574	1753
328.662	4578
328.750	2313
328.838	1495
328.926	1296
329.014	1164
329.102	1904
329.190	2218
329.278	2108
329.366	1139
329.454	243
329.542	1705
329.630	886
329.718	2056
329.806	1409
329.893	2501
329.981	2875
330.069	8689
330.157	39931
330.245	99366
330.333	42704
330.421	6496
330.509	3150
330.597	6087
330.684	3804
330.772	1775
330.860	1382
330.948	1550
331.036	1343
331.123	1207
331.211	262
331.299	426
331.387	1053
331.475	1108
331.562	837
331.650	744
331.738	348
331.825	1196
331.913	575
332.001	627
332.089	982
332.176	1192
332.264	1643
332.352	1642
332.439	1276
332.527	2012
332.614	1418
332.702	1180
332.790	825
332.877	1765
332.965	2088
333.052	1386
333.140	1488
333.228	2950
333.315	1328
333.403	645
333.490	1737
333.578	2014
333.665	4312
333.753	2432
333.840	561
333.928	1304
334.015	1700
334.103	2272
334.190	3042
334.278	2313
334.365	2566
334.452	2690
334.540	1994
334.627	1229
334.715	1799
334.802	3184
334.889	6890
334.977	9906
335.064	3681
335.151	2013
335.239	1144
335.326	1338
335.413	1497
335.501	1851
335.588	893
335.675	1702
335.762	1753
335.850	2443
335.937	3804
336.024	7160
336.111	11832
336.199	9318
336.286	2118
336.373	2385
336.460	1145
336.547	784
336.635	1773
336.722	935
336.809	1407
336.896	2086
336.983	1727
337.070	3024
337.157	2712
337.245	3422
337.332	3012
337.419	658
337.506	9
337.593	1026
337.680	850
337.767	2299
337.854	1148
337.941	1110
338.028	1417
338.115	1915
338.202	1796
338.289	1154
338.376	3005
338.463	1687
338.550	426
338.637	1791
338.724	1019
338.811	1624
338.898	878
338.984	1310
339.071	820
339.158	1046
339.245	1520
339.332	1591
339.419	831
339.506	2405
339.593	-38
339.679	1147
339.766	1110
339.853	971
339.940	1720
340.027	690
340.113	700
340.200	1112
340.287	390
340.374	1170
340.460	1788
340.547	245
340.634	2070
340.720	6435
340.807	2179
340.894	1118
340.980	888
341.067	423
341.154	1192
341.240	1052
341.327	2401
341.414	994
341.500	421
341.587	1339
341.674	1389
341.760	2012
341.847	1845
341.933	733
342.020	-81
342.106	1003
342.193	1056
342.279	1961
342.366	1482
342.452	2014
342.539	1052
342.625	2546
342.712	6100
342.798	2197
342.885	1129
342.971	325
343.058	1050
343.144	489
343.230	998
343.317	483
343.403	531
343.490	1125
343.576	389
343.662	1140
343.749	1012
343.835	2145
343.921	5945
344.008	37059
344.094	63905
344.180	11373
344.267	2967
344.353	9257
344.439	7145
344.525	2837
344.612	1120
344.698	2080
344.784	579
344.870	668
344.957	905
345.043	2055
345.129	1153
345.215	2708
345.301	1144
345.387	794
345.474	264
345.560	756
345.646	767
345.732	649
345.818	529
345.904	408
345.990	680
346.076	497
346.162	146
346.249	1959
346.335	20
346.421	2801
346.507	5997
346.593	15036
346.679	2160
346.765	1247
346.851	973
346.937	193
347.023	1847
347.108	1532
347.194	223
347.280	852
347.366	2206
347.452	7473
347.538	21861
347.624	13120
347.710	7209
347.796	1416
347.882	269
347.967	1551
348.053	180
348.139	1232
348.225	1115
348.311	680
348.397	358
348.482	1245
348.568	1159
348.654	541
348.740	2147
348.825	184
348.911	3758
348.997	12100
349.083	17976
349.168	2678
349.254	1074
349.340	731
349.425	999
349.511	631
349.597	1172
349.682	2748
349.768	7061
349.854	3171
349.939	976
350.025	1370
350.110	582
350.196	285
350.282	-484
350.367	1303
350.453	1211
350.538	320
350.624	138
350.709	618
350.795	-33
350.880	54
350.966	1618
351.051	1141
351.137	536
351.222	1080
351.308	2861
351.393	5662
351.479	1379
351.564	438
351.649	972
351.735	706
351.820	-148
351.906	548
351.991	497
352.076	4746
352.162	5626
352.247	1584
352.332	722
352.418	1177
352.503	2001
352.588	7854
352.673	5535
352.759	1093
352.844	282
352.929	707
353.014	922
353.100	2033
353.185	2160
353.270	1669
353.355	2809
353.441	1416
353.526	462
353.611	2090
353.696	1508
353.781	2317
353.866	-431
353.952	1369
354.037	2088
354.122	4304
354.207	3322
354.292	1502
354.377	555
354.462	749
354.547	348
354.632	1237
354.717	1462
354.802	1857
354.887	1317
354.972	626
355.057	351
355.142	472
355.227	996
355.312	1651
355.397	2937
355.482	5796
355.567	1810
355.652	2662
355.737	3049
355.822	9966
355.907	7215
355.991	2290
356.076	263
356.161	1045
356.246	1185
356.331	1630
356.416	4074
356.501	27917
356.585	22643
356.670	2446
356.755	3264
356.840	3991
356.924	23592
357.009	74654
357.094	21892
357.179	2647
357.263	1197
357.348	1829
357.433	2185
357.517	2470
357.602	1669
357.687	827
357.771	1229
357.856	2528
357.941	3503
358.025	27093
358.110	105803
358.195	38040
358.279	3559
358.364	2365
358.448	7137
358.533	15215
358.617	10563
358.702	10967
358.787	3588
358.871	3409
358.956	1701
359.040	160
359.125	11
359.209	2084
359.294	1354
359.378	254
359.462	1422
359.547	1329
359.631	95
359.716	30
359.800	802
359.885	933
359.969	-335
360.053	1116
360.138	710
360.222	1471
360.306	1375
360.391	1771
360.475	1136
360.559	3421
360.644	5357
360.728	4115
360.812	17010
360.896	38901
360.981	9828
361.065	2552
361.149	1752
361.233	852
361.318	388
361.402	832
361.486	1173
361.570	969
361.654	885
361.739	5241
361.823	28927
361.907	39907
361.991	4497
362.075	2557
362.159	3557
362.243	4406
362.327	5055
362.411	10083
362.495	2962
362.580	1622
362.664	1041
362.748	493
362.832	1683
362.916	4123
363.000	18169
363.084	46635
363.168	49330
363.252	8431
363.336	2065
363.420	2068
363.503	2289
363.587	1843
363.671	1594
363.755	1101
363.839	1952
363.923	437
364.007	1480
364.091	2094
364.175	1272
364.258	8125
364.342	16808
364.426	37508
364.510	16378
364.594	5940
364.677	8835
364.761	35969
364.845	21576
364.929	4525
365.013	3317
365.096	2607
365.180	2134
365.264	1593
365.347	3058
365.431	1011
365.515	-376
365.598	-287
365.682	1909
365.766	-516
365.849	433
365.933	73
366.017	1655
366.100	-84
366.184	-934
366.267	1057
366.351	499
366.435	421
366.518	561
366.602	370
366.685	-72
366.769	131
366.852	718
366.936	1420
367.019	699
367.103	-25
367.186	827
367.270	92
367.353	-379
367.436	762
367.520	896
367.603	683
367.687	820
367.770	2189
367.853	1197
367.937	7760
368.020	9441
368.104	1029
368.187	2993
368.270	2018
368.353	1378
368.437	2094
368.520	2001
368.603	2215
368.687	6804
368.770	12163
368.853	2112
368.936	2648
369.020	1509
369.103	782
369.186	694
369.269	674
369.352	1782
369.436	1667
369.519	1926
369.602	-288
369.685	2274
369.768	359
369.851	800
369.934	129
370.018	-55
370.101	850
370.184	3193
370.267	1428
370.350	1749
370.433	4418
370.516	18254
370.599	31355
370.682	7749
370.765	7093
370.848	9624
370.931	16323
371.014	5310
371.097	70
371.180	1374
371.263	158
371.346	238
371.429	743
371.511	329
371.594	1268
371.677	1774
371.760	2134
371.843	5354
371.926	45339
372.009	87986
372.091	20074
372.174	8429
372.257	20458
372.340	5728
372.423	2221
372.505	3105
372.588	1412
372.671	6373
372.754	16699
372.836	7303
372.919	2073
373.002	2969
373.085	1245
373.167	3802
373.250	7880
373.332	20187
373.415	53143
373.498	107157
373.580	36650
373.663	75630
373.746	82180
373.828	11826
373.911	3901
373.993	1456
374.076	2511
374.159	2516
374.241	4989
374.324	13017
374.406	11191
374.489	27884
374.571	64003
374.654	18771
374.736	11985
374.819	38446
374.901	66083
374.983	64529
375.066	9076
375.148	2448
375.231	1708
375.313	3131
375.395	1530
375.478	767
375.560	2244
375.643	2142
375.725	12274
375.807	51236
375.890	27800
375.972	3561
376.054	2646
376.136	2650
376.219	1516
376.301	13253
376.383	34721
376.465	10402
376.548	4726
376.630	8309
376.712	24895
376.794	9654
376.877	1659
376.959	631
377.041	1380
377.123	-237
377.205	471
377.287	167
377.369	730
377.452	832
377.534	988
377.616	238
377.698	-193
377.780	-401
377.862	655
377.944	1174
378.026	2
378.108	239
378.190	822
378.272	1100
378.354	548
378.436	-212
378.518	656
378.600	530
378.682	2781
378.764	8264
378.846	5807
378.928	1314
379.010	2033
379.091	1757
379.173	1506
379.255	349
379.337	586
379.419	4074
379.501	12728
379.583	3851
379.664	1054
379.746	1835
379.828	8760
379.910	9832
379.991	9649
380.073	856
380.155	1102
380.237	524
380.318	1011
380.400	390
380.482	1846
380.564	2182
380.645	2560
380.727	1963
380.809	1828
380.890	44
380.972	535
381.053	1408
381.135	1650
381.217	2456
381.298	8718
381.380	3593
381.461	6315
381.543	28967
381.624	30530
381.706	4768
381.787	1851
381.869	3972
381.951	22327
382.032	79341
382.113	37912
382.195	3846
382.276	4495
382.358	8777
382.439	24463
382.521	36931
382.602	57151
382.684	20380
382.765	28609
382.846	27802
382.928	42611
383.009	20261
383.090	17615
383.172	71211
383.253	100756
383.334	32467
383.416	38476
383.497	17709
383.578	7377
383.659	14288
383.741	67140
383.822	172794
383.903	74003
383.984	23299
384.066	37531
384.147	18947
384.228	5024
384.309	3472
384.390	3107
384.471	2567
384.553	1671
384.634	2199
384.715	3408
384.796	950
384.877	2804
384.958	8882
385.039	8790
385.120	2722
385.201	2478
385.282	1763
385.363	1799
385.444	1774
385.525	5588
385.606	19333
385.687	16162
385.768	3127
385.849	5284
385.930	39960
386.011	61752
386.092	12491
386.173	3217
386.254	2385
386.335	1826
386.416	1722
386.496	5256
386.577	7481
386.658	2976
386.739	1782
386.820	2899
386.901	1082
386.981	2345
387.062	1269
387.143	2840
387.224	9478
387.304	8172
387.385	3732
387.466	1077
387.547	2659
387.627	2042
387.708	5130
387.789	19558
387.869	21325
387.950	6922
388.031	1607
388.111	500
388.192	1853
388.273	3352
388.353	2131
388.434	2901
388.514	6610
388.595	29233
388.676	27164
388.756	9256
388.837	8340
388.917	4121
388.998	337
389.078	1854
389.159	1576
389.239	590
389.320	4151
389.400	221
389.480	4151
389.561	9278
389.641	5399
389.722	2693
389.802	2359
389.883	6240
389.963	14487
390.043	6494
390.124	767
390.204	5167
390.284	10336
390.365	8663
390.445	32843
390.525	149349
390.605	114439
390.686	15424
390.766	4463
390.846	3359
390.927	1593
391.007	1846
391.087	1923
391.167	1674
391.247	883
391.328	3688
391.408	2752
391.488	2983
391.568	553
391.648	2536
391.728	3258
391.808	3942
391.888	2607
391.969	7709
392.049	8926
392.129	5719
392.209	6874
392.289	15198
392.369	7612
392.449	4800
392.529	3870
392.609	6617
392.689	8827
392.769	16644
392.849	15158
392.929	14880
393.009	25933
393.089	28876
393.169	54918
393.248	252725
393.328	967763
393.408	880855
393.488	173571
393.568	41416
393.648	21331
393.728	13626
393.807	10462
393.887	11825
393.967	9617
394.047	11113
394.127	14723
394.206	34725
394.286	165630
394.366	631868
394.446	541651
394.525	101041
394.605	25105
394.685	13986
394.764	10951
394.844	9783
394.924	8746
395.003	6803
395.083	6331
395.163	6744
395.242	5494
395.322	7538
395.402	4912
395.481	7654
395.561	7992
395.640	13951
395.720	16617
395.799	16130
395.879	21744
395.958	50165
396.038	240017
396.117	826530
396.197	729092
396.276	160076
396.356	41407
396.435	22988
396.515	19530
396.594	23747
396.673	54608
396.753	290007
396.832	847444
396.912	464659
396.991	70117
397.070	22110
397.150	10722
397.229	9807
397.308	11354
397.388	14560
397.467	7857
397.546	4959
397.625	1947
397.705	5491
397.784	2769
397.863	1925
397.942	2451
398.022	1960
398.101	2571
398.180	3479
398.259	1626
398.338	1555
398.417	1058
398.497	1148
398.576	1879
398.655	786
398.734	830
398.813	933
398.892	1109
398.971	2447
399.050	1020
399.129	89
399.208	1418
399.287	1074
399.366	-137
399.445	865
399.524	980
399.603	-691
399.682	1118
399.761	1716
399.840	2288
399.919	2409
399.998	182
400.077	-351
400.156	-75
400.235	2083
400.313	-264
400.392	559
400.471	4868
400.550	5691
400.629	391
400.708	680
400.786	-395
400.865	-55
400.944	-193
401.023	2477
401.102	-32
401.180	414
401.259	476
401.338	-17
401.416	993
401.495	275
401.574	431
401.652	88
401.731	1022
401.810	-1084
401.888	-560
401.967	-78
402.046	-239
402.124	361
402.203	-241
402.281	270
402.360	496
402.438	367
402.517	-914
402.596	-85
402.674	-223
402.753	-127
402.831	567
402.910	1272
402.988	3741
403.066	11762
403.145	6565
403.223	5416
403.302	9322
403.380	7594
403.459	5601
403.537	1906
403.615	1166
403.694	-1037
403.772	611
403.850	-70
403.929	-485
404.007	264
404.085	1855
404.164	1551
404.242	140
404.320	2838
404.398	7596
404.477	11340
404.555	40666
404.633	30510
404.711	6518
404.789	1940
404.868	319
404.946	280
405.024	-668
405.102	-78
405.180	-333
405.258	-1259
405.336	968
405.415	-339
405.493	263
405.571	1811
405.649	-6
405.727	384
405.805	983
405.883	115
405.961	718
406.039	-400
406.117	-881
406.195	1817
406.273	6938
406.351	24893
406.429	12394
406.507	687
406.585	-489
406.663	467
406.740	222
406.818	-128
406.896	-653
406.974	1572
407.052	1256
407.130	14399
407.208	17956
407.285	3486
407.363	95
407.441	824
407.519	1070
407.596	5184
407.674	39978
407.752	147542
407.830	86772
407.907	8964
407.985	1886
408.063	2211
408.141	207
408.218	756
408.296	-298
408.373	590
408.451	937
408.529	192
408.606	-358
408.684	345
408.762	1042
408.839	-103
408.917	-154
408.994	441
409.072	-538
409.149	-447
409.227	1148
409.304	2050
409.382	1238
409.459	1739
409.537	3420
409.614	1431
409.692	488
409.769	1562
409.846	2997
409.924	4679
410.001	105
410.079	1262
410.156	1375
410.233	1291
410.311	1302
410.388	933
410.465	332
410.543	-346
410.620	511
410.697	432
410.775	-155
410.852	-272
410.929	835
411.006	1387
411.083	311
411.161	56
411.238	414
411.315	932
411.392	-199
411.469	903
411.547	174
411.624	-1496
411.701	279
411.778	220
411.855	454
411.932	-211
412.009	-818
412.086	-17
412.163	353
412.240	361
412.317	60
412.394	-915
412.471	-397
412.548	220
412.625	-7
412.702	-107
412.779	169
412.856	344
412.933	-413
413.010	248
413.087	1431
413.164	3646
413.241	4622
413.318	-696
413.395	1336
413.471	257
413.548	402
413.625	449
413.702	-554
413.779	-798
413.855	-414
413.932	6
414.009	-693
414.086	53
414.162	216
414.239	1635
414.316	3934
414.393	8401
414.469	1301
414.546	-256
414.623	850
414.699	-148
414.776	-563
414.853	80
414.929	244
415.006	-266
415.082	672
415.159	274
415.236	28
415.312	1056
415.389	1023
415.465	-3
415.542	225
415.618	-559
415.695	697
415.771	-254
415.848	-704
415.924	-319
416.000	423
416.077	852
416.153	-960
416.230	-945
416.306	-257
416.383	-506
416.459	97
416.535	141
416.612	-372
416.688	-414
416.764	-32
416.841	-751
416.917	-908
416.993	765
417.069	-291
417.146	1010
417.222	959
417.298	55
417.374	-410
417.451	512
417.527	-217
417.603	-111
417.679	-27
417.755	-285
417.831	-455
417.908	-93
417.984	-61
418.060	-1451
418.136	972
418.212	919
418.288	370
418.364	436
418.440	-1233
418.516	434
418.592	-578
418.668	1660
418.744	904
418.820	1217
418.896	40
418.972	-679
419.048	84
419.124	1254
419.200	-598
419.276	324
419.352	-333
419.428	375
419.504	-482
419.579	-455
419.655	170
419.731	-215
419.807	1491
419.883	2087
419.959	1225
420.034	385
420.110	1196
420.186	4959
420.262	2932
420.337	632
420.413	-462
420.489	730
420.565	1148
420.640	494
420.716	1453
420.792	-861
420.867	1259
420.943	-689
421.019	691
421.094	712
421.170	1142
421.245	-73
421.321	793
421.397	3700
421.472	29960
421.548	85294
421.623	37086
421.699	4645
421.774	1427
421.850	981
421.925	1527
422.001	2389
422.076	2019
422.152	2407
422.227	3956
422.302	5923
422.378	7997
422.453	17240
422.529	60979
422.604	244855
422.679	414860
422.755	182848
422.830	41837
422.905	14881
422.981	6753
423.056	4821
423.131	3841
423.207	3328
423.282	1904
423.357	3016
423.432	977
423.508	2654
423.583	2472
423.658	2171
423.733	1116
423.808	1667
423.883	939
423.959	479
424.034	818
424.109	1483
424.184	-72
424.259	-165
424.334	-68
424.409	18
424.484	150
424.559	552
424.634	-257
424.709	189
424.784	918
424.859	64
424.934	549
425.009	3218
425.084	5069
425.159	1821
425.234	860
425.309	-451
425.384	-76
425.459	-902
425.534	-1006
425.609	-586
425.683	-697
425.758	-357
425.833	-445
425.908	526
425.983	1727
426.058	5735
426.132	1535
426.207	-577
426.282	665
426.357	-938
426.431	-294
426.506	834
426.581	-540
426.655	-377
426.730	-283
426.805	-409
426.879	-230
426.954	-227
427.029	1287
427.103	7573
427.178	18815
427.253	7557
427.327	207
427.402	-1310
427.476	-479
427.551	-580
427.625	186
427.700	261
427.774	-583
427.849	403
427.923	-1586
427.998	-260
428.072	379
428.147	3008
428.221	18872
428.296	56234
428.370	24249
428.444	1296
428.519	-135
428.593	659
428.667	-50
428.742	600
428.816	4598
428.890	30969
428.965	41642
429.039	7624
429.113	842
429.188	-110
429.262	-554
429.336	743
429.410	1591
429.485	722
429.559	295
429.633	-40
429.707	410
429.781	3691
429.855	26442
429.930	34678
430.004	7351
430.078	3747
430.152	22725
430.226	103643
430.300	82192
430.374	9300
430.448	2315
430.522	1160
430.596	1764
430.670	10371
430.744	50189
430.818	53027
430.892	8500
430.966	1050
431.040	805
431.114	-987
431.188	54
431.262	528
431.336	-576
431.410	483
431.484	-160
431.557	1465
431.631	-160
431.705	1258
431.779	14045
431.853	52997
431.927	28811
432.000	3580
432.074	502
432.148	-11
432.222	-412
432.295	223
432.369	-879
432.443	478
432.516	8341
432.590	20422
432.664	6840
432.737	-268
432.811	-548
432.885	-404
432.958	547
433.032	-762
433.106	-968
433.179	286
433.253	-1101
433.326	-337
433.400	-828
433.473	-116
433.547	-1009
433.620	320
433.694	-991
433.767	135
433.841	-756
433.914	-16
433.988	-666
434.061	411
434.134	-118
434.208	-398
434.281	-1276
434.355	-1114
434.428	-84
434.501	-641
434.575	-457
434.648	-599
434.721	-808
434.795	-396
434.868	-1147
434.941	-598
435.014	-94
435.088	-518
435.161	-176
435.234	171
435.307	-523
435.381	919
435.454	734
435.527	1298
435.600	1659
435.673	710
435.746	-354
435.819	-73
435.892	-681
435.966	-439
436.039	-1124
436.112	-264
436.185	-889
436.258	-218
436.331	-501
436.404	-782
436.477	-748
436.550	-391
436.623	-572
436.696	-588
436.769	-376
436.842	-1236
436.915	-427
436.987	332
437.060	-581
437.133	-712
437.206	-652
437.279	159
437.352	372
437.425	-895
437.498	265
437.570	510
437.643	459
437.716	-200
437.789	-764
437.861	-257
437.934	75
438.007	-132
438.080	-34
438.152	365
438.225	1564
438.298	15951
438.370	42299
438.443	16161
438.516	1123
438.588	365
438.661	-509
438.734	-16
438.806	-92
438.879	605
438.951	-1080
439.024	118
439.096	-1312
439.169	-101
439.241	-246
439.314	-174
439.386	-568
439.459	-191
439.531	-635
439.604	31
439.676	-399
439.749	-971
439.821	-450
439.893	-626
439.966	-958
440.038	218
440.110	-206
440.183	-645
440.255	-480
440.327	1216
440.400	4001
440.472	17005
440.544	12904
440.617	595
440.689	153
440.761	-198
440.833	-176
440.905	455
440.978	-815
441.050	-710
441.122	-293
441.194	-986
441.266	-866
441.338	-603
441.411	-401
441.483	4258
441.555	5929
441.627	1085
441.699	110
441.771	-832
441.843	-178
441.915	-483
441.987	-100
442.059	-734
442.131	238
442.203	65
442.275	136
442.347	1079
442.419	3071
442.491	22551
442.563	46407
442.635	16245
442.706	2388
442.778	1188
442.850	-280
442.922	19
442.994	-11
443.066	423
443.137	222
443.209	719
443.281	856
443.353	4654
443.425	30897
443.496	105030
443.568	85292
443.640	26363
443.711	3567
443.783	1000
443.855	782
443.926	-286
443.998	-516
444.070	144
444.141	-712
444.213	259
444.285	117
444.356	620
444.428	-123
444.499	58
444.571	-527
444.642	46
444.714	-365
444.785	347
444.857	235
444.928	151
445.000	-470
445.071	331
445.143	1158
445.214	1307
445.285	2841
445.357	11923
445.428	78515
445.500	164698
445.571	83976
445.642	37135
445.714	8288
445.785	2676
445.856	343
445.928	977
445.999	880
446.070	-282
446.141	431
446.213	222
446.284	221
446.355	-63
446.426	-675
446.497	-285
446.569	-97
446.640	-439
446.711	-395
446.782	-366
446.853	-64
446.924	438
446.995	-886
447.066	-28
447.138	-1093
447.209	-273
447.280	-830
447.351	-403
447.422	-930
447.493	-514
447.564	-466
447.635	-62
447.706	-438
447.777	293
447.847	-297
447.918	-827
447.989	-665
448.060	429
448.131	-866
448.202	279
448.273	-920
448.344	130
448.414	-607
448.485	54
448.556	-718
448.627	127
448.698	1
448.768	-1332
448.839	-772
448.910	-813
448.981	-299
449.051	321
449.122	97
449.193	291
449.263	-78
449.334	-690
449.405	643
449.475	1026
449.546	1122
449.616	-293
449.687	787
449.758	521
449.828	-467
449.899	-169
449.969	-170
450.040	-583
450.110	-4
450.181	999
450.251	-37
450.322	161
450.392	273
450.463	-135
450.533	-429
450.604	216
450.674	-212
450.744	-333
450.815	-523
450.885	784
450.955	-242
451.026	-369
451.096	-840
451.166	-43
451.237	-1329
451.307	296
451.377	-44
451.447	-1051
451.518	-225
451.588	-657
451.658	-453
451.728	-642
451.799	-86
451.869	636
451.939	-736
452.009	-199
452.079	-680
452.149	122
452.219	143
452.289	135
452.360	-317
452.430	1039
452.500	-431
452.570	75
452.640	1628
452.710	4036
452.780	3458
452.850	2103
452.920	2361
452.990	849
453.060	17
453.129	-1122
453.199	-376
453.269	-108
453.339	-154
453.409	-200
453.479	814
453.549	774
453.619	770
453.688	-113
453.758	-48
453.828	-116
453.898	-95
453.968	-271
454.037	-118
454.087	305
454.107	458
454.168	-81
454.177	-188
454.247	-240
454.249	-215
454.316	-270
454.330	-244
454.386	-249
454.411	-259
454.456	-363
454.492	-40
454.525	190
454.574	339
454.595	362
454.655	657
454.665	681
454.734	406
454.736	433
454.804	338
454.817	372
454.873	438
454.898	333
454.943	50
454.979	57
455.013	-9
455.060	-331
455.082	-469
455.141	91
455.152	345
455.221	3276
455.222	3373
455.291	9073
455.303	11843
455.360	19966
455.384	27408
455.430	33271
455.465	24586
455.499	18300
455.546	6930
455.569	2430
455.627	1395
455.638	1177
455.707	932
455.708	960
455.777	1040
455.789	1093
455.846	1083
455.869	877
455.916	526
455.950	826
455.985	962
456.031	864
456.054	837
456.112	1118
456.124	1120
456.193	1290
456.193	1270
456.262	957
456.274	1187
456.332	1779
456.355	1446
456.401	966
456.436	1131
456.470	1112
456.516	878
456.540	778
456.597	796
456.609	762
456.678	1113
456.678	1092
456.747	1611
456.759	1569
456.817	1074
456.840	1164
456.886	1329
456.920	1368
456.955	1409
457.001	1704
457.024	1846
457.082	1429
457.093	1298
457.162	1238
457.163	1263
457.232	1523
457.243	1463
457.301	1449
457.324	1610
457.370	1542
457.405	2064
457.439	2618
457.485	2278
457.508	2316
457.566	2420
457.577	2388
457.646	3965
457.647	4001
457.715	6960
457.727	7450
457.784	11908
457.808	14785
457.853	17329
457.889	19264
457.922	17099
457.969	11775
457.991	13235
458.050	18096
458.060	19150
458.129	31257
458.130	31611
458.198	24710
458.211	22320
458.267	11691
458.292	7535
458.336	6296
458.372	6436
458.405	9424
458.453	14154
458.474	18375
458.533	32791
458.543	33858
458.611	46838
458.614	47216
458.680	23881
458.694	17884
458.749	8876
458.775	6419
458.818	5112
458.855	4583
458.887	4309
458.936	3738
458.955	3545
459.016	3307
459.024	3307
459.093	3461
459.097	3490
459.162	3331
459.177	3240
459.230	3349
459.257	3571
459.299	3734
459.338	4258
459.368	4532
459.418	4373
459.437	4347
459.499	3859
459.505	3732
459.574	3807
459.579	3800
459.643	4044
459.659	3938
459.711	3554
459.740	3658
459.780	3935
459.820	4189
459.849	4129
459.900	4432
459.917	4734
459.981	4936
459.986	4876
460.054	4897
460.061	4869
460.123	5185
460.141	5385
460.191	5746
460.222	6010
460.260	6637
460.302	7287
460.328	7523
460.382	8019
460.397	8388
460.462	10132
460.465	10702
460.534	24224
460.543	26029
460.602	91651
460.623	116145
460.671	186127
460.703	242802
460.739	210926
460.783	155899
460.808	119410
460.864	18763
460.876	14579
460.944	7452
460.945	7382
461.013	6378
461.024	6271
461.081	5759
461.104	5976
461.150	5987
461.184	5257
461.218	4962
461.264	5282
461.286	5409
461.345	5199
461.355	5120
461.423	5028
461.425	5016
461.491	4617
461.505	4715
461.559	5244
461.585	5111
461.628	4912
461.665	5344
461.696	5359
461.745	4828
461.764	4775
461.825	4750
461.832	4865
461.901	5703
461.905	5785
461.969	4712
461.985	4390
462.037	5468
462.065	6011
462.105	5244
462.145	4572
462.173	4879
462.225	5619
462.241	5640
462.305	5133
462.310	5120
462.378	5289
462.385	5315
462.446	5583
462.465	5673
462.514	6428
462.545	6825
462.582	6400
462.625	6168
462.650	6195
462.705	5828
462.718	5873
462.785	6203
462.786	6190
462.854	5246
462.865	5051
462.922	5038
462.945	5143
462.990	5487
463.025	5605
463.058	5492
463.104	5424
463.126	5406
463.184	5543
463.194	5605
463.262	5471
463.264	5488
463.330	6233
463.344	6257
463.398	6531
463.424	6679
463.466	5818
463.504	5094
463.533	5144
463.583	5523
463.601	5966
463.663	6622
463.669	6529
463.737	6017
463.743	5942
463.805	6760
463.823	6973
463.873	6765
463.903	6838
463.940	6930
463.982	6837
464.008	6655
464.062	6076
464.076	6076
464.142	6295
464.144	6312
464.211	6590
464.221	6608
464.279	7121
464.301	7272
464.347	6592
464.381	6166
464.414	6358
464.461	6700
464.482	6642
464.540	6156
464.550	6364
464.617	7788
464.620	7829
464.685	11021
464.699	11747
464.753	16562
464.779	18910
464.820	21158
464.859	23241
464.888	21245
464.938	17405
464.956	17107
465.018	15839
465.023	15843
465.091	15741
465.098	15713
465.158	15846
465.177	15810
465.226	15846
465.257	15924
465.293	15768
465.336	15405
465.361	15994
465.416	17314
465.428	17322
465.495	17235
465.496	17262
465.563	16792
465.575	16693
465.631	17434
465.654	17754
465.698	17647
465.734	17410
465.765	17184
465.813	16756
465.833	17200
465.893	18633
465.900	18671
465.968	18461
465.972	18419
466.035	18318
466.052	18256
466.102	19622
466.131	20301
466.170	20424
466.210	20494
466.237	21207
466.290	22553
466.304	22856
466.369	23869
466.372	23945
466.439	24847
466.449	24926
466.506	25850
466.528	26132
466.573	26694
466.607	27014
466.641	27907
466.687	29025
466.708	29750
466.766	31519
466.775	31639
466.842	32062
466.845	32016
466.909	31892
466.925	31774
466.977	30962
467.004	30428
467.044	31143
467.083	31743
467.111	34680
467.163	39992
467.178	40753
467.242	43504
467.245	43280
467.312	36697
467.321	35745
467.379	31868
467.400	30359
467.446	30598
467.480	30655
467.559	29011
467.638	27634
467.717	25238
467.796	27632
467.875	27404
467.955	25756
468.034	24387
468.113	25100
468.192	24647
468.271	24390
468.350	25473
468.429	28859
468.508	29509
468.588	24567
468.667	21362
468.746	21192
468.825	20269
468.904	19176
468.983	19148
469.062	19139
469.141	20979
469.220	19901
469.299	19292
469.378	23385
469.456	31685
469.535	29210
469.614	25636
469.693	22927
469.772	23407
469.851	22899
469.930	22637
470.009	22014
470.088	22533
470.166	26067
470.245	28325
470.324	33339
470.403	27691
470.482	24286
470.560	21340
470.639	21243
470.718	22770
470.797	19217
470.875	20245
470.954	19508
471.033	19391
471.111	17803
471.190	18698
471.269	17303
471.347	17253
471.426	17795
471.505	21763
471.583	25452
471.662	23864
471.740	20926
471.819	20402
471.898	19019
471.976	20711
472.055	19913
472.133	22696
472.212	26062
472.290	19525
472.369	17357
472.447	17914
472.526	17444
472.604	19116
472.683	18177
472.761	18906
472.839	17733
472.918	17852
472.996	16851
473.075	16268
473.153	17924
473.231	14588
473.310	17498
473.388	15783
473.466	18142
473.545	21254
473.623	24488
473.701	21655
473.780	18270
473.858	16937
473.936	19014
474.014	17600
474.093	19900
474.171	22192
474.249	19404
474.327	16031
474.405	16630
474.484	15998
474.562	16782
474.640	16957
474.718	17286
474.796	20129
474.874	19711
474.952	17171
475.030	19087
475.108	20005
475.187	24793
475.265	23038
475.343	23798
475.421	25149
475.499	18243
475.577	16787
475.655	16162
475.733	15332
475.811	15468
475.889	15228
475.966	14453
476.044	13961
476.122	15379
476.200	17996
476.278	16568
476.356	12055
476.434	13775
476.512	15035
476.590	17025
476.667	15945
476.745	11295
476.823	13140
476.901	13113
476.979	10405
477.056	12758
477.134	11796
477.212	13496
477.290	13247
477.367	11710
477.445	11463
477.523	10844
477.601	11008
477.678	10444
477.756	11625
477.834	11008
477.911	10495
477.989	12964
478.066	9928
478.144	11872
478.222	13821
478.299	17709
478.377	20520
478.454	13323
478.532	10049
478.609	10309
478.687	11742
478.764	10831
478.842	11661
478.919	11128
478.997	10723
479.074	10279
479.152	9633
479.229	10450
479.307	9052
479.384	10188
479.461	10125
479.539	8729
479.616	9051
479.694	8508
479.771	9156
479.848	9882
479.926	7533
480.003	9898
480.080	9148
480.157	9201
480.235	8136
480.312	9118
480.389	7565
480.467	8553
480.544	10036
480.621	8631
480.698	8258
480.775	8795
480.853	8233
480.930	9846
481.007	10941
481.084	16368
481.161	29543
481.238	17298
481.315	7689
481.392	8354
481.470	8199
481.547	8016
481.624	7705
481.701	7987
481.778	7318
481.855	8801
481.932	7294
482.009	9643
482.086	9250
482.163	9456
482.240	12264
482.317	19011
482.393	14831
482.470	8774
482.547	8296
482.624	8501
482.701	7830
482.778	7700
482.855	7993
482.932	8106
483.009	7999
483.085	11794
483.162	17895
483.239	17508
483.316	9507
483.393	10641
483.469	9302
483.546	8213
483.623	7517
483.699	7598
483.776	7195
483.853	8963
483.930	10011
484.006	13036
484.083	19513
484.160	51559
484.236	101613
484.313	75217
484.389	53624
484.466	48349
484.543	45414
484.619	45397
484.696	45391
484.772	44026
484.849	43015
484.925	41142
485.002	40655
485.078	42085
485.155	39184
485.231	38623
485.308	38656
485.384	38471
485.461	38672
485.537	37907
485.614	38871
485.690	36862
485.766	36204
485.843	36667
485.919	39799
485.995	40395
486.072	32919
486.148	33119
486.224	33391
486.301	34536
486.377	35070
486.453	33359
486.530	38044
486.606	54522
486.682	60723
486.758	50715
486.835	47114
486.911	45099
486.987	44713
487.063	53220
487.139	70513
487.215	64156
487.292	48722
487.368	40679
487.444	41545
487.520	48957
487.596	57095
487.672	73024
487.748	146112
487.824	211761
487.900	83868
487.976	44668
488.052	35933
488.128	37233
488.204	32612
488.280	31855
488.356	31912
488.432	31628
488.508	32874
488.584	31705
488.660	29664
488.736	30773
488.812	30412
488.888	38500
488.964	42084
489.039	56643
489.115	75443
489.191	55702
489.267	31670
489.343	28592
489.418	27619
489.494	26941
489.570	26674
489.646	28165
489.722	25922
489.797	26428
489.873	25262
489.949	28199
490.024	27781
490.100	24677
490.176	23331
490.251	24438
490.327	29474
490.403	22382
490.478	24605
490.554	21259
490.629	22703
490.705	20708
490.781	24129
490.856	20877
490.932	23963
491.007	23048
491.083	23255
491.158	20024
491.234	21618
491.309	20991
491.385	21661
491.460	19907
491.536	21037
491.611	20746
491.686	21535
491.762	24924
491.837	33230
491.913	47422
491.988	55405
492.063	74848
492.139	22855
492.214	18216
492.289	17603
492.365	16406
492.440	19316
492.515	15557
492.590	17831
492.666	14614
492.741	17202
492.816	16816
492.891	15662
492.967	19811
493.042	16175
493.117	20916
493.192	22178
493.267	39508
493.342	134274
493.418	185096
493.493	32250
493.568	14078
493.643	14581
493.718	16011
493.793	14245
493.868	19892
493.943	14427
494.018	15330
494.093	12410
494.168	12709
494.243	12963
494.318	12363
494.393	11923
494.468	12448
494.543	12288
494.618	13454
494.693	12389
494.768	11457
494.842	12819
494.917	11200
494.992	12800
495.067	11797
495.142	10882
495.217	13027
495.292	10973
495.366	13638
495.441	13151
495.516	15310
495.591	19302
495.665	50112
495.740	114324
495.815	48747
495.890	13891
495.964	11316
496.039	15382
496.114	17142
496.188	30743
496.263	25858
496.338	11657
496.412	14042
496.487	15221
496.561	15296
496.636	17333
496.710	17043
496.785	19160
496.860	17824
496.934	15892
497.009	17851
497.083	18286
497.158	19864
497.232	18748
497.307	23682
497.381	25614
497.455	27674
497.530	29891
497.604	31189
497.679	32037
497.753	43368
497.827	57867
497.902	65237
497.976	65331
498.050	62206
498.125	67187
498.199	81260
498.273	92017
498.348	90725
498.422	76454
498.496	64398
498.570	53097
498.645	44258
498.719	36700
498.793	32111
498.867	28449
498.941	26801
499.016	25644
499.090	31313
499.164	23467
499.238	18462
499.312	15805
499.386	18074
499.460	15988
499.534	11903
499.609	13155
499.683	12310
499.757	10518
499.831	11798
499.905	17345
499.979	15215
500.053	9770
500.127	14144
500.201	15188
500.275	10213
500.349	10800
500.422	10223
500.496	12599
500.570	22460
500.644	21807
500.718	17371
500.792	10606
500.866	9341
500.940	8922
501.013	8178
501.087	7706
501.161	11847
501.235	10303
501.309	9947
501.382	12537
501.456	15124
501.530	9557
501.603	6768
501.677	7134
501.751	5518
501.825	9395
501.898	8248
501.972	8442
502.046	7114
502.119	5854
502.193	10373
502.266	7906
502.340	6993
502.413	6472
502.487	8707
502.561	5229
502.634	6295
502.708	9849
502.781	7348
502.855	7099
502.928	5020
503.002	5700
503.075	4372
503.149	5026
503.222	5560
503.295	5294
503.369	6458
503.442	5333
503.516	7983
503.589	8690
503.662	7996
503.736	7266
503.809	11028
503.882	10054
503.956	15150
504.029	23895
504.102	62562
504.175	92410
504.249	33330
504.322	14506
504.395	9304
504.468	7142
504.542	5926
504.615	5266
504.688	6436
504.761	4344
504.834	7489
504.907	8618
504.980	11073
505.053	5701
505.127	6172
505.200	8890
505.273	4782
505.346	4153
505.419	5299
505.492	6372
505.565	5343
505.638	6637
505.711	5481
505.784	3042
505.857	4198
505.930	5610
506.003	2501
506.076	5874
506.149	3285
506.221	2492
506.294	5059
506.367	3252
506.440	7026
506.513	6862
506.586	4930
506.659	3634
506.731	4785
506.804	4073
506.877	6922
506.950	4267
507.022	4502
507.095	2834
507.168	4237
507.241	5024
507.313	4334
507.386	4219
507.459	7732
507.531	5589
507.604	3478
507.677	6110
507.749	3438
507.822	8015
507.894	21332
507.967	32519
508.040	19407
508.112	15809
508.185	12899
508.257	10232
508.330	15380
508.402	10813
508.475	10517
508.547	11212
508.620	10626
508.692	10628
508.765	11025
508.837	9138
508.909	10427
508.982	10334
509.054	11389
509.127	11179
509.199	8898
509.271	8342
509.344	9054
509.416	9229
509.488	9857
509.560	9503
509.633	10349
509.705	10905
509.777	10727
509.849	11801
509.922	9750
509.994	9832
510.066	11172
510.138	13452
510.210	34572
510.283	30059
510.355	23384
510.427	20692
510.499	17880
510.571	18043
510.643	16406
510.715	19452
510.787	17481
510.859	16103
510.931	15452
511.003	17475
511.076	16846
511.148	14267
511.219	14135
511.291	15324
511.363	14937
511.435	13416
511.507	12864
511.579	13859
511.651	13966
511.723	13324
511.795	12519
511.867	12619
511.939	12143
512.010	12634
512.082	13258
512.154	11681
512.226	14553
512.298	24230
512.369	35039
512.441	26521
512.513	23481
512.585	18324
512.656	18298
512.728	16979
512.800	17323
512.871	16260
512.943	17273
513.015	15971
513.086	17347
513.158	16838
513.230	15095
513.301	18536
513.373	20637
513.444	16099
513.516	14026
513.588	14561
513.659	15652
513.731	16838
513.802	14614
513.874	22400
513.945	29977
514.016	15436
514.088	15242
514.159	15809
514.231	19484
514.302	30000
514.374	24976
514.445	19682
514.516	21025
514.588	16988
514.659	17306
514.730	18687
514.802	22817
514.873	30527
514.944	33406
515.016	23630
515.087	20871
515.158	19748
515.229	24210
515.301	35678
515.372	51854
515.443	30088
515.514	22438
515.585	17936
515.656	18401
515.728	15986
515.799	15179
515.870	15410
515.941	15826
516.012	16026
516.083	24724
516.154	23878
516.225	24075
516.296	22954
516.367	21506
516.438	22423
516.509	25754
516.580	32385
516.651	81103
516.722	268164
516.793	110223
516.864	31847
516.935	31005
517.006	37048
517.077	42573
517.148	84956
517.219	355510
517.289	541192
517.360	69994
517.431	24001
517.502	16795
517.573	16765
517.643	18705
517.714	23286
517.785	23764
517.856	21870
517.926	28121
517.997	31818
518.068	40881
518.138	52957
518.209	71353
518.280	248250
518.350	965735
518.421	328182
518.492	43888
518.562	28217
518.633	25479
518.703	28159
518.774	46787
518.845	113501
518.915	111487
518.986	34971
519.056	23274
519.127	28931
519.197	31935
519.268	26223
519.338	15414
519.408	14233
519.479	17446
519.549	14978
519.620	13714
519.690	11118
519.760	11336
519.831	9963
519.901	10069
519.971	9779
520.042	9399
520.112	8034
520.182	11616
520.253	12457
520.323	10393
520.393	8998
520.463	13093
520.534	6212
520.604	10792
520.674	9680
520.744	7569
520.814	9615
520.885	12310
520.955	8914
521.025	11296
521.095	9520
521.165	9460
521.235	8662
521.305	7931
521.375	9433
521.445	9594
521.515	10247
521.585	12377
521.655	10225
521.725	12502
521.795	11830
521.865	7524
521.935	10730
522.005	7671
522.075	7461
522.145	9691
522.215	7779
522.285	8902
522.355	8001
522.424	9533
522.494	10299
522.564	11662
522.634	18638
522.704	46805
522.774	18128
522.843	10188
522.913	9939
522.983	11093
523.053	7866
523.122	8351
523.192	9783
523.262	28430
523.331	25491
523.401	8544
523.471	6784
523.540	7842
523.610	5535
523.680	6996
523.749	7032
523.819	9076
523.888	8580
523.958	6735
524.027	5741
524.097	6472
524.166	5047
524.236	6025
524.305	8046
524.375	6189
524.444	5670
524.514	8066
524.583	5254
524.653	5767
524.722	7614
524.791	5417
524.861	6716
524.930	5544
524.999	4648
525.069	8258
525.138	5719
525.207	5759
525.277	6196
525.346	6000
525.415	6230
525.484	7386
525.554	6083
525.623	9623
525.692	15714
525.761	11687
525.830	12678
525.900	15601
525.969	22703
526.038	38627
526.107	76493
526.176	233698
526.245	186252
526.314	55796
526.383	116281
526.452	157179
526.522	279631
526.591	265313
526.660	53399
526.729	34424
526.797	37608
526.867	58242
526.935	210747
527.004	603547
527.073	345703
527.142	31476
527.211	13918
527.280	11557
527.349	9501
527.418	6114
527.487	6862
527.555	4584
527.624	4888
527.693	3526
527.762	5655
527.831	3736
527.899	4787
527.968	4270
528.037	2559
528.106	6215
528.174	8892
528.243	5630
528.312	7949
528.380	9662
528.449	3667
528.518	4846
528.586	1975
528.655	3886
528.723	4115
528.792	4063
528.861	2705
528.929	1401
528.998	3563
529.066	2396
529.135	3414
529.203	2675
529.272	1919
529.340	3021
529.409	3569
529.477	2002
529.545	1447
529.614	4533
529.682	536
529.751	1878
529.819	5136
529.887	2403
529.956	2415
530.024	3330
530.092	1451
530.161	3718
530.229	5999
530.297	3769
530.365	3657
530.434	2013
530.502	974
530.570	2910
530.638	547
530.707	3431
530.775	4247
530.843	2560
530.911	2500
530.979	2320
531.047	2488
531.115	2219
531.183	1972
531.252	3058
531.320	1509
531.388	1242
531.456	3435
531.524	945
531.592	3642
531.660	3938
531.728	1233
531.796	1873
531.864	2529
531.932	1963
532.000	1375
532.067	1766
532.135	3532
532.203	3770
532.271	2659
532.339	7416
532.407	20373
532.475	10708
532.542	5216
532.610	5196
532.678	6058
532.746	29849
532.814	73404
532.881	16261
532.949	4147
533.017	3833
533.084	2622
533.152	2598
533.220	2184
533.287	1916
533.355	2787
533.423	2937
533.490	912
533.558	2346
533.625	4031
533.693	4816
533.761	4691
533.828	5405
533.896	3169
533.963	8208
534.031	8862
534.098	10482
534.166	5510
534.233	3944
534.300	5446
534.368	5250
534.435	4472
534.503	5622
534.570	5825
534.637	6988
534.705	8585
534.772	11203
534.840	18891
534.907	104802
534.974	131608
535.041	13348
535.109	5128
535.176	3371
535.243	3979
535.310	4541
535.378	2499
535.445	3918
535.512	3387
535.579	3568
535.646	3092
535.714	5533
535.781	8914
535.848	7761
535.915	6438
535.982	4849
536.049	4245
536.116	5649
536.183	4713
536.250	4841
536.317	4139
536.384	5200
536.451	7085
536.518	7662
536.585	5292
536.652	7912
536.719	10999
536.786	6770
536.853	5992
536.920	8934
536.987	11730
537.053	9848
537.120	37140
537.187	30959
537.254	5100
537.321	4356
537.388	5121
537.454	3046
537.521	4114
537.588	5092
537.654	7740
537.721	9939
537.788	8638
537.855	6524
537.921	6582
537.988	5296
538.055	5418
538.121	4898
538.188	5731
538.254	7743
538.321	14400
538.388	9984
538.454	5834
538.521	5483
538.587	4704
538.654	4950
538.720	4330
538.787	4843
538.853	4698
538.920	5871
538.986	4546
539.053	4346
539.119	4786
539.185	4660
539.252	6670
539.318	8951
539.385	9237
539.451	10359
539.517	8818
539.583	8809
539.650	11881
539.716	26804
539.782	9156
539.849	5804
539.915	6491
539.981	5310
540.047	7210
540.114	6721
540.180	7513
540.246	5474
540.312	8054
540.378	14768
540.444	13645
540.510	13711
540.576	30671
540.643	10443
540.709	4442
540.775	5802
540.841	5619
540.907	8230
540.973	10859
541.039	12489
541.105	12090
541.171	8285
541.237	5869
541.303	8348
541.369	8403
541.435	9515
541.500	14318
541.566	8655
541.632	5341
541.698	5017
541.764	6717
541.830	4672
541.896	4013
541.961	6742
542.027	5721
542.093	6753
542.159	7193
542.224	7136
542.290	11984
542.356	15173
542.421	14963
542.487	8305
542.553	6314
542.618	8143
542.684	6052
542.750	4857
542.815	6380
542.881	8223
542.947	25952
543.012	18619
543.078	5276
543.143	5522
543.209	7156
543.274	6172
543.340	7600
543.405	13706
543.471	15953
543.536	7153
543.602	6113
543.667	4116
543.732	6927
543.798	5715
543.863	6467
543.928	5558
543.994	5051
544.059	6853
544.124	6071
544.190	6226
544.255	6625
544.320	7066
544.386	5661
544.451	9304
544.516	9155
544.581	8845
544.646	19759
544.712	28225
544.777	8488
544.842	6753
544.907	5477
544.972	5916
545.037	7033
545.102	8638
545.168	5910
545.233	8233
545.298	7599
545.363	9204
545.428	9908
545.493	13239
545.558	21889
545.623	10794
545.688	7148
545.753	7410
545.818	7185
545.883	8968
545.947	7023
546.012	7827
546.077	6689
546.142	8961
546.207	7903
546.272	10455
546.337	9998
546.401	9843
546.466	9510
546.531	8080
546.596	9692
546.661	8867
546.725	9517
546.790	8049
546.855	9329
546.919	8523
546.984	10803
547.049	10365
547.113	11301
547.178	10286
547.243	13655
547.307	15887
547.372	17583
547.436	16545
547.501	15957
547.565	18761
547.630	19178
547.695	17485
547.759	16485
547.823	16661
547.888	17027
547.952	18233
548.017	20871
548.081	30428
548.146	22003
548.210	18702
548.274	18662
548.339	19213
548.403	17574
548.468	16627
548.532	15996
548.596	18220
548.660	16158
548.725	18719
548.789	19699
548.853	19963
548.917	19032
548.982	17289
549.046	16339
549.110	14723
549.174	15434
549.238	18014
549.303	17736
549.367	20653
549.431	19134
549.495	17096
549.559	17456
549.623	20212
549.687	22172
549.751	23609
549.815	24376
549.879	26200
549.943	23621
550.007	25069
550.071	24583
550.135	24288
550.199	20629
550.263	21106
550.327	21209
550.391	25423
550.455	26814
550.519	23228
550.582	25437
550.646	28740
550.710	29949
550.774	28760
550.838	28516
550.901	29899
550.965	31443
551.029	33245
551.093	37412
551.156	41574
551.220	52936
551.284	66371
551.347	46398
551.411	32706
551.475	29877
551.538	31432
551.602	26706
551.666	25842
551.729	23915
551.793	23285
551.856	23676
551.920	23668
551.983	22846
552.047	21603
552.110	23599
552.174	27454
552.237	23462
552.301	21455
552.364	20649
552.428	20496
552.491	20999
552.554	21932
552.618	21757
552.681	23314
552.745	22142
552.808	29891
552.871	37614
552.934	27123
552.998	22128
553.061	21774
553.124	20881
553.187	20076
553.251	21268
553.314	22482
553.377	22923
553.440	30084
553.503	54561
553.567	75497
553.630	25867
553.693	21385
553.756	20701
553.819	20325
553.882	18552
553.945	19366
554.008	20735
554.071	19016
554.134	20760
554.197	17537
554.260	17906
554.323	19814
554.386	18645
554.449	19633
554.512	19582
554.575	17309
554.638	17704
554.701	17402
554.764	17305
554.827	17239
554.889	15433
554.952	15065
555.015	14541
555.078	14531
555.141	15604
555.203	15615
555.266	15615
555.329	16604
555.391	14782
555.454	15011
555.517	15078
555.580	15029
555.642	13350
555.705	13733
555.768	15322
555.830	15114
555.893	13408
555.955	12425
556.018	12639
556.080	12035
556.143	11746
556.206	11850
556.268	12243
556.330	12923
556.393	11410
556.455	11089
556.518	11873
556.580	11561
556.643	10280
556.705	11211
556.767	9053
556.830	10835
556.892	10496
556.955	13468
557.017	10859
557.079	9972
557.142	9201
557.204	10443
557.266	17285
557.328	12456
557.391	8321
557.453	8100
557.515	8155
557.577	10264
557.639	9764
557.701	9148
557.764	8758
557.826	10503
557.888	12242
557.950	13088
558.012	14139
558.074	21073
558.136	56422
558.198	146128
558.260	44821
558.322	16742
558.384	18610
558.446	23603
558.508	29459
558.570	38505
558.632	48913
558.694	65026
558.756	99756
558.818	347730
558.880	876725
558.942	227966
559.003	163552
559.065	74248
559.127	31322
559.189	30984
559.251	35646
559.312	52221
559.374	140376
559.436	520438
559.498	222202
559.559	34964
559.621	29036
559.683	34005
559.744	55830
559.806	217065
559.868	319421
559.929	49904
559.991	27714
560.052	44854
560.114	141329
560.176	82338
560.237	78143
560.299	127927
560.360	21804
560.422	8126
560.483	6980
560.545	4979
560.606	5200
560.667	4520
560.729	4004
560.790	4991
560.852	4257
560.913	4365
560.974	3662
561.036	3378
561.097	4396
561.158	4074
561.220	5356
561.281	4043
561.342	3857
561.403	5540
561.465	5131
561.526	14359
561.587	17899
561.648	4531
561.709	3198
561.771	4342
561.832	3125
561.893	3376
561.954	3372
562.015	3447
562.076	3629
562.137	3256
562.198	2537
562.259	3818
562.320	3151
562.381	3554
562.442	5455
562.503	4323
562.564	2704
562.625	3628
562.686	2903
562.747	1601
562.808	3082
562.869	3051
562.930	2893
562.991	2739
563.051	2159
563.112	3016
563.173	3086
563.234	2159
563.294	1872
563.355	2587
563.416	3079
563.477	3495
563.537	2448
563.598	3278
563.659	2213
563.720	3232
563.780	3303
563.841	2975
563.901	3638
563.962	3350
564.023	2814
564.083	3434
564.144	2830
564.204	3053
564.265	2656
564.325	2652
564.386	4128
564.446	3970
564.507	2985
564.567	4553
564.628	3282
564.688	3412
564.749	2186
564.809	3162
564.869	3997
564.930	3300
564.990	4000
565.050	3785
565.111	2935
565.171	3881
565.231	3774
565.292	4726
565.352	3369
565.412	3775
565.472	4072
565.532	4898
565.593	4392
565.653	4543
565.713	4145
565.773	5009
565.833	5515
565.893	7870
565.953	5240
566.013	5034
566.074	5625
566.134	6497
566.194	5263
566.254	8507
566.314	7112
566.374	6875
566.434	7181
566.494	9592
566.554	10503
566.614	10796
566.673	10302
566.733	11550
566.793	11776
566.853	12612
566.913	13403
566.973	14488
567.033	14547
567.092	13308
567.152	11948
567.212	13808
567.272	13987
567.331	16556
567.391	16471
567.451	18580
567.511	19895
567.570	19405
567.630	16955
567.690	16377
567.749	18290
567.809	20945
567.868	24150
567.928	29176
567.988	34492
568.047	44528
568.107	59030
568.166	87969
568.226	154941
568.285	223929
568.345	184319
568.404	135534
568.464	108866
568.523	97888
568.582	99041
568.642	111381
568.701	144125
568.761	230588
568.820	385997
568.879	375223
568.939	247887
568.998	169233
569.057	120747
569.116	90477
569.176	70869
569.235	55147
569.294	43981
569.353	37813
569.413	32222
569.472	26930
569.531	22675
569.590	21684
569.649	18004
569.708	17484
569.767	15177
569.827	14418
569.886	13065
569.945	11312
570.004	10835
570.063	10996
570.122	11416
570.181	8987
570.240	8455
570.299	8061
570.358	8140
570.417	7955
570.475	7014
570.534	7471
570.593	6828
570.652	7241
570.711	6377
570.770	6968
570.829	9678
570.887	8715
570.946	7490
571.005	5732
571.064	4845
571.122	4871
571.181	4651
571.240	4452
571.299	3503
571.357	4390
571.416	4344
571.475	4015
571.533	3297
571.592	3476
571.650	4019
571.709	3863
571.768	3819
571.826	4066
571.885	4071
571.943	3576
572.002	3390
572.060	3581
572.119	3065
572.177	3323
572.236	3156
572.294	2831
572.352	2880
572.411	3248
572.469	2821
572.528	2834
572.586	2556
572.644	2400
572.703	2622
572.761	3267
572.819	2541
572.877	2399
572.936	1924
572.994	2635
573.052	2947
573.110	2312
573.169	3144
573.227	2992
573.285	2704
573.343	2331
573.401	2353
573.459	2814
573.517	2957
573.576	2827
573.634	2443
573.692	2941
573.750	2392
573.808	2127
573.866	2208
573.924	3452
573.982	2580
574.040	2542
574.098	3011
574.155	2888
574.213	2697
574.271	2545
574.329	2710
574.387	2531
574.445	1949
574.503	2088
574.560	972
574.618	2502
574.676	1921
574.734	2929
574.792	2766
574.849	2143
574.907	1979
574.965	1855
575.022	843
575.080	2155
575.138	2393
575.195	3049
575.253	1379
575.311	3123
575.368	2333
575.426	1645
575.483	2427
575.541	3047
575.598	1964
575.656	3005
575.713	2702
575.771	2641
575.828	2269
575.886	1902
575.943	2593
576.001	1878
576.058	1884
576.115	2613
576.173	1920
576.230	2162
576.287	3276
576.345	2705
576.402	2142
576.459	2857
576.517	1992
576.574	2157
576.631	2106
576.688	2315
576.746	1344
576.803	2353
576.860	1287
576.917	2971
576.974	1973
577.031	2126
577.089	2424
577.146	1463
577.203	2582
577.260	3716
577.317	2212
577.374	1867
577.431	2288
577.488	2971
577.545	1131
577.602	2242
577.659	2414
577.716	2930
577.773	2709
577.830	1818
577.886	2681
577.943	1968
578.000	2311
578.057	2792
578.114	1688
578.171	2970
578.227	3232
578.284	3504
578.341	2865
578.398	3273
578.454	3054
578.511	2693
578.568	1327
578.625	2652
578.681	1970
578.738	1894
578.794	1338
578.851	2397
578.908	2633
578.964	2212
579.021	2329
579.077	1605
579.134	2201
579.190	2686
579.247	2393
579.303	2420
579.360	2340
579.416	2754
579.473	2518
579.529	2101
579.586	2633
579.642	1880
579.698	2196
579.755	3455
579.811	2528
579.867	3289
579.924	2309
579.980	2656
580.036	3072
580.093	3076
580.149	4921
580.205	5075
580.261	3770
580.317	4147
580.374	2347
580.430	2768
580.486	2306
580.542	2756
580.598	1724
580.619	2637
580.654	4226
580.692	3959
580.710	3834
580.765	3008
580.767	2984
580.823	3073
580.838	3204
580.879	3556
580.911	2842
580.935	2329
580.984	2913
580.991	3005
581.047	2801
581.057	2675
581.103	2055
581.130	2637
581.159	3239
581.203	3495
581.215	3578
581.270	3256
581.276	3145
581.326	2107
581.349	2540
581.382	3169
581.422	3062
581.438	3002
581.494	2478
581.494	2473
581.550	2211
581.567	2328
581.606	2550
581.640	2987
581.661	3249
581.713	3596
581.717	3626
581.773	3409
581.786	3379
581.829	3239
581.859	2929
581.885	2708
581.932	2840
581.940	2878
581.996	3344
582.004	3330
582.052	3138
582.077	3319
582.107	3531
582.150	3135
582.163	3041
582.219	3323
582.223	3354
582.274	3684
582.296	3559
582.330	3378
582.368	2849
582.386	2614
582.441	3474
582.441	3475
582.497	2995
582.514	3217
582.552	3829
582.587	3724
582.608	3608
582.659	3604
582.663	3604
582.719	3482
582.732	3498
582.774	3578
582.805	3475
582.830	3380
582.877	3295
582.885	3284
582.941	3274
582.950	3289
582.996	3412
583.023	3664
583.052	3938
583.095	4163
583.107	4210
583.162	4302
583.168	4371
583.218	5079
583.240	4880
583.273	4468
583.313	3952
583.328	3815
583.384	4008
583.385	3992
583.439	3386
583.458	3564
583.494	3980
583.531	3993
583.549	4040
583.603	3510
583.605	3481
583.660	4096
583.676	4057
583.715	4195
583.748	4397
583.770	4476
583.820	4185
583.825	4148
583.881	5031
583.893	4746
583.936	3954
583.965	4462
583.991	4829
584.038	4843
584.046	4871
584.101	4442
584.110	4459
584.156	4281
584.183	4735
584.211	5336
584.255	5415
584.266	5417
584.321	5415
584.328	5302
584.376	4461
584.400	4872
584.431	5323
584.472	5015
584.486	4961
584.541	6093
584.545	6095
584.596	5776
584.617	5662
584.651	5979
584.689	6380
584.706	6251
584.761	6002
584.762	5998
584.816	6050
584.834	6336
584.871	6668
584.906	5958
584.926	5655
584.978	6977
584.980	7028
585.035	7842
585.051	7880
585.090	7892
585.123	8395
585.145	8666
585.195	9563
585.200	9714
585.254	11733
585.267	12334
585.309	13826
585.340	15414
585.364	16572
585.412	15845
585.419	15721
585.473	16722
585.484	17333
585.528	20460
585.556	24161
585.583	29692
585.628	46833
585.637	51883
585.692	109248
585.700	119659
585.747	165049
585.772	128943
585.801	74998
585.845	29684
585.856	22201
585.910	15125
585.917	14576
585.965	12827
585.989	12199
586.019	11699
586.061	10913
586.074	10685
586.128	10967
586.133	10998
586.183	11428
586.205	11461
586.237	11365
586.277	11464
586.292	11523
586.346	11237
586.349	11284
586.401	11759
586.421	11879
586.455	12300
586.493	12950
586.509	13205
586.564	12557
586.565	12592
586.618	13863
586.637	14108
586.672	14482
586.709	14912
586.727	15213
586.781	16078
586.781	16066
586.835	15634
586.853	15423
586.889	15200
586.925	15521
586.944	15881
586.996	16544
586.998	16532
587.052	16901
587.068	17092
587.106	18072
587.140	18673
587.161	18751
587.212	19154
587.215	19171
587.269	20508
587.284	20658
587.323	21280
587.356	22416
587.377	23098
587.427	24552
587.431	24592
587.485	25893
587.499	26000
587.539	26887
587.571	28253
587.593	29326
587.643	31677
587.648	31820
587.702	33472
587.715	34262
587.755	36998
587.786	38923
587.810	40635
587.858	44627
587.864	45048
587.917	49929
587.930	51137
587.971	54847
588.001	58446
588.025	62038
588.073	69860
588.079	70844
588.133	81745
588.145	84449
588.187	93627
588.217	100496
588.241	107474
588.288	124571
588.295	126798
588.348	149056
588.360	154489
588.402	176303
588.431	194298
588.456	210450
588.503	245964
588.510	251461
588.564	304822
588.575	318414
588.617	376393
588.646	423870
588.671	476628
588.718	598843
588.725	625132
588.778	874009
588.789	936600
588.832	1297101
588.861	1565054
588.886	1823908
588.932	2202694
588.939	2207653
588.993	2075987
589.004	2096011
589.047	1940610
589.075	1692068
589.100	1435194
589.147	939471
589.154	896019
589.207	660623
589.218	623719
589.261	564727
589.290	543703
589.314	556551
589.361	611614
589.368	632698
589.421	858150
589.433	918852
589.475	1305432
589.504	1589009
589.528	1777762
589.576	1990500
589.582	1948540
589.635	1604778
589.647	1495309
589.689	1003533
589.718	676159
589.742	541372
589.790	337495
589.795	324032
589.849	231921
589.861	213813
589.902	174908
589.932	150660
589.955	137953
590.004	115247
590.009	113189
590.062	96166
590.075	92454
590.115	82410
590.146	75820
590.168	71995
590.218	63856
590.222	63150
590.275	56916
590.289	55406
590.328	51143
590.360	48272
590.381	46713
590.431	43064
590.435	42740
590.488	39054
590.503	38118
590.541	35827
590.574	34257
590.594	33602
590.645	32134
590.647	32001
590.700	30133
590.716	29545
590.753	27694
590.787	26181
590.806	25814
590.859	25255
590.859	25197
590.912	23944
590.930	23713
590.965	23096
591.001	22402
591.018	21931
591.071	20539
591.072	20559
591.124	20022
591.143	19802
591.177	18966
591.214	18224
591.230	17978
591.283	17288
591.285	17288
591.336	16820
591.356	16623
591.389	16641
591.427	16839
591.442	16483
591.495	14978
591.498	14903
591.547	14786
591.569	14748
591.600	14395
591.640	13962
591.653	13954
591.706	14018
591.711	14044
591.759	14225
591.782	14315
591.811	13844
591.853	13175
591.864	13106
591.917	12905
591.924	12888
591.969	12883
591.995	12887
592.022	12651
592.066	12270
592.075	12209
592.127	11999
592.137	11961
592.180	11878
592.208	11871
592.233	11529
592.279	10877
592.285	10931
592.338	11545
592.350	11703
592.390	11326
592.421	11033
592.443	11036
592.491	11115
592.495	11078
592.548	10739
592.562	10662
592.600	10401
592.633	10203
592.653	10134
592.704	9951
592.705	9994
592.775	9303
592.846	10468
592.916	9543
592.987	9774
593.058	10462
593.128	9500
593.199	9275
593.270	9643
593.341	8457
593.411	8911
593.482	9293
593.553	9676
593.623	8906
593.694	9411
593.764	9152
593.835	9287
593.906	8902
593.976	9318
594.047	7809
594.117	9346
594.188	9126
594.258	9113
594.329	9332
594.399	9548
594.470	8958
594.540	9041
594.611	8868
594.681	9787
594.751	9061
594.822	11607
594.892	11509
594.963	10770
595.033	9658
595.103	10109
595.174	9675
595.244	10204
595.314	10284
595.384	9431
595.455	8991
595.525	10426
595.595	10172
595.665	11222
595.736	10168
595.806	10822
595.876	9900
595.946	10696
596.016	11085
596.087	10135
596.157	10596
596.227	10709
596.297	10958
596.367	11911
596.437	11632
596.507	11955
596.577	10991
596.647	11478
596.717	11253
596.787	12826
596.857	12117
596.927	13334
596.997	12461
597.067	12772
597.137	13711
597.207	13367
597.277	12946
597.347	12606
597.417	11606
597.487	12404
597.557	11857
597.626	12289
597.696	12688
597.766	11904
597.836	12057
597.906	11039
597.975	10595
598.045	11813
598.115	12150
598.185	11788
598.254	13516
598.324	14855
598.394	14357
598.464	14975
598.533	13739
598.603	13433
598.672	13363
598.742	13296
598.812	12284
598.881	12739
598.951	13025
599.020	12898
599.090	12905
599.159	14045
599.229	12512
599.299	13545
599.368	12938
599.437	12825
599.507	12355
599.576	11928
599.646	11843
599.715	11999
599.785	10923
599.854	10751
599.924	10693
599.993	11257
600.062	10236
600.132	11124
600.201	12118
600.270	14487
600.340	13423
600.409	14358
600.478	13201
600.547	14138
600.617	13294
600.686	11556
600.755	9898
600.824	10252
600.894	9581
600.963	9609
601.032	9588
601.101	9072
601.170	8276
601.239	7712
601.308	7977
601.378	9134
601.447	7700
601.516	8572
601.585	8965
601.654	8953
601.723	8611
601.792	7729
601.861	8799
601.930	10718
601.999	8502
602.068	9003
602.137	9182
602.206	9223
602.275	9428
602.343	9618
602.412	9347
602.481	9705
602.550	9164
602.619	9777
602.688	10315
602.756	9396
602.825	10053
602.894	10744
602.963	9218
603.032	10191
603.100	9323
603.169	10491
603.238	10369
603.307	10934
603.375	10154
603.444	10233
603.513	10875
603.581	11526
603.650	11256
603.719	10165
603.787	11777
603.856	12224
603.924	11324
603.993	12141
604.061	12302
604.130	13300
604.198	13302
604.267	13746
604.335	13774
604.404	13417
604.472	14232
604.541	13740
604.609	13983
604.678	14103
604.746	14206
604.815	14537
604.883	14535
604.951	15476
605.020	15045
605.088	15802
605.156	15387
605.225	16458
605.293	15999
605.361	17202
605.429	16721
605.498	16952
605.566	17454
605.634	19244
605.702	17573
605.771	19052
605.839	18916
605.907	18133
605.975	17602
606.043	18414
606.111	17714
606.180	17771
606.248	18068
606.316	16932
606.384	16736
606.452	18034
606.520	18288
606.588	19373
606.656	18603
606.724	18079
606.792	17745
606.860	15185
606.928	14553
606.996	14373
607.064	13188
607.132	14115
607.200	14611
607.267	14938
607.335	14880
607.403	17424
607.471	14436
607.539	15440
607.607	15349
607.674	13377
607.742	13832
607.810	14036
607.878	13247
607.946	12820
608.013	13718
608.081	13591
608.149	13763
608.216	14427
608.284	15548
608.352	15466
608.419	13462
608.487	15646
608.555	13531
608.622	15932
608.690	15770
608.757	17568
608.825	18457
608.893	17557
608.960	16286
609.028	15744
609.095	15691
609.163	15705
609.230	14094
609.298	14111
609.365	13286
609.432	14944
609.500	15324
609.567	18346
609.635	20857
609.702	21787
609.769	20715
609.837	17199
609.904	14135
609.971	15400
610.039	18933
610.106	27756
610.173	54498
610.241	133455
610.308	76007
610.375	27147
610.442	16130
610.509	14411
610.577	15166
610.644	14753
610.711	16038
610.778	16414
610.845	16795
610.912	17538
610.980	18431
611.047	19190
611.114	18261
611.181	17477
611.248	16537
611.315	18778
611.382	18136
611.449	18827
611.516	19790
611.583	19441
611.650	19254
611.717	20680
611.784	20697
611.851	22575
611.918	24853
611.984	32584
612.051	52811
612.118	122617
612.185	323099
612.252	192144
612.319	36778
612.386	27230
612.452	25341
612.519	22157
612.586	21393
612.653	22646
612.719	23059
612.786	21637
612.853	19719
612.919	20540
612.986	21276
613.053	18623
613.120	17359
613.186	15978
613.253	18702
613.319	16753
613.386	17111
613.453	17633
613.519	17636
613.586	17990
613.652	19887
613.719	18971
613.785	17699
613.852	17977
613.918	17415
613.985	20267
614.051	25119
614.118	36503
614.184	34530
614.250	18928
614.317	19185
614.383	17969
614.449	17883
614.516	18506
614.582	18511
614.648	17524
614.715	17089
614.781	17938
614.847	16163
614.914	16889
614.980	16605
615.046	17457
615.112	18094
615.179	19535
615.245	20829
615.311	26394
615.377	40180
615.443	42676
615.509	26592
615.575	23310
615.642	21569
615.708	22993
615.774	24260
615.840	29327
615.906	37313
615.972	58657
616.038	116016
616.104	203581
616.170	437967
616.236	358553
616.302	63233
616.368	39836
616.434	26821
616.500	25926
616.565	27889
616.631	35768
616.697	27012
616.763	29328
616.829	45761
616.895	85507
616.961	77546
617.026	29580
617.092	18741
617.158	17765
617.224	17294
617.289	16440
617.355	15444
617.421	15199
617.487	15105
617.552	14058
617.618	12744
617.684	13537
617.749	15950
617.815	13297
617.880	12722
617.946	13453
618.012	13999
618.077	13819
618.143	12862
618.208	12979
618.274	14009
618.339	13935
618.405	10362
618.470	12635
618.536	11354
618.601	11725
618.667	10608
618.732	10409
618.798	9671
618.863	10121
618.928	9389
618.994	10604
619.059	10061
619.124	11262
619.190	10118
619.255	9645
619.320	9177
619.386	10027
619.451	8712
619.516	9555
619.581	8873
619.647	9950
619.712	10234
619.777	10373
619.842	9305
619.907	10066
619.972	8301
620.038	9791
620.103	9045
620.168	9315
620.233	9736
620.298	9469
620.363	9708
620.428	9427
620.493	9714
620.558	10463
620.623	10714
620.688	10608
620.753	10257
620.818	10455
620.883	9899
620.948	10480
621.013	9968
621.078	9706
621.143	9451
621.207	11410
621.272	9643
621.337	9052
621.402	10184
621.467	9866
621.532	9523
621.596	9490
621.661	9663
621.726	8906
621.791	9813
621.855	8837
621.920	9531
621.985	9095
622.049	9673
622.114	9790
622.179	9754
622.243	9349
622.308	9337
622.373	11295
622.437	10775
622.502	10019
622.566	9635
622.631	8508
622.695	11077
622.760	9805
622.824	9470
622.889	10117
622.953	9653
623.018	11346
623.082	12031
623.147	11209
623.211	9887
623.276	9724
623.340	9239
623.404	9640
623.469	8868
623.533	9779
623.597	9123
623.662	9252
623.726	7907
623.790	8637
623.854	7464
623.919	8368
623.983	7370
624.047	7985
624.111	8440
624.176	8080
624.240	7712
624.304	9508
624.368	7892
624.432	9324
624.496	9442
624.560	9418
624.625	9339
624.689	9897
624.753	9382
624.817	9333
624.881	8062
624.945	7522
625.009	7989
625.073	7428
625.137	7374
625.201	9478
625.265	9870
625.329	8835
625.393	8143
625.456	8947
625.520	8758
625.584	8632
625.648	9273
625.712	8382
625.776	8284
625.839	8636
625.903	6966
625.967	6354
626.031	8455
626.095	8775
626.158	7686
626.222	5530
626.286	6687
626.349	4364
626.413	4036
626.477	5704
626.540	4632
626.604	5219
626.668	5470
626.731	4085
626.795	4765
626.858	4471
626.922	4033
626.986	5237
627.049	3624
627.113	5784
627.176	5324
627.240	5091
627.303	4510
627.366	4832
627.430	4459
627.493	4929
627.557	3520
627.620	5971
627.684	4450
627.747	5298
627.810	3640
627.874	4355
627.937	3118
628.000	5669
628.064	3982
628.127	2547
628.190	3166
628.253	3917
628.317	2610
628.380	3308
628.443	3461
628.506	2523
628.569	3053
628.632	3049
628.696	2966
628.759	2582
628.822	2260
628.885	2919
628.948	3242
629.011	2922
629.074	2369
629.137	2566
629.200	1745
629.263	3263
629.326	694
629.389	2353
629.452	2249
629.515	1897
629.578	2201
629.641	2661
629.704	1671
629.767	2598
629.830	1890
629.892	2103
629.955	849
630.018	4180
630.081	2525
630.144	3373
630.207	1053
630.269	3589
630.332	1524
630.395	2810
630.458	2282
630.520	1132
630.583	2045
630.646	2812
630.708	1822
630.771	976
630.834	2344
630.896	1773
630.959	2108
631.021	1354
631.084	1692
631.146	2539
631.209	2813
631.272	2356
631.334	2285
631.397	1748
631.459	2154
631.522	2946
631.584	2393
631.646	3362
631.709	3397
631.771	3941
631.834	2741
631.896	3576
631.958	1285
632.021	3252
632.083	894
632.145	2865
632.208	1904
632.270	3451
632.332	1050
632.395	1298
632.457	2031
632.519	1183
632.581	2997
632.643	1800
632.706	2362
632.768	1401
632.830	1666
632.892	1595
632.954	1159
633.016	2440
633.078	1917
633.141	1952
633.203	1437
633.265	2259
633.327	2616
633.389	1679
633.451	2590
633.513	2326
633.575	2454
633.637	1735
633.698	2019
633.760	2266
633.822	2724
633.884	2737
633.946	2475
634.008	2261
634.070	3301
634.132	3336
634.193	4056
634.255	3959
634.317	3888
634.379	4636
634.441	2970
634.502	3539
634.564	4129
634.626	5498
634.687	5138
634.749	3684
634.811	2211
634.873	2354
634.934	1981
634.996	2251
635.057	1187
635.119	1780
635.181	2003
635.242	3216
635.304	455
635.365	4137
635.427	1696
635.488	2727
635.550	1455
635.611	2858
635.673	952
635.734	3676
635.796	1861
635.857	3777
635.918	2187
635.980	3898
636.041	2725
636.102	5667
636.164	4085
636.225	5568
636.286	2705
636.348	3582
636.409	2645
636.470	2015
636.531	2186
636.593	1745
636.654	2707
636.715	2148
636.776	1348
636.838	1230
636.899	1560
636.960	1990
637.021	2327
637.082	3329
637.143	2857
637.204	1379
637.265	667
637.326	1895
637.387	2002
637.448	1794
637.509	1993
637.570	1719
637.631	2774
637.692	907
637.753	-87
637.814	1292
637.875	702
637.936	2154
637.997	316
638.058	1682
638.119	1341
638.179	1313
638.240	402
638.301	1610
638.362	553
638.423	727
638.483	2149
638.544	446
638.605	1032
638.666	1230
638.726	1093
638.787	1863
638.848	802
638.908	977
638.969	1218
639.030	1020
639.090	-342
639.151	848
639.211	1291
639.272	1183
639.332	1562
639.393	2424
639.453	377
639.514	1621
639.574	1292
639.635	297
639.695	1296
639.756	647
639.816	681
639.877	871
639.937	2763
639.997	2783
640.058	319
640.118	505
640.178	1330
640.239	768
640.299	651
640.359	786
640.420	1567
640.480	1692
640.540	1717
640.600	1865
640.661	1630
640.721	1243
640.781	4704
640.841	3613
640.901	1852
640.961	1994
641.021	627
641.082	1065
641.142	932
641.202	2125
641.262	-1286
641.322	1762
641.382	372
641.442	868
641.502	1207
641.562	2137
641.622	550
641.682	906
641.742	1011
641.802	1193
641.861	1479
641.921	462
641.981	1578
642.041	1312
642.101	167
642.161	413
642.221	1069
642.280	840
642.340	1060
642.400	-25
642.460	1762
642.519	770
642.579	415
642.639	1740
642.698	-1417
642.758	3256
642.818	879
642.877	539
642.937	1008
642.997	1737
643.056	1448
643.116	-885
643.175	2713
643.235	611
643.294	771
643.354	2147
643.414	1753
643.473	3357
643.532	4369
643.592	7869
643.651	14225
643.711	27416
643.770	55180
643.830	135108
643.889	308166
643.948	71360
644.008	9619
644.067	4461
644.126	3233
644.186	2532
644.245	2160
644.304	1006
644.363	3945
644.423	461
644.482	1268
644.541	2323
644.600	240
644.659	3182
644.719	2658
644.778	4330
644.837	9424
644.896	21420
644.955	52428
645.014	17293
645.073	3553
645.132	1773
645.191	2274
645.250	278
645.309	2319
645.368	2213
645.427	2837
645.486	4195
645.545	9263
645.604	2119
645.663	2349
645.722	1421
645.781	2288
645.840	2716
645.898	3699
645.957	8672
646.016	10709
646.075	23400
646.134	46874
646.192	127518
646.251	203384
646.310	27805
646.369	5147
646.427	3989
646.486	1807
646.545	1847
646.603	2010
646.662	1651
646.721	1135
646.779	392
646.838	642
646.896	2418
646.955	3504
647.014	5110
647.072	10075
647.131	32075
647.189	15484
647.248	1412
647.306	1199
647.365	2189
647.423	-240
647.481	2005
647.540	-364
647.598	593
647.657	671
647.715	417
647.773	158
647.832	904
647.890	-353
647.948	238
648.007	858
648.065	638
648.123	157
648.181	1875
648.240	1396
648.298	940
648.356	465
648.414	1251
648.472	986
648.531	2409
648.589	972
648.647	893
648.705	1074
648.763	972
648.821	769
648.879	1333
648.937	2158
648.995	2721
649.053	2391
649.111	4929
649.169	8828
649.227	16774
649.285	33716
649.343	102235
649.401	52285
649.459	7375
649.516	4624
649.574	2757
649.632	9358
649.690	10853
649.748	4234
649.806	2282
649.863	9087
649.921	23093
649.979	14581
650.037	2206
650.094	-418
650.152	1257
650.210	-202
650.268	1534
650.325	1930
650.383	1869
650.440	-273
650.498	833
650.556	-397
650.613	-727
650.671	291
650.728	239
650.786	-229
650.843	1618
650.901	-991
650.958	467
651.016	255
651.073	-322
651.131	-816
651.188	-1013
651.246	-461
651.303	-485
651.360	69
651.418	-326
651.475	-124
651.532	-1376
651.590	361
651.647	-371
651.704	-311
651.762	-283
651.819	114
651.876	-24
651.933	-152
651.990	944
652.048	-2738
652.105	-989
652.162	620
652.219	-1144
652.276	169
652.333	-11
652.390	-925
652.448	-194
652.505	-157
652.562	-621
652.619	-980
652.676	265
652.733	1039
652.790	-167
652.847	-1081
652.904	569
652.961	-855
653.017	-1090
653.074	361
653.131	193
653.188	-873
653.245	-380
653.302	-528
653.359	513
653.415	62
653.472	-566
653.529	590
653.586	-715
653.642	-977
653.699	227
653.756	-980
653.813	-524
653.869	-158
653.926	-1226
653.983	-792
654.039	365
654.096	-1118
654.152	112
654.209	-1452
654.266	-1
654.322	-922
654.379	-158
654.435	191
654.492	-189
654.548	-577
654.605	-622
654.661	512
654.717	-250
654.774	233
654.830	118
654.887	-7
654.943	363
655.000	671
655.056	983
655.112	503
655.168	-1204
655.225	-310
655.281	701
655.337	-72
655.394	-676
655.450	-95
655.506	225
655.562	62
655.618	1052
655.675	18
655.731	865
655.787	367
655.843	2025
655.899	1093
655.955	3139
656.011	2811
656.067	2507
656.123	4901
656.179	6156
656.235	6792
656.291	4776
656.347	5464
656.403	3833
656.459	2671
656.515	2222
656.571	1608
656.627	1156
656.683	462
656.739	1657
656.795	174
656.850	677
656.906	797
656.962	705
657.018	-689
657.074	-289
657.129	418
657.185	1130
657.241	1146
657.297	436
657.352	220
657.408	-1229
657.464	59
657.519	-285
657.575	-1280
657.630	-303
657.686	201
657.742	-1044
657.797	-183
657.853	-299
657.908	116
657.964	-1531
658.019	-636
658.075	-1119
658.130	-246
658.186	-945
658.241	-204
658.297	-1260
658.352	-835
658.407	433
658.463	-1191
658.518	-166
658.573	-842
658.629	-863
658.684	-425
658.739	-15
658.795	-1621
658.850	44
658.905	-1454
658.960	-446
659.016	-1464
659.071	-982
659.126	-772
659.181	-928
659.236	157
659.291	735
659.346	-735
659.401	47
659.457	69
659.512	-212
659.567	502
659.622	-799
659.677	-539
659.732	-1179
659.787	-481
659.842	-666
659.897	-309
659.952	-607
660.007	-840
660.061	-413
660.116	-1015
660.171	-787
660.226	-494
660.281	888
660.336	-1396
660.391	-184
660.445	-1995
660.500	-239
660.555	-1127
660.610	-372
660.664	-952
660.719	-849
660.774	-703
660.828	-174
660.883	-997
660.938	-199
660.992	-1946
661.047	-421
661.101	-446
661.156	-960
661.211	-1158
661.265	-418
661.320	-892
661.374	-467
661.429	-899
661.483	37
661.538	-1587
661.592	-944
661.647	-345
661.701	425
661.755	-307
661.810	-493
661.864	-1611
661.919	-1174
661.973	-987
662.027	-750
662.081	-1428
662.136	-1448
662.190	-896
662.244	-140
662.299	-857
662.353	-442
662.407	-897
662.461	-310
662.515	-962
662.569	-1601
662.624	-305
662.678	-1183
662.732	-392
662.786	-1369
662.840	-1582
662.894	-216
662.948	-531
663.002	-674
663.056	-1072
663.110	-481
663.164	-1092
663.218	-337
663.272	-548
663.326	-783
663.380	-770
663.434	-510
663.488	-1777
663.542	-286
663.595	-1293
663.649	-1045
663.703	-426
663.757	-798
663.811	-1991
663.864	-1383
663.918	-203
663.972	-958
664.026	-1401
664.079	-1254
664.133	-398
664.187	-1264
664.240	-778
664.294	-302
664.348	-180
664.401	-455
664.455	-325
664.508	-1207
664.562	-995
664.615	-592
664.669	-172
664.722	-86
664.776	-843
664.829	-720
664.883	-1008
664.936	-783
664.990	-436
665.043	-1125
665.097	-1917
665.150	-19
665.203	-1582
665.257	-231
665.310	-1388
665.363	13
665.417	-1146
665.470	-312
665.523	-394
665.576	-427
665.630	-685
665.683	-885
665.736	-332
665.789	-271
665.842	-1233
665.895	-869
665.949	-633
666.002	-928
666.055	-1106
666.108	-526
666.161	-1016
666.214	-559
666.267	-588
666.320	-795
666.373	-697
666.426	-614
666.479	-1007
666.532	-351
666.585	-1505
666.638	-298
666.691	-1003
666.744	-269
666.796	-1233
666.849	-1091
666.902	-549
666.955	-1390
667.008	-1310
667.060	-1141
667.113	-1474
667.166	-607
667.219	-1137
667.271	-1087
667.324	-1924
667.377	-485
667.430	-990
667.482	-1227
667.535	-612
667.587	-1096
667.640	-416
667.693	-332
667.745	-187
667.798	-85
667.850	-1354
667.903	-1132
667.955	-879
668.008	-490
668.060	-794
668.113	-763
668.165	-587
668.218	-1338
668.270	-786
668.322	-1089
668.375	-694
668.427	-669
668.479	-1185
668.532	-1112
668.584	-1099
668.636	-1003
668.689	-123
668.741	-510
668.793	-1189
668.845	-1426
668.898	-693
668.950	-1277
669.002	-940
669.054	-901
669.106	-1610
669.158	-600
669.211	-1036
669.263	-590
669.315	-301
669.367	-364
669.419	69
669.471	950
669.523	806
669.575	3577
669.627	1666
669.679	-262
669.731	120
669.783	472
669.835	1049
669.886	1599
669.938	304
669.990	-581
670.042	-697
670.094	-306
670.146	-696
670.197	178
670.249	223
670.301	1042
670.353	1573
670.404	2372
670.456	4347
670.508	6782
670.560	11731
670.611	22151
670.663	38710
670.715	98678
670.766	183834
670.818	61498
670.869	7235
670.921	3346
670.972	1253
671.024	517
671.075	138
671.127	30
671.178	-626
671.230	396
671.281	-829
671.333	365
671.384	-1193
671.436	-172
671.487	457
671.538	1169
671.590	1091
671.641	4065
671.692	7027
671.744	16052
671.795	11670
671.846	2425
671.897	731
671.949	-236
672.000	-377
672.051	194
672.102	507
672.153	-946
672.204	-1112
672.256	231
672.307	-415
672.358	-658
672.409	-1665
672.460	-507
672.511	-927
672.562	-1055
672.613	-896
672.664	-1124
672.715	-1193
672.766	-1392
672.817	-908
672.868	-329
672.919	-1041
672.970	-714
673.021	-935
673.071	-1424
673.122	-636
673.173	-811
673.224	-829
673.275	-1043
673.326	-290
673.376	-1552
673.427	-1297
673.478	-854
673.528	-918
673.579	-1174
673.630	-1113
673.680	-738
673.731	-1449
673.782	-1453
673.832	-838
673.883	-828
673.934	-1040
673.984	-936
674.035	-1609
674.085	-178
674.136	-902
674.186	-961
674.237	-994
674.287	-998
674.338	-543
674.388	-1167
674.438	-1609
674.489	-447
674.539	-960
674.589	-986
674.640	-690
674.690	-673
674.740	-1691
674.791	-1336
674.841	-1913
674.891	-1728
674.942	-1288
674.992	-1675
675.042	-1261
675.092	-1160
675.142	-1381
675.193	-896
675.243	-626
675.293	-578
675.343	-1536
675.393	-1132
675.443	-1134
675.493	-681
675.543	-1733
675.593	-1730
675.643	-1223
675.693	-539
675.743	-1337
675.793	-1287
675.843	-1651
675.893	-1886
675.943	-948
675.993	-851
676.043	-956
676.093	-238
676.142	-1697
676.192	-1518
676.242	-1452
676.292	-1625
676.341	-2648
676.391	-515
676.441	-1464
676.491	-776
676.540	-1282
676.590	-1169
676.640	-1867
676.689	-1268
676.739	-1696
676.789	-1300
676.838	-1623
676.888	-1638
676.937	-1590
676.987	-711
677.037	-1655
677.086	-2106
677.136	-814
677.185	-806
677.235	-1158
677.284	-1120
677.333	-1652
677.383	-1548
677.432	-1796
677.482	-1469
677.531	-949
677.580	-904
677.630	-1295
677.679	-697
677.728	-1375
677.778	-890
677.827	-1095
677.876	-1299
677.925	-1265
677.975	-1280
678.024	-1678
678.073	-380
678.122	-1195
678.171	-2136
678.220	-1159
678.269	-1935
678.319	-1782
678.368	-1570
678.417	-1548
678.466	-956
678.515	-832
678.564	-1283
678.613	-1679
678.662	-1408
678.711	-1256
678.760	-1476
678.809	-1311
678.857	-1561
678.906	-1516
678.955	-1430
679.004	-665
679.053	-311
679.102	-999
679.151	-1209
679.199	-293
679.248	-668
679.297	-2055
679.346	-1600
679.394	-1882
679.443	-1753
679.492	-1947
679.540	-1080
679.589	-1890
679.638	-1239
679.686	-1125
679.735	-944
679.784	-1463
679.832	-1205
679.881	-1467
679.929	-1561
679.978	-1164
680.026	-1669
680.075	-1518
680.123	-2131
680.172	-2089
680.220	-1096
680.268	-2102
680.317	-1429
680.365	-1848
680.414	-1845
680.462	-1094
680.510	-636
680.559	-2209
680.607	-1526
680.655	-1399
680.703	-1654
680.752	-1233
680.800	-1036
680.848	-1106
680.896	-1446
680.945	-1361
680.993	-1590
681.041	-1509
681.089	-906
681.137	-1931
681.185	-1375
681.233	-1698
681.258	-1706
681.281	-1722
681.329	-1224
681.377	-1891
681.380	-1839
681.425	-1023
681.473	-1838
681.502	-2137
681.521	-2369
681.569	-761
681.617	-1451
681.624	-1474
681.665	-1662
681.713	-1356
681.745	-829
681.761	-586
681.809	-2368
681.857	117
681.867	-152
681.904	-1124
681.952	-2149
681.989	-1318
682.000	-1078
682.048	-1175
682.096	-928
682.111	-1000
682.143	-1175
682.191	-1055
682.233	-793
682.239	-763
682.286	-1778
682.334	-1725
682.354	-1345
682.382	-849
682.430	-1034
682.476	-423
682.477	-416
682.525	-1115
682.572	-1218
682.598	-1034
682.620	-875
682.667	-928
682.715	-1491
682.720	-1394
682.763	-610
682.810	-839
682.841	-1363
682.857	-1649
682.905	-1065
682.952	-1102
682.963	-1056
683.000	-916
683.047	-1435
683.085	-496
683.095	-239
683.142	-1047
683.190	-1354
683.206	-1253
683.237	-1124
683.284	-262
683.328	-1050
683.332	-1124
683.379	-528
683.426	-1680
683.449	-949
683.473	-184
683.521	-998
683.568	-564
683.571	-565
683.615	-658
683.662	-732
683.693	-1148
683.709	-1399
683.757	-768
683.804	-658
683.814	-647
683.851	-634
683.898	-458
683.936	-309
683.945	-269
683.992	-123
684.039	-176
684.057	-168
684.086	-141
684.133	-1031
684.179	-491
684.180	-482
684.227	-117
684.274	-390
684.300	-143
684.321	50
684.368	-255
684.415	-1
684.422	-78
684.462	-546
684.509	-793
684.543	-832
684.556	-836
684.603	-104
684.649	-1011
684.665	-620
684.696	122
684.743	-528
684.786	236
684.790	296
684.837	-663
684.883	24
684.908	-226
684.930	-455
684.977	227
685.023	-197
685.029	-204
685.070	-351
685.117	-911
685.150	-398
685.164	-152
685.210	-498
685.257	-479
685.272	-312
685.303	-36
685.350	-212
685.393	-243
685.396	-251
685.443	328
685.490	-240
685.514	74
685.536	302
685.583	-235
685.629	-67
685.636	-50
685.675	153
685.722	244
685.757	-81
685.768	-206
685.815	84
685.861	-418
685.878	-319
685.908	-112
685.954	58
686.000	233
686.000	233
686.047	213
686.093	626
686.121	389
686.139	265
686.185	141
686.232	340
686.242	335
686.278	168
686.324	300
686.363	192
686.370	215
686.416	408
686.463	862
686.484	690
686.509	365
686.555	398
686.601	-74
686.606	-2
686.647	669
686.693	477
686.727	610
686.739	690
686.785	420
686.831	269
686.848	478
686.877	785
686.923	1132
686.969	372
686.969	367
687.015	526
687.061	195
687.090	52
687.107	27
687.153	662
687.199	477
687.211	401
687.245	172
687.291	704
687.332	728
687.336	735
687.382	863
687.428	1000
687.453	1056
687.474	1044
687.520	810
687.565	1396
687.574	1245
687.611	932
687.657	1758
687.695	1716
687.702	1763
687.748	3263
687.794	4265
687.816	4473
687.839	3967
687.885	2240
687.931	1920
687.937	1749
687.976	1238
688.022	854
688.058	470
688.067	424
688.113	879
688.158	456
688.179	865
688.204	1381
688.249	1043
688.295	1000
688.300	1023
688.340	1130
688.386	1301
688.421	884
688.431	789
688.477	1102
688.522	891
688.542	1316
688.567	1814
688.613	1218
688.658	1285
688.663	1281
688.703	1208
688.749	988
688.784	907
688.794	879
688.839	1042
688.884	763
688.905	640
688.930	615
688.975	819
689.020	839
689.026	897
689.065	1285
689.110	1433
689.146	1138
689.155	1098
689.201	1821
689.246	2386
689.267	2339
689.291	2004
689.336	1543
689.381	1092
689.388	1062
689.426	1262
689.471	1057
689.509	1191
689.516	1226
689.561	1148
689.606	1161
689.630	1176
689.651	1169
689.696	1244
689.741	1572
689.750	1530
689.785	1302
689.830	1390
689.871	1109
689.875	1103
689.920	1643
689.965	1444
689.992	1572
690.010	1618
690.054	1017
690.099	1463
690.112	1438
690.144	1451
690.189	1647
690.233	1423
690.233	1426
690.278	1690
690.323	1366
690.354	1565
690.367	1718
690.412	1757
690.457	1789
690.474	1801
690.501	1783
690.546	2087
690.590	1922
690.595	1909
690.635	1947
690.680	2124
690.716	2150
690.724	2147
690.769	2396
690.813	2722
690.836	2540
690.857	2549
690.902	2901
690.946	3182
690.957	3371
690.991	4619
691.035	5974
691.077	7471
691.080	7479
691.124	6454
691.168	5975
691.198	5566
691.213	5197
691.257	4110
691.301	2923
691.318	2487
691.346	2413
691.390	2533
691.434	2200
691.439	2205
691.478	2297
691.522	2338
691.559	2030
691.567	2000
691.611	2408
691.655	2195
691.680	2194
691.699	2231
691.743	2644
691.787	2658
691.800	2536
691.831	2230
691.875	2222
691.919	2645
691.921	2631
691.964	2236
692.008	2202
692.041	1932
692.052	1913
692.096	1908
692.139	2217
692.162	2167
692.183	2053
692.227	2321
692.271	1943
692.282	1982
692.315	2362
692.359	2140
692.402	2530
692.403	2540
692.447	2418
692.490	2659
692.523	2508
692.534	2446
692.578	2460
692.622	1947
692.643	2086
692.666	2191
692.709	2053
692.753	1864
692.763	1770
692.797	1864
692.840	2156
692.884	2421
692.884	2432
692.928	2598
692.971	3004
693.004	3237
693.015	3209
693.059	2796
693.102	2691
693.124	2552
693.146	2620
693.189	2147
693.233	2657
693.245	2731
693.276	3018
693.320	3050
693.363	3192
693.365	3188
693.407	3154
693.450	3265
693.485	3109
693.493	3156
693.537	3788
693.580	3960
693.605	4226
693.624	4600
693.667	5419
693.710	6292
693.725	6509
693.753	8258
693.797	11102
693.840	14190
693.845	14505
693.883	13614
693.926	12066
693.966	11153
693.970	10976
694.013	8503
694.056	6300
694.086	4787
694.099	4706
694.142	4316
694.185	4050
694.206	3777
694.229	3549
694.272	3606
694.315	3289
694.326	3152
694.358	2989
694.401	3346
694.444	3076
694.446	3067
694.487	3377
694.530	3377
694.566	3903
694.573	3951
694.616	3722
694.659	3325
694.686	3280
694.702	3306
694.745	3355
694.787	3204
694.806	3164
694.830	3074
694.873	2989
694.916	2750
694.926	2655
694.959	2917
695.002	3386
695.044	3724
695.046	3733
695.087	3545
695.130	3508
695.166	3195
695.172	3206
695.215	3190
695.258	3170
695.286	3161
695.301	3168
695.343	3345
695.386	3401
695.406	3450
695.428	3470
695.471	3128
695.514	3155
695.526	3095
695.556	3134
695.599	3480
695.641	3464
695.646	3453
695.684	3333
695.726	3447
695.766	3444
695.769	3456
695.811	3291
695.854	3242
695.886	3258
695.896	3344
695.938	3504
695.981	3701
696.005	3905
696.023	3975
696.065	3937
696.108	4012
696.125	3899
696.150	3739
696.192	3889
696.235	3675
696.245	3640
696.277	3662
696.319	3708
696.361	3783
696.365	3772
696.404	3876
696.446	3997
696.485	3968
696.488	3979
696.530	3985
696.572	4103
696.604	4112
696.614	4152
696.656	4185
696.698	4443
696.724	4477
696.740	4368
696.783	4051
696.825	3855
696.844	3717
696.867	3925
696.909	4110
696.951	4531
696.964	4648
696.992	4454
697.034	3949
697.076	3554
697.083	3476
697.118	3929
697.160	4484
697.202	4976
697.203	4973
697.244	4748
697.286	4567
697.323	4273
697.327	4269
697.369	4206
697.411	4021
697.442	3949
697.453	3987
697.494	4017
697.536	3996
697.562	4034
697.578	4132
697.620	4398
697.661	4510
697.682	4584
697.703	4591
697.744	4525
697.786	4576
697.801	4550
697.828	4613
697.869	4715
697.911	4714
697.921	4727
697.952	4648
697.994	4478
698.035	4299
698.040	4264
698.077	4525
698.118	4785
698.160	5002
698.160	4984
698.201	5026
698.243	5035
698.279	4989
698.284	5000
698.325	4985
698.367	4931
698.399	4862
698.408	4872
698.449	4866
698.491	4857
698.518	4835
698.532	4815
698.573	4688
698.614	4581
698.638	4492
698.656	4621
698.697	4901
698.738	5179
698.757	5283
698.779	5269
698.820	5230
698.862	5189
698.877	5157
698.903	5307
698.944	5515
698.985	5730
698.996	5774
699.026	5622
699.067	5382
699.116	5084
699.235	5422
699.354	4585
699.474	5892
699.593	5164
699.713	5811
699.832	4439
699.951	6345
700.070	6553
700.190	5559
700.309	6485
700.428	5731
700.547	5350
700.667	5638
700.786	5563
700.905	5543
701.024	5053
701.143	4525
701.262	5022
701.381	4967
701.500	5022
701.619	5666
701.738	5380
701.857	5218
701.976	4950
702.095	4854
702.214	4994
702.333	4860
702.452	3947
702.571	4787
702.690	4828
702.809	4886
702.928	4894
703.047	4448
703.165	5053
703.284	4723
703.403	5202
703.522	4867
703.640	4747
703.759	4788
703.878	4951
703.997	5032
704.115	4565
704.234	4902
704.353	5035
704.471	3866
704.590	3894
704.708	4810
704.827	4364
704.946	3804
705.064	4485
705.183	4347
705.301	3280
705.420	3727
705.538	5133
705.656	3904
705.775	4371
705.893	7791
706.012	8128
706.130	3756
706.249	5030
706.367	5042
706.485	3858
706.604	2995
706.722	3929
706.840	5947
706.958	12393
707.077	7257
707.195	3632
707.313	4299
707.431	4798
707.549	3296
707.668	4029
707.786	3851
707.904	4338
708.022	3648
708.140	4672
708.258	3924
708.376	3808
708.494	4232
708.612	4372
708.730	4197
708.848	4011
708.966	3688
709.084	3662
709.202	3259
709.320	3763
709.438	2847
709.556	3520
709.674	4248
709.791	3735
709.909	3964
710.027	3859
710.145	4446
710.263	4434
710.380	3815
710.498	3420
710.616	3551
710.733	3247
710.851	3014
710.969	4190
711.086	3014
711.204	3396
711.322	3777
711.439	3391
711.557	4632
711.674	3977
711.792	3456
711.909	3425
712.027	3607
712.144	4141
712.262	3655
712.379	3308
712.497	2956
712.614	3047
712.732	3467
712.849	3408
712.966	3496
713.084	4460
713.201	2813
713.318	2908
713.436	3096
713.553	3759
713.670	3719
713.787	3826
713.905	3703
714.022	3521
714.139	3048
714.256	4548
714.373	6561
714.490	12473
714.608	34526
714.725	158045
714.842	155650
714.959	9795
715.076	4341
715.193	4906
715.310	4673
715.427	3990
715.544	4243
715.661	4945
715.778	3319
715.895	3428
716.011	4146
716.128	3768
716.245	3487
716.362	4338
716.479	3878
716.596	4586
716.713	4304
716.829	3857
716.946	3832
717.063	3393
717.180	2702
717.296	3580
717.413	3517
717.530	3617
717.646	3614
717.763	3860
717.880	2700
717.996	2925
718.113	2575
718.229	2172
718.346	2925
718.462	2119
718.579	3671
718.695	5205
718.812	3755
718.928	2608
719.045	2430
719.161	3055
719.277	3050
719.394	3357
719.510	2928
719.626	3717
719.743	3145
719.859	5458
719.975	9694
720.092	38723
720.208	87152
720.324	9247
720.440	4179
720.557	2705
720.673	4417
720.789	3588
720.905	3124
721.021	2204
721.137	3063
721.253	2582
721.369	2242
721.486	3187
721.602	3107
721.718	2738
721.834	2808
721.950	2707
722.066	1765
722.181	2129
722.297	3318
722.413	2468
722.529	3067
722.645	3692
722.761	3024
722.877	3237
722.993	2520
723.108	2355
723.224	2866
723.340	3209
723.456	3623
723.571	2669
723.687	2837
723.803	2404
723.918	2462
724.034	2702
724.150	3001
724.265	2876
724.381	2535
724.497	2284
724.612	3187
724.728	2401
724.843	2553
724.959	3419
725.074	2908
725.190	2688
725.305	2408
725.421	2008
725.536	2894
725.651	3045
725.767	2175
725.882	2433
725.997	2506
726.113	2573
726.228	2314
726.343	2091
726.459	1657
726.574	3071
726.689	1999
726.804	2256
726.920	2685
727.035	2465
727.150	2449
727.265	2112
727.380	2655
727.495	3706
727.610	2337
727.725	3591
727.841	2961
727.956	4976
728.071	4108
728.186	1905
728.301	2409
728.416	2539
728.531	2549
728.645	2890
728.760	3549
728.875	4873
728.990	4964
729.105	3029
729.220	2498
729.335	3213
729.449	3180
729.564	2478
729.679	2839
729.794	2067
729.908	2600
730.023	2553
730.138	1921
730.253	2382
730.367	2015
730.482	2771
730.596	2135
730.711	2614
730.826	3779
730.940	4911
731.055	2760
731.169	2779
731.284	2000
731.398	2008
731.513	2968
731.627	2308
731.742	2957
731.856	2741
731.970	2119
732.085	2908
732.199	4246
732.313	5635
732.428	13878
732.542	44250
732.656	25384
732.771	4658
732.885	3516
732.999	3030
733.113	3079
733.227	3453
733.342	2500
733.456	2836
733.570	3112
733.684	2436
733.798	3269
733.912	3082
734.026	2613
734.140	2924
734.254	3257
734.368	2245
734.482	2795
734.596	2503
734.710	2181
734.824	2454
734.938	2582
735.052	1840
735.166	2925
735.280	2722
735.393	2496
735.507	2746
735.621	1327
735.735	2965
735.849	2500
735.962	2763
736.076	2381
736.190	2970
736.303	2405
736.417	2554
736.531	2303
736.644	2509
736.758	2265
736.872	2694
736.985	2689
737.099	3512
737.212	1732
737.326	2921
737.439	3067
737.553	2791
737.666	2647
737.780	2106
737.893	2746
738.007	2079
738.120	2285
738.233	2095
738.347	1812
738.460	2516
738.573	2702
738.687	2386
738.800	2742
738.913	2337
739.026	2211
739.140	2584
739.253	1959
739.366	1917
739.479	1998
739.592	1797
739.705	2154
739.818	1726
739.932	2089
740.045	2415
740.158	2544
740.271	2219
740.384	2929
740.497	2740
740.610	4737
740.723	3647
740.836	3949
740.949	3469
741.062	2925
741.174	2658
741.287	2234
741.400	2571
741.513	3077
741.626	3696
741.739	3372
741.851	3400
741.964	2802
742.077	1868
742.189	4137
742.302	10966
742.415	7674
742.527	3367
742.640	3244
742.753	1920
742.865	1564
742.978	2394
743.090	1656
743.203	1852
743.316	2435
743.428	1716
743.541	1792
743.653	2103
743.766	2223
743.878	2608
743.990	3507
744.103	9030
744.215	13907
744.327	4399
744.440	2614
744.552	2842
744.664	1445
744.777	2088
744.889	1724
745.001	1870
745.113	1708
745.226	1182
745.338	2109
745.450	2060
745.562	2000
745.674	1712
745.786	2289
745.898	1984
746.010	1112
746.122	1406
746.234	1391
746.347	2242
746.459	2316
746.570	3377
746.682	8461
746.794	20058
746.906	7692
747.018	1959
747.130	2662
747.242	1588
747.354	1310
747.466	1093
747.577	1314
747.689	2300
747.801	2345
747.913	1150
748.024	1938
748.136	895
748.248	1603
748.359	1322
748.471	1828
748.583	1693
748.694	1513
748.806	1960
748.918	2234
749.029	1382
749.141	1273
749.252	2090
749.364	949
749.475	1860
749.587	1880
749.698	1786
749.809	1827
749.921	1829
750.032	1618
750.144	1222
750.255	1114
750.366	1576
750.478	574
750.589	1732
750.700	553
750.811	3040
750.923	1805
751.034	2428
751.145	2735
751.256	1512
751.367	2075
751.479	1863
751.590	1069
751.701	1528
751.812	1031
751.923	1351
752.034	802
752.145	1347
752.256	937
752.367	931
752.478	1446
752.589	1217
752.700	1635
752.811	536
752.922	1400
753.032	776
753.143	1705
753.254	1104
753.365	2195
753.476	1269
753.586	937
753.697	1457
753.808	1197
753.919	1306
754.029	1237
754.140	1025
754.251	1262
754.361	1244
754.472	1740
754.582	788
754.693	1438
754.804	1993
754.914	1057
755.025	1438
755.135	1848
755.246	1806
755.356	753
755.466	963
755.577	1405
755.687	1744
755.798	1035
755.908	1522
756.018	1587
756.129	1648
756.239	1330
756.349	2209
756.460	612
756.570	1580
756.680	1166
756.790	1313
756.900	1525
757.011	1182
757.121	1174
757.231	1841
757.341	1901
757.451	816
757.561	1113
757.671	1591
757.781	-417
757.891	1119
758.001	1453
758.111	1015
758.221	1292
758.331	2209
758.441	911
758.551	1749
758.661	1642
758.771	1842
758.880	1476
758.990	1416
759.100	1361
759.210	1439
759.320	1101
759.429	2230
759.539	1623
759.649	1000
759.758	1427
759.868	1652
759.978	1304
760.087	1668
760.197	1601
760.307	2224
760.416	892
760.526	1004
760.635	1533
760.745	1932
760.854	1182
760.964	1541
761.073	1325
761.182	1867
761.292	1455
761.401	1298
761.511	1407
761.620	2009
761.729	2133
761.839	1009
761.948	1530
762.057	1547
762.166	1371
762.276	881
762.385	2156
762.494	1267
762.603	1677
762.712	1450
762.822	790
762.931	1561
763.040	933
763.149	198
763.258	1586
763.367	1740
763.476	1663
763.585	1397
763.694	1874
763.803	1203
763.912	1488
764.021	1624
764.130	1363
764.238	2746
764.347	2139
764.456	1736
764.565	2708
764.674	2663
764.783	2041
764.891	1568
765.000	3750
765.109	3764
765.217	3157
765.326	4066
765.435	4377
765.543	5564
765.652	5947
765.761	7819
765.869	13315
765.978	20423
766.086	36086
766.195	73962
766.303	192267
766.412	487904
766.520	394396
766.629	120296
766.737	43045
766.846	24733
766.954	16146
767.062	12182
767.171	9353
767.279	7568
767.387	5563
767.496	4783
767.604	4873
767.712	3524
767.820	3901
767.928	2987
768.037	3919
768.145	3728
768.253	3553
768.361	2880
768.469	3291
768.577	2571
768.685	3322
768.793	3098
768.901	2720
769.009	3995
769.117	4853
769.225	5731
769.333	9102
769.441	14487
769.549	27440
769.657	67012
769.765	217247
769.873	402796
769.981	148761
770.088	34335
770.196	15564
770.304	10408
770.412	7753
770.519	6255
770.627	3954
770.735	3441
770.842	3417
770.950	3048
771.058	2528
771.165	2025
771.273	1409
771.380	2187
771.488	1711
771.595	2285
771.703	1569
771.810	2058
771.918	2147
772.025	1698
772.133	1836
772.240	1754
772.348	1791
772.455	2368
772.562	1976
772.670	1097
772.777	1746
772.884	1433
772.991	954
773.099	1092
773.206	1206
773.313	1294
773.420	1755
773.528	1422
773.635	613
773.742	1871
773.849	1796
773.956	1042
774.063	1198
774.170	919
774.277	1924
774.384	1321
774.491	584
774.598	1741
774.705	1005
774.812	1236
774.919	1668
775.026	1608
775.133	1028
775.239	1097
775.346	519
775.453	506
775.560	1085
775.667	1034
775.773	475
775.880	1792
775.987	1033
776.093	2070
776.200	1458
776.307	873
776.413	1325
776.520	1085
776.627	2224
776.733	2237
776.840	1455
776.946	6621
777.053	15428
777.159	37740
777.266	18659
777.372	29937
777.478	22924
777.585	10517
777.691	2425
777.798	1446
777.904	1716
778.010	2399
778.117	1575
778.223	2039
778.329	1203
778.435	1049
778.542	1576
778.648	598
778.754	-33
778.860	753
778.966	613
779.072	1042
779.178	986
779.284	1673
779.391	503
779.497	-351
779.603	3080
779.708	-223
779.815	3582
779.920	9386
780.026	19378
780.132	2012
780.238	1473
780.344	966
780.450	1885
780.556	495
780.661	214
780.767	548
780.873	707
780.979	1215
781.085	-292
781.190	1613
781.296	1057
781.402	435
781.507	485
781.613	298
781.719	-47
781.824	895
781.930	1973
782.035	644
782.141	1331
782.246	870
782.352	587
782.457	488
782.563	-119
782.668	430
782.773	1069
782.879	852
782.984	1308
783.090	899
783.195	1206
783.300	1007
783.405	1256
783.511	746
783.616	1264
783.721	769
783.826	1594
783.932	1337
784.037	2038
784.142	1294
784.247	1061
784.352	1063
784.457	914
784.562	1141
784.667	597
784.772	1313
784.877	871
784.982	1341
785.087	147
785.192	1605
785.297	318
785.402	1036
785.507	-248
785.611	113
785.716	-123
785.821	668
785.926	295
786.031	937
786.135	740
786.240	133
786.345	-849
786.450	1520
786.554	-290
786.659	239
786.763	-638
786.868	1138
786.973	1336
787.077	-59
787.182	392
787.286	52
787.391	742
787.495	1330
787.600	559
787.704	113
787.809	499
787.913	-597
788.017	785
788.122	1136
788.226	326
788.330	8
788.435	120
788.539	762
788.643	484
788.747	578
788.852	515
788.956	-396
789.060	728
789.164	304
789.268	-189
789.372	757
789.476	512
789.580	-176
789.684	-361
789.788	894
789.892	-545
789.996	721
790.100	295
790.204	676
790.308	464
790.412	707
790.516	873
790.620	809
790.724	146
790.828	388
790.931	186
791.035	1996
791.139	665
791.242	-252
791.346	1012
791.450	345
791.554	419
791.657	1
791.761	886
791.864	1401
791.968	736
792.072	812
792.175	165
792.279	436
792.382	1277
792.486	849
792.589	-35
792.693	160
792.796	49
792.899	723
793.003	819
793.106	-99
793.209	709
793.313	1348
793.416	-447
793.519	1666
793.623	204
793.726	1030
793.829	15
793.932	1085
794.035	-841
794.138	1476
794.242	1289
794.345	878
794.448	1412
794.551	916
794.654	5513
794.757	9682
794.860	2101
794.963	675
795.066	726
795.169	1200
795.272	335
795.375	1058
795.477	26
795.580	483
795.683	-430
795.786	-69
795.889	-248
795.991	815
796.094	831
796.197	-1297
796.300	1151
796.402	-835
796.505	-660
796.608	223
796.710	772
796.813	483
796.915	-289
797.018	-338
797.120	-287
797.223	-1296
797.326	470
797.428	-221
797.530	418
797.633	-470
797.735	664
797.838	-276
797.940	604
798.042	-393
798.145	-523
798.247	183
798.349	-1536
798.452	-143
798.554	16
798.656	-1140
798.758	215
798.860	-140
798.962	-533
799.065	-163
799.167	-536
799.269	1160
799.371	-142
799.473	237
799.575	-572
799.677	-568
799.779	1902
799.881	-944
799.983	459
800.085	100
800.187	452
800.289	-767
800.390	-131
800.492	557
800.594	407
800.696	-280
800.798	-139
800.899	-344
801.001	-336
801.103	198
801.205	-93
801.306	98
801.408	-638
801.509	-177
801.611	-449
801.713	193
801.814	-326
801.916	-652
802.017	-409
802.119	-694
802.220	-245
802.322	-1220
802.423	1454
802.525	-1948
802.626	-95
802.727	-75
802.829	84
802.930	-1021
803.031	1842
803.133	271
803.234	-100
803.335	-499
803.436	-489
803.538	-66
803.639	-1270
803.740	72
803.841	-85
803.942	381
804.043	785
804.144	-387
804.245	122
804.346	94
804.447	-379
804.548	-11
804.649	1260
804.750	-1233
804.851	-135
804.952	17
805.053	-252
805.154	-1054
805.255	511
805.355	825
805.456	-739
805.557	-885
805.658	-1168
805.758	468
805.859	185
805.960	-479
806.061	-163
806.161	-497
806.262	469
806.362	-416
806.463	119
806.564	-207
806.664	-486
806.765	-663
806.865	128
806.966	-368
807.066	234
807.166	-59
807.267	685
807.367	-891
807.468	-74
807.568	-1439
807.668	79
807.769	490
807.869	-1019
807.969	57
808.069	-626
808.170	-55
808.270	-807
808.370	-122
808.470	286
808.570	-387
808.670	-362
808.770	-732
808.870	-238
808.970	644
809.070	-259
809.170	-196
809.271	267
809.370	277
809.470	-489
809.570	-7
809.670	-483
809.770	138
809.870	1184
809.970	522
810.070	196
810.169	-36
810.269	-576
810.369	884
810.469	-932
810.568	-258
810.668	-999
810.768	-6
810.867	-2
810.967	-608
811.066	-187
811.166	60
811.265	31
811.365	-468
811.464	195
811.564	264
811.663	-871
811.763	-1014
811.862	256
811.962	809
812.061	641
812.160	-15
812.260	-234
812.359	536
812.458	-614
812.557	440
812.657	-150
812.756	-18
812.855	71
812.954	-196
813.053	86
813.153	385
813.252	-985
813.351	398
813.450	-315
813.549	-583
813.648	39
813.747	-167
813.846	613
813.945	-621
814.044	942
814.143	190
814.242	451
814.341	135
814.439	205
814.538	-163
814.637	303
814.736	306
814.835	482
814.933	-922
815.032	795
815.131	342
815.229	-92
815.328	-22
815.427	-321
815.525	1006
815.624	1080
815.722	-384
815.821	-9
815.919	258
816.018	-430
816.116	1650
816.215	283
816.313	1197
816.412	746
816.510	639
816.609	2185
816.707	1820
816.805	1272
816.904	1515
817.002	1751
817.100	2581
817.198	2501
817.296	2358
817.395	3108
817.493	3959
817.591	3909
817.689	6884
817.787	7998
817.885	15551
817.983	29687
818.081	68500
818.179	170132
818.277	414913
818.375	317889
818.473	80007
818.571	31784
818.669	21748
818.767	20702
818.865	18658
818.963	21511
819.061	33582
819.158	59193
819.256	132957
819.354	316724
819.452	635309
819.549	374745
819.647	100768
819.745	41335
819.842	25490
819.940	16613
820.038	12266
820.135	9729
820.233	7534
820.330	5703
820.428	4322
820.525	4857
820.623	3907
820.720	2103
820.818	3583
820.915	3845
821.012	4780
821.110	2037
821.207	3362
821.304	1011
821.402	3696
821.499	7704
821.596	13956
821.693	6556
821.791	2330
821.888	744
821.985	2649
822.082	2081
822.179	3893
822.276	5259
822.373	2155
822.470	841
822.567	591
822.664	331
822.761	1030
822.858	-465
822.955	572
823.052	662
823.149	357
823.246	122
823.343	717
823.440	109
823.536	139
823.633	276
823.730	-389
823.827	248
823.923	476
824.020	1936
824.117	2185
824.213	3107
824.310	2385
824.407	674
824.503	116
824.600	92
824.696	-650
824.793	76
824.889	-759
824.986	196
825.082	-303
825.179	248
825.275	-116
825.371	-842
825.468	1101
825.564	-654
825.660	301
825.757	-629
825.853	918
825.949	-401
826.045	480
826.142	-505
826.238	135
826.334	-419
826.430	-1165
826.526	-75
826.622	-357
826.718	-1043
826.814	-366
826.910	568
827.006	-323
827.102	56
827.198	745
827.294	-283
827.390	-594
827.486	-363
827.582	-1135
827.678	-2004
827.774	-263
827.869	-416
827.965	1080
828.061	-1336
828.157	-461
828.252	-253
828.348	-1046
828.444	285
828.539	-1096
828.635	-728
828.731	240
828.826	-716
828.922	-61
829.017	-889
829.113	-112
829.208	-1070
829.304	-1079
829.399	516
829.495	-1172
829.590	-176
829.685	-676
829.781	-724
829.876	-684
829.971	-261
830.066	-316
830.162	-1083
830.257	-321
830.352	-791
830.447	622
830.543	-460
830.638	-1467
830.733	-446
830.828	-719
830.923	-14
831.018	-529
831.113	-951
831.208	-916
831.303	-737
831.398	-92
831.493	-644
831.588	-278
831.683	-1295
831.778	-114
831.873	-1044
831.967	662
832.062	-881
832.157	-1052
832.252	291
832.346	-414
832.441	-963
832.536	115
832.631	59
832.725	-64
832.820	-634
832.914	-833
833.009	-1145
833.104	-569
833.198	-1112
833.293	-1246
833.387	152
833.482	-467
833.576	-780
833.670	363
833.765	-1115
833.859	-1064
833.954	-234
834.048	-205
834.142	-561
834.237	-716
834.331	99
834.425	-761
834.519	-997
834.613	416
834.708	-1355
834.802	193
834.896	-951
834.990	-446
835.084	-635
835.178	-443
835.272	-1011
835.366	-1061
835.460	435
835.554	-525
835.648	-632
835.742	-1015
835.836	-770
835.930	-2460
836.024	-175
836.117	-290
836.211	-1137
836.305	-508
836.399	214
836.493	-1492
836.586	-211
836.680	-779
836.774	-1132
836.867	334
836.961	-1567
837.055	-935
837.148	-568
837.242	164
837.335	-759
837.429	-1256
837.522	-1374
837.616	-1002
837.709	-379
837.803	-1064
837.896	759
837.989	-976
838.083	-494
838.176	-662
838.269	-1035
838.363	-421
838.456	-1526
838.549	21
838.642	-803
838.735	363
838.829	1312
838.922	-1257
839.015	-402
839.108	-1093
839.201	-364
839.294	-341
839.387	-40
839.480	-1946
839.573	36
839.666	-879
839.759	-595
839.852	-1440
839.945	-203
840.038	-721
840.131	-918
840.223	-1039
840.316	57
840.409	-1119
840.502	-1238
840.594	-168
840.687	-1178
840.780	-725
840.873	-807
840.965	-762
841.058	-651
841.150	-225
841.243	-1577
841.336	-105
841.428	-1029
841.521	-1130
841.613	-1161
841.706	-119
841.798	-713
841.890	-546
841.983	-1224
842.075	-248
842.167	-1038
842.260	-1438
842.352	-366
842.444	-765
842.537	-527
842.629	187
842.721	-1227
842.813	-993
842.905	-1341
842.997	242
843.090	-702
843.182	-976
843.274	-1011
843.366	-222
843.458	-900
843.550	81
843.642	-610
843.734	-406
843.826	-1413
843.918	-461
844.009	233
844.101	-1617
844.193	-494
844.285	322
844.377	1384
844.469	4493
844.560	7837
844.652	6495
844.744	1114
844.835	-482
844.927	-1138
845.019	-807
845.110	-615
845.202	-237
845.293	-595
845.385	-750
845.476	-694
845.568	-14
845.659	-544
845.751	80
845.842	-738
845.934	-1951
846.025	-1227
846.116	-388
846.208	-1235
846.299	-889
846.390	-617
846.482	-385
846.573	-267
846.664	-449
846.755	-1147
846.846	-819
846.937	-1807
847.029	-695
847.120	-1007
847.211	-943
847.302	-124
847.393	-1277
847.484	231
847.575	-1153
847.666	-612
847.757	-584
847.847	-878
847.938	213
848.029	-1227
848.120	-1218
848.211	-768
848.302	-618
848.392	-1173
848.483	-92
848.574	-1396
848.664	-1324
848.755	-1022
848.846	-1388
848.936	-556
849.027	-516
849.118	-420
849.208	-1032
849.299	17
849.389	1060
849.480	3184
849.570	6911
849.661	14287
849.751	23927
849.841	7393
849.932	-105
850.022	-665
850.112	104
850.203	-513
850.293	-1589
850.383	-757
850.474	-1462
850.564	-1012
850.654	-657
850.744	-418
850.834	-270
850.924	-882
851.014	-1288
851.104	-1510
851.194	-872
851.284	-335
851.374	-316
851.464	-830
851.554	-1046
851.644	-675
851.734	-407
851.824	-906
851.914	-350
852.004	-108
852.094	-1051
852.183	-962
852.273	-284
852.363	-1251
852.452	-697
852.542	-853
852.632	-762
852.721	-1370
852.811	-1214
852.901	-893
852.990	-652
853.080	-114
853.169	-766
853.259	-911
853.348	-1218
853.438	-292
853.527	1133
853.617	1919
853.706	5301
853.795	12562
853.885	29699
853.974	54941
854.063	107647
854.152	165486
854.242	51888
854.331	5476
854.420	1447
854.509	1227
854.598	463
854.687	-141
854.777	591
854.866	153
854.955	620
855.044	-406
855.133	-407
855.222	-1195
855.311	-766
855.400	-490
855.488	-258
855.577	-451
855.666	193
855.755	-441
855.844	-578
855.933	-1100
856.021	-685
856.110	-351
856.199	-1431
856.288	-661
856.376	-201
856.465	-1013
856.554	-49
856.642	150
856.731	-28
856.819	-162
856.908	-1127
856.996	-103
857.085	-1170
857.173	-1033
857.262	-1210
857.350	-795
857.438	-775
857.527	-73
857.615	-437
857.703	-227
857.792	-1135
857.880	-1265
857.968	-572
858.056	-543
858.145	-623
858.233	-1158
858.321	-738
858.409	-258
858.497	-1590
858.585	-797
858.673	-521
858.761	-1683
858.849	-647
858.937	-1449
859.025	-498
859.113	-74
859.201	-33
859.289	1699
859.377	286
859.465	227
859.552	-1196
859.640	-1610
859.728	-1130
859.816	-1544
859.903	-441
859.991	-1760
860.079	-536
860.166	-246
860.254	-877
860.342	-527
860.429	-1398
860.517	-1461
860.604	-239
860.692	-1163
860.779	-1362
860.867	-624
860.954	-1345
861.042	-981
861.129	-538
861.216	-745
861.304	-476
861.391	-922
861.478	-685
861.565	-676
861.653	-235
861.740	-1278
861.827	-595
861.914	-134
862.001	-664
862.089	-961
862.176	-905
862.263	-947
862.350	-942
862.437	-1030
862.524	-1024
862.611	331
862.698	373
862.785	1877
862.871	2350
862.958	5
863.045	-454
863.132	-330
863.219	-1353
863.306	-1424
863.392	-738
863.479	-1194
863.566	-1289
863.652	-1243
863.739	-955
863.826	-383
863.912	-574
863.999	-1586
864.086	-569
864.172	-1227
864.259	-1123
864.345	-1049
864.432	-565
864.518	-721
864.604	-107
864.691	-1229
864.777	-121
864.863	-448
864.950	585
865.036	-520
865.122	264
865.209	608
865.295	516
865.381	363
865.467	1233
865.553	2367
865.639	2631
865.726	5604
865.812	13567
865.898	25639
865.984	38262
866.070	79033
866.156	77747
866.242	16566
866.328	2932
866.414	-442
866.499	960
866.585	-448
866.671	252
866.757	-587
866.843	-290
866.928	-267
867.014	-548
867.100	-35
867.186	-522
867.271	-693
867.357	237
867.442	149
867.528	-28
867.614	1149
867.699	2780
867.785	4334
867.870	7758
867.956	9908
868.041	4624
868.127	3034
868.212	4941
868.297	3835
868.383	1550
868.468	2666
868.553	2578
868.639	745
868.724	484
868.809	143
868.894	-619
868.979	-831
869.065	427
869.150	-1317
869.235	132
869.320	-649
869.405	-185
869.490	-198
869.575	-859
869.660	-222
869.745	-489
869.830	-1016
869.915	-1086
870.000	302
870.085	493
870.169	1671
870.254	1810
870.339	-259
870.424	-1103
870.509	-1093
870.593	92
870.678	-15
870.763	-646
870.847	605
870.932	170
871.016	1730
871.101	859
871.186	-162
871.270	-354
871.355	-836
871.439	-336
871.523	-749
871.608	-105
871.692	277
871.777	1210
871.861	113
871.945	-1715
872.030	-277
872.114	-928
872.198	-940
872.282	-818
872.367	-1435
872.451	-351
872.535	-348
872.619	-293
872.703	-1169
872.787	-425
872.871	-766
872.955	-1170
873.039	-1254
873.123	-722
873.207	-567
873.291	-780
873.375	-827
873.459	-1169
873.543	-1027
873.627	-439
873.711	-1398
873.794	-562
873.878	-929
873.962	-1097
874.045	-505
874.129	-755
874.137	-820
874.213	-1466
874.245	-1263
874.296	-942
874.352	-822
874.380	-763
874.460	-887
874.464	-892
874.547	-877
874.568	-725
874.631	-288
874.676	-452
874.714	-606
874.784	-869
874.798	-913
874.881	48
874.892	52
874.965	106
874.999	-242
875.048	-740
875.107	-366
875.131	-230
875.215	-294
875.215	-294
875.298	-456
875.323	-443
875.381	-406
875.430	-633
875.465	-776
875.538	-1029
875.548	-1068
875.631	-996
875.646	-877
875.714	-250
875.753	-160
875.798	-154
875.861	-874
875.881	-1060
875.964	-668
875.968	-681
876.047	-1039
876.076	-1011
876.130	-864
876.183	-856
876.213	-903
876.291	-180
876.296	-120
876.379	-1016
876.398	-969
876.462	-986
876.506	-779
876.545	-505
876.613	-782
876.628	-859
876.711	-516
876.721	-500
876.794	-255
876.828	-218
876.877	-212
876.935	365
876.960	622
877.043	376
877.043	378
877.125	941
877.150	1003
877.208	1199
877.258	1244
877.291	1261
877.365	1209
877.374	1205
877.456	1723
877.472	1614
877.539	1063
877.579	930
877.622	792
877.687	1196
877.704	1296
877.787	352
877.794	323
877.869	286
877.901	398
877.952	351
878.008	478
878.034	592
878.115	-209
878.117	-221
878.199	-47
878.222	136
878.282	537
878.329	560
878.364	598
878.437	502
878.447	460
878.529	-351
878.544	-359
878.611	-131
878.651	-77
878.694	-103
878.758	-147
878.776	-170
878.858	-295
878.865	-267
878.941	213
878.972	118
879.023	-18
879.078	-165
879.105	-213
879.185	126
879.187	126
879.269	-709
879.292	-766
879.351	-411
879.399	-380
879.433	-531
879.506	-363
879.516	-330
879.598	-287
879.613	-286
879.680	-516
879.720	-486
879.762	-180
879.827	-551
879.844	-725
879.926	-390
879.933	-454
880.007	-849
880.040	-799
880.089	-700
880.147	-675
880.171	-713
880.253	138
880.254	137
880.335	160
880.360	415
880.417	1514
880.467	2112
880.499	2416
880.574	3618
880.580	3606
880.662	930
880.680	627
880.744	-162
880.787	-475
880.825	-432
880.893	-423
880.907	-467
880.989	-622
881.000	-627
881.070	-336
881.106	-320
881.152	-577
881.213	-1066
881.233	-1120
881.315	-679
881.319	-671
881.396	-710
881.426	-779
881.478	-533
881.532	-285
881.559	-387
881.639	-583
881.641	-578
881.722	-64
881.745	-123
881.803	-243
881.852	-246
881.885	-210
881.958	8
881.966	-38
882.047	-270
882.064	-393
882.129	-257
882.171	-70
882.210	-87
882.277	-626
882.291	-630
882.372	14
882.383	63
882.454	-486
882.489	-783
882.535	-616
882.596	-236
882.616	-233
882.697	-377
882.702	-391
882.778	-156
882.808	-58
882.859	-370
882.914	-449
882.940	-278
883.020	-270
883.021	-270
883.102	-215
883.127	-277
883.183	-298
883.233	-259
883.264	-500
883.339	-951
883.345	-915
883.426	-587
883.445	-382
883.507	-138
883.551	-436
883.587	-615
883.657	-234
883.668	-156
883.749	-231
883.763	-213
883.830	-119
883.869	-16
883.910	-85
883.975	-205
883.991	-123
884.072	0
884.081	21
884.152	-5
884.187	-76
884.233	-209
884.292	-76
884.314	-71
884.394	-323
884.398	-345
884.475	-201
884.504	-80
884.555	-211
884.610	-443
884.636	-355
884.716	221
884.716	226
884.797	-82
884.821	-75
884.877	120
884.927	-84
884.958	-297
885.033	-650
885.038	-648
885.118	-269
885.139	-279
885.199	-554
885.244	-636
885.279	-450
885.350	-208
885.359	-223
885.439	-135
885.456	-225
885.520	-339
885.561	-227
885.600	-258
885.667	-316
885.680	-278
885.760	-76
885.773	-80
885.840	-230
885.878	-207
885.920	-98
885.984	-138
886.000	-191
886.080	-358
886.089	-371
886.160	-369
886.195	-421
886.240	-517
886.300	-442
886.320	-264
886.400	48
886.406	73
886.480	-430
886.511	-625
886.560	-419
886.616	-156
886.640	-78
886.720	57
886.722	55
886.800	11
886.827	59
886.879	-89
886.932	-352
886.959	-220
887.038	189
887.039	191
887.119	-97
887.143	-189
887.198	-62
887.248	96
887.278	-159
887.354	-909
887.358	-874
887.437	-23
887.459	114
887.517	309
887.564	569
887.596	437
887.669	137
887.676	124
887.755	-182
887.774	-222
887.835	-39
887.880	48
887.914	-156
887.985	-678
887.994	-650
888.073	-225
888.090	-177
888.153	-210
888.195	-195
888.232	-163
888.300	-48
888.311	-50
888.391	-324
888.405	-322
888.470	-112
888.510	-67
888.549	-96
888.615	-97
888.628	-33
888.708	232
888.720	292
888.787	296
888.825	275
888.866	348
888.930	397
888.945	353
889.024	137
889.035	106
889.103	318
889.140	426
889.182	195
889.245	-146
889.261	162
889.340	1588
889.349	1749
889.419	785
889.454	287
889.498	178
889.559	23
889.577	-3
889.656	-115
889.664	-124
889.735	320
889.768	532
889.814	-127
889.873	-998
889.978	1009
890.083	180
890.187	135
890.292	814
890.397	392
890.501	811
890.606	419
890.710	732
890.815	-175
890.919	567
891.024	358
891.128	1192
891.233	442
891.337	335
891.442	57
891.546	243
891.650	-341
891.755	-754
891.859	1933
891.963	7
892.068	1003
892.172	322
892.276	648
892.380	509
892.484	298
892.589	1022
892.693	1521
892.797	-125
892.901	258
893.005	-409
893.109	41
893.213	59
893.317	385
893.421	512
893.525	186
893.629	192
893.733	422
893.837	-596
893.941	731
894.045	-406
894.148	-97
894.252	301
894.356	-184
894.460	-232
894.564	130
894.667	-683
894.771	887
894.875	255
894.978	-33
895.082	-340
895.186	159
895.289	825
895.393	1
895.496	374
895.600	481
895.703	-196
895.807	-38
895.910	256
896.014	-401
896.117	-377
896.221	398
896.324	-595
896.427	1024
896.531	-133
896.634	109
896.737	-110
896.840	142
896.944	494
897.047	372
897.150	-54
897.253	505
897.356	466
897.460	-91
897.563	-287
897.666	296
897.769	-240
897.872	-673
897.975	472
898.078	147
898.181	624
898.284	646
898.387	1036
898.490	417
898.593	195
898.695	-564
898.798	-472
898.901	181
899.004	399
899.107	58
899.209	106
899.312	357
899.415	-359
899.518	-52
899.620	-289
899.723	-376
899.826	911
899.928	383
900.031	40
900.133	99
900.236	37
900.338	62
900.441	-378
900.543	573
900.646	-108
900.748	836
900.851	568
900.953	761
901.055	-138
901.158	-353
901.260	-380
901.362	781
901.465	-622
901.567	339
901.669	-588
901.771	-511
901.873	-89
901.976	-254
902.078	558
902.180	373
902.282	-541
902.384	433
902.486	217
902.588	429
902.690	166
902.792	773
902.894	1403
902.996	783
903.098	1328
903.200	-254
903.302	123
903.404	558
903.505	40
903.607	220
903.709	694
903.811	756
903.913	-132
904.014	492
904.116	149
904.218	675
904.319	338
904.421	2029
904.523	3482
904.624	1522
904.726	1525
904.827	1769
904.929	2306
905.030	1877
905.132	759
905.233	468
905.335	-662
905.436	284
905.537	949
905.639	723
905.740	-387
905.841	874
905.943	1407
906.044	1577
906.145	1165
906.247	859
906.348	748
906.449	146
906.550	-479
906.651	503
906.752	-566
906.854	-65
906.955	-625
907.056	284
907.157	-33
907.258	-127
907.359	-363
907.460	-523
907.561	-248
907.662	934
907.762	-100
907.863	-132
907.964	480
908.065	820
908.166	-361
908.267	-31
908.367	-434
908.468	997
908.569	460
908.670	746
908.770	321
908.871	876
908.971	-243
909.072	711
909.173	241
909.273	193
909.374	-207
909.474	-439
909.575	-612
909.675	129
909.776	-114
909.876	584
909.977	-448
910.077	579
910.177	121
910.278	263
910.378	-254
910.478	590
910.579	1083
910.679	-69
910.779	28
910.879	351
910.980	-599
911.080	-453
911.180	162
911.280	-857
911.380	-98
911.480	43
911.580	-355
911.680	677
911.780	24
911.880	519
911.980	404
912.080	-567
912.180	-118
912.280	-116
912.380	-488
912.480	-62
912.580	-52
912.679	186
912.779	-139
912.879	54
912.979	-799
913.078	-215
913.178	-221
913.278	822
913.377	-158
913.477	131
913.577	-426
913.676	386
913.776	389
913.875	424
913.975	-82
914.074	11
914.174	-1052
914.273	492
914.373	-192
914.472	331
914.572	-196
914.671	-1073
914.770	367
914.870	263
914.969	-142
915.068	-259
915.167	24
915.267	-303
915.366	-226
915.465	-434
915.564	-1206
915.663	199
915.763	-595
915.862	533
915.961	145
916.060	227
916.159	-595
916.258	77
916.357	-91
916.456	-231
916.555	-248
916.654	120
916.752	-131
916.851	-772
916.950	-781
917.049	-26
917.148	74
917.247	773
917.345	186
917.444	-130
917.543	4
917.642	463
917.740	-602
917.839	284
917.937	418
918.036	-68
918.135	-319
918.233	207
918.332	-739
918.430	-3
918.529	671
918.627	211
918.726	16
918.824	224
918.923	53
919.021	-225
919.119	-510
919.218	-358
919.316	-345
919.414	251
919.512	-193
919.611	87
919.709	-512
919.807	174
919.905	-1265
920.003	81
920.102	294
920.200	-1043
920.298	-888
920.396	436
920.494	168
920.592	-129
920.690	-345
920.788	-259
920.886	-42
920.984	-150
921.082	-35
921.180	602
921.277	-7
921.375	208
921.473	263
921.571	-398
921.669	-530
921.766	27
921.864	-638
921.962	406
922.060	-317
922.157	152
922.255	-633
922.352	195
922.450	364
922.548	455
922.645	18
922.743	260
922.840	1142
922.938	-274
923.035	140
923.133	30
923.230	-597
923.327	985
923.425	322
923.522	930
923.619	-142
923.717	886
923.814	409
923.911	285
924.008	493
924.106	1287
924.203	-93
924.300	165
924.397	156
924.494	1751
924.591	353
924.688	777
924.786	-384
924.883	875
924.979	1052
925.077	757
925.173	727
925.270	1145
925.367	48
925.464	1000
925.561	323
925.658	578
925.755	606
925.852	2577
925.948	2572
926.045	2974
926.142	3240
926.239	4495
926.335	5151
926.432	3715
926.529	4584
926.625	5657
926.722	3507
926.818	2388
926.915	1500
927.011	1209
927.108	620
927.204	192
927.301	-535
927.397	340
927.494	-120
927.590	680
927.687	635
927.783	355
927.879	203
927.976	-497
928.072	-353
928.168	553
928.264	-16
928.361	410
928.457	406
928.553	-222
928.649	492
928.745	655
928.841	233
928.937	-143
929.033	-254
929.129	69
929.225	135
929.321	159
929.417	-21
929.513	503
929.609	223
929.705	516
929.801	-108
929.897	128
929.993	262
930.089	-181
930.184	-591
930.280	195
930.376	504
930.471	-912
930.567	-516
930.663	-155
930.758	187
930.854	-326
930.950	-78
931.045	-10
931.141	180
931.236	407
931.332	-421
931.427	26
931.523	121
931.618	305
931.714	-709
931.809	212
931.905	-730
932.000	268
932.095	-391
932.191	288
932.286	-788
932.381	-312
932.476	-228
932.572	-384
932.667	-526
932.762	192
932.857	-298
932.952	393
933.047	474
933.142	-242
933.237	-859
933.332	526
933.427	-100
933.522	167
933.617	-219
933.712	71
933.807	-710
933.902	168
933.997	-408
934.092	196
934.187	-646
934.282	711
934.376	-381
934.471	798
934.566	-937
934.661	113
934.755	-741
934.850	-249
934.945	-641
935.039	72
935.134	-681
935.228	77
935.323	161
935.417	-51
935.512	-661
935.606	-769
935.701	-1042
935.795	300
935.890	-520
935.984	678
936.079	-680
936.173	-85
936.267	-643
936.362	-812
936.456	-386
936.550	-61
936.644	51
936.738	-133
936.833	-124
936.927	-705
937.021	-697
937.115	262
937.209	-1011
937.303	1135
937.397	-410
937.491	491
937.585	-251
937.679	-243
937.773	656
937.867	-558
937.961	224
938.055	-753
938.149	559
938.243	526
938.337	-154
938.430	639
938.524	3542
938.618	6693
938.712	4956
938.805	1156
938.899	774
938.993	1579
939.086	2437
939.180	9081
939.274	10707
939.367	4369
939.461	813
939.554	249
939.648	5
939.741	316
939.835	150
939.928	184
940.022	296
940.115	-78
940.208	-50
940.302	-191
940.395	-1010
940.488	-1209
940.582	83
940.675	-176
940.768	-446
940.861	139
940.954	-110
941.048	734
941.141	-192
941.234	880
941.327	2803
941.420	4441
941.513	899
941.606	-25
941.699	767
941.792	260
941.885	286
941.978	-80
942.071	-969
942.164	-209
942.257	299
942.349	76
942.442	-595
942.535	-840
942.628	-29
942.721	-625
942.813	-526
942.906	135
942.999	-641
943.091	-817
943.184	-638
943.277	-1433
943.369	-656
943.462	-254
943.554	-612
943.647	-1143
943.739	107
943.832	-58
943.924	-1634
944.017	518
944.109	-544
944.201	-720
944.294	-614
944.386	-124
944.478	-855
944.571	-584
944.663	-1622
944.755	-841
944.847	-651
944.940	-241
945.032	-1243
945.124	-440
945.216	-674
945.308	-487
945.400	20
945.492	-281
945.584	-908
945.676	46
945.768	-988
945.860	-11
945.952	290
946.044	752
946.136	127
946.228	-451
946.320	-1037
946.412	-467
946.503	-1014
946.595	431
946.687	-953
946.779	-251
946.870	-528
946.962	-634
947.054	-429
947.145	36
947.237	-652
947.329	143
947.420	-1265
947.512	-494
947.603	-614
947.695	-1353
947.786	-724
947.878	-1274
947.969	-537
948.061	-823
948.152	-1385
948.243	284
948.335	-872
948.426	-1143
948.517	-1494
948.609	-251
948.700	-1001
948.791	-358
948.882	-916
948.973	-24
949.065	-1237
949.156	-457
949.247	-709
949.338	621
949.429	-1020
949.520	-265
949.611	-782
949.702	-89
949.793	-737
949.884	243
949.975	-1249
950.066	-492
950.157	-1534
950.247	58
950.338	-1432
950.429	-477
950.520	-909
950.611	-778
950.701	-1101
950.792	-1049
950.883	-432
950.973	-946
951.064	-1176
951.155	-534
951.245	-286
951.336	-695
951.427	-970
951.517	125
951.608	-1206
951.698	-1028
951.788	-365
951.879	-1116
951.969	-871
952.060	-712
952.150	-1374
952.240	-752
952.331	-1787
952.421	-58
952.511	-1668
952.602	-1321
952.692	-1481
952.782	-735
952.872	-1329
952.962	-1058
953.052	-904
953.143	-1107
953.233	-767
953.323	-708
953.413	-1131
953.503	-588
953.593	-784
953.683	-765
953.773	-1615
953.863	-419
953.953	-748
954.042	-522
954.132	-527
954.222	-1002
954.312	-866
954.402	-1147
954.492	-903
954.581	-701
954.671	-1748
954.761	-1694
954.850	-15
954.940	-1182
955.030	-840
955.119	-321
955.209	-570
955.298	-1031
955.388	-1531
955.477	-244
955.567	-1425
955.656	-221
955.746	-896
955.835	-974
955.925	-1660
956.014	-1106
956.103	-1491
956.193	-563
956.282	-271
956.371	-729
956.461	-1124
956.550	-1288
956.639	-866
956.728	-776
956.817	-491
956.906	-701
956.995	-309
957.085	-707
957.174	-479
957.263	-1118
957.352	-541
957.441	-813
957.530	-1053
957.619	203
957.708	-901
957.796	-878
957.885	-612
957.974	-1209
958.063	-994
958.152	-980
958.241	-848
958.329	-807
958.418	-1696
958.507	-566
958.596	-616
958.684	-1301
958.773	-566
958.861	-1152
958.950	-874
959.039	-757
959.127	-693
959.216	-990
959.304	-1877
959.393	-1135
959.481	-600
959.570	-1817
959.658	-1071
959.746	-164
959.835	-1438
959.923	-1281
960.011	-983
960.100	-769
960.188	-1228
960.276	-928
960.365	-1689
960.453	-257
960.541	-1924
960.629	-1044
960.717	-1685
960.805	-1617
960.893	-1666
960.981	-1056
961.069	-408
961.158	-1433
961.245	-659
961.333	-1405
961.421	-1599
961.509	-569
961.597	-1057
961.685	-979
961.773	-2118
961.861	-1085
961.949	-954
962.036	-1032
962.124	-276
962.212	-1230
962.299	-1185
962.387	-1444
962.475	-1215
962.562	-994
962.650	-883
962.738	-1124
962.825	-1985
962.913	-292
963.000	-1754
963.088	-698
963.175	-1290
963.263	-388
963.350	-503
963.438	-883
963.525	-2577
963.612	-331
963.700	-1518
963.787	-537
963.874	-2004
963.962	-685
964.049	-580
964.136	-137
964.223	-1512
964.310	-425
964.398	-1842
964.485	-1054
964.572	-1162
964.659	-452
964.746	-1542
964.833	-1096
964.920	-1695
965.007	-1420
965.094	-1279
965.181	-1273
965.268	-1528
965.355	-268
965.441	-1330
965.528	-1203
965.615	-956
965.702	-1517
965.789	-1442
965.875	-974
965.962	-1240
966.049	-1788
966.136	-966
966.222	-1280
966.309	-890
966.395	-1049
966.482	-376
966.569	-1007
966.655	-1181
966.742	-1497
966.828	-1508
966.915	-1435
967.001	-1806
967.087	-1471
967.174	-811
967.260	-644
967.347	-1360
967.433	-2026
967.519	-797
967.605	-2002
967.692	-424
967.778	-959
967.864	-1456
967.950	-953
968.036	-1129
968.123	-801
968.209	-1751
968.295	-1254
968.381	-427
968.467	-242
968.553	-2097
968.639	-132
968.725	-1402
968.811	43
968.897	-1072
968.983	-750
969.069	-1871
969.154	-265
969.240	-322
969.326	-1706
969.412	-1568
969.497	-1429
969.583	-989
969.669	47
969.755	-1701
969.840	-166
969.926	-959
970.012	-746
970.097	-847
970.183	-746
970.268	-1415
970.354	-678
970.439	-1994
970.525	-366
970.610	-2285
970.696	-537
970.781	-689
970.866	-1409
970.952	-1133
971.037	-1810
971.122	-1309
971.208	-412
971.293	-840
971.378	-1316
971.463	-1180
971.549	-800
971.634	-1481
971.719	-1914
971.804	-1471
971.889	-560
971.974	-2048
972.059	-1606
972.144	-1484
972.229	-936
972.314	-1243
972.399	-788
972.484	-2166
972.569	-1142
972.654	-2280
972.739	419
972.824	-2351
972.908	-938
972.993	-1325
973.078	-1070
973.163	-1281
973.247	-484
973.332	-2151
973.417	153
973.501	-1608
973.586	-1423
973.671	-1060
973.755	-1438
973.840	-1009
973.924	-188
974.009	-1363
974.093	-1471
974.178	-580
974.262	-1097
974.346	-1851
974.431	-534
974.515	-1535
974.600	-1116
974.684	-600
974.768	-2149
974.852	-813
974.937	-1786
975.021	-272
975.105	-1070
975.189	-916
975.273	-657
975.358	-1631
975.442	-1175
975.526	-872
975.610	-1215
975.694	-1769
975.778	-223
975.862	-1478
975.946	-2481
976.030	691
976.114	-1159
976.198	-1863
976.281	-1327
976.365	-1159
976.449	-1756
976.533	-691
976.617	-2145
976.700	-1178
976.784	-705
976.868	-2554
976.951	-828
977.035	-919
977.119	-1018
977.202	-1362
977.286	-1162
977.369	-670
977.453	-157
977.536	-1219
977.620	-1252
977.703	-810
977.787	-1425
977.870	-353
977.953	-632
978.037	-1587
978.120	-565
978.203	-1123
978.287	-996
978.370	-1815
978.453	-1073
978.536	-1749
978.620	-31
978.703	-976
978.786	-1161
978.869	-959
978.952	-1753
979.035	-175
979.118	-592
979.201	-2119
979.284	-1148
979.367	-792
979.450	-493
979.533	-1334
979.616	-93
979.699	-1608
979.782	-545
979.865	-283
979.948	-719
980.030	-1198
980.113	-448
980.196	-2183
980.279	-69
980.361	-1764
980.444	-2237
980.526	-844
980.609	-259
980.692	-1953
980.774	-260
980.857	-2413
980.939	4
981.022	-1805
981.104	-850
981.187	-313
981.269	-525
981.352	-1845
981.434	-1950
981.516	-1022
981.599	-342
981.681	-1467
981.763	-514
981.846	-714
981.928	-700
982.010	-949
982.092	-1480
982.174	-425
982.256	-487
982.339	-1324
982.421	-1110
982.503	-1171
982.585	-1299
982.667	-1011
982.749	296
982.831	-1122
982.913	-1344
982.995	-528
983.077	-1755
983.158	-1108
983.240	-2442
983.322	-446
983.404	-174
983.486	-1872
983.568	-167
983.649	-1327
983.731	-210
983.813	-1544
983.894	-1373
983.976	-1216
984.058	-1765
984.139	-141
984.221	-1898
984.302	-531
984.384	-642
984.465	-2170
984.547	-710
984.628	-2536
984.710	328
984.791	-927
984.872	-752
984.954	-1561
985.035	-751
985.116	-1412
985.198	-817
985.279	-181
985.360	-818
985.441	-1706
985.522	-811
985.604	-1692
985.685	-2177
985.766	-157
985.847	800
985.928	-1931
986.009	-677
986.090	-405
986.171	-610
986.252	-1435
986.333	-680
986.414	-847
986.495	-153
986.576	-1426
986.656	-1295
986.737	-1258
986.818	-1303
986.899	-1107
986.980	-1227
987.060	-521
987.141	-1405
987.222	-626
987.302	-395
987.383	-1619
987.464	-688
987.544	-189
987.625	-757
987.705	-679
987.786	-513
987.866	-1542
987.947	84
988.027	-1279
988.108	-906
988.188	-486
988.268	-283
988.349	-825
988.429	-1445
988.509	-888
988.589	-546
988.670	-1437
988.750	92
988.830	-1287
988.910	-53
988.990	-1036
989.070	-851
989.151	-1203
989.231	-1799
989.311	135
989.391	-763
989.471	-1040
989.551	-673
989.631	-1864
989.711	-440
989.791	-1237
989.870	-715
989.950	-509
990.030	-1077
990.110	-780
990.190	-1386
990.269	-970
990.349	-1280
990.429	-853
990.509	-259
990.588	-1570
990.668	-565
990.747	-1895
990.827	-1587
990.907	-1265
990.986	-1516
991.066	-1053
991.145	-1303
991.225	-1506
991.304	-1711
991.383	-984
991.463	-1083
991.542	-823
991.622	-1302
991.701	-1734
991.780	-1127
991.859	-984
991.939	-1086
992.018	-1504
992.097	-503
992.176	-690
992.256	-640
992.335	-1733
992.414	-139
992.493	-1181
992.572	-1032
992.651	-1323
992.730	-1116
992.809	-1043
992.888	-1405
992.967	-1249
993.046	-927
993.125	-1810
993.203	-928
993.282	-1293
993.361	-737
993.440	-1378
993.519	-1951
993.597	-1549
993.676	-1137
993.755	-740
993.834	-646
993.912	-1753
993.991	-249
994.069	-1337
994.148	-1140
994.226	-1788
994.305	-970
994.384	-1423
994.462	-516
994.540	-2368
994.619	-1087
994.697	-1392
994.776	-853
994.854	-250
994.932	-832
995.011	-727
995.089	-616
995.167	-1637
995.245	-589
995.324	-2443
995.402	-604
995.480	-2054
995.558	-584
995.636	-1731
995.714	-1782
995.792	-924
995.870	-1460
995.948	-662
996.026	-1236
996.104	-2630
996.182	-307
996.260	-1711
996.338	113
996.416	-1835
996.494	-1636
996.572	30
996.649	-1083
996.727	-1851
996.805	-1081
996.883	-1428
996.960	-1177
997.038	-1078
997.116	-572
997.193	-1466
997.271	-444
997.348	-1172
997.426	-1491
997.504	-2351
997.581	-542
997.658	-1223
997.736	-1761
997.813	-1249
997.891	82
997.968	-1624
998.046	-1204
998.123	-1699
998.200	-1398
998.277	-1648
998.355	-351
998.432	-2072
998.509	-1482
998.586	-1740
998.663	-1099
998.741	-1100
998.818	-1341
998.895	-1586
998.972	-1221
999.049	-1985
999.126	-1238
999.203	-410
999.280	-1201
999.357	-2541
999.434	-1209
999.511	-1538
999.587	108
999.664	-2382
999.741	-1004
999.818	-1228
999.895	-1361
999.971	-1323
1000.048	-1967
1000.125	-1441
1000.202	-1455
1000.278	-1224
1000.355	-1034
1000.431	-1799
1000.508	-1860
1000.584	-866
1000.661	-800
1000.738	-2249
1000.814	-1229
1000.890	-1556
1000.967	-1455
1001.043	-1224
1001.120	-1712
1001.196	-1336
1001.272	-1822
1001.349	-1306
1001.425	-957
1001.501	-1235
1001.577	-1766
1001.654	-1422
1001.730	-1722
1001.806	-1749
1001.882	-1863
1001.958	-1374
1002.034	-994
1002.110	-2357
1002.186	-2175
1002.262	-2569
1002.338	-1968
1002.414	-1852
1002.490	-892
1002.566	-2133
1002.642	-2313
1002.718	-2164
1002.794	-1387
1002.870	-1820
1002.945	-2181
1003.021	-1621
1003.097	-760
1003.173	-1726
1003.248	-1585
1003.324	-1628
1003.400	-1216
1003.475	-2432
1003.551	-2028
1003.626	-1605
1003.702	-1060
1003.777	-1401
1003.853	-2252
1003.928	-2406
1004.004	-2118
1004.079	-1866
1004.155	-1524
1004.230	-3140
1004.305	-484
1004.381	-1171
1004.456	-1119
1004.531	-2442
1004.607	-1278
1004.682	-1671
1004.757	-1267
1004.832	-1674
1004.907	-1653
1004.982	-1503
1005.057	-1689
1005.133	-1864
1005.208	-1641
1005.283	-1806
1005.358	-1107
1005.433	-1420
1005.508	-2020
1005.583	-2443
1005.657	-1594
1005.732	-2007
1005.807	-1583
1005.882	-1757
1005.957	-2143
1006.032	-970
1006.106	-1362
1006.181	-2177
1006.256	-1704
1006.331	-2449
1006.405	-2158
1006.480	-1661
1006.554	-2055
1006.629	-1729
1006.704	-2370
1006.778	-1874
1006.853	-1603
1006.927	-2410
1007.002	-1872
1007.076	-1504
1007.150	-1657
1007.225	-2273
1007.299	-1981
1007.373	-2830
1007.448	-1023
1007.522	-448
1007.596	-1723
1007.671	-2730
1007.745	-1384
1007.819	-2779
1007.893	-1801
1007.967	-1888
1008.041	-2190
1008.115	-1082
1008.190	-2339
1008.264	-890
1008.338	-2780
1008.412	-2030
1008.486	-747
1008.560	-1521
1008.633	-1791
1008.707	-1396
1008.781	-1856
1008.855	-2498
1008.929	-1438
1009.003	-2126
1009.076	-1497
1009.150	-1820
1009.224	-1452
1009.298	-2178
1009.371	-2139
1009.445	-1413
1009.519	-2060
1009.592	-2597
1009.666	-1738
1009.739	-2114
1009.813	-3102
1009.886	-1615
1009.960	-2001
1010.033	-1574
1010.107	-1204
1010.180	-2286
1010.253	-2192
1010.327	-2314
1010.400	-1222
1010.473	-1814
1010.547	-173
1010.620	-1457
1010.693	-1390
1010.766	-1477
1010.840	-1345
1010.913	-1248
1010.986	-1198
1011.059	-1358
1011.132	-325
1011.205	-349
1011.278	-886
1011.351	-385
1011.424	-426
1011.497	-1542
1011.570	-1588
1011.643	-1317
1011.716	-2578
1011.789	-1578
1011.862	-1833
1011.934	-1715
1012.007	-2589
1012.080	-1963
1012.153	-2146
1012.225	-1866
1012.298	-2173
1012.371	-2273
1012.443	-1779
1012.516	-2813
1012.588	-1576
1012.661	-1866
1012.733	-2680
1012.806	-2122
1012.879	-2401
1012.951	-1537
1013.023	-2198
1013.096	-2005
1013.168	-2246
1013.241	-1818
1013.313	-1509
1013.385	-2333
1013.458	-1775
1013.530	-1304
1013.602	-2804
1013.674	-2099
1013.746	-2132
1013.819	-2184
1013.891	-903
1013.963	-2920
1014.035	-1562
1014.107	-2623
1014.179	-1070
1014.251	-2446
1014.323	-1844
1014.395	-2619
1014.467	-1198
1014.539	-2278
1014.611	-2825
1014.683	-2329
1014.754	-1096
1014.826	-2723
1014.898	-1711
1014.970	-2800
1015.042	-1170
1015.113	-2190
1015.185	-2108
1015.257	-2621
1015.328	-1747
1015.400	-2313
1015.471	-2285
1015.543	-2057
1015.615	-1817
1015.686	-1995
1015.757	-2031
1015.829	-1229
1015.901	-1700
1015.972	-2738
1016.043	-1503
1016.115	-1867
1016.186	-1967
1016.257	-2672
1016.328	-839
1016.400	-1147
1016.471	-2033
1016.542	-2101
1016.613	-1838
1016.685	-1846
1016.756	-1399
1016.827	-2382
1016.898	-2428
1016.969	-1320
1017.040	-1933
1017.111	-2361
1017.182	-1859
1017.253	-2709
1017.324	-2091
1017.395	-2111
1017.466	-1714
1017.537	-2640
1017.608	-2613
1017.678	-3014
1017.749	-2086
1017.820	-2102
1017.891	-2399
1017.961	-2433
1018.032	-1676
1018.103	-1923
1018.173	-2004
1018.244	-1946
1018.315	-1657
1018.385	-1939
1018.456	-1507
1018.526	-2360
1018.597	-1950
1018.667	-2184
1018.738	-2036
1018.808	-2107
1018.878	-2509
1018.949	-1321
1019.019	-968
1019.089	-1720
1019.160	-1233
1019.230	-2543
1019.300	-1573
1019.371	-2966
1019.441	-1650
1019.511	-2290
1019.581	-2079
1019.651	-1887
1019.721	-2230
1019.791	-1833
1019.861	-1787
1019.931	-1880
1020.001	-2206
1020.071	-2208
1020.141	-2170
1020.211	-2500
1020.281	-2959
1020.351	-2798
1020.421	-1804
1020.491	-1172
1020.560	-2242
1020.630	-2536
1020.700	-1815
1020.770	-2954
1020.839	-1404
1020.909	-2004
1020.979	-2242
1021.048	-2164
1021.118	-1706
1021.187	-2548
1021.257	-2595
1021.326	-1425
1021.396	-2119
1021.465	-2265
1021.535	-1594
1021.604	-2890
1021.674	-2069
1021.743	-2389
1021.812	-1986
1021.882	-2811
1021.951	-2149
1022.020	-2308
1022.089	-1929
1022.159	-2283
1022.228	-1914
1022.297	-2377
1022.366	-1235
1022.435	-1510
1022.504	-1593
1022.573	-2353
1022.642	-1785
1022.711	-2587
1022.781	-1794
1022.849	-1810
1022.918	-2048
1022.987	-2057
1023.056	-1910
1023.125	-2052
1023.194	-1949
1023.263	-2500
1023.331	-1033
1023.400	-2683
1023.469	-2287
1023.538	-1419
1023.606	-2343
1023.675	-2245
1023.744	-2153
1023.812	-3073
1023.881	-1015
1023.949	-1901
1024.018	-1929
1024.086	-2629
1024.155	-1672
1024.223	-2089
1024.292	-1590
1024.360	-2794
1024.429	-1736
1024.497	-2780
1024.565	-2055
1024.634	-2159
1024.702	-1791
1024.770	-1833
1024.838	-1832
1024.907	-1529
1024.975	-2210
1025.043	-1723
1025.111	-2483
1025.179	-1047
1025.247	-2263
1025.315	-2043
1025.383	-1477
1025.451	-2273
1025.519	-2405
1025.587	-1723
1025.655	-1636
1025.723	-1939
1025.791	-872
1025.859	-1549
1025.927	-1068
1025.995	-2767
1026.062	-1378
1026.130	-2434
1026.198	-1756
1026.266	-2607
1026.333	-1124
1026.401	-1609
1026.469	-1578
1026.536	-1360
1026.604	-1883
1026.671	-2410
1026.739	-925
1026.806	-1685
1026.874	-2251
1026.941	-1875
1027.009	-1663
1027.076	-2293
1027.144	-2260
1027.211	-2379
1027.278	-2344
1027.345	-1458
1027.413	-1932
1027.480	-1488
1027.547	-2108
1027.614	-2601
1027.682	-1574
1027.749	-1434
1027.816	-1149
1027.883	-1952
1027.950	-1850
1028.017	-2435
1028.084	-1401
1028.151	-1883
1028.218	-1794
1028.285	-2177
1028.352	-2104
1028.419	-2061
1028.486	-2127
1028.553	-2013
1028.619	-1802
1028.686	-2141
1028.753	-1594
1028.820	-1977
1028.886	-1782
1028.953	-1789
1029.020	-1433
1029.086	-2010
1029.153	-2161
1029.220	-2091
1029.286	-1589
1029.353	-1683
1029.419	-2055
1029.486	-1977
1029.552	-1734
1029.619	-2468
1029.685	-1092
1029.751	-2345
1029.818	-1346
1029.884	-1874
1029.951	-1035
1030.017	-1596
1030.083	-1926
1030.149	-2365
1030.216	-1774
1030.282	-1728
1030.348	-2012
1030.414	-2260
1030.480	-1709
1030.546	-2249
1030.612	-843
1030.678	-1669
1030.744	-1272
1030.810	-1739
1030.876	-2107
1030.942	-1497
1031.008	-2264
1031.074	-2386
1031.140	-2100
1031.206	-1260
1031.272	-1655
1031.337	-2283
1031.403	-2011
1031.469	-2637
1031.534	-1909
1031.600	-2263
1031.666	-2187
1031.731	-1901
1031.797	-1602
1031.863	-2141
1031.928	-1900
1031.994	-2710
1032.059	-1576
1032.125	-2351
1032.190	-2348
1032.256	-2065
1032.321	-2155
1032.386	-2300
1032.452	-1462
1032.517	-1744
1032.582	-1920
1032.647	-2323
1032.713	-1564
1032.778	-2058
1032.843	-2756
1032.908	-2549
1032.974	-1971
1033.039	-2727
1033.104	-1347
1033.169	-1857
1033.234	-1330
1033.299	-2221
1033.364	-1756
1033.429	-2869
1033.494	-1698
1033.559	-3074
1033.624	-1993
1033.688	-2144
1033.753	-2677
1033.818	-2455
1033.883	-2112
1033.948	-1546
1034.013	-1159
1034.077	-1964
1034.142	-1627
1034.207	-2353
1034.271	-1164
1034.336	-1006
1034.400	-1424
1034.465	-2034
1034.530	-1943
1034.594	-2229
1034.658	-1796
1034.723	-1519
1034.787	-1590
1034.852	-3172
1034.916	-2486
1034.981	-2681
1035.045	-2457
1035.109	-2651
1035.173	-1222
1035.238	-2181
1035.302	-2043
1035.366	-2374
1035.430	-1831
1035.495	-2049
1035.559	-1708
1035.623	-2439
1035.687	-2527
1035.751	-2294
1035.815	-2110
1035.879	-2417
1035.943	-1706
1036.007	-2586
1036.071	-1911
1036.135	-2153
1036.198	-1610
1036.262	-2623
1036.326	-1850
1036.390	-2474
1036.454	-1924
1036.517	-1846
1036.581	-1480
1036.645	-2625
1036.709	-1377
1036.772	-1977
1036.836	-1929
1036.900	-2441
1036.963	-1693
1037.026	-2667
1037.090	-2437
1037.154	-1215
1037.217	-1762
1037.280	-2773
1037.344	-1521
1037.407	-2545
1037.471	-2165
1037.534	-2222
1037.597	-2025
1037.661	-2705
1037.724	-2466
1037.787	-2869
1037.850	-2436
1037.913	-2531
1037.977	-2017
1038.040	-2440
1038.103	-1868
1038.166	-2020
1038.229	-1311
1038.292	-2249
1038.355	-2137
1038.418	-2941
1038.481	-1337
1038.544	-2555
1038.607	-2590
1038.670	-2247
1038.732	-1993
1038.795	-2670
1038.858	-2239
1038.921	-2232
1038.984	-1453
1039.046	-2521
1039.109	-2455
1039.172	-2381
1039.234	-2120
1039.297	-2698
1039.360	-2679
1039.422	-2563
1039.485	-2472
1039.547	-2262
1039.610	-2168
1039.672	-2214
1039.734	-2520
1039.797	-2551
1039.859	-2067
1039.922	-2797
1039.984	-2368
1040.046	-2327
1040.109	-2801
1040.171	-2401
1040.233	-1769
1040.295	-2380
1040.358	-1948
1040.420	-3035
1040.482	-2438
1040.544	-2687
1040.606	-1948
1040.668	-3088
1040.730	-3017
1040.792	-1830
1040.854	-2143
1040.916	-3052
1040.978	-1848
1041.040	-2073
1041.102	-2007
1041.164	-2488
1041.225	-2418
1041.287	-3682
1041.349	-1698
1041.411	-3157
1041.472	-2205
1041.534	-2820
1041.596	-1535
1041.657	-2398
1041.719	-1798
1041.781	-2163
1041.842	-2259
1041.904	-2532
1041.965	-2888
1042.027	-2565
1042.088	-2575
1042.150	-2039
1042.211	-2418
1042.272	-2480
1042.334	-2091
1042.395	-2961
1042.456	-2670
1042.518	-2535
1042.579	-1846
1042.640	-2912
1042.701	-2947
1042.763	-3108
1042.824	-2806
1042.885	-2607
1042.946	-2453
1043.007	-2544
1043.068	-2433
1043.129	-2755
1043.190	-2472
1043.251	-2365
1043.312	-2802
1043.373	-1691
1043.434	-2644
1043.495	-2338
1043.556	-1566
1043.616	-2216
1043.677	-2295
1043.738	-1976
1043.799	-1907
1043.859	-2135
1043.920	-2472
1043.981	-2819
1044.041	-2275
1044.102	-2759
1044.162	-1791
1044.223	-3135
1044.284	-2480
1044.344	-2809
1044.405	-2651
1044.465	-2753
1044.525	-2205
1044.586	-2367
1044.646	-2104
1044.707	-2850
1044.767	-1670
1044.827	-2081
1044.887	-2348
1044.948	-2111
1045.008	-2148
1045.068	-2595
1045.128	-1358
1045.188	-2477
1045.249	-1609
1045.309	-1855
1045.369	-1899
1045.429	-2394
1045.489	-1909
1045.549	-2237
1045.609	-2276
1045.669	-2351
1045.729	-2267
1045.789	-2390
1045.848	-2341
1045.908	-1845
1045.968	-1836
1046.028	-2288
1046.088	-2226
1046.147	-2508
1046.207	-2095
1046.267	-2078
1046.326	-1222
1046.386	-1630
1046.446	-2086
1046.505	-1890
1046.565	-975
1046.624	-1044
1046.684	-979
1046.743	-388
1046.803	-901
1046.862	-613
1046.922	0
