'Start Wavelength	183.907
'End Wavelength	1046.922
'Gate Delay	5.000
'Gate Width (ms)	1.050
'Laser Output Level	0.000
'X Position	0.000
'Y Position	0.000
'Z Position	0.000
'Grid Point Number	1.000
'Shot Number	100.000
183.907	911.000
183.977	0.000
184.047	-762
184.116	1171
184.186	369
184.256	-440
184.325	137
184.395	-301
184.465	1340
184.534	467
184.604	47
184.674	67
184.743	-408
184.813	311
184.883	-3
184.952	639
185.022	-340
185.092	945
185.161	558
185.231	117
185.301	496
185.370	123
185.440	-60
185.509	117
185.579	299
185.649	1017
185.718	638
185.788	465
185.857	49
185.927	795
185.996	689
186.066	843
186.136	-365
186.205	-256
186.275	-88
186.344	319
186.414	205
186.483	-486
186.553	738
186.622	679
186.692	-156
186.761	76
186.831	572
186.900	662
186.970	-30
187.039	638
187.109	1265
187.178	24
187.248	240
187.317	417
187.387	-337
187.456	-96
187.526	353
187.595	455
187.664	605
187.734	600
187.803	668
187.873	297
187.942	504
188.012	405
188.081	948
188.150	297
188.220	209
188.289	1103
188.358	1030
188.428	901
188.497	183
188.567	767
188.636	530
188.705	511
188.775	425
188.844	129
188.913	1698
188.983	859
189.052	-209
189.121	-47
189.191	486
189.260	1456
189.329	568
189.399	-313
189.468	515
189.537	646
189.606	20
189.676	568
189.745	775
189.814	1256
189.883	680
189.953	-227
190.022	507
190.091	1516
190.161	1300
190.230	1201
190.299	897
190.368	856
190.437	516
190.507	361
190.576	891
190.645	662
190.714	926
190.783	306
190.853	866
190.922	878
190.991	928
191.060	323
191.129	278
191.198	866
191.268	482
191.337	437
191.406	1047
191.475	685
191.544	790
191.613	829
191.682	-12
191.752	101
191.821	474
191.890	477
191.959	908
192.028	49
192.097	740
192.166	763
192.235	308
192.304	1168
192.373	681
192.442	95
192.511	385
192.580	310
192.650	243
192.719	1477
192.788	1202
192.857	1298
192.926	300
192.995	692
193.064	1608
193.133	1215
193.202	1198
193.271	1642
193.340	996
193.409	1446
193.478	1936
193.547	1722
193.615	1486
193.684	1700
193.753	1598
193.822	1503
193.891	1833
193.960	826
194.029	700
194.098	540
194.167	123
194.236	53
194.305	667
194.374	968
194.443	452
194.512	805
194.580	519
194.649	952
194.718	979
194.787	815
194.856	520
194.925	1509
194.994	449
195.062	957
195.131	1125
195.200	843
195.269	1295
195.338	688
195.407	970
195.475	853
195.544	962
195.613	1106
195.682	1104
195.751	1420
195.819	982
195.888	1758
195.957	2018
196.026	1215
196.094	1622
196.163	1209
196.232	841
196.301	1727
196.369	799
196.438	663
196.507	1177
196.576	668
196.644	1243
196.713	1085
196.782	1345
196.850	1344
196.919	736
196.988	943
197.056	767
197.125	771
197.194	760
197.262	857
197.331	1169
197.400	669
197.468	497
197.537	294
197.606	1781
197.674	1624
197.743	1167
197.812	1756
197.880	1593
197.949	917
198.017	2147
198.086	746
198.155	1349
198.223	1107
198.292	1818
198.360	994
198.429	574
198.497	335
198.566	1562
198.635	1852
198.703	1646
198.772	1957
198.840	2143
198.909	2030
198.977	1225
199.046	888
199.114	1119
199.183	1844
199.251	780
199.320	466
199.388	1100
199.457	837
199.525	976
199.594	912
199.662	1731
199.731	1283
199.799	1585
199.867	1564
199.936	1220
200.004	886
200.073	1201
200.141	1017
200.210	982
200.278	916
200.346	1210
200.415	1615
200.483	1047
200.552	922
200.620	828
200.688	1008
200.757	1453
200.825	1522
200.893	1075
200.962	1278
201.030	1045
201.098	793
201.167	1201
201.235	928
201.303	868
201.372	1600
201.440	1310
201.508	756
201.577	1768
201.645	1630
201.713	1857
201.781	1522
201.850	2016
201.918	1524
201.986	648
202.055	1473
202.123	894
202.191	1164
202.259	1702
202.327	1077
202.396	1436
202.464	1288
202.532	1226
202.600	2911
202.669	1360
202.737	962
202.805	1348
202.873	1228
202.941	1509
203.009	633
203.078	795
203.146	1373
203.214	1124
203.282	-97
203.350	2375
203.418	1666
203.487	2031
203.555	1412
203.623	1501
203.691	1553
203.759	1106
203.827	876
203.895	1855
203.963	1555
204.031	1460
204.099	1648
204.168	1709
204.236	2087
204.304	2078
204.372	1863
204.440	1904
204.508	1644
204.576	532
204.644	1289
204.712	1662
204.780	1255
204.848	1309
204.916	1269
204.984	1977
205.052	1868
205.120	1502
205.188	2175
205.256	2593
205.324	1434
205.392	1857
205.460	2144
205.528	1845
205.596	1396
205.664	1715
205.732	1748
205.799	3227
205.867	3419
205.935	1668
206.003	1863
206.071	1918
206.139	1642
206.207	1491
206.275	1570
206.343	1459
206.411	1894
206.478	2229
206.546	2008
206.614	1438
206.682	1555
206.750	752
206.818	1909
206.885	1437
206.953	982
207.021	1324
207.089	1324
207.157	1280
207.225	1460
207.292	1174
207.360	2159
207.428	1991
207.496	1735
207.563	1130
207.631	2211
207.699	1753
207.767	1885
207.834	1614
207.902	2018
207.970	1438
208.038	1208
208.105	2025
208.173	1795
208.241	2169
208.309	2824
208.376	2105
208.444	2277
208.512	2528
208.579	1144
208.647	2011
208.715	1591
208.782	1835
208.850	2066
208.918	1392
208.985	1682
209.053	2428
209.120	1961
209.188	1263
209.256	1650
209.323	1554
209.391	2490
209.459	2812
209.526	2373
209.594	2014
209.661	1800
209.729	2258
209.796	1780
209.864	1885
209.932	2179
209.999	3095
210.067	2280
210.134	2499
210.202	1776
210.269	2336
210.337	2114
210.404	2118
210.472	1446
210.539	2199
210.607	2198
210.674	2888
210.742	1847
210.809	2208
210.877	2248
210.944	2285
211.012	2012
211.079	2707
211.146	2517
211.214	2476
211.281	2455
211.349	1736
211.416	2722
211.484	1842
211.551	2160
211.618	2357
211.686	1986
211.753	1625
211.821	2360
211.888	2491
211.955	2415
212.023	2350
212.090	2801
212.157	2921
212.225	2497
212.292	4415
212.359	6049
212.427	10787
212.494	5421
212.561	3502
212.629	2341
212.696	2585
212.763	2463
212.831	2672
212.898	3367
212.965	2274
213.032	2805
213.100	2732
213.167	2545
213.234	2948
213.301	2976
213.369	2938
213.436	2359
213.503	2573
213.570	2491
213.638	2375
213.705	2996
213.772	2293
213.839	3477
213.906	3143
213.973	3197
214.041	2814
214.108	2919
214.175	2335
214.242	3378
214.309	2764
214.376	2663
214.444	2558
214.511	2916
214.578	2752
214.645	3334
214.712	3230
214.779	2719
214.846	2072
214.913	3378
214.980	2916
215.048	3412
215.115	3315
215.182	2920
215.249	2783
215.316	2809
215.383	2592
215.450	2485
215.517	3172
215.584	2813
215.651	2421
215.718	2507
215.785	3908
215.852	2765
215.919	3681
215.986	3249
216.053	2308
216.120	2389
216.187	3291
216.254	3020
216.321	3191
216.388	2833
216.455	3142
216.522	3025
216.589	3036
216.656	4861
216.722	4228
216.789	3769
216.856	3615
216.923	3059
216.990	3664
217.057	4122
217.124	3603
217.191	4264
217.258	5098
217.324	5235
217.391	5237
217.458	4696
217.525	3058
217.592	3357
217.659	2465
217.725	3167
217.792	3611
217.859	3243
217.926	2297
217.993	2721
218.059	3362
218.126	2496
218.193	2718
218.260	2264
218.327	2099
218.393	2572
218.460	1806
218.527	2292
218.594	3047
218.660	3991
218.727	3991
218.794	2509
218.860	3256
218.927	2249
218.994	2844
219.061	2389
219.127	2356
219.194	2556
219.261	3129
219.327	2925
219.394	2595
219.461	1891
219.527	3182
219.594	2968
219.661	2642
219.727	1547
219.794	3150
219.860	2063
219.927	2327
219.994	3026
220.060	4186
220.127	3394
220.193	3498
220.260	4259
220.326	4514
220.393	7115
220.460	8254
220.526	6376
220.593	5186
220.659	5401
220.726	5267
220.792	7708
220.859	7984
220.925	10565
220.992	10338
221.058	10688
221.125	9924
221.191	8182
221.258	4629
221.324	4388
221.391	3361
221.457	2949
221.524	3518
221.590	4330
221.657	8521
221.723	6150
221.789	5069
221.856	5744
221.922	3270
221.989	3883
222.055	2846
222.121	2376
222.188	3926
222.254	2765
222.321	2608
222.387	1947
222.453	2989
222.520	2869
222.586	2330
222.652	3337
222.719	2204
222.785	2985
222.851	2342
222.918	2463
222.984	3165
223.050	2954
223.116	2083
223.183	3723
223.249	2280
223.315	1864
223.382	2783
223.448	2363
223.514	1943
223.580	1663
223.647	1718
223.713	2176
223.779	1713
223.845	2848
223.911	3491
223.978	1974
224.044	3294
224.110	2771
224.176	2642
224.242	2420
224.309	1934
224.375	2046
224.441	2539
224.507	1673
224.573	2027
224.639	2965
224.705	847
224.772	1928
224.838	1691
224.904	2552
224.970	1980
225.036	2485
225.102	1868
225.168	2284
225.234	2175
225.300	2227
225.366	2224
225.432	1946
225.499	2525
225.565	2891
225.631	3025
225.697	3167
225.763	3716
225.829	4245
225.895	4266
225.961	4340
226.027	4328
226.093	3959
226.159	6321
226.225	7970
226.291	13375
226.357	16364
226.423	11533
226.489	7097
226.554	6061
226.620	5973
226.686	6487
226.752	10036
226.818	13265
226.884	19706
226.950	16873
227.016	10074
227.082	6842
227.148	5469
227.214	5304
227.279	5325
227.345	4010
227.411	4385
227.477	3550
227.543	4916
227.609	4868
227.674	5345
227.740	3679
227.806	4046
227.872	3232
227.938	3729
228.003	6360
228.069	3217
228.135	2439
228.201	2810
228.267	2769
228.332	3372
228.398	3228
228.464	3624
228.530	2047
228.595	2749
228.661	1717
228.727	3076
228.792	4054
228.858	2328
228.924	1808
228.990	4915
229.055	3074
229.121	3714
229.187	2434
229.252	2609
229.318	2034
229.384	2735
229.449	3353
229.515	1620
229.581	1233
229.646	3643
229.712	3625
229.777	4210
229.843	5015
229.909	4274
229.974	6082
230.040	4238
230.105	3514
230.171	4132
230.236	4432
230.302	7128
230.368	5021
230.433	3774
230.499	4117
230.564	6157
230.630	4228
230.695	3434
230.761	3525
230.826	2398
230.892	4519
230.957	2621
231.023	2391
231.088	3229
231.154	3334
231.219	3436
231.284	4331
231.350	3862
231.415	3381
231.481	3754
231.546	3175
231.612	3341
231.677	2599
231.742	1889
231.808	4428
231.873	2087
231.939	1844
232.004	4367
232.069	4417
232.135	3560
232.200	3259
232.265	4077
232.331	2964
232.396	3585
232.461	2378
232.527	2229
232.592	1786
232.657	2128
232.723	3253
232.788	3383
232.853	2746
232.918	2532
232.984	2678
233.049	2673
233.114	2912
233.179	3245
233.245	5058
233.310	5585
233.375	2512
233.440	2800
233.506	2625
233.571	2721
233.636	2853
233.701	2623
233.766	4361
233.832	4593
233.897	3368
233.962	3172
234.027	3438
234.092	3779
234.157	2643
234.222	3400
234.288	4669
234.353	10158
234.418	7828
234.483	6188
234.548	4451
234.613	4730
234.678	5226
234.743	4520
234.808	10528
234.873	7539
234.938	5307
235.004	3904
235.069	3974
235.134	3375
235.199	4595
235.264	3915
235.329	2804
235.394	3750
235.459	4500
235.524	4770
235.589	4130
235.654	4597
235.719	2961
235.784	3834
235.849	3491
235.913	6810
235.978	6526
236.043	7215
236.108	3999
236.173	4270
236.238	4519
236.303	3866
236.368	4120
236.433	5791
236.498	8168
236.563	7045
236.627	12824
236.692	27988
236.757	22366
236.822	12774
236.887	9544
236.952	8725
237.017	7513
237.081	8994
237.146	10772
237.211	18763
237.276	28341
237.341	33594
237.405	21589
237.470	12713
237.535	9760
237.600	6793
237.664	6639
237.729	5624
237.794	6671
237.859	12383
237.923	8617
237.988	5442
238.053	7982
238.118	6915
238.182	14882
238.247	12033
238.312	5921
238.376	6352
238.441	4458
238.506	5783
238.570	2476
238.635	4795
238.700	3882
238.764	3809
238.829	7625
238.893	7479
238.958	5587
239.023	5411
239.087	3819
239.152	4429
239.216	4139
239.281	3247
239.346	3888
239.410	4086
239.475	4838
239.539	15111
239.604	9061
239.668	4600
239.733	3229
239.797	3587
239.862	6790
239.926	10145
239.991	5193
240.055	4084
240.120	3802
240.184	3902
240.249	3045
240.313	3266
240.378	4301
240.442	8679
240.507	12215
240.571	5547
240.635	6515
240.700	7369
240.764	3670
240.829	3360
240.893	3386
240.957	4360
241.022	8450
241.086	11275
241.151	4897
241.215	3849
241.279	5355
241.344	6419
241.408	5915
241.472	4625
241.537	5732
241.601	4628
241.665	3926
241.730	4421
241.794	5708
241.858	4939
241.922	4930
241.987	4665
242.051	4207
242.115	5125
242.179	4914
242.244	4196
242.308	5696
242.372	5637
242.436	7091
242.501	5870
242.565	3806
242.629	3520
242.693	4015
242.757	4337
242.822	3941
242.886	5191
242.950	4904
243.014	4284
243.078	5458
243.142	4516
243.206	4217
243.271	5474
243.335	5378
243.399	7426
243.463	17975
243.527	35622
243.591	12404
243.655	7026
243.719	4918
243.783	6030
243.847	7720
243.911	9631
243.975	10372
244.040	6994
244.104	6866
244.168	5622
244.232	6212
244.296	7287
244.360	8240
244.424	4932
244.488	5106
244.552	5049
244.615	3648
244.679	3273
244.743	4381
244.807	4622
244.871	3512
244.935	3989
244.999	3457
245.063	4390
245.127	4593
245.191	6561
245.255	5805
245.319	4586
245.383	4161
245.446	5487
245.510	3626
245.574	3971
245.638	4191
245.702	3814
245.766	8133
245.829	5685
245.893	4770
245.957	5168
246.021	6051
246.085	4828
246.149	4893
246.212	12107
246.276	12664
246.340	7375
246.404	6046
246.467	6605
246.531	7283
246.595	7845
246.659	5952
246.722	5476
246.786	6909
246.850	6455
246.913	7687
246.977	3931
247.041	5431
247.104	5763
247.168	6271
247.232	10799
247.295	17049
247.359	9702
247.423	6827
247.486	9429
247.550	7180
247.614	5739
247.677	6503
247.741	6015
247.804	5210
247.868	7116
247.932	9873
247.995	17612
248.059	7764
248.122	4384
248.186	7549
248.249	12642
248.313	27142
248.376	26013
248.440	18791
248.503	8789
248.567	8849
248.630	10687
248.694	14281
248.757	17240
248.821	28939
248.884	19715
248.948	18417
249.011	24493
249.075	31675
249.138	26514
249.202	13966
249.265	9564
249.328	12079
249.392	9541
249.455	8503
249.519	7640
249.582	8656
249.645	12593
249.709	10427
249.772	9835
249.835	8382
249.899	8506
249.962	7645
250.025	7039
250.089	14221
250.152	16772
250.215	10575
250.279	7871
250.342	8160
250.405	8273
250.468	7783
250.532	10060
250.595	16544
250.658	44522
250.721	57364
250.785	22682
250.848	14496
250.911	9796
250.974	9940
251.038	12123
251.101	18840
251.164	12406
251.227	12406
251.290	12448
251.354	19777
251.417	57312
251.480	48776
251.543	42458
251.606	95359
251.669	63373
251.732	31009
251.795	30645
251.859	32405
251.922	62653
251.985	32652
252.048	18674
252.111	14907
252.174	14151
252.237	21869
252.300	36217
252.363	43559
252.426	70696
252.489	29933
252.552	20015
252.615	15014
252.678	15961
252.741	29422
252.804	43003
252.867	75423
252.930	42356
252.993	26118
253.056	17650
253.119	14468
253.182	11029
253.245	15827
253.308	12585
253.371	12184
253.434	11966
253.497	12701
253.559	19174
253.622	13766
253.685	17211
253.748	14563
253.811	8936
253.874	11435
253.937	10831
254.000	8643
254.062	14123
254.125	18154
254.188	22572
254.251	16357
254.314	9083
254.376	14308
254.439	14934
254.502	13935
254.565	14784
254.628	21240
254.690	13382
254.753	8462
254.816	7692
254.878	8887
254.941	14321
255.004	12757
255.067	7513
255.129	7302
255.192	4935
255.255	4413
255.317	6779
255.380	4464
255.443	4061
255.505	3902
255.568	4370
255.631	5935
255.693	6070
255.756	4343
255.819	4968
255.881	3853
255.944	4449
256.006	4389
256.069	4676
256.132	4557
256.194	5899
256.257	11922
256.319	8118
256.382	7944
256.444	8125
256.507	5982
256.569	6129
256.632	7117
256.694	10788
256.757	23918
256.819	49415
256.882	24160
256.944	12109
257.007	10409
257.069	9865
257.132	8246
257.194	7342
257.257	7220
257.319	7227
257.381	9188
257.444	19942
257.506	55891
257.569	56719
257.631	30119
257.693	17818
257.756	10268
257.818	8866
257.880	7137
257.943	6940
258.005	6369
258.067	7709
258.130	6894
258.192	7433
258.254	9873
258.317	7694
258.379	6235
258.441	11568
258.503	10328
258.566	15184
258.628	16006
258.690	6156
258.753	7761
258.815	10915
258.877	7803
258.939	6894
259.001	6718
259.064	6542
259.126	6490
259.188	7902
259.250	6754
259.312	7985
259.375	15798
259.437	10003
259.499	6161
259.561	6169
259.623	7211
259.685	8697
259.747	7211
259.809	16526
259.872	23087
259.934	38902
259.996	35013
260.058	13109
260.120	6712
260.182	5902
260.244	6214
260.306	4370
260.368	5430
260.430	5800
260.492	15139
260.554	21987
260.616	11001
260.678	20146
260.740	20455
260.802	7538
260.864	7047
260.926	5186
260.988	7723
261.050	8057
261.112	21743
261.174	37066
261.236	18747
261.298	8764
261.359	12872
261.421	15131
261.483	6553
261.545	6590
261.607	4166
261.669	5803
261.731	9399
261.793	15095
261.854	8232
261.916	7368
261.978	9328
262.040	9502
262.102	5713
262.164	7842
262.225	6382
262.287	5552
262.349	10724
262.411	7941
262.472	5336
262.534	8896
262.596	12045
262.658	5818
262.719	4391
262.781	6635
262.843	12728
262.904	6741
262.966	6596
263.028	8441
263.090	31864
263.151	62370
263.213	25256
263.275	18694
263.336	7878
263.398	7079
263.459	4806
263.521	5659
263.583	10051
263.644	7252
263.706	4471
263.767	3768
263.829	4409
263.891	3629
263.952	3647
264.014	4573
264.075	11966
264.137	25701
264.198	9981
264.260	4993
264.321	6030
264.383	14378
264.444	32218
264.506	12089
264.567	8782
264.629	18459
264.690	29603
264.752	11780
264.813	6967
264.875	4858
264.936	7087
264.998	6543
265.059	4781
265.120	5096
265.182	9142
265.243	33247
265.305	30590
265.366	9873
265.427	6514
265.489	6497
265.550	4157
265.611	5602
265.673	5606
265.734	6820
265.795	5232
265.857	4272
265.918	5203
265.979	13136
266.040	47189
266.102	36089
266.163	14791
266.224	13564
266.286	7076
266.347	5129
266.408	5338
266.469	4546
266.530	5180
266.592	4193
266.653	7839
266.714	10208
266.775	5448
266.836	4182
266.898	4837
266.959	10529
267.020	7088
267.081	4840
267.142	4183
267.203	3889
267.264	3024
267.326	5459
267.387	4386
267.448	3709
267.509	4424
267.570	4758
267.631	3488
267.692	3123
267.753	4043
267.814	2923
267.875	7212
267.936	12686
267.997	13656
268.058	9619
268.119	4682
268.180	5650
268.241	3684
268.302	3390
268.363	3809
268.424	3994
268.485	5563
268.546	4004
268.607	4231
268.668	3197
268.729	2926
268.790	3504
268.851	5262
268.912	11759
268.972	9636
269.033	5478
269.094	3648
269.155	4042
269.216	4152
269.277	4398
269.338	4080
269.398	3546
269.459	4453
269.520	5899
269.581	7198
269.642	8003
269.702	5494
269.763	5179
269.824	3886
269.885	5582
269.945	7500
270.006	4509
270.067	3545
270.128	3880
270.188	3296
270.249	4426
270.310	2727
270.370	4581
270.431	3738
270.492	3239
270.553	4035
270.613	7845
270.674	11697
270.734	5575
270.795	4718
270.856	6194
270.916	3985
270.977	4441
271.038	5036
271.098	5196
271.159	7128
271.219	6987
271.280	3644
271.340	4110
271.401	4448
271.462	7943
271.522	6096
271.583	4640
271.643	4660
271.704	4650
271.764	5723
271.825	11343
271.885	30109
271.946	32100
272.006	14255
272.066	20459
272.127	27056
272.187	10270
272.248	6531
272.308	7692
272.369	18795
272.429	10752
272.489	11702
272.550	12670
272.610	11121
272.671	8833
272.731	9530
272.791	11656
272.852	6829
272.912	7265
272.972	4280
273.033	5147
273.093	7030
273.153	9278
273.214	7250
273.274	7108
273.334	24801
273.394	28937
273.455	12957
273.515	15542
273.575	28137
273.635	11825
273.696	16110
273.756	23824
273.816	11305
273.876	8740
273.936	16276
273.997	23338
274.057	9261
274.117	6556
274.177	11409
274.237	37220
274.297	26147
274.358	18619
274.418	20234
274.478	17325
274.538	8624
274.598	8075
274.658	18872
274.718	19606
274.778	8878
274.838	5720
274.898	15119
274.958	29371
275.018	26353
275.078	16770
275.138	8177
275.198	6281
275.258	5213
275.318	6060
275.378	10468
275.438	11425
275.498	8272
275.558	16774
275.618	26166
275.678	17703
275.738	15735
275.798	15857
275.858	11770
275.918	5370
275.978	5906
276.038	6117
276.098	5352
276.157	8933
276.217	19898
276.277	9842
276.337	8304
276.397	5264
276.457	6093
276.517	4901
276.576	4634
276.636	3736
276.696	6608
276.756	13475
276.815	9257
276.875	5043
276.935	5822
276.995	4786
277.055	4756
277.114	3552
277.174	6578
277.234	14314
277.293	6812
277.353	5408
277.413	4913
277.472	5724
277.532	4330
277.592	5313
277.651	12944
277.711	17067
277.771	8872
277.830	25158
277.890	17259
277.950	15848
278.009	32692
278.069	13006
278.128	15512
278.188	18586
278.248	10306
278.307	21008
278.367	12338
278.426	5887
278.486	4985
278.545	4859
278.605	3919
278.664	3607
278.724	5828
278.783	13731
278.843	23287
278.902	8461
278.962	5361
279.021	6664
279.081	7684
279.140	6953
279.199	7487
279.259	6817
279.318	6511
279.378	9230
279.437	14365
279.496	42755
279.556	111577
279.615	66325
279.675	19857
279.734	14814
279.793	21210
279.853	26384
279.912	12245
279.971	8487
280.031	7362
280.090	13269
280.149	19819
280.208	22190
280.268	87823
280.327	63748
280.386	17978
280.445	15667
280.505	14678
280.564	10898
280.623	9829
280.682	11508
280.742	14063
280.801	6347
280.860	5374
280.919	6153
280.978	5937
281.037	5606
281.097	4386
281.156	6074
281.215	4902
281.274	6922
281.333	17967
281.392	11177
281.451	4715
281.510	4641
281.569	3837
281.628	4074
281.688	3925
281.747	5963
281.806	5447
281.865	4479
281.924	3627
281.983	3259
282.042	3232
282.101	2315
282.160	4171
282.219	3867
282.278	4073
282.337	11155
282.396	7136
282.454	4494
282.513	6083
282.572	16671
282.631	9400
282.690	4196
282.749	4992
282.808	5909
282.867	5971
282.926	4952
282.985	4393
283.043	2625
283.102	3342
283.161	5275
283.220	10637
283.279	15647
283.338	7010
283.396	4607
283.455	5139
283.514	5404
283.573	8353
283.631	5573
283.690	4776
283.749	3974
283.808	7933
283.866	9258
283.925	4671
283.984	5184
284.043	6708
284.101	6436
284.160	4838
284.219	8375
284.277	6155
284.336	8183
284.395	20459
284.453	14941
284.512	7373
284.570	10840
284.629	8506
284.688	6943
284.746	7421
284.805	9209
284.863	11343
284.922	12771
284.981	15409
285.039	23112
285.098	37723
285.156	74937
285.215	108292
285.273	95758
285.332	69669
285.390	42582
285.449	28191
285.507	20026
285.566	15368
285.624	12924
285.683	10429
285.741	8905
285.799	7213
285.858	8162
285.916	7560
285.975	5999
286.033	6052
286.091	5166
286.150	4637
286.208	5415
286.267	6177
286.325	5694
286.383	8155
286.442	6953
286.500	4337
286.558	3286
286.616	3533
286.675	6073
286.733	4878
286.791	4268
286.850	5607
286.908	7300
286.966	9284
287.024	6234
287.083	4148
287.141	4520
287.199	4870
287.257	6973
287.315	5861
287.374	5865
287.432	11563
287.490	9436
287.548	5782
287.606	5094
287.664	4897
287.723	7075
287.781	9662
287.839	6400
287.897	6049
287.955	8417
288.013	11747
288.071	27736
288.129	86059
288.187	160515
288.245	77493
288.303	30856
288.361	18477
288.419	16219
288.477	12379
288.535	8676
288.593	8100
288.651	6374
288.709	5455
288.767	4978
288.825	4578
288.883	4976
288.941	4960
288.999	3580
289.057	4515
289.115	4750
289.173	4805
289.231	4066
289.289	3786
289.346	4144
289.404	5265
289.462	7797
289.520	7360
289.578	4676
289.636	4537
289.694	3375
289.751	4114
289.809	3914
289.867	4476
289.925	5686
289.983	6504
290.040	4369
290.098	3559
290.156	5002
290.214	4969
290.271	4013
290.329	4138
290.387	3369
290.444	4752
290.502	3602
290.560	5197
290.617	5196
290.675	4280
290.733	4610
290.790	4569
290.848	4290
290.906	4395
290.963	4198
291.021	3915
291.078	4610
291.136	5830
291.194	16601
291.251	27209
291.309	9320
291.366	6334
291.424	4787
291.481	4607
291.539	4009
291.596	4573
291.654	3471
291.711	3212
291.769	4537
291.826	7771
291.884	5209
291.941	3469
291.999	3880
292.056	4560
292.114	5295
292.171	3978
292.228	4580
292.286	5344
292.343	7196
292.401	8547
292.458	5667
292.515	4672
292.573	5669
292.630	5630
292.687	5825
292.745	6232
292.802	9904
292.859	22681
292.917	21773
292.974	12126
293.031	6159
293.089	4917
293.146	5074
293.203	5015
293.260	4906
293.318	7106
293.375	14205
293.432	8581
293.489	5563
293.546	5064
293.604	6891
293.661	15458
293.718	30290
293.775	21767
293.832	10135
293.889	7964
293.947	7694
294.004	6912
294.061	7727
294.118	12711
294.175	26800
294.232	39499
294.289	16067
294.346	11003
294.403	9979
294.460	7289
294.517	5610
294.574	6513
294.631	5915
294.688	8464
294.745	14976
294.802	43030
294.859	52723
294.916	22144
294.973	11529
295.030	9367
295.087	8740
295.144	7009
295.201	6634
295.258	6414
295.315	7324
295.372	16132
295.429	22957
295.486	14025
295.542	12657
295.599	32192
295.656	48207
295.713	32219
295.770	24806
295.827	13241
295.883	9637
295.940	9483
295.997	13252
296.054	11842
296.111	7984
296.167	7797
296.224	6040
296.281	6011
296.338	5831
296.394	6257
296.451	7666
296.508	16075
296.564	28442
296.621	22919
296.678	33616
296.734	43126
296.791	21238
296.848	13296
296.904	13129
296.961	22177
297.018	28563
297.074	24277
297.131	12109
297.187	10006
297.244	12746
297.301	26832
297.357	36258
297.414	16350
297.470	9957
297.527	8716
297.583	7539
297.640	7350
297.696	7036
297.753	6915
297.809	6514
297.866	5160
297.922	5076
297.979	4931
298.035	6728
298.092	8271
298.148	17018
298.204	16348
298.261	10800
298.317	20209
298.374	36489
298.430	21374
298.486	12146
298.543	9666
298.599	10379
298.656	11577
298.712	15174
298.768	30027
298.824	20478
298.881	9462
298.937	7035
298.993	7067
299.050	8641
299.106	8435
299.162	7452
299.218	7638
299.275	5911
299.331	7258
299.387	11426
299.443	28009
299.500	25664
299.556	11800
299.612	8748
299.668	8011
299.724	7194
299.780	7252
299.837	6760
299.893	10694
299.949	24329
300.005	26413
300.061	26216
300.117	39001
300.173	20017
300.229	12192
300.285	13806
300.341	14893
300.397	9630
300.453	7062
300.510	5671
300.566	7071
300.622	7167
300.678	11161
300.734	19595
300.790	21977
300.845	25980
300.901	15864
300.957	22289
301.013	18301
301.069	10278
301.125	8607
301.181	8298
301.237	8090
301.293	5745
301.349	6745
301.405	6329
301.461	7295
301.516	8292
301.572	8543
301.628	11475
301.684	10347
301.740	14081
301.796	19510
301.851	14634
301.907	21723
301.963	23469
302.019	33325
302.074	66020
302.130	65508
302.186	35647
302.242	18726
302.297	13107
302.353	13341
302.409	20148
302.464	18755
302.520	17205
302.576	30442
302.631	32766
302.687	20387
302.743	12166
302.798	8987
302.854	8769
302.910	9462
302.965	10801
303.021	15008
303.076	13950
303.132	16159
303.187	17416
303.243	11562
303.299	8100
303.354	8904
303.410	7519
303.465	7357
303.521	6844
303.576	8101
303.632	8701
303.687	13187
303.743	26557
303.798	22621
303.853	12192
303.909	9381
303.964	9451
304.020	11524
304.075	15459
304.130	14035
304.186	22443
304.241	23838
304.297	17871
304.352	11031
304.358	10760
304.407	8553
304.449	8708
304.463	8771
304.518	8835
304.539	8911
304.573	9013
304.629	9315
304.630	9378
304.684	12723
304.720	19709
304.739	23156
304.794	30625
304.811	27187
304.850	18449
304.902	11305
304.905	10889
304.960	8942
304.992	9584
305.015	9991
305.071	9569
305.083	9226
305.126	7888
305.173	7332
305.181	7284
305.236	6480
305.264	7041
305.292	7629
305.347	8008
305.354	8092
305.402	8718
305.445	9172
305.457	9280
305.512	10774
305.535	11014
305.567	11175
305.622	11239
305.626	11470
305.678	19187
305.716	30815
305.733	34152
305.788	36243
305.807	32952
305.843	27690
305.897	31203
305.898	31218
305.953	28876
305.988	21438
306.008	17548
306.063	12662
306.078	11679
306.118	9669
306.168	7164
306.173	6981
306.228	7263
306.259	6807
306.283	6607
306.338	7585
306.349	7525
306.393	7547
306.440	9087
306.448	9288
306.503	10287
306.530	11175
306.558	14903
306.613	27991
306.620	29469
306.668	36382
306.711	39342
306.723	38301
306.778	28360
306.801	23059
306.833	17597
306.888	10280
306.892	9964
306.943	8497
306.982	7476
306.997	7322
307.052	7388
307.072	7866
307.107	9927
307.162	14232
307.163	14286
307.217	21383
307.253	25405
307.272	25636
307.327	25402
307.343	23356
307.381	19030
307.434	16742
307.436	17218
307.491	33245
307.524	45111
307.546	46377
307.600	39290
307.614	35657
307.655	23751
307.704	14837
307.710	15006
307.765	19229
307.795	23620
307.819	28913
307.874	44430
307.885	45285
307.929	36005
307.975	26061
307.984	26785
308.038	37524
308.065	45597
308.093	72227
308.148	135259
308.156	146011
308.202	198976
308.246	234378
308.257	225096
308.312	145339
308.336	109565
308.366	87391
308.421	54041
308.426	51024
308.475	35733
308.517	25903
308.530	24724
308.585	20959
308.607	20024
308.639	20841
308.694	23141
308.697	23372
308.748	40902
308.787	57341
308.803	56309
308.857	43610
308.877	38042
308.912	34145
308.967	32096
308.967	32046
309.021	41498
309.058	49734
309.076	62491
309.130	105020
309.148	121044
309.185	187208
309.238	288219
309.239	289295
309.293	300614
309.328	294855
309.348	261678
309.402	155627
309.418	125802
309.457	93660
309.508	56951
309.511	56187
309.566	45801
309.598	40679
309.620	42815
309.674	49529
309.688	51497
309.729	49531
309.778	44459
309.783	43746
309.837	35101
309.868	30480
309.892	36890
309.946	53587
309.959	58048
310.001	74125
310.049	90062
310.055	86825
310.109	52238
310.139	32538
310.163	26926
310.218	17242
310.229	15451
310.272	13686
310.319	12169
310.326	12094
310.381	11581
310.409	11418
310.435	11440
310.489	11148
310.499	11174
310.543	11659
310.589	12164
310.598	12248
310.652	12856
310.679	12968
310.706	11563
310.760	8309
310.769	7845
310.814	7146
310.859	6432
310.868	6487
310.923	7197
310.948	7485
310.977	8492
311.031	10493
311.038	10777
311.085	10100
311.128	9132
311.139	9087
311.193	9013
311.218	8971
311.247	8510
311.301	7558
311.308	7442
311.356	7223
311.398	7149
311.410	7172
311.464	7166
311.488	7144
311.518	7216
311.572	7448
311.578	7475
311.626	10526
311.668	13302
311.680	13593
311.734	14663
311.758	15155
311.788	14554
311.842	13329
311.847	13195
311.896	17894
311.937	22085
311.950	21710
312.004	19827
312.027	18936
312.058	15825
312.112	10302
312.117	9746
312.165	9416
312.207	9133
312.297	14805
312.386	11237
312.476	9882
312.566	21243
312.656	9998
312.745	6762
312.835	8968
312.925	11085
313.015	10312
313.104	11513
313.194	7588
313.284	7764
313.374	10084
313.463	9784
313.553	7637
313.643	7341
313.732	6034
313.822	6103
313.912	7703
314.001	9918
314.091	12193
314.180	15937
314.270	13985
314.360	15490
314.449	12627
314.539	8152
314.628	7217
314.718	10460
314.808	13285
314.897	7259
314.987	7170
315.076	9357
315.166	14535
315.255	13362
315.345	13083
315.434	14110
315.524	11443
315.613	13265
315.703	14578
315.792	15522
315.881	16126
315.971	13686
316.060	26788
316.150	43898
316.239	44665
316.328	16577
316.418	7396
316.507	8075
316.597	11179
316.686	11525
316.775	20377
316.865	45072
316.954	10720
317.043	6128
317.133	7468
317.222	6778
317.311	6566
317.400	6527
317.490	10103
317.579	11872
317.668	8564
317.757	11297
317.847	16091
317.936	28692
318.025	30530
318.114	16244
318.203	13901
318.293	18643
318.382	31846
318.471	28240
318.560	42588
318.649	86073
318.738	21306
318.828	15013
318.917	16383
319.006	21875
319.095	52882
319.184	109360
319.273	62610
319.362	34127
319.451	13659
319.540	12942
319.629	26663
319.718	47454
319.807	22941
319.896	41862
319.985	131487
320.074	55221
320.163	17941
320.252	29095
320.341	23774
320.430	19197
320.519	24281
320.608	15243
320.697	11194
320.786	11147
320.875	15444
320.964	20641
321.053	30923
321.142	45587
321.230	49475
321.319	36339
321.408	81613
321.497	35644
321.586	34136
321.675	43967
321.764	42961
321.852	28523
321.941	47715
322.030	33554
322.119	35619
322.207	87000
322.296	67279
322.385	32306
322.474	33842
322.562	98513
322.651	56279
322.740	35978
322.829	54643
322.917	60863
323.006	33978
323.095	27639
323.183	23644
323.272	34620
323.361	58600
323.449	157065
323.538	60655
323.626	112562
323.715	72797
323.804	33381
323.892	106134
323.981	63013
324.069	21378
324.158	60747
324.246	55731
324.335	19677
324.424	30142
324.512	11946
324.601	15669
324.689	25610
324.778	48348
324.866	44812
324.954	14644
325.043	13692
325.131	29791
325.220	49552
325.308	55959
325.397	39891
325.485	24231
325.574	7980
325.662	7866
325.750	9814
325.839	7626
325.927	7802
326.015	11729
326.104	22297
326.192	30362
326.280	8589
326.369	8923
326.457	13005
326.545	24232
326.634	11250
326.722	6168
326.810	6835
326.898	6808
326.987	8892
327.075	23797
327.163	27016
327.251	13593
327.340	16636
327.428	23869
327.516	7247
327.604	8131
327.692	9623
327.781	13008
327.869	22938
327.957	13707
328.045	12859
328.133	7966
328.221	11868
328.309	9448
328.397	7715
328.485	11255
328.574	15857
328.662	50473
328.750	34305
328.838	13530
328.926	8120
329.014	7066
329.102	13678
329.190	35247
329.278	21811
329.366	6645
329.454	6810
329.542	7443
329.630	6354
329.718	8023
329.806	10405
329.893	11686
329.981	12647
330.069	19750
330.157	64619
330.245	154559
330.333	86537
330.421	21757
330.509	19789
330.597	62950
330.684	46874
330.772	19837
330.860	27267
330.948	32627
331.036	13628
331.123	5721
331.211	8329
331.299	11279
331.387	30029
331.475	46036
331.562	15439
331.650	7363
331.738	11176
331.825	14730
331.913	6572
332.001	5799
332.089	12947
332.176	27456
332.264	60491
332.352	46374
332.439	15260
332.527	10879
332.614	10369
332.702	13088
332.790	10369
332.877	28581
332.965	53655
333.052	13864
333.140	13356
333.228	27489
333.315	10394
333.403	11565
333.490	35378
333.578	28534
333.665	25418
333.753	17121
333.840	9011
333.928	13253
334.015	36995
334.103	53692
334.190	137712
334.278	38311
334.365	15642
334.452	8776
334.540	7935
334.627	12284
334.715	18916
334.802	38548
334.889	187497
334.977	174365
335.064	19755
335.151	10906
335.239	12002
335.326	17851
335.413	66797
335.501	86012
335.588	15025
335.675	10595
335.762	15817
335.850	24211
335.937	15520
336.024	45791
336.111	181873
336.199	70922
336.286	11842
336.373	7590
336.460	6334
336.547	6612
336.635	10236
336.722	9215
336.809	8839
336.896	14929
336.983	49933
337.070	108127
337.157	141273
337.245	124504
337.332	88421
337.419	13778
337.506	8634
337.593	11918
337.680	41593
337.767	101838
337.854	34329
337.941	38942
338.028	48998
338.115	18712
338.202	21679
338.289	39603
338.376	126118
338.463	43828
338.550	65844
338.637	63609
338.724	29357
338.811	42075
338.898	9914
338.984	7990
339.071	10622
339.158	12085
339.245	31930
339.332	21203
339.419	30698
339.506	27613
339.593	5639
339.679	6454
339.766	6401
339.853	10065
339.940	23074
340.027	8313
340.113	7267
340.200	11951
340.287	9374
340.374	10709
340.460	19975
340.547	9483
340.634	15193
340.720	57617
340.807	35825
340.894	6647
340.980	7589
341.067	6587
341.154	8098
341.240	12487
341.327	29821
341.414	9977
341.500	10070
341.587	7736
341.674	7010
341.760	19658
341.847	23866
341.933	8918
342.020	3460
342.106	4181
342.193	8033
342.279	16744
342.366	11456
342.452	21039
342.539	11552
342.625	25288
342.712	62694
342.798	27876
342.885	11710
342.971	5286
343.058	4651
343.144	4358
343.230	6074
343.317	5897
343.403	5187
343.490	3719
343.576	4649
343.662	5176
343.749	6404
343.835	10130
343.921	16724
344.008	78347
344.094	171837
344.180	44396
344.267	19887
344.353	52914
344.439	65446
344.525	32196
344.612	19659
344.698	20174
344.784	13404
344.870	7312
344.957	6415
345.043	11752
345.129	8356
345.215	18906
345.301	11113
345.387	5679
345.474	4820
345.560	5573
345.646	9489
345.732	6963
345.818	8364
345.904	7637
345.990	9837
346.076	10908
346.162	20404
346.249	8953
346.335	5194
346.421	6517
346.507	21137
346.593	69480
346.679	20950
346.765	6967
346.851	6641
346.937	6812
347.023	5362
347.108	7793
347.194	6867
347.280	5639
347.366	7310
347.452	20182
347.538	80756
347.624	65813
347.710	59487
347.796	12704
347.882	7694
347.967	7740
348.053	11239
348.139	7144
348.225	4766
348.311	5349
348.397	4744
348.482	7068
348.568	10069
348.654	3574
348.740	4479
348.825	4360
348.911	11423
348.997	39372
349.083	78531
349.168	16789
349.254	6891
349.340	7549
349.425	5235
349.511	8743
349.597	10897
349.682	19354
349.768	53365
349.854	27081
349.939	8325
350.025	5982
350.110	6368
350.196	4976
350.282	3418
350.367	4796
350.453	14082
350.538	13818
350.624	10285
350.709	9285
350.795	5091
350.880	5827
350.966	7119
351.051	13360
351.137	11599
351.222	6630
351.308	18662
351.393	52486
351.479	15358
351.564	5961
351.649	6026
351.735	4304
351.820	3961
351.906	6405
351.991	9407
352.076	34123
352.162	52156
352.247	13020
352.332	8026
352.418	16780
352.503	19793
352.588	73915
352.673	68195
352.759	17394
352.844	9010
352.929	9767
353.014	12930
353.100	8427
353.185	10890
353.270	21561
353.355	23606
353.441	8649
353.526	10422
353.611	21204
353.696	25758
353.781	14387
353.866	7033
353.952	7780
354.037	20135
354.122	47443
354.207	44427
354.292	17850
354.377	8029
354.462	6319
354.547	9775
354.632	10347
354.717	11469
354.802	11934
354.887	6328
354.972	4989
355.057	5171
355.142	4781
355.227	7651
355.312	14665
355.397	32181
355.482	75068
355.567	39881
355.652	25733
355.737	25951
355.822	66158
355.907	56920
355.991	11542
356.076	6997
356.161	5939
356.246	5122
356.331	6942
356.416	16771
356.501	93648
356.585	104676
356.670	19679
356.755	13093
356.840	18310
356.924	69717
357.009	238335
357.094	104800
357.179	27178
357.263	18192
357.348	17767
357.433	19156
357.517	16020
357.602	12665
357.687	10391
357.771	15607
357.856	45427
357.941	30601
358.025	56833
358.110	219314
358.195	117813
358.279	23524
358.364	15976
358.448	53206
358.533	134796
358.617	101863
358.702	93504
358.787	38368
358.871	22416
358.956	19936
359.040	7089
359.125	5845
359.209	6461
359.294	20946
359.378	35792
359.462	19586
359.547	13125
359.631	8829
359.716	5776
359.800	8498
359.885	13212
359.969	10543
360.053	6634
360.138	7193
360.222	11104
360.306	23177
360.391	18150
360.475	30191
360.559	65172
360.644	58512
360.728	44369
360.812	53500
360.896	147157
360.981	80277
361.065	44971
361.149	13357
361.233	12447
361.318	9767
361.402	11867
361.486	10067
361.570	7336
361.654	10921
361.739	28203
361.823	98657
361.907	145914
361.991	31609
362.075	18377
362.159	44235
362.243	30571
362.327	17855
362.411	15751
362.495	13302
362.580	8968
362.664	5582
362.748	4675
362.832	6202
362.916	7227
363.000	20386
363.084	84998
363.168	162910
363.252	47184
363.336	19476
363.420	27227
363.503	96046
363.587	105780
363.671	21759
363.755	15363
363.839	22822
363.923	9932
364.007	22533
364.091	27686
364.175	39758
364.258	134972
364.342	66907
364.426	25493
364.510	17611
364.594	23097
364.677	31086
364.761	121751
364.845	92449
364.929	37970
365.013	33627
365.096	26762
365.180	34814
365.264	45253
365.347	142784
365.431	67006
365.515	18660
365.598	10483
365.682	9486
365.766	22117
365.849	23556
365.933	13006
366.017	17742
366.100	12647
366.184	6671
366.267	7247
366.351	5923
366.435	6298
366.518	4469
366.602	4228
366.685	6614
366.769	8318
366.852	18752
366.936	29769
367.019	17130
367.103	16552
367.186	26726
367.270	7434
367.353	4189
367.436	5843
367.520	5324
367.603	8939
367.687	13357
367.770	28174
367.853	14853
367.937	35481
368.020	61047
368.104	18365
368.187	19644
368.270	27585
368.353	25040
368.437	41741
368.520	92528
368.603	52569
368.687	49766
368.770	91795
368.853	26246
368.936	29950
369.020	28377
369.103	10842
369.186	6161
369.269	7399
369.352	17774
369.436	28414
369.519	17158
369.602	7614
369.685	9258
369.768	10788
369.851	9139
369.934	5634
370.018	9485
370.101	23112
370.184	19599
370.267	13201
370.350	19617
370.433	31909
370.516	60311
370.599	71083
370.682	25959
370.765	55048
370.848	63872
370.931	109496
371.014	47779
371.097	11482
371.180	8360
371.263	4997
371.346	4299
371.429	6020
371.511	6256
371.594	14884
371.677	26573
371.760	28050
371.843	19435
371.926	78077
372.009	175075
372.091	64566
372.174	44503
372.257	90052
372.340	39032
372.423	42978
372.505	48290
372.588	18921
372.671	34893
372.754	105645
372.836	57297
372.919	50614
373.002	89496
373.085	28454
373.167	19917
373.250	48036
373.332	92997
373.415	121577
373.498	247411
373.580	101902
373.663	102739
373.746	143310
373.828	43707
373.911	22181
373.993	28234
374.076	91869
374.159	84026
374.241	35807
374.324	95222
374.406	66219
374.489	69337
374.571	186893
374.654	85916
374.736	42981
374.819	118231
374.901	172513
374.983	182043
375.066	38472
375.148	19111
375.231	74820
375.313	134347
375.395	52801
375.478	12214
375.560	8691
375.643	12815
375.725	40888
375.807	157412
375.890	152522
375.972	82863
376.054	46763
376.136	75671
376.219	31429
376.301	44976
376.383	133237
376.465	56661
376.548	44074
376.630	46252
376.712	115517
376.794	56318
376.877	8795
376.959	6464
377.041	10583
377.123	24601
377.205	25180
377.287	5840
377.369	4846
377.452	6090
377.534	5914
377.616	6231
377.698	5637
377.780	4183
377.862	6131
377.944	7001
378.026	4526
378.108	4761
378.190	4818
378.272	3884
378.354	3570
378.436	4007
378.518	15702
378.600	48278
378.682	34591
378.764	63915
378.846	54359
378.928	18450
379.010	22832
379.091	13227
379.173	7047
379.255	5878
379.337	9816
379.419	30773
379.501	90067
379.583	40765
379.664	11524
379.746	28032
379.828	67909
379.910	88050
379.991	76547
380.073	15506
380.155	10703
380.237	8385
380.318	5042
380.400	6388
380.482	16916
380.564	29815
380.645	24525
380.727	23113
380.809	13275
380.890	9590
380.972	6415
381.053	6576
381.135	8905
381.217	23204
381.298	69047
381.380	37641
381.461	29807
381.543	119123
381.624	151358
381.706	32990
381.787	16927
381.869	17721
381.951	50053
382.032	182710
382.113	130010
382.195	34507
382.276	19855
382.358	34987
382.439	98913
382.521	111311
382.602	171534
382.684	88881
382.765	159760
382.846	164141
382.928	177795
383.009	107645
383.090	83409
383.172	265122
383.253	385473
383.334	158512
383.416	162275
383.497	88939
383.578	45698
383.659	82081
383.741	245973
383.822	570521
383.903	311983
383.984	126016
384.066	205601
384.147	137811
384.228	32292
384.309	23098
384.390	17065
384.471	12042
384.553	14243
384.634	21965
384.715	22426
384.796	10665
384.877	14158
384.958	55103
385.039	74518
385.120	28447
385.201	13383
385.282	21538
385.363	20434
385.444	14580
385.525	23518
385.606	73161
385.687	67008
385.768	23605
385.849	26488
385.930	87052
386.011	145736
386.092	44493
386.173	14164
386.254	12304
386.335	11067
386.416	11362
386.496	39330
386.577	70372
386.658	31591
386.739	20953
386.820	20103
386.901	15171
386.981	13248
387.062	8424
387.143	15503
387.224	61645
387.304	62576
387.385	23819
387.466	16708
387.547	19427
387.627	11807
387.708	22458
387.789	101325
387.869	122465
387.950	35046
388.031	8970
388.111	13450
388.192	36542
388.273	48370
388.353	24771
388.434	12949
388.514	21821
388.595	85815
388.676	118992
388.756	65541
388.837	66035
388.917	43968
388.998	10153
389.078	8578
389.159	7782
389.239	7305
389.320	13739
389.400	12818
389.480	26320
389.561	63176
389.641	31948
389.722	13998
389.802	23493
389.883	28825
389.963	72646
390.043	54384
390.124	22301
390.204	24479
390.284	77269
390.365	58418
390.445	76159
390.525	182308
390.605	163246
390.686	47452
390.766	16034
390.846	9201
390.927	6228
391.007	7664
391.087	9715
391.167	9900
391.247	8265
391.328	19181
391.408	28156
391.488	17468
391.568	5743
391.648	9157
391.728	14580
391.808	14277
391.888	16030
391.969	32351
392.049	56739
392.129	29853
392.209	26566
392.289	64543
392.369	42398
392.449	44079
392.529	23850
392.609	17915
392.689	19606
392.769	60892
392.849	54128
392.929	42922
393.009	92765
393.089	59680
393.169	24626
393.248	73007
393.328	356220
393.408	399735
393.488	81180
393.568	22900
393.648	13929
393.728	10883
393.807	9054
393.887	10713
393.967	11883
394.047	15694
394.127	23473
394.206	42285
394.286	137275
394.366	472223
394.446	526541
394.525	172484
394.605	51159
394.685	38426
394.764	70623
394.844	106146
394.924	66374
395.003	22266
395.083	15932
395.163	14643
395.242	13231
395.322	14882
395.402	10894
395.481	15809
395.561	46876
395.640	111436
395.720	79658
395.799	119222
395.879	98540
395.958	71440
396.038	209681
396.117	599508
396.197	674380
396.276	286689
396.356	108460
396.435	67835
396.515	37737
396.594	31299
396.673	38170
396.753	100945
396.832	349650
396.912	292909
396.991	82149
397.070	22326
397.150	13909
397.229	10076
397.308	7674
397.388	9466
397.467	8123
397.546	5890
397.625	5036
397.705	10430
397.784	11573
397.863	6062
397.942	4494
398.022	8156
398.101	38462
398.180	104959
398.259	53722
398.338	13983
398.417	10153
398.497	7874
398.576	7793
398.655	4935
398.734	5324
398.813	7270
398.892	35548
398.971	108905
399.050	51224
399.129	6909
399.208	4801
399.287	4996
399.366	4732
399.445	5303
399.524	5195
399.603	4954
399.682	13080
399.761	39553
399.840	116558
399.919	82253
399.998	12860
400.077	4117
400.156	3594
400.235	7650
400.313	5400
400.392	8746
400.471	34840
400.550	62113
400.629	18863
400.708	9755
400.786	11400
400.865	31681
400.944	31356
401.023	13316
401.102	3385
401.180	4538
401.259	5167
401.338	7354
401.416	9889
401.495	10426
401.574	7846
401.652	6355
401.731	10187
401.810	7213
401.888	3789
401.967	2260
402.046	5045
402.124	9800
402.203	12868
402.281	7579
402.360	12401
402.438	38519
402.517	25329
402.596	10044
402.674	8073
402.753	5854
402.831	4018
402.910	5668
402.988	19005
403.066	50787
403.145	30289
403.223	17853
403.302	39178
403.380	30166
403.459	25791
403.537	12663
403.615	7156
403.694	2411
403.772	3322
403.850	3425
403.929	2540
404.007	4084
404.085	8061
404.164	9307
404.242	8416
404.320	25327
404.398	74358
404.477	87085
404.555	158794
404.633	147371
404.711	66563
404.789	40439
404.868	12447
404.946	5790
405.024	3631
405.102	3289
405.180	2940
405.258	2657
405.336	4492
405.415	4998
405.493	12581
405.571	9123
405.649	3013
405.727	3896
405.805	9360
405.883	7869
405.961	9798
406.039	12496
406.117	4773
406.195	9263
406.273	35501
406.351	132127
406.429	85780
406.507	19745
406.585	6908
406.663	6437
406.740	8736
406.818	8174
406.896	4702
406.974	4730
407.052	12889
407.130	76150
407.208	114520
407.285	25009
407.363	5113
407.441	5161
407.519	4225
407.596	5422
407.674	12672
407.752	30994
407.830	40490
407.907	19367
407.985	6693
408.063	4714
408.141	3187
408.218	10796
408.296	8927
408.373	4723
408.451	6231
408.529	6306
408.606	2925
408.684	2262
408.762	1359
408.839	392
408.917	784
408.994	1602
409.072	1101
409.149	2151
409.227	3500
409.304	3503
409.382	1681
409.459	717
409.537	2388
409.614	3219
409.692	2749
409.769	2540
409.846	4476
409.924	5781
410.001	4245
410.079	4036
410.156	3565
410.233	4103
410.311	3724
410.388	1895
410.465	3529
410.543	2941
410.620	2486
410.697	4717
410.775	5305
410.852	2173
410.929	4666
411.006	6466
411.083	3160
411.161	9019
411.238	12977
411.315	7932
411.392	2754
411.469	5010
411.547	5327
411.624	1100
411.701	2675
411.778	4796
411.855	12640
411.932	7698
412.009	3084
412.086	3400
412.163	6176
412.240	7545
412.317	9727
412.394	7210
412.471	1966
412.548	2467
412.625	3385
412.702	6293
412.779	11249
412.856	7679
412.933	2621
413.010	3636
413.087	7845
413.164	32811
413.241	49899
413.318	13502
413.395	7699
413.471	11413
413.548	5784
413.625	3729
413.702	7870
413.779	5216
413.855	1770
413.932	1857
414.009	1765
414.086	1888
414.162	2781
414.239	7712
414.316	33989
414.393	76129
414.469	28464
414.546	3138
414.623	2090
414.699	2587
414.776	4198
414.853	3064
414.929	3899
415.006	4149
415.082	7158
415.159	3886
415.236	3942
415.312	3732
415.389	8307
415.465	13280
415.542	7513
415.618	3639
415.695	8207
415.771	5840
415.848	5306
415.924	5807
416.000	4139
416.077	2182
416.153	442
416.230	377
416.306	1717
416.383	3383
416.459	2848
416.535	1868
416.612	1970
416.688	1201
416.764	2058
416.841	2301
416.917	2953
416.993	3006
417.069	4829
417.146	8140
417.222	11599
417.298	6442
417.374	3215
417.451	4379
417.527	5689
417.603	6314
417.679	5039
417.755	3612
417.831	1223
417.908	2090
417.984	1867
418.060	1987
418.136	9103
418.212	14933
418.288	5605
418.364	2849
418.440	2842
418.516	7757
418.592	13446
418.668	18872
418.744	25710
418.820	20231
418.896	5307
418.972	1761
419.048	2355
419.124	10836
419.200	9401
419.276	2489
419.352	94
419.428	1809
419.504	2859
419.579	5867
419.655	3437
419.731	3882
419.807	15413
419.883	30702
419.959	21396
420.034	6502
420.110	10457
420.186	44572
420.262	37339
420.337	7644
420.413	5605
420.489	2125
420.565	2043
420.640	1959
420.716	2744
420.792	775
420.867	2314
420.943	1354
421.019	6530
421.094	5390
421.170	2288
421.245	839
421.321	2044
421.397	2069
421.472	5282
421.548	13077
421.623	10842
421.699	4091
421.774	4229
421.850	3058
421.925	8169
422.001	6919
422.076	2527
422.152	3048
422.227	7819
422.302	7352
422.378	6745
422.453	12244
422.529	26959
422.604	110868
422.679	245025
422.755	133246
422.830	33116
422.905	9627
422.981	5702
423.056	3203
423.131	2795
423.207	2741
423.282	3997
423.357	13131
423.432	9312
423.508	7344
423.583	22286
423.658	18926
423.733	6397
423.808	7293
423.883	8008
423.959	5895
424.034	2863
424.109	2107
424.184	1263
424.259	1347
424.334	1567
424.409	1095
424.484	1514
424.559	3442
424.634	1548
424.709	4701
424.784	7058
424.859	4755
424.934	7476
425.009	30862
425.084	55281
425.159	21087
425.234	4265
425.309	2398
425.384	10053
425.459	18021
425.534	7492
425.609	4288
425.683	2486
425.758	1915
425.833	3600
425.908	4868
425.983	19418
426.058	59970
426.132	29345
426.207	6869
426.282	13999
426.357	10079
426.431	2772
426.506	3407
426.581	4281
426.655	3520
426.730	2324
426.805	2067
426.879	3795
426.954	3693
427.029	9432
427.103	46820
427.178	116326
427.253	54173
427.327	8805
427.402	13805
427.476	28734
427.551	13082
427.625	5851
427.700	6384
427.774	3401
427.849	5907
427.923	3093
427.998	2794
428.072	3221
428.147	9084
428.221	22848
428.296	36742
428.370	14121
428.444	6594
428.519	16299
428.593	31027
428.667	25791
428.742	30529
428.816	22767
428.890	43063
428.965	50035
429.039	32147
429.113	33813
429.188	11095
429.262	3682
429.336	7506
429.410	25841
429.485	21028
429.559	26639
429.633	17303
429.707	5030
429.781	15243
429.855	61396
429.930	76933
430.004	75429
430.078	123514
430.152	80179
430.226	46068
430.300	40923
430.374	8464
430.448	8696
430.522	41766
430.596	111740
430.670	53110
430.744	66654
430.818	115030
430.892	30527
430.966	6441
431.040	3878
431.114	2238
431.188	1923
431.262	3112
431.336	3112
431.410	14702
431.484	37959
431.557	20771
431.631	2776
431.705	1884
431.779	5656
431.853	24443
431.927	16375
432.000	3445
432.074	3016
432.148	6355
432.222	4604
432.295	2222
432.369	2392
432.443	7458
432.516	44221
432.590	113131
432.664	46906
432.737	6543
432.811	1392
432.885	462
432.958	872
433.032	675
433.106	151
433.179	1041
433.253	1016
433.326	1255
433.400	497
433.473	1365
433.547	893
433.620	1609
433.694	5637
433.767	7294
433.841	2819
433.914	1162
433.988	2187
434.061	372
434.134	381
434.208	401
434.281	496
434.355	384
434.428	1385
434.501	1224
434.575	1561
434.648	2281
434.721	1253
434.795	589
434.868	-197
434.941	314
435.014	330
435.088	603
435.161	2498
435.234	4430
435.307	6302
435.381	2733
435.454	1658
435.527	1137
435.600	1149
435.673	1085
435.746	567
435.819	478
435.892	910
435.966	547
436.039	898
436.112	1386
436.185	1365
436.258	786
436.331	-249
436.404	668
436.477	998
436.550	695
436.623	483
436.696	246
436.769	1174
436.842	2080
436.915	2711
436.987	4955
437.060	2374
437.133	1451
437.206	958
437.279	2143
437.352	946
437.425	351
437.498	1647
437.570	5774
437.643	6406
437.716	1352
437.789	768
437.861	3104
437.934	10455
438.007	5093
438.080	1316
438.152	2806
438.225	7145
438.298	50018
438.370	142143
438.443	62673
438.516	13249
438.588	3265
438.661	1228
438.734	2464
438.806	2679
438.879	3163
438.951	3369
439.024	4809
439.096	1846
439.169	1380
439.241	971
439.314	1309
439.386	6272
439.459	8260
439.531	10963
439.604	3447
439.676	1050
439.749	287
439.821	-16
439.893	1092
439.966	2373
440.038	2914
440.110	2141
440.183	2080
440.255	399
440.327	3995
440.400	25254
440.472	97145
440.544	65633
440.617	8632
440.689	4503
440.761	6123
440.833	9892
440.905	5779
440.978	956
441.050	879
441.122	1270
441.194	-157
441.266	1146
441.338	952
441.411	4379
441.483	31314
441.555	46692
441.627	11838
441.699	8735
441.771	7547
441.843	2817
441.915	1288
441.987	590
442.059	1488
442.131	3170
442.203	6038
442.275	6802
442.347	3736
442.419	3372
442.491	6670
442.563	16849
442.635	16695
442.706	31019
442.778	21735
442.850	2783
442.922	1088
442.994	2666
443.066	6304
443.137	3602
443.209	1969
443.281	2843
443.353	7483
443.425	14827
443.496	29363
443.568	25005
443.640	10005
443.711	3614
443.783	1672
443.855	1608
443.926	690
443.998	3140
444.070	4892
444.141	3493
444.213	4563
444.285	7553
444.356	8104
444.428	6728
444.499	2115
444.571	625
444.642	549
444.714	2082
444.785	5499
444.857	10229
444.928	26123
445.000	13540
445.071	17574
445.143	16206
445.214	6342
445.285	13771
445.357	36115
445.428	37111
445.500	66480
445.571	49042
445.642	19566
445.714	26179
445.785	34287
445.856	8259
445.928	7075
445.999	5289
446.070	3308
446.141	3817
446.213	6797
446.284	3227
446.355	5230
446.426	3024
446.497	3095
446.569	8615
446.640	10411
446.711	7027
446.782	2026
446.853	5731
446.924	4799
446.995	3773
447.066	4485
447.138	9845
447.209	4387
447.280	713
447.351	439
447.422	1211
447.493	4036
447.564	3802
447.635	6071
447.706	2564
447.777	804
447.847	567
447.918	589
447.989	4913
448.060	7328
448.131	18363
448.202	12181
448.273	7998
448.344	3867
448.414	1800
448.485	1808
448.556	1087
448.627	704
448.698	766
448.768	646
448.839	2176
448.910	8450
448.981	5652
449.051	1941
449.122	1235
449.193	510
449.263	974
449.334	1456
449.405	2766
449.475	8789
449.546	6635
449.616	10621
449.687	7030
449.758	2464
449.828	696
449.899	888
449.969	755
450.040	948
450.110	3694
450.181	4244
450.251	1194
450.322	949
450.392	2604
450.463	1348
450.533	1130
450.604	1527
450.674	1897
450.744	1796
450.815	713
450.885	1175
450.955	614
451.026	269
451.096	1811
451.166	3957
451.237	11661
451.307	26177
451.377	7857
451.447	1530
451.518	1223
451.588	1700
451.658	2536
451.728	7125
451.799	30468
451.869	26769
451.939	6150
452.009	1526
452.079	1461
452.149	2137
452.219	8469
452.289	34428
452.360	18918
452.430	3898
452.500	3270
452.570	3438
452.640	5124
452.710	18365
452.780	23796
452.850	15128
452.920	14214
452.990	4353
453.060	2550
453.129	5495
453.199	8732
453.269	33904
453.339	63667
453.409	93479
453.479	106003
453.549	150286
453.619	155250
453.688	52633
453.758	9471
453.828	4079
453.898	3299
453.968	2585
454.037	2148
454.087	1896
454.107	1762
454.168	2495
454.177	2570
454.247	1658
454.249	1684
454.316	1782
454.330	2353
454.386	4361
454.411	9698
454.456	17898
454.492	19746
454.525	21256
454.574	10497
454.595	5903
454.655	3552
454.665	3234
454.734	5343
454.736	5554
454.804	10902
454.817	15405
454.873	31564
454.898	31619
454.943	30495
454.979	20627
455.013	12284
455.060	7107
455.082	5511
455.141	8498
455.152	8793
455.221	25114
455.222	25548
455.291	43000
455.303	42592
455.360	38383
455.384	52542
455.430	75994
455.465	61258
455.499	46900
455.546	37551
455.569	32471
455.627	18003
455.638	15568
455.707	4258
455.708	4286
455.777	3637
455.789	3581
455.846	3023
455.869	2742
455.916	2365
455.950	3555
455.985	4434
456.031	3757
456.054	3320
456.112	2221
456.124	2103
456.193	2312
456.193	2277
456.262	4453
456.274	4757
456.332	5305
456.355	5757
456.401	5981
456.436	4803
456.470	3652
456.516	2217
456.540	1645
456.597	1755
456.609	1770
456.678	2230
456.678	2209
456.747	2453
456.759	2292
456.817	1507
456.840	1806
456.886	2165
456.920	2003
456.955	2045
457.001	2339
457.024	2813
457.082	4724
457.093	4926
457.162	6692
457.163	6742
457.232	9283
457.243	8804
457.301	4715
457.324	3547
457.370	2529
457.405	2573
457.439	2535
457.485	2516
457.508	2682
457.566	3530
457.577	3579
457.646	4110
457.647	4133
457.715	4423
457.727	4389
457.784	4001
457.808	4111
457.853	4395
457.889	4739
457.922	4943
457.969	5224
457.991	5328
458.050	6279
458.060	6439
458.129	6092
458.130	6132
458.198	5945
458.211	5847
458.267	4991
458.292	4459
458.336	4001
458.372	4021
458.405	4386
458.453	4710
458.474	4966
458.533	6161
458.543	6306
458.611	9101
458.614	9202
458.680	8328
458.694	7613
458.749	5173
458.775	4688
458.818	4542
458.855	4281
458.887	4143
458.936	4109
458.955	4066
459.016	4289
459.024	4344
459.093	5216
459.097	5262
459.162	5475
459.177	5503
459.230	5532
459.257	5859
459.299	6482
459.338	6492
459.368	6393
459.418	7179
459.437	7160
459.499	6104
459.505	6007
459.574	5481
459.579	5409
459.643	5002
459.659	5092
459.711	5699
459.740	5982
459.780	6413
459.820	6945
459.849	7104
459.900	7693
459.917	7812
459.981	8263
459.986	8197
460.054	6602
460.061	6572
460.123	7482
460.141	7474
460.191	7974
460.222	8634
460.260	9298
460.302	10218
460.328	9867
460.382	8572
460.397	8441
460.462	7698
460.465	7731
460.534	9723
460.543	9885
460.602	18538
460.623	21856
460.671	30952
460.703	40169
460.739	40030
460.783	36163
460.808	30430
460.864	10647
460.876	9371
460.944	7279
460.945	7244
461.013	7047
461.024	6999
461.081	7125
461.104	7087
461.150	6850
461.184	6881
461.218	7096
461.264	6991
461.286	6940
461.345	7406
461.355	7502
461.423	7958
461.425	7968
461.491	8194
461.505	8351
461.559	16176
461.585	19771
461.628	33223
461.665	46823
461.696	54250
461.745	69504
461.764	60559
461.825	18222
461.832	17090
461.901	9940
461.905	9699
461.969	8291
461.985	8006
462.037	7837
462.065	7722
462.105	9389
462.145	11336
462.173	16771
462.225	27036
462.241	30276
462.305	45612
462.310	44510
462.378	25021
462.385	22295
462.446	10637
462.465	7908
462.514	8454
462.545	9044
462.582	8797
462.625	8310
462.650	8269
462.705	8645
462.718	9051
462.785	10758
462.786	10869
462.854	17684
462.865	18876
462.922	23930
462.945	25956
462.990	19044
463.025	12319
463.058	10180
463.104	8019
463.126	8090
463.184	8702
463.194	8784
463.262	8742
463.264	8758
463.330	9828
463.344	10041
463.398	10698
463.424	10927
463.466	11405
463.504	11932
463.533	11764
463.583	11350
463.601	11966
463.663	13722
463.669	14026
463.737	18014
463.743	18379
463.805	29893
463.823	33179
463.873	51453
463.903	63253
463.940	70877
463.982	80080
464.008	64612
464.062	26863
464.076	24045
464.142	10944
464.144	10884
464.211	10412
464.221	10406
464.279	10922
464.301	11012
464.347	12000
464.381	12819
464.414	15034
464.461	18162
464.482	18988
464.540	21379
464.550	20554
464.617	13567
464.620	13322
464.685	14297
464.699	14519
464.753	16885
464.779	18145
464.820	20548
464.859	22545
464.888	22615
464.938	22661
464.956	23114
465.018	24881
465.023	24458
465.091	18003
465.098	17311
465.158	16594
465.177	16397
465.226	16705
465.257	16884
465.293	17230
465.336	17610
465.361	18724
465.416	21091
465.428	22744
465.495	31746
465.496	31965
465.563	58260
465.575	62859
465.631	79742
465.654	86998
465.698	55669
465.734	27987
465.765	23423
465.813	17162
465.833	16893
465.893	16626
465.900	16562
465.968	15886
465.972	15804
466.035	16236
466.052	16326
466.102	16186
466.131	16058
466.170	16619
466.210	17141
466.237	17319
466.290	17613
466.304	17743
466.369	18196
466.372	18269
466.439	19392
466.449	19510
466.506	21371
466.528	22058
466.573	29896
466.607	35685
466.641	54895
466.687	81529
466.708	91867
466.766	120490
466.775	111790
466.842	44113
466.845	40816
466.909	26278
466.925	22873
466.977	22370
467.004	22113
467.044	22751
467.083	23309
467.111	25352
467.163	29067
467.178	29763
467.242	32367
467.245	32328
467.312	30171
467.321	29826
467.379	29955
467.400	29910
467.446	32895
467.480	34940
467.559	31400
467.638	25645
467.717	26923
467.796	26891
467.875	28886
467.955	29958
468.034	40376
468.113	96399
468.192	145540
468.271	48780
468.350	22762
468.429	22754
468.508	21679
468.588	21011
468.667	23109
468.746	24551
468.825	24124
468.904	22905
468.983	26276
469.062	42986
469.141	55111
469.220	26394
469.299	21370
469.378	25500
469.456	26832
469.535	26634
469.614	25734
469.693	27374
469.772	34530
469.851	49426
469.930	38607
470.009	22105
470.088	20918
470.166	21929
470.245	23676
470.324	26364
470.403	24238
470.482	22387
470.560	20710
470.639	22233
470.718	24114
470.797	21787
470.875	25919
470.954	36639
471.033	44465
471.111	20514
471.190	18051
471.269	17399
471.347	17775
471.426	20533
471.505	23337
471.583	24889
471.662	23358
471.740	21152
471.819	20745
471.898	20515
471.976	20616
472.055	20043
472.133	23234
472.212	31438
472.290	36165
472.369	24836
472.447	18830
472.526	18794
472.604	20003
472.683	20218
472.761	20137
472.839	19570
472.918	19281
472.996	20771
473.075	24260
473.153	24957
473.231	18923
473.310	23171
473.388	24008
473.466	20446
473.545	21011
473.623	25164
473.701	24907
473.780	20393
473.858	18360
473.936	20867
474.014	20303
474.093	22435
474.171	33661
474.249	51360
474.327	38870
474.405	18995
474.484	16414
474.562	17642
474.640	18182
474.718	19709
474.796	20751
474.874	18335
474.952	16769
475.030	17764
475.108	17540
475.187	18726
475.265	19657
475.343	21681
475.421	24166
475.499	20299
475.577	20809
475.655	26847
475.733	57789
475.811	108498
475.889	101779
475.966	77284
476.044	21042
476.122	20381
476.200	22927
476.278	20979
476.356	18544
476.434	20356
476.512	21738
476.590	24470
476.667	24427
476.745	18226
476.823	19538
476.901	20692
476.979	21208
477.056	21348
477.134	21707
477.212	20631
477.290	19195
477.367	18048
477.445	17555
477.523	17778
477.601	17827
477.678	18922
477.756	23645
477.834	28699
477.911	19150
477.989	18178
478.066	18066
478.144	21114
478.222	20230
478.299	20295
478.377	21832
478.454	16329
478.532	15847
478.609	17464
478.687	19227
478.764	15951
478.842	16406
478.919	18336
478.997	19034
479.074	17628
479.152	21999
479.229	28700
479.307	22392
479.384	14970
479.461	15474
479.539	18861
479.616	22265
479.694	19658
479.771	19932
479.848	22915
479.926	30669
480.003	37336
480.080	16505
480.157	15944
480.235	15867
480.312	16167
480.389	19405
480.467	35077
480.544	46601
480.621	25426
480.698	19122
480.775	22759
480.853	23826
480.930	20087
481.007	19649
481.084	22974
481.161	24367
481.238	24924
481.315	17466
481.392	16857
481.470	17514
481.547	17911
481.624	17988
481.701	16819
481.778	19433
481.855	21312
481.932	33310
482.009	57341
482.086	49508
482.163	18425
482.240	17155
482.317	22492
482.393	22574
482.470	17619
482.547	18193
482.624	17462
482.701	16755
482.778	17863
482.855	15339
482.932	14464
483.009	15283
483.085	16397
483.162	17855
483.239	18708
483.316	14202
483.393	15132
483.469	15537
483.546	20563
483.623	24200
483.699	18341
483.776	18333
483.853	20950
483.930	28675
484.006	77727
484.083	146122
484.160	77841
484.236	79646
484.313	68055
484.389	51375
484.466	45335
484.543	42146
484.619	42378
484.696	43197
484.772	48301
484.849	54062
484.925	43652
485.002	40042
485.078	41190
485.155	42880
485.231	39626
485.308	39435
485.384	41593
485.461	49419
485.537	87353
485.614	119215
485.690	49579
485.766	37203
485.843	38161
485.919	44950
485.995	48904
486.072	35985
486.148	34266
486.224	34676
486.301	36420
486.377	42023
486.453	42094
486.530	38379
486.606	50178
486.682	59280
486.758	75285
486.835	95675
486.911	69847
486.987	109140
487.063	104670
487.139	89356
487.215	72767
487.292	44687
487.368	37729
487.444	39211
487.520	42077
487.596	37710
487.672	37642
487.748	47085
487.824	59599
487.900	45355
487.976	36734
488.052	39344
488.128	46099
488.204	41198
488.280	38782
488.356	44001
488.432	95219
488.508	169700
488.584	67778
488.660	33988
488.736	33942
488.812	33334
488.888	40552
488.964	47364
489.039	76792
489.115	122651
489.191	94593
489.267	39496
489.343	37576
489.418	30201
489.494	28698
489.570	27962
489.646	31080
489.722	30600
489.797	33499
489.873	48505
489.949	118399
490.024	123869
490.100	34324
490.176	29937
490.251	33316
490.327	37284
490.403	31283
490.478	26805
490.554	24123
490.629	25153
490.705	24331
490.781	27450
490.856	27668
490.932	31029
491.007	29762
491.083	30439
491.158	28727
491.234	37761
491.309	87952
491.385	112357
491.460	35648
491.536	31060
491.611	27866
491.686	26739
491.762	32326
491.837	51791
491.913	94306
491.988	126733
492.063	163121
492.139	80122
492.214	55026
492.289	24667
492.365	22359
492.440	26960
492.515	29682
492.590	30809
492.666	23573
492.741	31238
492.816	58167
492.891	38450
492.967	23430
493.042	21479
493.117	24230
493.192	25421
493.267	39938
493.342	125316
493.418	212339
493.493	53476
493.568	22290
493.643	20502
493.718	27453
493.793	42995
493.868	43150
493.943	25291
494.018	22074
494.093	21991
494.168	23366
494.243	19915
494.318	18328
494.393	17967
494.468	18419
494.543	17738
494.618	19297
494.693	20955
494.768	19945
494.842	21782
494.917	17208
494.992	18735
495.067	18437
495.142	16685
495.217	19657
495.292	19954
495.366	21906
495.441	27716
495.516	33759
495.591	38841
495.665	92670
495.740	229252
495.815	151324
495.890	36782
495.964	27618
496.039	28216
496.114	25509
496.188	26475
496.263	28699
496.338	26209
496.412	31262
496.487	37068
496.561	33784
496.636	35209
496.710	30820
496.785	31850
496.860	40821
496.934	31654
497.009	28780
497.083	29356
497.158	30502
497.232	36076
497.307	45625
497.381	38024
497.455	43718
497.530	62769
497.604	46565
497.679	42371
497.753	64300
497.827	86116
497.902	71304
497.976	75315
498.050	140532
498.125	508456
498.199	673166
498.273	126792
498.348	69341
498.422	60179
498.496	56199
498.570	54093
498.645	46877
498.719	46720
498.793	54989
498.867	79329
498.941	108806
499.016	212813
499.090	615965
499.164	337099
499.238	46242
499.312	32020
499.386	36050
499.460	37210
499.534	34924
499.609	41902
499.683	64705
499.757	66497
499.831	99148
499.905	390397
499.979	502602
500.053	100588
500.127	85462
500.201	48443
500.275	34495
500.349	32160
500.422	36473
500.496	45819
500.570	79211
500.644	217349
500.718	489029
500.792	173338
500.866	36774
500.940	47452
501.013	42642
501.087	35225
501.161	51999
501.235	74521
501.309	155186
501.382	427530
501.456	476169
501.530	103895
501.603	170712
501.677	93533
501.751	30144
501.825	32518
501.898	59368
501.972	187727
502.046	167761
502.119	40043
502.193	75166
502.266	212825
502.340	145131
502.413	87046
502.487	203908
502.561	145876
502.634	51625
502.708	25110
502.781	23010
502.855	20870
502.928	18668
503.002	18404
503.075	18799
503.149	21900
503.222	23633
503.295	27019
503.369	32360
503.442	42587
503.516	125500
503.589	382776
503.662	319490
503.736	91274
503.809	168624
503.882	174171
503.956	173751
504.029	200349
504.102	52906
504.175	39230
504.249	25070
504.322	27331
504.395	31285
504.468	21330
504.542	22969
504.615	17867
504.688	16580
504.761	15253
504.834	20134
504.907	19993
504.980	30825
505.053	22601
505.127	21542
505.200	29817
505.273	37488
505.346	27683
505.419	18153
505.492	16200
505.565	14314
505.638	13260
505.711	15218
505.784	14460
505.857	14566
505.930	16056
506.003	16134
506.076	18441
506.149	25481
506.221	36765
506.294	28985
506.367	60721
506.440	233260
506.513	180890
506.586	39109
506.659	24294
506.731	16908
506.804	18555
506.877	26824
506.950	25246
507.022	15793
507.095	22841
507.168	33102
507.241	18018
507.313	13457
507.386	14267
507.459	19313
507.531	14553
507.604	13819
507.677	14470
507.749	12612
507.822	17194
507.894	28873
507.967	39813
508.040	25924
508.112	21420
508.185	21709
508.257	18943
508.330	25555
508.402	22247
508.475	22531
508.547	24981
508.620	23385
508.692	40400
508.765	28671
508.837	16832
508.909	16661
508.982	17398
509.054	19014
509.127	16401
509.199	16841
509.271	15982
509.344	15160
509.416	15792
509.488	17506
509.560	16620
509.633	16937
509.705	19916
509.777	20519
509.849	24764
509.922	22574
509.994	19753
510.066	20101
510.138	20119
510.210	34517
510.283	34742
510.355	29279
510.427	24250
510.499	22676
510.571	21786
510.643	21799
510.715	27571
510.787	28740
510.859	22907
510.931	27426
511.003	30078
511.076	30579
511.148	22749
511.219	23574
511.291	37465
511.363	54164
511.435	24808
511.507	19969
511.579	20443
511.651	20308
511.723	19364
511.795	18823
511.867	20204
511.939	24359
512.010	55268
512.082	56327
512.154	22024
512.226	21816
512.298	26270
512.369	37863
512.441	30479
512.513	28594
512.585	24159
512.656	24319
512.728	26628
512.800	22789
512.871	21497
512.943	22504
513.015	18893
513.086	20061
513.158	21652
513.230	21417
513.301	28090
513.373	30021
513.444	22085
513.516	19580
513.588	18884
513.659	20048
513.731	22132
513.802	21365
513.874	31554
513.945	57204
514.016	33496
514.088	19849
514.159	20473
514.231	24445
514.302	34697
514.374	29275
514.445	28785
514.516	57535
514.588	57983
514.659	29041
514.730	54947
514.802	44705
514.873	25314
514.944	29292
515.016	24757
515.087	27559
515.158	36474
515.229	61388
515.301	31299
515.372	32884
515.443	29087
515.514	24211
515.585	20248
515.656	19830
515.728	18152
515.799	18532
515.870	18739
515.941	19997
516.012	20243
516.083	25867
516.154	26265
516.225	29637
516.296	28637
516.367	25941
516.438	26152
516.509	30918
516.580	37353
516.651	77364
516.722	276187
516.793	221444
516.864	51385
516.935	48369
517.006	49320
517.077	58391
517.148	99693
517.219	255048
517.289	553358
517.360	334727
517.431	153560
517.502	35222
517.573	30098
517.643	28157
517.714	31493
517.785	33423
517.856	30707
517.926	34505
517.997	37712
518.068	43630
518.138	50833
518.209	63283
518.280	165126
518.350	661598
518.421	450002
518.492	67717
518.562	37079
518.633	36353
518.703	30281
518.774	31187
518.845	37966
518.915	43651
518.986	36151
519.056	37663
519.127	53426
519.197	87406
519.268	239024
519.338	231256
519.408	51605
519.479	40363
519.549	34686
519.620	25772
519.690	22631
519.760	21898
519.831	21989
519.901	23562
519.971	19534
520.042	23338
520.112	29396
520.182	27104
520.253	28935
520.323	23737
520.393	27714
520.463	40835
520.534	30559
520.604	59682
520.674	39230
520.744	31920
520.814	59828
520.885	66307
520.955	73302
521.025	297930
521.095	184125
521.165	31830
521.235	27203
521.305	23975
521.375	20064
521.445	20184
521.515	22989
521.585	27236
521.655	26587
521.725	23641
521.795	24784
521.865	21338
521.935	31843
522.005	36945
522.075	20223
522.145	22017
522.215	25598
522.285	39116
522.355	49155
522.424	100934
522.494	105009
522.564	44593
522.634	42453
522.704	113893
522.774	73972
522.843	23029
522.913	19999
522.983	22924
523.053	20779
523.122	20359
523.192	21358
523.262	54823
523.331	82685
523.401	25858
523.471	15751
523.540	18172
523.610	14430
523.680	15127
523.749	16460
523.819	21938
523.888	27689
523.958	17137
524.027	16272
524.097	19285
524.166	16818
524.236	17689
524.305	20026
524.375	16295
524.444	15737
524.514	19215
524.583	17601
524.653	25957
524.722	29033
524.791	21171
524.861	17793
524.930	16155
524.999	16275
525.069	22976
525.138	22189
525.207	30007
525.277	21229
525.346	18195
525.415	17169
525.484	17098
525.554	21277
525.623	23625
525.692	16408
525.761	17312
525.830	15394
525.900	16190
525.969	20433
526.038	24242
526.107	21025
526.176	37285
526.245	40885
526.314	32187
526.383	40157
526.452	38851
526.522	50563
526.591	88928
526.660	73561
526.729	41345
526.797	31936
526.867	55169
526.935	234765
527.004	267670
527.073	125049
527.142	26997
527.211	19865
527.280	18832
527.349	21070
527.418	13313
527.487	14528
527.555	13717
527.624	12580
527.693	13317
527.762	13950
527.831	13107
527.899	13757
527.968	15153
528.037	14177
528.106	15996
528.174	26105
528.243	29365
528.312	35269
528.380	53125
528.449	22339
528.518	16143
528.586	11505
528.655	12701
528.723	11630
528.792	12768
528.861	14416
528.929	14921
528.998	13891
529.066	12484
529.135	12374
529.203	11720
529.272	10748
529.340	13800
529.409	13801
529.477	13090
529.545	18923
529.614	24604
529.682	21889
529.751	32819
529.819	25584
529.887	22713
529.956	12987
530.024	15891
530.092	11349
530.161	14253
530.229	19446
530.297	15338
530.365	13506
530.434	11524
530.502	10752
530.570	12091
530.638	10390
530.707	12708
530.775	14777
530.843	12557
530.911	12240
530.979	12125
531.047	11154
531.115	13204
531.183	11598
531.252	12887
531.320	12613
531.388	12661
531.456	12563
531.524	11138
531.592	12763
531.660	13927
531.728	12090
531.796	13252
531.864	12304
531.932	13877
532.000	12659
532.067	14074
532.135	15427
532.203	16001
532.271	16641
532.339	24976
532.407	52853
532.475	48853
532.542	23442
532.610	22593
532.678	26110
532.746	67480
532.814	222372
532.881	90434
532.949	20489
533.017	15622
533.084	13699
533.152	14299
533.220	14043
533.287	15074
533.355	13222
533.423	13286
533.490	12806
533.558	13099
533.625	14359
533.693	16655
533.761	15850
533.828	17570
533.896	17399
533.963	26295
534.031	36521
534.098	41561
534.166	28884
534.233	17895
534.300	19140
534.368	20153
534.435	18364
534.503	17789
534.570	15702
534.637	16973
534.705	14652
534.772	14858
534.840	14400
534.907	23328
534.974	31039
535.041	17892
535.109	21846
535.176	17720
535.243	12996
535.310	13466
535.378	13407
535.445	12290
535.512	12364
535.579	13083
535.646	12470
535.714	14979
535.781	18450
535.848	18372
535.915	19640
535.982	22294
536.049	22748
536.116	21630
536.183	18750
536.250	17737
536.317	17632
536.384	19069
536.451	23488
536.518	25257
536.585	19999
536.652	22984
536.719	27739
536.786	24455
536.853	21376
536.920	27763
536.987	41601
537.053	34411
537.120	95081
537.187	128802
537.254	21046
537.321	15197
537.388	16056
537.454	12715
537.521	13353
537.588	13457
537.654	15095
537.721	17540
537.788	17043
537.855	14586
537.921	13772
537.988	14646
538.055	15403
538.121	14259
538.188	16165
538.254	19385
538.321	34753
538.388	28533
538.454	16765
538.521	14530
538.587	13541
538.654	13666
538.720	13268
538.787	13685
538.853	14319
538.920	19812
538.986	22425
539.053	19080
539.119	17021
539.185	16744
539.252	17317
539.318	23498
539.385	22011
539.451	19286
539.517	19178
539.583	21344
539.650	33790
539.716	96643
539.782	44291
539.849	15933
539.915	16835
539.981	16232
540.047	17567
540.114	18978
540.180	18813
540.246	16883
540.312	20328
540.378	35579
540.444	41193
540.510	34370
540.576	96824
540.643	54094
540.709	16658
540.775	16680
540.841	15430
540.907	22708
540.973	39041
541.039	28868
541.105	27773
541.171	19062
541.237	16022
541.303	17916
541.369	18287
541.435	21102
541.500	31601
541.566	25582
541.632	16340
541.698	14491
541.764	15177
541.830	14725
541.896	14525
541.961	15537
542.027	14944
542.093	15082
542.159	15837
542.224	18255
542.290	24907
542.356	32271
542.421	39864
542.487	23921
542.553	18830
542.618	22222
542.684	18663
542.750	16402
542.815	19506
542.881	28177
542.947	80684
543.012	84540
543.078	19463
543.143	15683
543.209	16876
543.274	17482
543.340	18805
543.405	31543
543.471	59902
543.536	24520
543.602	16681
543.667	16342
543.732	15854
543.798	14555
543.863	15706
543.928	14687
543.994	13796
544.059	13959
544.124	14925
544.190	15321
544.255	15213
544.320	14775
544.386	15539
544.451	20781
544.516	23717
544.581	22132
544.646	47299
544.712	97812
544.777	32953
544.842	22756
544.907	25581
544.972	21644
545.037	19275
545.102	21833
545.168	21415
545.233	23331
545.298	23277
545.363	27914
545.428	28402
545.493	35260
545.558	74115
545.623	48492
545.688	23675
545.753	21641
545.818	21249
545.883	21501
545.947	20503
546.012	23826
546.077	26311
546.142	21710
546.207	21018
546.272	25582
546.337	26292
546.401	23758
546.466	21868
546.531	20999
546.596	22422
546.661	22285
546.725	20777
546.790	18884
546.855	20252
546.919	17982
546.984	19752
547.049	21757
547.113	26634
547.178	23455
547.243	23762
547.307	26113
547.372	27473
547.436	36550
547.501	24299
547.565	21802
547.630	24885
547.695	28410
547.759	33709
547.823	34539
547.888	21419
547.952	21868
548.017	20823
548.081	25756
548.146	37625
548.210	40023
548.274	22374
548.339	19488
548.403	19375
548.468	19098
548.532	18871
548.596	20376
548.660	19934
548.725	21412
548.789	25565
548.853	33197
548.917	24557
548.982	33570
549.046	45248
549.110	23066
549.174	20786
549.238	19905
549.303	18158
549.367	20738
549.431	19103
549.495	20122
549.559	19616
549.623	19489
549.687	21213
549.751	30672
549.815	25043
549.879	23203
549.943	19766
550.007	21968
550.071	22767
550.135	27718
550.199	26002
550.263	22740
550.327	24792
550.391	40946
550.455	30712
550.519	22162
550.582	23603
550.646	27568
550.710	32943
550.774	24999
550.838	22443
550.901	23427
550.965	25739
551.029	27067
551.093	29990
551.156	38987
551.220	78631
551.284	111941
551.347	46141
551.411	97598
551.475	157729
551.538	41557
551.602	24393
551.666	22202
551.729	19629
551.793	20941
551.856	21721
551.920	22571
551.983	22006
552.047	21233
552.110	20048
552.174	20245
552.237	19948
552.301	20735
552.364	19049
552.428	20357
552.491	19460
552.554	21329
552.618	20883
552.681	21240
552.745	22271
552.808	28808
552.871	35531
552.934	31273
552.998	24754
553.061	27478
553.124	26479
553.187	26111
553.251	27504
553.314	30405
553.377	29866
553.440	41239
553.503	107990
553.567	246796
553.630	68506
553.693	26076
553.756	22887
553.819	20776
553.882	21696
553.945	20713
554.008	19777
554.071	19153
554.134	20213
554.197	19634
554.260	17984
554.323	20855
554.386	20523
554.449	20746
554.512	19775
554.575	17888
554.638	20443
554.701	20257
554.764	18972
554.827	19182
554.889	19022
554.952	17081
555.015	17796
555.078	18119
555.141	18846
555.203	17131
555.266	17113
555.329	18915
555.391	18516
555.454	18538
555.517	18859
555.580	18392
555.642	15828
555.705	17023
555.768	17612
555.830	18195
555.893	16923
555.955	17740
556.018	16946
556.080	17903
556.143	17237
556.206	17310
556.268	19500
556.330	19612
556.393	20137
556.455	21084
556.518	32188
556.580	41226
556.643	19161
556.705	17182
556.767	16520
556.830	18856
556.892	18105
556.955	26677
557.017	25411
557.079	18795
557.142	18191
557.204	18708
557.266	32191
557.328	36221
557.391	18850
557.453	17689
557.515	16622
557.577	19787
557.639	22834
557.701	17792
557.764	16024
557.826	16447
557.888	18931
557.950	17876
558.012	16192
558.074	18021
558.136	20777
558.198	32920
558.260	27300
558.322	19580
558.384	18648
558.446	20139
558.508	21103
558.570	25784
558.632	35179
558.694	58809
558.756	37989
558.818	50117
558.880	140076
558.942	73244
559.003	37298
559.065	28155
559.127	19308
559.189	18624
559.251	20180
559.312	20533
559.374	29668
559.436	77165
559.498	65240
559.559	21897
559.621	19998
559.683	21228
559.744	29341
559.806	53118
559.868	76896
559.929	35227
559.991	25191
560.052	26005
560.114	36562
560.176	33495
560.237	27706
560.299	41648
560.360	25776
560.422	21490
560.483	21887
560.545	20787
560.606	21488
560.667	20056
560.729	19581
560.790	20206
560.852	19322
560.913	20022
560.974	19648
561.036	19777
561.097	19959
561.158	20963
561.220	21083
561.281	20925
561.342	21448
561.403	24046
561.465	26204
561.526	44171
561.587	73012
561.648	34027
561.709	22354
561.771	21559
561.832	21572
561.893	21272
561.954	20751
562.015	20416
562.076	20019
562.137	20635
562.198	20045
562.259	20262
562.320	20263
562.381	21586
562.442	25834
562.503	26198
562.564	20005
562.625	19501
562.686	20784
562.747	20406
562.808	21106
562.869	21100
562.930	27753
562.991	27740
563.051	23502
563.112	23372
563.173	21866
563.234	20735
563.294	20897
563.355	20105
563.416	21124
563.477	21365
563.537	21778
563.598	23192
563.659	22743
563.720	22936
563.780	23159
563.841	23364
563.901	22076
563.962	21942
564.023	22869
564.083	22896
564.144	22360
564.204	23755
564.265	22252
564.325	27029
564.386	51843
564.446	64114
564.507	25003
564.567	21292
564.628	22024
564.688	22074
564.749	21584
564.809	25553
564.869	32928
564.930	26859
564.990	22845
565.050	21135
565.111	21842
565.171	20782
565.231	21245
565.292	20752
565.352	19368
565.412	22221
565.472	22217
565.532	22379
565.593	22095
565.653	21188
565.713	21543
565.773	24019
565.833	24751
565.893	31288
565.953	24579
566.013	24190
566.074	24811
566.134	31666
566.194	49021
566.254	58954
566.314	40085
566.374	29188
566.434	26896
566.494	27246
566.554	26351
566.614	25803
566.673	27023
566.733	29095
566.793	30256
566.853	30974
566.913	30513
566.973	31156
567.033	30417
567.092	31617
567.152	30724
567.212	31612
567.272	32353
567.331	35538
567.391	34422
567.451	35906
567.511	45652
567.570	52924
567.630	34366
567.690	32192
567.749	31967
567.809	32750
567.868	34972
567.928	39654
567.988	44512
568.047	49207
568.107	53318
568.166	64932
568.226	85013
568.285	113247
568.345	117476
568.404	107033
568.464	99303
568.523	93150
568.582	90683
568.642	95447
568.701	106509
568.761	133536
568.820	178209
568.879	200383
568.939	189649
568.998	156613
569.057	124850
569.116	106333
569.176	87179
569.235	74716
569.294	65033
569.353	57830
569.413	51441
569.472	48687
569.531	42263
569.590	39276
569.649	37225
569.708	34607
569.767	33409
569.827	33789
569.886	31281
569.945	28743
570.004	27564
570.063	27512
570.122	27337
570.181	28673
570.240	31568
570.299	32561
570.358	26876
570.417	24393
570.475	22595
570.534	22893
570.593	22935
570.652	24000
570.711	23872
570.770	22407
570.829	25166
570.887	23834
570.946	23435
571.005	20853
571.064	20730
571.122	22157
571.181	25849
571.240	23877
571.299	20658
571.357	22464
571.416	25199
571.475	26862
571.533	30605
571.592	22145
571.650	23526
571.709	20196
571.768	18545
571.826	18672
571.885	17827
571.943	18484
572.002	18848
572.060	21485
572.119	17213
572.177	16431
572.236	16999
572.294	16240
572.352	16071
572.411	17185
572.469	16115
572.528	16270
572.586	17232
572.644	17450
572.703	19205
572.761	18021
572.819	17164
572.877	16567
572.936	15353
572.994	16524
573.052	16341
573.110	16827
573.169	15502
573.227	15416
573.285	15221
573.343	15739
573.401	15732
573.459	16144
573.517	15143
573.576	15168
573.634	14437
573.692	16991
573.750	15894
573.808	15850
573.866	17792
573.924	23264
573.982	24814
574.040	19148
574.098	16087
574.155	16131
574.213	15761
574.271	14745
574.329	13953
574.387	15527
574.445	14579
574.503	14564
574.560	13329
574.618	13688
574.676	13131
574.734	13480
574.792	14343
574.849	14107
574.907	13292
574.965	13133
575.022	12759
575.080	13274
575.138	13648
575.195	15093
575.253	14527
575.311	16583
575.368	13856
575.426	13934
575.483	14052
575.541	13409
575.598	13787
575.656	16293
575.713	14265
575.771	14312
575.828	14641
575.886	15246
575.943	15920
576.001	15990
576.058	16346
576.115	17405
576.173	19757
576.230	20431
576.287	21939
576.345	20299
576.402	17092
576.459	16863
576.517	16906
576.574	18242
576.631	19572
576.688	18264
576.746	16000
576.803	15712
576.860	15464
576.917	15214
576.974	15399
577.031	16010
577.089	15811
577.146	16644
577.203	16153
577.260	18118
577.317	18907
577.374	20434
577.431	21534
577.488	17828
577.545	16383
577.602	16703
577.659	16286
577.716	18265
577.773	19148
577.830	17733
577.886	17222
577.943	16521
578.000	16561
578.057	18939
578.114	19833
578.171	20093
578.227	25778
578.284	28429
578.341	25464
578.398	22450
578.454	21760
578.511	22400
578.568	25082
578.625	20296
578.681	18749
578.738	16082
578.794	16096
578.851	17166
578.908	15945
578.964	16497
579.021	17598
579.077	16016
579.134	15866
579.190	15932
579.247	15467
579.303	15378
579.360	14361
579.416	14465
579.473	14894
579.529	16377
579.586	15962
579.642	16235
579.698	16672
579.755	18499
579.811	17065
579.867	17781
579.924	17354
579.980	18981
580.036	21141
580.093	25844
580.149	33830
580.205	42928
580.261	36257
580.317	31718
580.374	26942
580.430	27101
580.486	24122
580.542	21809
580.598	20506
580.619	20172
580.654	19616
580.692	18850
580.710	18504
580.765	17267
580.767	17247
580.823	18065
580.838	17899
580.879	17550
580.911	17289
580.935	17117
580.984	17723
580.991	17837
581.047	16890
581.057	17179
581.103	18540
581.130	19495
581.159	20546
581.203	20903
581.215	21021
581.270	22255
581.276	22113
581.326	20963
581.349	20336
581.382	19435
581.422	19029
581.438	18894
581.494	19068
581.494	19048
581.550	18671
581.567	18507
581.606	18118
581.640	17869
581.661	17714
581.713	17940
581.717	17981
581.773	17580
581.786	17480
581.829	17190
581.859	17494
581.885	17799
581.932	17526
581.940	17490
581.996	17913
582.004	17677
582.052	16298
582.077	16655
582.107	17155
582.150	16949
582.163	16912
582.219	18102
582.223	18028
582.274	17216
582.296	17300
582.330	17403
582.368	18656
582.386	19257
582.441	17007
582.441	17010
582.497	17625
582.514	17717
582.552	18012
582.587	18648
582.608	18996
582.659	19332
582.663	19360
582.719	17439
582.732	17641
582.774	18287
582.805	18139
582.830	18059
582.877	18165
582.885	18194
582.941	18351
582.950	18351
582.996	18468
583.023	19121
583.052	19957
583.095	20916
583.107	21168
583.162	25841
583.168	26130
583.218	28608
583.240	27758
583.273	26330
583.313	24172
583.328	23340
583.384	21825
583.385	21771
583.439	20404
583.458	20175
583.494	19682
583.531	19371
583.549	19225
583.603	18635
583.605	18610
583.660	19461
583.676	18922
583.715	17876
583.748	18545
583.770	18942
583.820	18639
583.825	18591
583.881	19085
583.893	18904
583.936	18346
583.965	18178
583.991	18038
584.038	18365
584.046	18426
584.101	19226
584.110	19249
584.156	19186
584.183	19026
584.211	18955
584.255	18284
584.266	18097
584.321	18298
584.328	18365
584.376	18680
584.400	18566
584.431	18645
584.472	18914
584.486	18939
584.541	19016
584.545	18997
584.596	18173
584.617	18526
584.651	19785
584.689	20337
584.706	20333
584.761	20525
584.762	20526
584.816	19899
584.834	19983
584.871	20244
584.906	20278
584.926	20332
584.978	20121
584.980	20097
585.035	21087
585.051	21402
585.090	22512
585.123	22442
585.145	22174
585.195	22551
585.200	22666
585.254	24021
585.267	24643
585.309	26825
585.340	29253
585.364	30718
585.412	28831
585.419	28287
585.473	24997
585.484	24712
585.528	25242
585.556	26052
585.583	27186
585.628	29320
585.637	30268
585.692	38941
585.700	40773
585.747	49300
585.772	48436
585.801	42674
585.845	31957
585.856	30197
585.910	27577
585.917	27391
585.965	27094
585.989	27145
586.019	27516
586.061	27867
586.074	27964
586.128	28413
586.133	28581
586.183	30308
586.205	30696
586.237	30912
586.277	31299
586.292	31419
586.346	30985
586.349	31048
586.401	32147
586.421	32423
586.455	33156
586.493	34892
586.509	36359
586.564	43086
586.565	43521
586.618	64720
586.637	66776
586.672	62209
586.709	47617
586.727	41251
586.781	36576
586.781	36547
586.835	36301
586.853	36449
586.889	36835
586.925	37240
586.944	37519
586.996	38734
586.998	38740
587.052	40719
587.068	40961
587.106	41651
587.140	42541
587.161	43160
587.212	44818
587.215	44892
587.269	47775
587.284	48485
587.323	49674
587.356	50355
587.377	51067
587.427	53292
587.431	53401
587.485	55489
587.499	55961
587.539	57829
587.571	60143
587.593	61784
587.643	65144
587.648	65436
587.702	68971
587.715	70251
587.755	74461
587.786	77300
587.810	79480
587.858	83874
587.864	84514
587.917	93291
587.930	95350
587.971	102506
588.001	108302
588.025	112939
588.073	121838
588.079	123126
588.133	136191
588.145	139435
588.187	152891
588.217	163622
588.241	173219
588.288	192672
588.295	195586
588.348	225057
588.360	231333
588.402	258784
588.431	280504
588.456	301005
588.503	343587
588.510	351000
588.564	417502
588.575	432921
588.617	506458
588.646	561856
588.671	627005
588.718	760125
588.725	788421
588.778	1021488
588.789	1069359
588.832	1311068
588.861	1457316
588.886	1525114
588.932	1578527
588.939	1561363
588.993	1395057
589.004	1388404
589.047	1522059
589.075	1590895
589.100	1504219
589.147	1259728
589.154	1228004
589.207	963515
589.218	912502
589.261	822120
589.290	772802
589.314	777897
589.361	805155
589.368	823822
589.421	1001770
589.433	1041291
589.475	1275806
589.504	1421508
589.528	1460982
589.576	1471527
589.582	1462436
589.635	1442680
589.647	1432006
589.689	1218328
589.718	1025675
589.742	886163
589.790	610009
589.795	592411
589.849	446637
589.861	415545
589.902	354958
589.932	312821
589.955	286604
590.004	232627
590.009	228855
590.062	196367
590.075	188973
590.115	170741
590.146	157712
590.168	150256
590.218	135046
590.222	133862
590.275	120620
590.289	117400
590.328	111362
590.360	106677
590.381	102736
590.431	94341
590.435	93901
590.488	87519
590.503	85991
590.541	81518
590.574	77748
590.594	75892
590.645	71640
590.647	71450
590.700	68150
590.716	67135
590.753	64009
590.787	61326
590.806	60470
590.859	58656
590.859	58569
590.912	55795
590.930	54992
590.965	53679
591.001	52514
591.018	51669
591.071	49166
591.072	49182
591.124	47982
591.143	47641
591.177	46850
591.214	46167
591.230	45975
591.283	45304
591.285	45312
591.336	44973
591.356	44860
591.389	44867
591.427	44777
591.442	43653
591.495	39708
591.498	39450
591.547	38504
591.569	38080
591.600	37222
591.640	36293
591.653	36146
591.706	35691
591.711	35682
591.759	36003
591.782	36240
591.811	36855
591.853	37973
591.864	37405
591.917	34083
591.924	33700
591.969	32930
591.995	32510
592.022	32432
592.066	32520
592.075	32718
592.127	34072
592.137	34411
592.180	36725
592.208	38201
592.233	36054
592.279	31727
592.285	31423
592.338	29460
592.350	29052
592.390	28427
592.421	28040
592.443	27956
592.491	27875
592.495	27806
592.548	27377
592.562	27310
592.600	26837
592.633	26478
592.653	26460
592.704	26384
592.705	26518
592.775	25758
592.846	25394
592.916	28020
592.987	29033
593.058	25957
593.128	25185
593.199	22977
593.270	23334
593.341	23057
593.411	23032
593.482	23694
593.553	22728
593.623	21335
593.694	21444
593.764	23530
593.835	21717
593.906	20848
593.976	21402
594.047	21982
594.117	25077
594.188	24831
594.258	20912
594.329	19981
594.399	19634
594.470	18953
594.540	18957
594.611	19065
594.681	19275
594.751	19914
594.822	21179
594.892	22684
594.963	21753
595.033	21024
595.103	21063
595.174	22197
595.244	28716
595.314	38710
595.384	22402
595.455	18622
595.525	18750
595.595	18181
595.665	18843
595.736	18585
595.806	19058
595.876	16826
595.946	18933
596.016	17185
596.087	17316
596.157	17687
596.227	17938
596.297	17933
596.367	18792
596.437	19869
596.507	25169
596.577	33785
596.647	21935
596.717	17482
596.787	18092
596.857	17951
596.927	17607
596.997	17848
597.067	18236
597.137	20449
597.207	20469
597.277	17515
597.347	17679
597.417	17115
597.487	18730
597.557	18093
597.626	18242
597.696	20104
597.766	23259
597.836	30065
597.906	21763
597.975	17043
598.045	16984
598.115	16419
598.185	16972
598.254	17585
598.324	19159
598.394	18914
598.464	20627
598.533	17792
598.603	16743
598.672	17752
598.742	17847
598.812	16415
598.881	17042
598.951	16312
599.020	15839
599.090	15462
599.159	16009
599.229	15532
599.299	14750
599.368	15757
599.437	15249
599.507	15290
599.576	16993
599.646	17910
599.715	19395
599.785	15597
599.854	16836
599.924	19186
599.993	18376
600.062	15647
600.132	15861
600.201	16357
600.270	18139
600.340	17280
600.409	15428
600.478	15803
600.547	15642
600.617	16178
600.686	16749
600.755	15447
600.824	18052
600.894	17568
600.963	15059
601.032	14176
601.101	14912
601.170	14249
601.239	15179
601.308	15240
601.378	15356
601.447	14629
601.516	14865
601.585	14927
601.654	15283
601.723	16199
601.792	15692
601.861	17631
601.930	21881
601.999	20578
602.068	16966
602.137	17034
602.206	17376
602.275	17211
602.343	20566
602.412	21647
602.481	16886
602.550	14400
602.619	14508
602.688	15802
602.756	14585
602.825	13972
602.894	14271
602.963	14562
603.032	14347
603.100	13365
603.169	13556
603.238	13196
603.307	14019
603.375	13526
603.444	14024
603.513	13018
603.581	13147
603.650	13127
603.719	13984
603.787	12233
603.856	13870
603.924	14145
603.993	14063
604.061	12722
604.130	14483
604.198	15854
604.267	13747
604.335	13174
604.404	13127
604.472	12745
604.541	13715
604.609	13524
604.678	13368
604.746	13451
604.815	13808
604.883	14218
604.951	14584
605.020	13881
605.088	13775
605.156	13763
605.225	14212
605.293	13188
605.361	13993
605.429	14081
605.498	15510
605.566	15000
605.634	15408
605.702	14373
605.771	14241
605.839	14401
605.907	14877
605.975	13234
606.043	13911
606.111	13931
606.180	15619
606.248	17866
606.316	21642
606.384	15182
606.452	19609
606.520	24757
606.588	17287
606.656	12121
606.724	12079
606.792	11627
606.860	12198
606.928	11011
606.996	12254
607.064	11199
607.132	11841
607.200	11533
607.267	12281
607.335	11299
607.403	11790
607.471	10847
607.539	11368
607.607	11918
607.674	11779
607.742	12773
607.810	13703
607.878	12505
607.946	12179
608.013	11621
608.081	11799
608.149	12232
608.216	11022
608.284	12052
608.352	11779
608.419	12038
608.487	18113
608.555	15359
608.622	11644
608.690	11171
608.757	11966
608.825	12866
608.893	12727
608.960	14562
609.028	18151
609.095	20608
609.163	15604
609.230	13271
609.298	13095
609.365	11558
609.432	12354
609.500	12010
609.567	14082
609.635	14953
609.702	14209
609.769	15561
609.837	16887
609.904	15556
609.971	16523
610.039	21312
610.106	28888
610.173	49074
610.241	102787
610.308	153636
610.375	115490
610.442	37364
610.509	19431
610.577	16547
610.644	14572
610.711	12960
610.778	13775
610.845	12650
610.912	13737
610.980	16639
611.047	24202
611.114	19897
611.181	12921
611.248	11713
611.315	12906
611.382	11561
611.449	11666
611.516	11971
611.583	12640
611.650	12195
611.717	12203
611.784	12504
611.851	13680
611.918	14941
611.984	17167
612.051	22281
612.118	40134
612.185	91563
612.252	84214
612.319	21982
612.386	15461
612.452	13988
612.519	15736
612.586	19986
612.653	18044
612.719	13673
612.786	14231
612.853	12052
612.919	10997
612.986	12021
613.053	11427
613.120	11043
613.186	10456
613.253	11916
613.319	11679
613.386	11670
613.453	12891
613.519	14827
613.586	20449
613.652	35552
613.719	26577
613.785	24672
613.852	14848
613.918	13716
613.985	18314
614.051	29661
614.118	72020
614.184	89929
614.250	22081
614.317	13106
614.383	11908
614.449	11160
614.516	12153
614.582	12640
614.648	12625
614.715	11817
614.781	12338
614.847	12360
614.914	13057
614.980	12230
615.046	12747
615.112	12393
615.179	14858
615.245	14723
615.311	19168
615.377	29023
615.443	41980
615.509	29543
615.575	20742
615.642	16723
615.708	17640
615.774	19936
615.840	19929
615.906	25959
615.972	37133
616.038	68888
616.104	108913
616.170	153850
616.236	160806
616.302	44497
616.368	24892
616.434	19132
616.500	19189
616.565	17886
616.631	18202
616.697	17298
616.763	17571
616.829	19651
616.895	29727
616.961	33035
617.026	21755
617.092	14869
617.158	13649
617.224	12564
617.289	13648
617.355	12941
617.421	13229
617.487	13515
617.552	12948
617.618	10401
617.684	10852
617.749	12800
617.815	11906
617.880	11342
617.946	11572
618.012	12116
618.077	12038
618.143	11125
618.208	11721
618.274	11857
618.339	13057
618.405	11500
618.470	12836
618.536	12262
618.601	13890
618.667	13301
618.732	12631
618.798	13516
618.863	12491
618.928	11437
618.994	13607
619.059	17228
619.124	27635
619.190	20216
619.255	12765
619.320	12162
619.386	12710
619.451	11086
619.516	11444
619.581	10949
619.647	11855
619.712	12061
619.777	12110
619.842	11613
619.907	12761
619.972	12387
620.038	12924
620.103	11275
620.168	11393
620.233	11254
620.298	12530
620.363	11580
620.428	11997
620.493	12157
620.558	11572
620.623	11003
620.688	10639
620.753	10745
620.818	11246
620.883	11209
620.948	11516
621.013	11607
621.078	12303
621.143	10479
621.207	13973
621.272	12914
621.337	14504
621.402	14803
621.467	18401
621.532	20302
621.596	16410
621.661	14040
621.726	14329
621.791	13271
621.855	14307
621.920	17219
621.985	16156
622.049	18908
622.114	17854
622.179	14981
622.243	15349
622.308	14620
622.373	15067
622.437	14807
622.502	13498
622.566	13909
622.631	12980
622.695	14819
622.760	14703
622.824	14672
622.889	15283
622.953	18034
623.018	28359
623.082	33199
623.147	16795
623.211	14651
623.276	16033
623.340	13444
623.404	14179
623.469	13265
623.533	12797
623.597	13407
623.662	13071
623.726	13412
623.790	12620
623.854	12888
623.919	14606
623.983	13230
624.047	13949
624.111	12679
624.176	12988
624.240	14210
624.304	16608
624.368	13265
624.432	13657
624.496	13580
624.560	16875
624.625	20116
624.689	14370
624.753	12539
624.817	13008
624.881	12162
624.945	12221
625.009	12528
625.073	13702
625.137	14031
625.201	20045
625.265	22451
625.329	14626
625.393	14988
625.456	14349
625.520	13359
625.584	16796
625.648	20491
625.712	29779
625.776	66841
625.839	87133
625.903	39824
625.967	17606
626.031	25893
626.095	45788
626.158	20862
626.222	11592
626.286	11462
626.349	10120
626.413	10842
626.477	14042
626.540	12366
626.604	11001
626.668	11391
626.731	10839
626.795	10571
626.858	11542
626.922	9905
626.986	10448
627.049	9830
627.113	11330
627.176	10159
627.240	9710
627.303	10215
627.366	10447
627.430	9610
627.493	10036
627.557	10206
627.620	10713
627.684	9926
627.747	10194
627.810	9140
627.874	10402
627.937	7890
628.000	11175
628.064	10623
628.127	8321
628.190	9790
628.253	10147
628.317	8876
628.380	9239
628.443	9088
628.506	9733
628.569	8941
628.632	7884
628.696	9167
628.759	8700
628.822	7212
628.885	8487
628.948	8749
629.011	9623
629.074	8642
629.137	8136
629.200	8669
629.263	9868
629.326	8022
629.389	8517
629.452	8647
629.515	9493
629.578	8243
629.641	9982
629.704	8815
629.767	9527
629.830	8961
629.892	8651
629.955	8894
630.018	10450
630.081	11030
630.144	16835
630.207	11230
630.269	13210
630.332	10437
630.395	10265
630.458	7653
630.520	7739
630.583	8628
630.646	7918
630.708	7562
630.771	7046
630.834	8191
630.896	7109
630.959	8218
631.021	7785
631.084	6976
631.146	8502
631.209	10159
631.272	8382
631.334	7571
631.397	7633
631.459	7773
631.522	9641
631.584	8518
631.646	8074
631.709	8992
631.771	12637
631.834	10539
631.896	8038
631.958	6949
632.021	7501
632.083	6355
632.145	8286
632.208	7323
632.270	8685
632.332	6032
632.395	6966
632.457	7553
632.519	6056
632.581	8048
632.643	6160
632.706	6409
632.768	6752
632.830	6541
632.892	7016
632.954	6827
633.016	7811
633.078	6055
633.141	7429
633.203	6505
633.265	7238
633.327	6064
633.389	6142
633.451	8101
633.513	11799
633.575	9910
633.637	11378
633.698	10806
633.760	7727
633.822	6448
633.884	6570
633.946	6512
634.008	6895
634.070	7067
634.132	9922
634.193	8429
634.255	7373
634.317	6195
634.379	8186
634.441	6937
634.502	6806
634.564	7754
634.626	8169
634.687	8241
634.749	6907
634.811	6727
634.873	5591
634.934	6560
634.996	6599
635.057	4885
635.119	6299
635.181	5568
635.242	7048
635.304	4935
635.365	7815
635.427	5413
635.488	6836
635.550	5504
635.611	6424
635.673	4121
635.734	7367
635.796	6406
635.857	7761
635.918	6126
635.980	6400
636.041	5561
636.102	6391
636.164	5848
636.225	7636
636.286	5139
636.348	7148
636.409	6124
636.470	5987
636.531	5743
636.593	7169
636.654	7140
636.715	5507
636.776	5323
636.838	4451
636.899	6373
636.960	5725
637.021	5671
637.082	6017
637.143	5974
637.204	5266
637.265	4759
637.326	5402
637.387	5406
637.448	4217
637.509	5870
637.570	4853
637.631	5174
637.692	4644
637.753	3762
637.814	5210
637.875	5221
637.936	5355
637.997	4489
638.058	5898
638.119	5422
638.179	4889
638.240	4766
638.301	4564
638.362	4008
638.423	4452
638.483	5777
638.544	4583
638.605	4794
638.666	4406
638.726	5130
638.787	4964
638.848	4490
638.908	5387
638.969	4791
639.030	4440
639.090	3971
639.151	4620
639.211	6185
639.272	8915
639.332	17141
639.393	11465
639.453	4787
639.514	4880
639.574	4992
639.635	4842
639.695	5253
639.756	4774
639.816	6665
639.877	7485
639.937	14832
639.997	25035
640.058	9289
640.118	4452
640.178	5308
640.239	4481
640.299	4079
640.359	4736
640.420	4160
640.480	4967
640.540	4327
640.600	4290
640.661	5233
640.721	4280
640.781	8436
640.841	6613
640.901	5259
640.961	5403
641.021	5627
641.082	7144
641.142	11995
641.202	9326
641.262	3622
641.322	5348
641.382	3668
641.442	5082
641.502	3789
641.562	5914
641.622	4263
641.682	5184
641.742	4663
641.802	4774
641.861	5373
641.921	5950
641.981	7278
642.041	6611
642.101	7660
642.161	6580
642.221	3885
642.280	4449
642.340	4356
642.400	3589
642.460	5012
642.519	4913
642.579	3588
642.639	5079
642.698	2172
642.758	6080
642.818	3585
642.877	4318
642.937	5303
642.997	6419
643.056	11247
643.116	5569
643.175	5021
643.235	3573
643.294	3794
643.354	3848
643.414	4640
643.473	5480
643.532	4656
643.592	5961
643.651	8656
643.711	12252
643.770	19681
643.830	40969
643.889	108573
643.948	41865
644.008	7235
644.067	4756
644.126	3410
644.186	3952
644.245	4027
644.304	2606
644.363	5281
644.423	2814
644.482	3426
644.541	4456
644.600	2257
644.659	4763
644.719	3641
644.778	4646
644.837	5692
644.896	9437
644.955	19212
645.014	11262
645.073	6442
645.132	3997
645.191	4589
645.250	3204
645.309	4296
645.368	4207
645.427	4445
645.486	4107
645.545	6279
645.604	3448
645.663	4337
645.722	3721
645.781	4020
645.840	4003
645.898	3943
645.957	5889
646.016	5609
646.075	9879
646.134	16855
646.192	36980
646.251	75048
646.310	18070
646.369	5287
646.427	4123
646.486	2483
646.545	4378
646.603	2911
646.662	3226
646.721	4079
646.779	3599
646.838	2882
646.896	4479
646.955	3792
647.014	4376
647.072	4768
647.131	11440
647.189	8272
647.248	3633
647.306	3376
647.365	3678
647.423	1940
647.481	3607
647.540	2073
647.598	2805
647.657	2573
647.715	4095
647.773	2091
647.832	3557
647.890	2094
647.948	3231
648.007	3847
648.065	3298
648.123	3270
648.181	5978
648.240	5453
648.298	5426
648.356	2765
648.414	3392
648.472	3732
648.531	3971
648.589	2650
648.647	2996
648.705	2661
648.763	3265
648.821	3763
648.879	3951
648.937	4138
648.995	3558
649.053	3338
649.111	5294
649.169	6623
649.227	8994
649.285	13760
649.343	34248
649.401	30563
649.459	24863
649.516	22773
649.574	12866
649.632	28225
649.690	44709
649.748	14520
649.806	9566
649.863	17566
649.921	12746
649.979	8382
650.037	4529
650.094	2039
650.152	4158
650.210	2811
650.268	3153
650.325	2419
650.383	2858
650.440	2165
650.498	2548
650.556	2698
650.613	2061
650.671	2985
650.728	2911
650.786	3243
650.843	2329
650.901	568
650.958	2746
651.016	2878
651.073	2655
651.131	2531
651.188	1712
651.246	3212
651.303	1575
651.360	2637
651.418	2348
651.475	3166
651.532	1490
651.590	2485
651.647	1893
651.704	2620
651.762	2585
651.819	2942
651.876	2160
651.933	2757
651.990	3501
652.048	1872
652.105	1704
652.162	2661
652.219	2905
652.276	2873
652.333	3125
652.390	1315
652.448	3014
652.505	2443
652.562	3460
652.619	3361
652.676	6258
652.733	8325
652.790	2941
652.847	993
652.904	2987
652.961	242
653.017	1592
653.074	2689
653.131	3106
653.188	1648
653.245	2349
653.302	1526
653.359	1999
653.415	2430
653.472	1691
653.529	2605
653.586	2008
653.642	1468
653.699	2603
653.756	1350
653.813	2153
653.869	2689
653.926	1525
653.983	1427
654.039	2678
654.096	1297
654.152	2610
654.209	911
654.266	3401
654.322	1542
654.379	3302
654.435	2746
654.492	4138
654.548	5260
654.605	9949
654.661	5511
654.717	2379
654.774	3406
654.830	3013
654.887	2645
654.943	2520
655.000	3088
655.056	2719
655.112	2394
655.168	2129
655.225	2774
655.281	3393
655.337	3438
655.394	7193
655.450	5667
655.506	4782
655.562	6690
655.618	7959
655.675	2777
655.731	2960
655.787	2628
655.843	3685
655.899	3143
655.955	3931
656.011	3719
656.067	2893
656.123	4960
656.179	4294
656.235	5594
656.291	3772
656.347	5642
656.403	3659
656.459	3943
656.515	4617
656.571	3729
656.627	4011
656.683	2804
656.739	3590
656.795	2871
656.850	3670
656.906	3675
656.962	3894
657.018	2435
657.074	2598
657.129	2287
657.185	3243
657.241	2206
657.297	2232
657.352	3389
657.408	2509
657.464	3217
657.519	2428
657.575	1234
657.630	2579
657.686	1639
657.742	2279
657.797	2152
657.853	2176
657.908	2343
657.964	1377
658.019	1436
658.075	2156
658.130	2975
658.186	1637
658.241	2301
658.297	1441
658.352	1825
658.407	3116
658.463	1032
658.518	2293
658.573	2936
658.629	1625
658.684	2187
658.739	2393
658.795	513
658.850	2522
658.905	1749
658.960	2731
659.016	1093
659.071	3033
659.126	2416
659.181	3099
659.236	5206
659.291	7113
659.346	3212
659.401	3743
659.457	3961
659.512	5266
659.567	4670
659.622	2931
659.677	1819
659.732	1180
659.787	2222
659.842	2251
659.897	2706
659.952	3305
660.007	1448
660.061	1897
660.116	1478
660.171	1536
660.226	1905
660.281	3030
660.336	833
660.391	1840
660.445	1665
660.500	2799
660.555	1035
660.610	1475
660.664	2668
660.719	1530
660.774	2363
660.828	2750
660.883	1639
660.938	2270
660.992	1333
661.047	1836
661.101	1990
661.156	1585
661.211	1127
661.265	1751
661.320	1491
661.374	2646
661.429	1750
661.483	1750
661.538	1417
661.592	1375
661.647	2239
661.701	2202
661.755	2377
661.810	2988
661.864	1357
661.919	1321
661.973	2084
662.027	2542
662.081	785
662.136	2153
662.190	1865
662.244	3043
662.299	1270
662.353	1924
662.407	1437
662.461	2637
662.515	1484
662.569	1845
662.624	2601
662.678	1723
662.732	1339
662.786	1299
662.840	2241
662.894	3133
662.948	1936
663.002	1981
663.056	2063
663.110	1170
663.164	2200
663.218	2263
663.272	2698
663.326	3073
663.380	1901
663.434	2568
663.488	1677
663.542	2347
663.595	2140
663.649	2023
663.703	2198
663.757	2122
663.811	1610
663.864	2503
663.918	1472
663.972	1572
664.026	1732
664.079	1468
664.133	1741
664.187	1776
664.240	1880
664.294	1974
664.348	1933
664.401	2048
664.455	1744
664.508	2057
664.562	1790
664.615	2094
664.669	1474
664.722	2710
664.776	1334
664.829	2036
664.883	1727
664.936	2120
664.990	2051
665.043	2479
665.097	1948
665.150	3368
665.203	1555
665.257	2140
665.310	2055
665.363	1646
665.417	2346
665.470	2029
665.523	2579
665.576	1958
665.630	2954
665.683	2512
665.736	1888
665.789	1856
665.842	2127
665.895	2068
665.949	2452
666.002	2170
666.055	3065
666.108	2946
666.161	2233
666.214	3112
666.267	2808
666.320	3835
666.373	2994
666.426	3012
666.479	1999
666.532	2289
666.585	2576
666.638	3806
666.691	2557
666.744	4018
666.796	2771
666.849	3541
666.902	2960
666.955	3050
667.008	1617
667.060	2334
667.113	2284
667.166	1693
667.219	2131
667.271	2430
667.324	2485
667.377	2009
667.430	2312
667.482	3524
667.535	3122
667.587	2478
667.640	2672
667.693	3725
667.745	5262
667.798	9425
667.850	4044
667.903	2624
667.955	1531
668.008	2142
668.060	2492
668.113	2299
668.165	2554
668.218	2388
668.270	2190
668.322	2770
668.375	3425
668.427	3132
668.479	1894
668.532	2486
668.584	2360
668.636	2993
668.689	3299
668.741	1992
668.793	2464
668.845	2291
668.898	2196
668.950	3053
669.002	2521
669.054	2480
669.106	1906
669.158	3248
669.211	3012
669.263	3332
669.315	4478
669.367	4794
669.419	3823
669.471	5436
669.523	4461
669.575	7336
669.627	6134
669.679	4151
669.731	3618
669.783	4993
669.835	4447
669.886	4650
669.938	4121
669.990	3938
670.042	3084
670.094	4893
670.146	4336
670.197	6266
670.249	6941
670.301	7859
670.353	11506
670.404	17446
670.456	23426
670.508	37068
670.560	57415
670.611	92544
670.663	156791
670.715	319275
670.766	569918
670.818	322062
670.869	69386
670.921	28577
670.972	17762
671.024	12112
671.075	9846
671.127	7859
671.178	6214
671.230	5374
671.281	5264
671.333	4910
671.384	4994
671.436	4775
671.487	5380
671.538	4485
671.590	4799
671.641	4866
671.692	5443
671.744	6930
671.795	7295
671.846	4292
671.897	3320
671.949	3957
672.000	3627
672.051	3031
672.102	3330
672.153	2996
672.204	3057
672.256	2627
672.307	2518
672.358	3886
672.409	3055
672.460	2732
672.511	2750
672.562	3131
672.613	2814
672.664	1819
672.715	2446
672.766	3154
672.817	2760
672.868	2609
672.919	2881
672.970	3049
673.021	2248
673.071	2652
673.122	2033
673.173	2659
673.224	1801
673.275	1787
673.326	904
673.376	3107
673.427	2076
673.478	2355
673.528	2690
673.579	2606
673.630	1986
673.680	3194
673.731	1680
673.782	2073
673.832	2381
673.883	2320
673.934	2293
673.984	2755
674.035	1057
674.085	2373
674.136	3457
674.186	2725
674.237	3566
674.287	5465
674.338	5099
674.388	2800
674.438	1521
674.489	2768
674.539	2175
674.589	2625
674.640	2539
674.690	2634
674.740	1769
674.791	2148
674.841	3016
674.891	3517
674.942	2369
674.992	2570
675.042	2182
675.092	1732
675.142	2353
675.193	2692
675.243	1754
675.293	2156
675.343	2139
675.393	2662
675.443	2872
675.493	3004
675.543	946
675.593	2081
675.643	2723
675.693	2134
675.743	2441
675.793	2897
675.843	1722
675.893	2803
675.943	3142
675.993	1940
676.043	1321
676.093	3286
676.142	1459
676.192	3113
676.242	2083
676.292	1696
676.341	1640
676.391	2381
676.441	2069
676.491	1826
676.540	1782
676.590	1527
676.640	2010
676.689	2311
676.739	1545
676.789	2300
676.838	2328
676.888	2242
676.937	1090
676.987	1832
677.037	1685
677.086	1834
677.136	1348
677.185	2628
677.235	1499
677.284	1234
677.333	451
677.383	2021
677.432	1243
677.482	1676
677.531	1961
677.580	1418
677.630	1263
677.679	2164
677.728	1006
677.778	2089
677.827	1336
677.876	1416
677.925	885
677.975	2007
678.024	1998
678.073	2034
678.122	1989
678.171	2232
678.220	1996
678.269	2423
678.319	1801
678.368	2454
678.417	1457
678.466	2390
678.515	1967
678.564	2429
678.613	1794
678.662	1353
678.711	1663
678.760	2501
678.809	1766
678.857	1906
678.906	1544
678.955	2266
679.004	2078
679.053	1931
679.102	1626
679.151	1345
679.199	1114
679.248	1408
679.297	1526
679.346	2590
679.394	1491
679.443	1810
679.492	1690
679.540	1021
679.589	1947
679.638	2116
679.686	1712
679.735	1694
679.784	1536
679.832	2553
679.881	1155
679.929	1947
679.978	1317
680.026	1358
680.075	1522
680.123	1431
680.172	1324
680.220	1447
680.268	1279
680.317	1684
680.365	1407
680.414	1248
680.462	1249
680.510	1474
680.559	1496
680.607	1518
680.655	1721
680.703	658
680.752	1485
680.800	1899
680.848	1518
680.896	1033
680.945	843
680.993	1183
681.041	1592
681.089	2095
681.137	1067
681.185	1662
681.233	1486
681.258	1252
681.281	1016
681.329	1559
681.377	967
681.380	1006
681.425	1453
681.473	2194
681.502	2030
681.521	1892
681.569	1905
681.617	969
681.624	1056
681.665	1520
681.713	1321
681.745	1894
681.761	2142
681.809	1378
681.857	1552
681.867	1515
681.904	1365
681.952	2452
681.989	1756
682.000	1525
682.048	1409
682.096	2337
682.111	2222
682.143	1949
682.191	1486
682.233	1882
682.239	1928
682.286	1928
682.334	2277
682.354	1908
682.382	1376
682.430	1479
682.476	1264
682.477	1248
682.525	2035
682.572	1502
682.598	1687
682.620	1822
682.667	1594
682.715	1919
682.720	2021
682.763	2854
682.810	2178
682.841	2291
682.857	2334
682.905	2105
682.952	2429
682.963	2460
683.000	2448
683.047	1321
683.085	2508
683.095	2832
683.142	1284
683.190	2684
683.206	2373
683.237	1795
683.284	2518
683.328	1900
683.332	1833
683.379	2311
683.426	2130
683.449	2455
683.473	2767
683.521	2214
683.568	2534
683.571	2488
683.615	1783
683.662	2436
683.693	2771
683.709	2916
683.757	2094
683.804	2046
683.814	2184
683.851	2693
683.898	2626
683.936	2709
683.945	2711
683.992	2632
684.039	3473
684.057	3211
684.086	2830
684.133	3022
684.179	3214
684.180	3205
684.227	3641
684.274	3518
684.300	3125
684.321	2817
684.368	3310
684.415	2747
684.422	2761
684.462	2811
684.509	2568
684.543	2996
684.556	3119
684.603	2562
684.649	2176
684.665	2283
684.696	2579
684.743	2511
684.786	3265
684.790	3319
684.837	3374
684.883	3657
684.908	3496
684.930	3336
684.977	3399
685.023	3264
685.029	3319
685.070	3592
685.117	3059
685.150	3061
685.164	3073
685.210	3610
685.257	3876
685.272	3671
685.303	3232
685.350	3494
685.393	3422
685.396	3421
685.443	4050
685.490	4843
685.514	4983
685.536	4917
685.583	4566
685.629	3892
685.636	3842
685.675	3735
685.722	3418
685.757	3871
685.768	4007
685.815	4214
685.861	4243
685.878	4190
685.908	4062
685.954	3956
686.000	4082
686.000	4083
686.047	4284
686.093	4997
686.121	5347
686.139	5432
686.185	5287
686.232	4225
686.242	4321
686.278	4680
686.324	3654
686.363	3757
686.370	3785
686.416	4165
686.463	4671
686.484	4704
686.509	4699
686.555	4202
686.601	3931
686.606	3992
686.647	4587
686.693	3616
686.727	4065
686.739	4240
686.785	4119
686.831	3985
686.848	4298
686.877	4718
686.923	3970
686.969	3809
686.969	3809
687.015	3903
687.061	4594
687.090	4721
687.107	4665
687.153	4794
687.199	4297
687.211	4150
687.245	3949
687.291	4124
687.332	4710
687.336	4755
687.382	5095
687.428	4126
687.453	4318
687.474	4447
687.520	4196
687.565	4332
687.574	4290
687.611	4227
687.657	4574
687.695	4457
687.702	4453
687.748	4767
687.794	4770
687.816	4918
687.839	4933
687.885	4329
687.931	4879
687.937	4778
687.976	4397
688.022	4498
688.058	4789
688.067	4838
688.113	4789
688.158	4892
688.179	4804
688.204	4802
688.249	5232
688.295	5361
688.300	5336
688.340	5000
688.386	5658
688.421	5389
688.431	5311
688.477	5080
688.522	4885
688.542	4950
688.567	5130
688.613	5043
688.658	4965
688.663	4960
688.703	4817
688.749	5433
688.784	4671
688.794	4478
688.839	4794
688.884	4634
688.905	4740
688.930	4854
688.975	4913
689.020	5042
689.026	5042
689.065	5348
689.110	5477
689.146	5687
689.155	5668
689.201	4985
689.246	5543
689.267	5328
689.291	5146
689.336	5004
689.381	5002
689.388	5056
689.426	5451
689.471	5174
689.509	4964
689.516	4934
689.561	5402
689.606	5134
689.630	5311
689.651	5523
689.696	5380
689.741	5629
689.750	5632
689.785	5402
689.830	5500
689.871	4736
689.875	4702
689.920	4991
689.965	5237
689.992	5381
690.010	5501
690.054	5738
690.099	6087
690.112	6108
690.144	6016
690.189	6210
690.233	5867
690.233	5874
690.278	5938
690.323	6139
690.354	5868
690.367	5914
690.412	6550
690.457	7110
690.474	7355
690.501	7457
690.546	7628
690.590	7199
690.595	7204
690.635	7910
690.680	8184
690.716	8814
690.724	9075
690.769	10508
690.813	12075
690.836	12476
690.857	13829
690.902	17564
690.946	21062
690.957	22055
690.991	30035
691.035	40679
691.077	52494
691.080	52850
691.124	54901
691.168	55377
691.198	55563
691.213	51612
691.257	41026
691.301	29905
691.318	25777
691.346	23078
691.390	18790
691.434	14546
691.439	14020
691.478	12513
691.522	11758
691.559	10170
691.567	10027
691.611	9747
691.655	9303
691.680	8620
691.699	8124
691.743	8384
691.787	7519
691.800	7332
691.831	7234
691.875	7323
691.919	7239
691.921	7223
691.964	7385
692.008	7668
692.041	7585
692.052	7575
692.096	7645
692.139	8085
692.162	8146
692.183	8002
692.227	7894
692.271	7390
692.282	7338
692.315	7563
692.359	7257
692.402	7696
692.403	7713
692.447	7344
692.490	7657
692.523	7694
692.534	7749
692.578	7738
692.622	7636
692.643	7748
692.666	7747
692.709	7310
692.753	7086
692.763	7022
692.797	7182
692.840	7277
692.884	7567
692.884	7584
692.928	7642
692.971	7447
693.004	7499
693.015	7686
693.059	8482
693.102	8893
693.124	9204
693.146	9292
693.189	9293
693.233	9428
693.245	9508
693.276	10333
693.320	11142
693.363	11831
693.365	11828
693.407	12652
693.450	14099
693.485	14980
693.493	15586
693.537	19026
693.580	22067
693.605	23786
693.624	26962
693.667	34618
693.710	42774
693.725	45564
693.753	61033
693.797	86026
693.840	112186
693.845	114949
693.883	119450
693.926	121012
693.966	123025
693.970	120757
694.013	95192
694.056	70622
694.086	53404
694.099	50247
694.142	39902
694.185	30153
694.206	25271
694.229	23766
694.272	20879
694.315	18266
694.326	17467
694.358	16354
694.401	15108
694.444	13732
694.446	13625
694.487	13062
694.530	12721
694.566	12084
694.573	11904
694.616	10774
694.659	9839
694.686	9214
694.702	9228
694.745	9079
694.787	8743
694.806	8712
694.830	8727
694.873	8628
694.916	8623
694.926	8602
694.959	8801
695.002	8598
695.044	8532
695.046	8528
695.087	8788
695.130	8646
695.166	8388
695.172	8404
695.215	8490
695.258	8676
695.286	8738
695.301	8645
695.343	8316
695.386	7960
695.406	7818
695.428	7918
695.471	7769
695.514	8112
695.526	8002
695.556	7871
695.599	8264
695.641	8449
695.646	8439
695.684	8234
695.726	7788
695.766	7767
695.769	7817
695.811	8064
695.854	8328
695.886	8398
695.896	8263
695.938	7741
695.981	7306
696.005	6856
696.023	6950
696.065	7425
696.108	7816
696.125	7884
696.150	7888
696.192	8124
696.235	8168
696.245	8207
696.277	8553
696.319	8755
696.361	9108
696.365	9105
696.404	9144
696.446	9285
696.485	9217
696.488	9239
696.530	9341
696.572	9350
696.604	9424
696.614	9378
696.656	9056
696.698	8623
696.724	8342
696.740	8388
696.783	8563
696.825	8763
696.844	8713
696.867	8651
696.909	8577
696.951	8631
696.964	8615
696.992	8562
697.034	8425
697.076	8232
697.083	8187
697.118	8164
697.160	8073
697.202	8014
697.203	7988
697.244	8015
697.286	8091
697.323	8071
697.327	8089
697.369	8152
697.411	8029
697.442	8013
697.453	8086
697.494	8194
697.536	8438
697.562	8497
697.578	8558
697.620	8709
697.661	8792
697.682	8830
697.703	8939
697.744	9168
697.786	9329
697.801	9367
697.828	9451
697.869	9571
697.911	9568
697.921	9561
697.952	9315
697.994	8941
698.035	8624
698.040	8553
698.077	8399
698.118	8202
698.160	7999
698.160	7973
698.201	7960
698.243	7904
698.279	7801
698.284	7842
698.325	8084
698.367	8275
698.399	8368
698.408	8349
698.449	8207
698.491	8024
698.518	7907
698.532	7930
698.573	7889
698.614	7866
698.638	7812
698.656	7907
698.697	8124
698.738	8315
698.757	8394
698.779	8470
698.820	8533
698.862	8633
698.877	8640
698.903	8795
698.944	9014
698.985	9227
698.996	9263
699.026	9310
699.067	9340
699.116	9350
699.235	8244
699.354	8418
699.474	8086
699.593	8971
699.713	9004
699.832	9896
699.951	8419
700.070	8912
700.190	8211
700.309	8729
700.428	9506
700.547	8851
700.667	8867
700.786	10081
700.905	8325
701.024	9329
701.143	8282
701.262	8903
701.381	7709
701.500	7473
701.619	9805
701.738	7941
701.857	8171
701.976	8412
702.095	7826
702.214	9000
702.333	9484
702.452	8509
702.571	8796
702.690	8075
702.809	6993
702.928	7181
703.047	8352
703.165	7837
703.284	7012
703.403	7418
703.522	8464
703.640	8801
703.759	9113
703.878	11457
703.997	7760
704.115	7318
704.234	8050
704.353	7519
704.471	6818
704.590	7144
704.708	6773
704.827	6762
704.946	7370
705.064	8554
705.183	7536
705.301	8074
705.420	10570
705.538	10098
705.656	9761
705.775	10373
705.893	19359
706.012	28263
706.130	9901
706.249	9666
706.367	9321
706.485	10252
706.604	9371
706.722	9008
706.840	10005
706.958	11214
707.077	8604
707.195	8557
707.313	8204
707.431	8289
707.549	8194
707.668	8830
707.786	8918
707.904	7995
708.022	7330
708.140	8125
708.258	7773
708.376	8624
708.494	7891
708.612	7829
708.730	11336
708.848	11584
708.966	10152
709.084	10670
709.202	9683
709.320	10188
709.438	9537
709.556	9982
709.674	8726
709.791	10305
709.909	9758
710.027	9724
710.145	9035
710.263	9225
710.380	8629
710.498	9516
710.616	9614
710.733	9684
710.851	9162
710.969	10579
711.086	8620
711.204	9685
711.322	8790
711.439	10032
711.557	9587
711.674	9775
711.792	8381
711.909	10367
712.027	11653
712.144	9168
712.262	8712
712.379	10289
712.497	12224
712.614	13027
712.732	10998
712.849	10168
712.966	11711
713.084	13816
713.201	11297
713.318	11044
713.436	10390
713.553	10006
713.670	10678
713.787	11780
713.905	10951
714.022	10379
714.139	10396
714.256	10968
714.373	10337
714.490	11567
714.608	15712
714.725	38414
714.842	46031
714.959	11275
715.076	9210
715.193	10032
715.310	9929
715.427	9333
715.544	8798
715.661	10033
715.778	8907
715.895	10214
716.011	10136
716.128	9432
716.245	9910
716.362	11823
716.479	12547
716.596	9802
716.713	8832
716.829	8786
716.946	9180
717.063	8606
717.180	8086
717.296	8532
717.413	8984
717.530	8942
717.646	8316
717.763	7778
717.880	7834
717.996	8542
718.113	8626
718.229	7967
718.346	7650
718.462	7815
718.579	10413
718.695	16180
718.812	13070
718.928	9758
719.045	8677
719.161	7807
719.277	7575
719.394	8058
719.510	8932
719.626	8437
719.743	8264
719.859	8877
719.975	8722
720.092	13613
720.208	25232
720.324	9639
720.440	7642
720.557	9667
720.673	13942
720.789	16832
720.905	30686
721.021	13868
721.137	8014
721.253	7877
721.369	7975
721.486	8280
721.602	11909
721.718	8064
721.834	6303
721.950	7442
722.066	6841
722.181	6839
722.297	8414
722.413	7642
722.529	7437
722.645	7208
722.761	6725
722.877	7402
722.993	6073
723.108	6782
723.224	6531
723.340	7159
723.456	6393
723.571	6735
723.687	6960
723.803	6482
723.918	5733
724.034	6665
724.150	5868
724.265	7932
724.381	12673
724.497	16302
724.612	7231
724.728	5429
724.843	5996
724.959	6726
725.074	11896
725.190	14313
725.305	7597
725.421	6324
725.536	6239
725.651	6044
725.767	5895
725.882	6083
725.997	5351
726.113	4977
726.228	5439
726.343	5348
726.459	5222
726.574	6266
726.689	5446
726.804	5920
726.920	5698
727.035	6115
727.150	6195
727.265	5657
727.380	6624
727.495	6592
727.610	5943
727.725	6528
727.841	7625
727.956	14293
728.071	12698
728.186	6106
728.301	5233
728.416	5905
728.531	5395
728.645	4873
728.760	6096
728.875	7208
728.990	6491
729.105	6488
729.220	5710
729.335	5885
729.449	5626
729.564	5588
729.679	5509
729.794	5382
729.908	6227
730.023	5354
730.138	4028
730.253	4609
730.367	4783
730.482	5393
730.596	4668
730.711	6066
730.826	5058
730.940	4846
731.055	5269
731.169	5867
731.284	4081
731.398	5398
731.513	6044
731.627	5081
731.742	5722
731.856	5171
731.970	5420
732.085	5353
732.199	5050
732.313	5821
732.428	6943
732.542	12956
732.656	9176
732.771	4743
732.885	4101
732.999	5544
733.113	4569
733.227	4670
733.342	4157
733.456	4817
733.570	3365
733.684	4370
733.798	3939
733.912	4442
734.026	3331
734.140	4177
734.254	5218
734.368	7702
734.482	9715
734.596	4428
734.710	3877
734.824	4074
734.938	4194
735.052	4841
735.166	5105
735.280	4991
735.393	3621
735.507	4541
735.621	5146
735.735	9370
735.849	4945
735.962	4205
736.076	4375
736.190	4802
736.303	6688
736.417	7606
736.531	4309
736.644	4239
736.758	3632
736.872	3634
736.985	3984
737.099	3707
737.212	4015
737.326	4288
737.439	3844
737.553	4421
737.666	4989
737.780	4424
737.893	3422
738.007	4459
738.120	3787
738.233	3368
738.347	3916
738.460	4462
738.573	4801
738.687	4754
738.800	4953
738.913	6414
739.026	5121
739.140	4200
739.253	4802
739.366	4504
739.479	3857
739.592	4754
739.705	3585
739.818	3575
739.932	4551
740.045	3771
740.158	3073
740.271	4511
740.384	3933
740.497	4257
740.610	4693
740.723	4939
740.836	4447
740.949	5376
741.062	5951
741.174	5825
741.287	4643
741.400	4464
741.513	4361
741.626	5204
741.739	4998
741.851	4104
741.964	4131
742.077	4643
742.189	4301
742.302	6103
742.415	4983
742.527	5117
742.640	3332
742.753	4457
742.865	3528
742.978	3961
743.090	3934
743.203	4645
743.316	3830
743.428	3908
743.541	3196
743.653	3987
743.766	3533
743.878	3700
743.990	5552
744.103	7116
744.215	6630
744.327	4362
744.440	5669
744.552	6820
744.664	4869
744.777	3475
744.889	3368
745.001	3263
745.113	2713
745.226	3029
745.338	4249
745.450	3184
745.562	4057
745.674	3802
745.786	3403
745.898	3875
746.010	3305
746.122	3860
746.234	3659
746.347	3705
746.459	3621
746.570	3508
746.682	5372
746.794	8225
746.906	4273
747.018	3907
747.130	3657
747.242	4117
747.354	4104
747.466	5005
747.577	3386
747.689	4002
747.801	3638
747.913	3902
748.024	2824
748.136	3482
748.248	3229
748.359	3787
748.471	3927
748.583	3870
748.694	3764
748.806	5341
748.918	4113
749.029	4470
749.141	4419
749.252	4627
749.364	4529
749.475	8400
749.587	6276
749.698	3175
749.809	2447
749.921	3169
750.032	3395
750.144	2727
750.255	3383
750.366	3547
750.478	3142
750.589	4369
750.700	4081
750.811	4614
750.923	4411
751.034	8494
751.145	9497
751.256	3311
751.367	3753
751.479	3667
751.590	3390
751.701	3479
751.812	3429
751.923	3770
752.034	3293
752.145	3395
752.256	3523
752.367	3938
752.478	4144
752.589	3619
752.700	3634
752.811	2889
752.922	3421
753.032	3567
753.143	3784
753.254	3979
753.365	3852
753.476	3856
753.586	3681
753.697	3989
753.808	3577
753.919	3749
754.029	3517
754.140	4067
754.251	3952
754.361	3985
754.472	3700
754.582	3495
754.693	3663
754.804	4186
754.914	4143
755.025	4237
755.135	3894
755.246	4714
755.356	4338
755.466	4642
755.577	4181
755.687	3797
755.798	3615
755.908	4111
756.018	4296
756.129	3812
756.239	4103
756.349	4645
756.460	4092
756.570	4819
756.680	4633
756.790	4833
756.900	4791
757.011	5198
757.121	4904
757.231	4845
757.341	4194
757.451	4641
757.561	4426
757.671	4106
757.781	4323
757.891	5119
758.001	5361
758.111	5638
758.221	5615
758.331	6209
758.441	5331
758.551	6550
758.661	7006
758.771	4944
758.880	5572
758.990	5121
759.100	5138
759.210	5770
759.320	5438
759.429	6122
759.539	6201
759.649	6247
759.758	5374
759.868	7234
759.978	6155
760.087	6477
760.197	6842
760.307	6538
760.416	6699
760.526	7026
760.635	7040
760.745	7589
760.854	7129
760.964	6884
761.073	8169
761.182	8588
761.292	7876
761.401	9396
761.511	8712
761.620	8891
761.729	9095
761.839	9935
761.948	10263
762.057	10468
762.166	10440
762.276	10226
762.385	11142
762.494	11878
762.603	12202
762.712	11984
762.822	12690
762.931	13167
763.040	13970
763.149	14243
763.258	14845
763.367	15741
763.476	16668
763.585	17328
763.694	18056
763.803	19190
763.912	21450
764.021	21482
764.130	21833
764.238	24242
764.347	26550
764.456	27748
764.565	30545
764.674	34268
764.783	37008
764.891	39203
765.000	45496
765.109	52143
765.217	58698
765.326	68762
765.435	80894
765.543	96840
765.652	120124
765.761	154782
765.869	201897
765.978	273434
766.086	386363
766.195	555161
766.303	737120
766.412	647777
766.520	616933
766.629	688393
766.737	527670
766.846	374522
766.954	267101
767.062	200091
767.171	154206
767.279	120377
767.387	95438
767.496	80576
767.604	69659
767.712	59847
767.820	52405
767.928	49585
768.037	44808
768.145	42847
768.253	40717
768.361	38917
768.469	39081
768.577	40471
768.685	41686
768.793	45157
768.901	48880
769.009	57582
769.117	67793
769.225	86140
769.333	117734
769.441	170694
769.549	266020
769.657	442515
769.765	652087
769.873	588797
769.981	595652
770.088	431474
770.196	267599
770.304	181471
770.412	131809
770.519	98313
770.627	78876
770.735	64418
770.842	52986
770.950	46311
771.058	39007
771.165	35765
771.273	31117
771.380	28295
771.488	25700
771.595	23297
771.703	21566
771.810	21216
771.918	19872
772.025	17924
772.133	16861
772.240	16310
772.348	15099
772.455	14950
772.562	13292
772.670	12148
772.777	12129
772.884	12257
772.991	11237
773.099	11748
773.206	10777
773.313	10412
773.420	10227
773.528	9728
773.635	8998
773.742	9257
773.849	8477
773.956	8491
774.063	8321
774.170	7931
774.277	7555
774.384	8069
774.491	7431
774.598	7301
774.705	7437
774.812	8800
774.919	7736
775.026	6900
775.133	6157
775.239	6882
775.346	6123
775.453	6132
775.560	6114
775.667	6202
775.773	5585
775.880	6142
775.987	5340
776.093	6061
776.200	5223
776.307	5772
776.413	5084
776.520	5219
776.627	4838
776.733	5039
776.840	3572
776.946	6637
777.053	8704
777.159	13144
777.266	8713
777.372	13388
777.478	11285
777.585	6947
777.691	4613
777.798	5118
777.904	5478
778.010	6490
778.117	5881
778.223	4071
778.329	4194
778.435	4853
778.542	3265
778.648	3967
778.754	3919
778.860	4311
778.966	3948
779.072	4202
779.178	4415
779.284	3374
779.391	4253
779.497	4705
779.603	7640
779.708	10397
779.815	26277
779.920	90425
780.026	171655
780.132	40074
780.238	7751
780.344	5902
780.450	4653
780.556	4490
780.661	3860
780.767	3941
780.873	2686
780.979	3306
781.085	2978
781.190	3295
781.296	3165
781.402	2634
781.507	2548
781.613	2751
781.719	1661
781.824	3011
781.930	3050
782.035	2995
782.141	3504
782.246	3180
782.352	3186
782.457	2376
782.563	3012
782.668	2062
782.773	2991
782.879	2484
782.984	2580
783.090	3233
783.195	4380
783.300	3791
783.405	3059
783.511	2758
783.616	2627
783.721	2955
783.826	2413
783.932	2375
784.037	1765
784.142	3114
784.247	3145
784.352	2481
784.457	2133
784.562	2809
784.667	1811
784.772	2827
784.877	2252
784.982	2245
785.087	2183
785.192	2453
785.297	2470
785.402	1911
785.507	2004
785.611	1808
785.716	1710
785.821	2289
785.926	1946
786.031	1981
786.135	2071
786.240	2259
786.345	578
786.450	1632
786.554	1430
786.659	1531
786.763	1571
786.868	2611
786.973	1846
787.077	1293
787.182	2047
787.286	1263
787.391	1256
787.495	2008
787.600	1473
787.704	775
787.809	1317
787.913	1017
788.017	2031
788.122	2536
788.226	1568
788.330	772
788.435	1302
788.539	1434
788.643	1593
788.747	2048
788.852	1553
788.956	1222
789.060	1647
789.164	1460
789.268	1109
789.372	1433
789.476	772
789.580	1526
789.684	1449
789.788	1754
789.892	1680
789.996	1786
790.100	1045
790.204	933
790.308	1344
790.412	1696
790.516	2021
790.620	2408
790.724	866
790.828	1809
790.931	75
791.035	1995
791.139	1623
791.242	2086
791.346	1967
791.450	1348
791.554	1663
791.657	489
791.761	2240
791.864	1726
791.968	1404
792.072	2043
792.175	2016
792.279	1606
792.382	1213
792.486	1698
792.589	950
792.693	1222
792.796	610
792.899	1575
793.003	1544
793.106	409
793.209	877
793.313	2150
793.416	16
793.519	2372
793.623	2690
793.726	4100
793.829	1677
793.932	2573
794.035	1186
794.138	2200
794.242	2845
794.345	3484
794.448	7340
794.551	15649
794.654	50080
794.757	103055
794.860	25416
794.963	4262
795.066	1758
795.169	2706
795.272	1154
795.375	1312
795.477	1220
795.580	2127
795.683	155
795.786	1506
795.889	298
795.991	2079
796.094	1283
796.197	466
796.300	1248
796.402	648
796.505	764
796.608	1395
796.710	1180
796.813	1045
796.915	852
797.018	1340
797.120	675
797.223	629
797.326	863
797.428	779
797.530	572
797.633	1597
797.735	1592
797.838	1600
797.940	1405
798.042	759
798.145	153
798.247	1001
798.349	33
798.452	1541
798.554	1115
798.656	402
798.758	1100
798.860	134
798.962	866
799.065	-154
799.167	-795
799.269	1729
799.371	820
799.473	1066
799.575	739
799.677	1343
799.779	2491
799.881	1249
799.983	1525
800.085	625
800.187	534
800.289	-96
800.390	373
800.492	1339
800.594	606
800.696	1043
800.798	1006
800.899	1282
801.001	-631
801.103	202
801.205	354
801.306	579
801.408	-277
801.509	218
801.611	648
801.713	-34
801.814	950
801.916	-132
802.017	171
802.119	409
802.220	900
802.322	-1735
802.423	1917
802.525	134
802.626	158
802.727	-2
802.829	372
802.930	-847
803.031	1961
803.133	709
803.234	454
803.335	233
803.436	-240
803.538	127
803.639	-781
803.740	367
803.841	-545
803.942	388
804.043	-4
804.144	161
804.245	309
804.346	752
804.447	166
804.548	1007
804.649	2136
804.750	883
804.851	237
804.952	-186
805.053	-762
805.154	-168
805.255	1033
805.355	-512
805.456	-461
805.557	-321
805.658	-713
805.758	558
805.859	498
805.960	378
806.061	-462
806.161	-326
806.262	83
806.362	-193
806.463	-251
806.564	505
806.664	185
806.765	913
806.865	444
806.966	94
807.066	528
807.166	913
807.267	565
807.367	206
807.468	663
807.568	19
807.668	743
807.769	1163
807.869	301
807.969	302
808.069	37
808.170	-162
808.270	-402
808.370	527
808.470	467
808.570	1514
808.670	97
808.770	-85
808.870	-272
808.970	431
809.070	521
809.170	-410
809.271	-697
809.370	-168
809.470	247
809.570	113
809.670	170
809.770	275
809.870	-413
809.970	623
810.070	326
810.169	882
810.269	-1422
810.369	484
810.469	-328
810.568	945
810.668	-837
810.768	591
810.867	-430
810.967	211
811.066	280
811.166	109
811.265	378
811.365	-317
811.464	-614
811.564	554
811.663	607
811.763	-589
811.862	254
811.962	623
812.061	-82
812.160	-780
812.260	149
812.359	622
812.458	1489
812.557	3759
812.657	7492
812.756	3356
812.855	645
812.954	-808
813.053	489
813.153	441
813.252	281
813.351	914
813.450	91
813.549	446
813.648	65
813.747	623
813.846	554
813.945	-66
814.044	-190
814.143	363
814.242	-13
814.341	-163
814.439	300
814.538	871
814.637	-87
814.736	819
814.835	812
814.933	580
815.032	904
815.131	395
815.229	473
815.328	733
815.427	329
815.525	920
815.624	66
815.722	342
815.821	365
815.919	-81
816.018	-16
816.116	1308
816.215	547
816.313	1674
816.412	751
816.510	1766
816.609	1931
816.707	1789
816.805	882
816.904	1582
817.002	1995
817.100	2634
817.198	2657
817.296	2560
817.395	3681
817.493	5018
817.591	5778
817.689	7718
817.787	10507
817.885	17166
817.983	30761
818.081	61434
818.179	135166
818.277	305996
818.375	313486
818.473	128667
818.571	52643
818.669	30912
818.767	25453
818.865	23885
818.963	26408
819.061	37260
819.158	60448
819.256	117451
819.354	244895
819.452	468448
819.549	378845
819.647	167598
819.745	72910
819.842	42274
819.940	26919
820.038	19311
820.135	14825
820.233	10778
820.330	8908
820.428	6484
820.525	6972
820.623	4272
820.720	4547
820.818	5057
820.915	3396
821.012	3861
821.110	2224
821.207	2280
821.304	2263
821.402	1986
821.499	3263
821.596	4697
821.693	2812
821.791	2228
821.888	1714
821.985	4494
822.082	3049
822.179	3168
822.276	1205
822.373	948
822.470	871
822.567	668
822.664	320
822.761	1245
822.858	253
822.955	1062
823.052	868
823.149	481
823.246	477
823.343	-275
823.440	996
823.536	-23
823.633	-153
823.730	443
823.827	452
823.923	-68
824.020	1139
824.117	211
824.213	437
824.310	933
824.407	-307
824.503	238
824.600	839
824.696	236
824.793	770
824.889	-31
824.986	79
825.082	437
825.179	159
825.275	293
825.371	-289
825.468	376
825.564	-669
825.660	387
825.757	-110
825.853	-88
825.949	-1087
826.045	460
826.142	-938
826.238	-192
826.334	-149
826.430	-913
826.526	94
826.622	-548
826.718	-152
826.814	358
826.910	-94
827.006	183
827.102	-963
827.198	464
827.294	-1458
827.390	25
827.486	470
827.582	-1102
827.678	-792
827.774	-123
827.869	-1094
827.965	886
828.061	-1290
828.157	-467
828.252	-44
828.348	-252
828.444	331
828.539	-402
828.635	-642
828.731	196
828.826	-1119
828.922	-47
829.017	-252
829.113	40
829.208	-375
829.304	-1033
829.399	239
829.495	-187
829.590	-666
829.685	-911
829.781	23
829.876	-1414
829.971	-710
830.066	-221
830.162	-673
830.257	-438
830.352	-122
830.447	63
830.543	-476
830.638	-1159
830.733	-96
830.828	-776
830.923	-137
831.018	160
831.113	-626
831.208	-850
831.303	-310
831.398	-250
831.493	-627
831.588	15
831.683	-1469
831.778	-201
831.873	-852
831.967	105
832.062	-291
832.157	-1333
832.252	-311
832.346	-737
832.441	5
832.536	427
832.631	2906
832.725	1842
832.820	-303
832.914	-803
833.009	-640
833.104	-75
833.198	616
833.293	-268
833.387	-668
833.482	83
833.576	-1039
833.670	-310
833.765	-937
833.859	-313
833.954	135
834.048	-503
834.142	-262
834.237	-616
834.331	-242
834.425	147
834.519	-1720
834.613	897
834.708	-629
834.802	-496
834.896	-1078
834.990	-876
835.084	-326
835.178	-49
835.272	-1361
835.366	-945
835.460	-95
835.554	316
835.648	-159
835.742	193
835.836	-496
835.930	-1215
836.024	-1029
836.117	641
836.211	-177
836.305	734
836.399	673
836.493	-794
836.586	-284
836.680	-922
836.774	-1018
836.867	1043
836.961	-1461
837.055	-1296
837.148	-826
837.242	-236
837.335	-777
837.429	14
837.522	-556
837.616	632
837.709	538
837.803	1483
837.896	644
837.989	-565
838.083	808
838.176	1800
838.269	1530
838.363	334
838.456	-654
838.549	1068
838.642	1126
838.735	2940
838.829	1464
838.922	-826
839.015	-605
839.108	-569
839.201	271
839.294	-238
839.387	-473
839.480	-485
839.573	-138
839.666	1102
839.759	-1294
839.852	-1502
839.945	-688
840.038	-392
840.131	-1079
840.223	-159
840.316	85
840.409	-367
840.502	-1774
840.594	1387
840.687	-1528
840.780	-235
840.873	-758
840.965	-341
841.058	7
841.150	1484
841.243	-233
841.336	352
841.428	-674
841.521	-1091
841.613	-394
841.706	-212
841.798	-389
841.890	-29
841.983	-1160
842.075	-283
842.167	-1117
842.260	-324
842.352	-1
842.444	163
842.537	1675
842.629	3383
842.721	199
842.813	-214
842.905	-1299
842.997	648
843.090	148
843.182	1005
843.274	2334
843.366	6314
843.458	11906
843.550	7517
843.642	20
843.734	619
843.826	156
843.918	386
844.009	-158
844.101	-567
844.193	-844
844.285	-41
844.377	486
844.469	1487
844.560	679
844.652	1199
844.744	234
844.835	-128
844.927	48
845.019	-10
845.110	-568
845.202	75
845.293	-1178
845.385	-381
845.476	-387
845.568	182
845.659	-396
845.751	-382
845.842	-791
845.934	-833
846.025	-321
846.116	-566
846.208	-690
846.299	-822
846.390	-985
846.482	-284
846.573	96
846.664	436
846.755	769
846.846	1272
846.937	-925
847.029	-483
847.120	-968
847.211	-606
847.302	60
847.393	-626
847.484	-50
847.575	-651
847.666	-893
847.757	-52
847.847	-187
847.938	-50
848.029	-1015
848.120	-124
848.211	-455
848.302	98
848.392	-125
848.483	-901
848.574	-646
848.664	-252
848.755	-849
848.846	-173
848.936	-1039
849.027	-425
849.118	-224
849.208	-514
849.299	-131
849.389	-457
849.480	464
849.570	-70
849.661	1407
849.751	2389
849.841	-2
849.932	-294
850.022	-751
850.112	-540
850.203	-1643
850.293	-412
850.383	-647
850.474	-323
850.564	-532
850.654	-140
850.744	-366
850.834	202
850.924	-443
851.014	39
851.104	-589
851.194	-94
851.284	18
851.374	452
851.464	-302
851.554	170
851.644	82
851.734	1470
851.824	890
851.914	558
852.004	3122
852.094	2559
852.183	-39
852.273	-208
852.363	-1329
852.452	-229
852.542	-700
852.632	-1300
852.721	-353
852.811	-1239
852.901	151
852.990	-214
853.080	-1055
853.169	-40
853.259	-669
853.348	-952
853.438	-854
853.527	439
853.617	-688
853.706	783
853.795	488
853.885	3369
853.974	5942
854.063	11674
854.152	18619
854.242	7311
854.331	672
854.420	-483
854.509	-518
854.598	-62
854.687	-268
854.777	-372
854.866	-1047
854.955	172
855.044	-1432
855.133	-574
855.222	-1425
855.311	-116
855.400	-488
855.488	-115
855.577	-940
855.666	318
855.755	-63
855.844	46
855.933	269
856.021	17
856.110	-504
856.199	-1148
856.288	-1092
856.376	-519
856.465	-1387
856.554	-737
856.642	-569
856.731	491
856.819	-567
856.908	-361
856.996	-440
857.085	-400
857.173	-1329
857.262	-693
857.350	-60
857.438	-571
857.527	-580
857.615	-1089
857.703	-1142
857.792	341
857.880	-725
857.968	-1121
858.056	-606
858.145	-600
858.233	-945
858.321	-1148
858.409	-549
858.497	-1136
858.585	-1648
858.673	-221
858.761	-1820
858.849	-1081
858.937	-1537
859.025	188
859.113	-470
859.201	-1088
859.289	162
859.377	-803
859.465	-1215
859.552	-304
859.640	-617
859.728	-838
859.816	-904
859.903	-536
859.991	-667
860.079	216
860.166	-590
860.254	-921
860.342	53
860.429	-1200
860.517	-1168
860.604	-487
860.692	-724
860.779	-676
860.867	-820
860.954	-187
861.042	-353
861.129	-682
861.216	-1014
861.304	-326
861.391	-1033
861.478	-357
861.565	-1048
861.653	-240
861.740	-584
861.827	-1196
861.914	-1597
862.001	-945
862.089	-278
862.176	-719
862.263	-1147
862.350	-1289
862.437	-981
862.524	-1263
862.611	-686
862.698	195
862.785	159
862.871	160
862.958	-849
863.045	-657
863.132	-817
863.219	-42
863.306	-1825
863.392	364
863.479	-1598
863.566	-858
863.652	-1351
863.739	-511
863.826	-1019
863.912	-674
863.999	-2174
864.086	-907
864.172	-990
864.259	-310
864.345	-1002
864.432	-419
864.518	-1089
864.604	-1089
864.691	-1148
864.777	-485
864.863	-998
864.950	-1093
865.036	-1077
865.122	-98
865.209	-560
865.295	-638
865.381	-858
865.467	148
865.553	-319
865.639	-1248
865.726	-1455
865.812	640
865.898	2891
865.984	4195
866.070	7882
866.156	10601
866.242	1119
866.328	-428
866.414	-865
866.499	-202
866.585	-1003
866.671	-713
866.757	-397
866.843	-1068
866.928	-926
867.014	-1257
867.100	-1029
867.186	-1064
867.271	-886
867.357	85
867.442	659
867.528	-125
867.614	-137
867.699	-176
867.785	1015
867.870	1305
867.956	1782
868.041	1115
868.127	570
868.212	937
868.297	548
868.383	62
868.468	203
868.553	1337
868.639	959
868.724	3062
868.809	3749
868.894	67
868.979	-345
869.065	33
869.150	-791
869.235	-1013
869.320	-1221
869.405	-668
869.490	-1396
869.575	-328
869.660	-842
869.745	-807
869.830	-992
869.915	-501
870.000	-941
870.085	348
870.169	-611
870.254	37
870.339	-1224
870.424	-1086
870.509	-403
870.593	204
870.678	-1500
870.763	-1479
870.847	-467
870.932	-825
871.016	-176
871.101	657
871.186	-1812
871.270	-330
871.355	-1063
871.439	-820
871.523	-662
871.608	-126
871.692	-1058
871.777	-328
871.861	-984
871.945	-845
872.030	-18
872.114	-705
872.198	-896
872.282	-974
872.367	-962
872.451	-1389
872.535	-32
872.619	-479
872.703	-663
872.787	-616
872.871	-1031
872.955	-687
873.039	-677
873.123	-1555
873.207	-606
873.291	-1029
873.375	-1370
873.459	-1176
873.543	-1190
873.627	-859
873.711	-998
873.794	-320
873.878	-1064
873.962	-1426
874.045	-831
874.129	-771
874.137	-809
874.213	-1201
874.245	-1225
874.296	-1258
874.352	-1435
874.380	-1523
874.460	-1116
874.464	-1101
874.547	-581
874.568	-429
874.631	-6
874.676	-660
874.714	-1198
874.784	-49
874.798	187
874.881	-15
874.892	-109
874.965	-814
874.999	-774
875.048	-714
875.107	-960
875.131	-1071
875.215	-338
875.215	-337
875.298	-72
875.323	-404
875.381	-1201
875.430	-1097
875.465	-1014
875.538	-534
875.548	-474
875.631	86
875.646	-130
875.714	-1168
875.753	-907
875.798	-573
875.861	-772
875.881	-863
875.964	-630
875.968	-624
876.047	-344
876.076	-157
876.130	98
876.183	-426
876.213	-697
876.291	-57
876.296	-20
876.379	-1458
876.398	-1161
876.462	8
876.506	-128
876.545	-394
876.613	-111
876.628	-9
876.711	-400
876.721	-398
876.794	-526
876.828	-555
876.877	-540
876.935	-114
876.960	89
877.043	-510
877.043	-505
877.125	748
877.150	455
877.208	-250
877.258	4
877.291	207
877.365	-35
877.374	-59
877.456	723
877.472	749
877.539	751
877.579	327
877.622	-146
877.687	-247
877.704	-203
877.787	290
877.794	303
877.869	189
877.901	390
877.952	745
878.008	227
878.034	-15
878.115	7
878.117	12
878.199	-262
878.222	-100
878.282	204
878.329	71
878.364	96
878.437	542
878.447	546
878.529	-698
878.544	-648
878.611	-60
878.651	286
878.694	562
878.758	164
878.776	102
878.858	51
878.865	67
878.941	52
878.972	-142
879.023	-313
879.078	350
879.105	558
879.185	525
879.187	532
879.269	-7
879.292	-23
879.351	-142
879.399	-102
879.433	-41
879.506	399
879.516	458
879.598	529
879.613	424
879.680	-1
879.720	278
879.762	595
879.827	309
879.844	193
879.926	442
879.933	406
880.007	235
880.040	362
880.089	511
880.147	452
880.171	421
880.253	756
880.254	756
880.335	1457
880.360	1629
880.417	2285
880.467	2979
880.499	3489
880.574	5665
880.580	5717
880.662	2450
880.680	1983
880.744	775
880.787	642
880.825	709
880.893	3
880.907	-97
880.989	441
881.000	481
881.070	697
881.106	530
881.152	170
881.213	236
881.233	315
881.315	350
881.319	340
881.396	602
881.426	654
881.478	484
881.532	421
881.559	461
881.639	573
881.641	574
881.722	748
881.745	672
881.803	837
881.852	959
881.885	905
881.958	1030
881.966	1036
882.047	1142
882.064	993
882.129	728
882.171	1156
882.210	1753
882.277	2332
882.291	2289
882.372	1348
882.383	1202
882.454	382
882.489	267
882.535	421
882.596	453
882.616	426
882.697	633
882.702	619
882.778	495
882.808	537
882.859	380
882.914	248
882.940	445
883.020	929
883.021	936
883.102	569
883.127	616
883.183	554
883.233	624
883.264	851
883.339	869
883.345	835
883.426	680
883.445	653
883.507	1128
883.551	1192
883.587	882
883.657	739
883.668	761
883.749	821
883.763	766
883.830	1067
883.869	1299
883.910	1328
883.975	1125
883.991	1032
884.072	1112
884.081	1067
884.152	766
884.187	602
884.233	475
884.292	874
884.314	1172
884.394	1145
884.398	1174
884.475	1029
884.504	742
884.555	757
884.610	993
884.636	965
884.716	1136
884.716	1148
884.797	1462
884.821	1579
884.877	1374
884.927	1138
884.958	1039
885.033	834
885.038	859
885.118	1322
885.139	1307
885.199	1007
885.244	1000
885.279	1155
885.350	1227
885.359	1228
885.439	1300
885.456	1265
885.520	1020
885.561	1059
885.600	1108
885.667	1027
885.680	1145
885.760	1742
885.773	1819
885.840	1842
885.878	1990
885.920	2032
885.984	1702
886.000	1710
886.080	1847
886.089	1868
886.160	1875
886.195	1816
886.240	1772
886.300	1758
886.320	1789
886.400	1660
886.406	1661
886.480	1912
886.511	1935
886.560	1909
886.616	1896
886.640	2001
886.720	2118
886.722	2112
886.800	1878
886.827	1819
886.879	1757
886.932	1424
886.959	1530
887.038	2361
887.039	2371
887.119	1835
887.143	1854
887.198	2105
887.248	1950
887.278	1973
887.354	2289
887.358	2305
887.437	2323
887.459	2305
887.517	2504
887.564	2724
887.596	2585
887.669	2061
887.676	2085
887.755	2385
887.774	2417
887.835	2483
887.880	2565
887.914	2683
887.985	2807
887.994	2765
888.073	2404
888.090	2272
888.153	2405
888.195	2538
888.232	2468
888.300	2320
888.311	2355
888.391	2502
888.405	2512
888.470	2421
888.510	2314
888.549	2600
888.615	3234
888.628	3161
888.708	2500
888.720	2394
888.787	2762
888.825	2889
888.866	2480
888.930	1947
888.945	2067
889.024	2544
889.035	2608
889.103	2576
889.140	2521
889.182	2946
889.245	3559
889.261	3517
889.340	3223
889.349	3179
889.419	3003
889.454	2889
889.498	2776
889.559	2615
889.577	2715
889.656	3101
889.664	3131
889.735	3099
889.768	3069
889.814	3263
889.873	3494
889.978	2596
890.083	3165
890.187	2534
890.292	2854
890.397	3147
890.501	2885
890.606	2792
890.710	3042
890.815	3253
890.919	3301
891.024	2735
891.128	2970
891.233	3078
891.337	3379
891.442	2866
891.546	2491
891.650	3262
891.755	2774
891.859	5019
891.963	3306
892.068	2811
892.172	2544
892.276	2562
892.380	2458
892.484	1834
892.589	1932
892.693	1588
892.797	3485
892.901	2254
893.005	2723
893.109	1964
893.213	2561
893.317	2339
893.421	3087
893.525	2771
893.629	2854
893.733	3116
893.837	3113
893.941	1941
894.045	4276
894.148	4920
894.252	10380
894.356	8507
894.460	2863
894.564	2306
894.667	2893
894.771	2722
894.875	2282
894.978	2558
895.082	3025
895.186	2414
895.289	2437
895.393	2183
895.496	1971
895.600	2150
895.703	3085
895.807	3004
895.910	2755
896.014	2371
896.117	3084
896.221	2285
896.324	2366
896.427	2375
896.531	2683
896.634	2575
896.737	2827
896.840	1886
896.944	3330
897.047	1351
897.150	2108
897.253	2249
897.356	3091
897.460	2302
897.563	2237
897.666	1852
897.769	2497
897.872	1917
897.975	3034
898.078	2197
898.181	1707
898.284	1456
898.387	2636
898.490	2340
898.593	2525
898.695	1829
898.798	2456
898.901	3381
899.004	2948
899.107	2149
899.209	2297
899.312	2290
899.415	2232
899.518	1839
899.620	1988
899.723	2168
899.826	3536
899.928	2585
900.031	2171
900.133	2606
900.236	1678
900.338	1980
900.441	1458
900.543	1632
900.646	2451
900.748	2083
900.851	1987
900.953	1761
901.055	2768
901.158	2742
901.260	2585
901.362	2127
901.465	1620
901.567	2440
901.669	2463
901.771	1968
901.873	1838
901.976	2396
902.078	1933
902.180	2391
902.282	2901
902.384	1760
902.486	2377
902.588	2899
902.690	4192
902.792	3372
902.894	2643
902.996	1929
903.098	2311
903.200	1514
903.302	2803
903.404	1731
903.505	2390
903.607	1961
903.709	2204
903.811	2157
903.913	1312
904.014	2730
904.116	1918
904.218	2315
904.319	2479
904.421	3185
904.523	2801
904.624	1983
904.726	2478
904.827	2380
904.929	3208
905.030	2349
905.132	2080
905.233	2359
905.335	2457
905.436	1893
905.537	2134
905.639	1900
905.740	2448
905.841	2610
905.943	2565
906.044	3037
906.145	3257
906.247	1904
906.348	2321
906.449	1839
906.550	1589
906.651	2629
906.752	2400
906.854	1448
906.955	2159
907.056	2335
907.157	1977
907.258	2105
907.359	1748
907.460	2393
907.561	2542
907.662	2151
907.762	1529
907.863	2217
907.964	2459
908.065	2450
908.166	2271
908.267	2433
908.367	1833
908.468	2367
908.569	2042
908.670	2452
908.770	3183
908.871	3046
908.971	4297
909.072	4069
909.173	2796
909.273	1339
909.374	1851
909.474	2604
909.575	2371
909.675	1650
909.776	2191
909.876	2141
909.977	2718
910.077	2555
910.177	1834
910.278	1199
910.378	1404
910.478	1820
910.579	2915
910.679	1462
910.779	2255
910.879	2351
910.980	2234
911.080	1144
911.180	2203
911.280	1830
911.380	2110
911.480	2004
911.580	1486
911.680	1952
911.780	2658
911.880	2019
911.980	1901
912.080	1820
912.180	2818
912.280	1670
912.380	2299
912.480	2069
912.580	2863
912.679	1426
912.779	2196
912.879	2252
912.979	2007
913.078	1784
913.178	1980
913.278	2001
913.377	2358
913.477	2168
913.577	2132
913.676	2241
913.776	2410
913.875	2702
913.975	2254
914.074	1863
914.174	1521
914.273	1510
914.373	2619
914.472	2067
914.572	2301
914.671	1559
914.770	1563
914.870	2409
914.969	2035
915.068	1603
915.167	2047
915.267	2054
915.366	1350
915.465	2120
915.564	2002
915.663	2544
915.763	1039
915.862	2173
915.961	1934
916.060	1292
916.159	2091
916.258	1679
916.357	2365
916.456	1908
916.555	2004
916.654	1452
916.752	2353
916.851	1634
916.950	2624
917.049	920
917.148	1876
917.247	2320
917.345	2206
917.444	1711
917.543	2107
917.642	1609
917.740	2048
917.839	2286
917.937	2399
918.036	1957
918.135	2162
918.233	2191
918.332	1384
918.430	2057
918.529	2451
918.627	1265
918.726	3005
918.824	1933
918.923	2745
919.021	2060
919.119	1992
919.218	2079
919.316	2378
919.414	1830
919.512	1758
919.611	2263
919.709	2389
919.807	2057
919.905	1841
920.003	1951
920.102	2198
920.200	1375
920.298	2220
920.396	1520
920.494	1813
920.592	2057
920.690	2226
920.788	1569
920.886	2228
920.984	1366
921.082	2264
921.180	3259
921.277	1799
921.375	1756
921.473	1954
921.571	1680
921.669	2629
921.766	2323
921.864	2031
921.962	2531
922.060	2578
922.157	2052
922.255	2169
922.352	2828
922.450	2513
922.548	1914
922.645	2620
922.743	2367
922.840	1642
922.938	1690
923.035	3003
923.133	2256
923.230	2157
923.327	1909
923.425	1991
923.522	1500
923.619	1437
923.717	1859
923.814	1719
923.911	1973
924.008	3135
924.106	1176
924.203	2227
924.300	2771
924.397	2558
924.494	2570
924.591	1653
924.688	2239
924.786	2344
924.883	2870
924.979	2732
925.077	2452
925.173	1932
925.270	2776
925.367	1621
925.464	1518
925.561	1389
925.658	1695
925.755	3082
925.852	2870
925.948	2165
926.045	3398
926.142	2896
926.239	3149
926.335	3368
926.432	3006
926.529	2986
926.625	2963
926.722	3362
926.818	2233
926.915	2356
927.011	1071
927.108	2121
927.204	2064
927.301	2240
927.397	2104
927.494	2171
927.590	2216
927.687	2249
927.783	2192
927.879	1996
927.976	2331
928.072	1638
928.168	1544
928.264	2562
928.361	1606
928.457	2140
928.553	2124
928.649	2077
928.745	1961
928.841	2078
928.937	1833
929.033	2273
929.129	1955
929.225	2194
929.321	1906
929.417	1793
929.513	1019
929.609	1231
929.705	1734
929.801	1691
929.897	2251
929.993	1332
930.089	1942
930.184	1984
930.280	2390
930.376	2381
930.471	2282
930.567	2076
930.663	1782
930.758	1645
930.854	1881
930.950	2412
931.045	1888
931.141	2436
931.236	1905
931.332	2005
931.427	1739
931.523	1690
931.618	1827
931.714	1817
931.809	1571
931.905	2002
932.000	1622
932.095	2050
932.191	1691
932.286	1295
932.381	2152
932.476	2511
932.572	1738
932.667	3290
932.762	1827
932.857	2453
932.952	1671
933.047	2670
933.142	1831
933.237	1975
933.332	2281
933.427	2261
933.522	1683
933.617	1215
933.712	2322
933.807	2484
933.902	1927
933.997	2269
934.092	945
934.187	2101
934.282	2095
934.376	1711
934.471	872
934.566	1372
934.661	1689
934.755	2212
934.850	1658
934.945	2403
935.039	2061
935.134	1645
935.228	1372
935.323	1542
935.417	1779
935.512	1620
935.606	1462
935.701	1358
935.795	1767
935.890	2245
935.984	1680
936.079	1829
936.173	2765
936.267	2450
936.362	1132
936.456	2316
936.550	1589
936.644	2293
936.738	1898
936.833	1932
936.927	2508
937.021	2604
937.115	1883
937.209	779
937.303	1613
937.397	1953
937.491	1492
937.585	2688
937.679	1570
937.773	2089
937.867	1513
937.961	1761
938.055	722
938.149	1714
938.243	1462
938.337	1312
938.430	1673
938.524	2385
938.618	3591
938.712	2625
938.805	1072
938.899	1589
938.993	1509
939.086	1756
939.180	4303
939.274	4177
939.367	2241
939.461	2844
939.554	2241
939.648	2379
939.741	1467
939.835	1355
939.928	1319
940.022	2157
940.115	1309
940.208	1755
940.302	2119
940.395	1564
940.488	719
940.582	1385
940.675	871
940.768	1332
940.861	1079
940.954	2496
941.048	1298
941.141	1718
941.234	1402
941.327	1392
941.420	2289
941.513	1507
941.606	1174
941.699	2638
941.792	1899
941.885	1328
941.978	1916
942.071	1690
942.164	1306
942.257	1386
942.349	1634
942.442	803
942.535	1262
942.628	1498
942.721	2029
942.813	683
942.906	758
942.999	1407
943.091	1192
943.184	1445
943.277	1216
943.369	1418
943.462	1159
943.554	1725
943.647	468
943.739	1947
943.832	656
943.924	1232
944.017	2118
944.109	653
944.201	892
944.294	1636
944.386	1056
944.478	159
944.571	932
944.663	1150
944.755	1636
944.847	1435
944.940	1888
945.032	1946
945.124	1349
945.216	1763
945.308	1919
945.400	1376
945.492	1952
945.584	1835
945.676	922
945.768	1204
945.860	2499
945.952	1806
946.044	1555
946.136	813
946.228	698
946.320	934
946.412	995
946.503	1265
946.595	2072
946.687	676
946.779	263
946.870	1175
946.962	1196
947.054	976
947.145	902
947.237	1323
947.329	1057
947.420	1185
947.512	1225
947.603	1506
947.695	1034
947.786	1290
947.878	760
947.969	1970
948.061	1243
948.152	1258
948.243	1112
948.335	1269
948.426	236
948.517	1299
948.609	1166
948.700	1243
948.791	816
948.882	1231
948.973	1276
949.065	1653
949.156	1091
949.247	975
949.338	1339
949.429	923
949.520	536
949.611	713
949.702	695
949.793	1903
949.884	1392
949.975	1092
950.066	1089
950.157	1448
950.247	1912
950.338	902
950.429	324
950.520	1799
950.611	2025
950.701	1603
950.792	1371
950.883	1471
950.973	1589
951.064	1967
951.155	1148
951.245	2093
951.336	1168
951.427	126
951.517	1401
951.608	960
951.698	1474
951.788	2007
951.879	1119
951.969	543
952.060	960
952.150	1562
952.240	1940
952.331	431
952.421	2222
952.511	1265
952.602	1353
952.692	631
952.782	922
952.872	1442
952.962	-4
953.052	1192
953.143	653
953.233	714
953.323	221
953.413	1014
953.503	744
953.593	700
953.683	472
953.773	1200
953.863	1263
953.953	759
954.042	1407
954.132	523
954.222	1639
954.312	1301
954.402	1446
954.492	3281
954.581	4770
954.671	2923
954.761	-307
954.850	781
954.940	905
955.030	1278
955.119	1227
955.209	546
955.298	893
955.388	1421
955.477	2214
955.567	849
955.656	1374
955.746	1108
955.835	459
955.925	729
956.014	807
956.103	1636
956.193	1028
956.282	1466
956.371	881
956.461	1508
956.550	1129
956.639	1239
956.728	744
956.817	1607
956.906	1414
956.995	1429
957.085	988
957.174	1797
957.263	941
957.352	1084
957.441	1350
957.530	2138
957.619	903
957.708	2016
957.796	1750
957.885	1889
957.974	1225
958.063	1189
958.152	645
958.241	1441
958.329	1949
958.418	2342
958.507	875
958.596	2000
958.684	1238
958.773	2682
958.861	2393
958.950	2691
959.039	2667
959.127	2991
959.216	3370
959.304	2746
959.393	2607
959.481	2381
959.570	2557
959.658	3744
959.746	2768
959.835	5770
959.923	7945
960.011	5277
960.100	2188
960.188	2070
960.276	1896
960.365	1825
960.453	2398
960.541	1069
960.629	1300
960.717	2491
960.805	2165
960.893	2467
960.981	1193
961.069	2664
961.158	1721
961.245	1865
961.333	1910
961.421	1635
961.509	1229
961.597	1113
961.685	567
961.773	2233
961.861	1067
961.949	967
962.036	1580
962.124	2761
962.212	1087
962.299	815
962.387	1248
962.475	1723
962.562	121
962.650	1957
962.738	1342
962.825	399
962.913	1394
963.000	1343
963.088	1118
963.175	1234
963.263	1682
963.350	1966
963.438	1666
963.525	3267
963.612	6238
963.700	12712
963.787	24180
963.874	14880
963.962	3451
964.049	1764
964.136	880
964.223	1177
964.310	1139
964.398	1548
964.485	1112
964.572	2543
964.659	4405
964.746	4134
964.833	1291
964.920	865
965.007	953
965.094	984
965.181	353
965.268	1006
965.355	380
965.441	531
965.528	1106
965.615	1852
965.702	9
965.789	102
965.875	863
965.962	200
966.049	166
966.136	790
966.222	433
966.309	1010
966.395	127
966.482	736
966.569	247
966.655	800
966.742	252
966.828	1462
966.915	881
967.001	1097
967.087	992
967.174	1421
967.260	2020
967.347	3674
967.433	9212
967.519	16482
967.605	7386
967.692	2600
967.778	815
967.864	1277
967.950	-256
968.036	375
968.123	863
968.209	684
968.295	257
968.381	1247
968.467	497
968.553	653
968.639	1006
968.725	1193
968.811	3383
968.897	3281
968.983	1426
969.069	560
969.154	1925
969.240	1682
969.326	-169
969.412	544
969.497	318
969.583	652
969.669	591
969.755	1105
969.840	238
969.926	552
970.012	-172
970.097	1580
970.183	778
970.268	1320
970.354	2323
970.439	5210
970.525	11045
970.610	4990
970.696	1330
970.781	1105
970.866	203
970.952	521
971.037	374
971.122	664
971.208	459
971.293	357
971.378	710
971.463	257
971.549	967
971.634	953
971.719	1970
971.804	2431
971.889	2093
971.974	1278
972.059	526
972.144	728
972.229	87
972.314	706
972.399	403
972.484	561
972.569	1454
972.654	2154
972.739	5769
972.824	6163
972.908	1959
972.993	107
973.078	626
973.163	833
973.247	202
973.332	-498
973.417	1500
973.501	273
973.586	211
973.671	1268
973.755	156
973.840	1024
973.924	1317
974.009	-289
974.093	459
974.178	2200
974.262	3937
974.346	3666
974.431	1464
974.515	813
974.600	210
974.684	921
974.768	253
974.852	760
974.937	-635
975.021	386
975.105	389
975.189	446
975.273	19
975.358	155
975.442	-207
975.526	-150
975.610	-21
975.694	21
975.778	873
975.862	-193
975.946	-553
976.030	1249
976.114	-874
976.198	371
976.281	158
976.365	756
976.449	154
976.533	907
976.617	38
976.700	1302
976.784	584
976.868	1515
976.951	2345
977.035	2179
977.119	901
977.202	294
977.286	-169
977.369	445
977.453	288
977.536	-252
977.620	-477
977.703	1160
977.787	-536
977.870	932
977.953	887
978.037	926
978.120	1775
978.203	3508
978.287	6645
978.370	4067
978.453	620
978.536	602
978.620	1975
978.703	3547
978.786	1929
978.869	621
978.952	-754
979.035	923
979.118	172
979.201	-162
979.284	338
979.367	-199
979.450	-494
979.533	-216
979.616	-192
979.699	-345
979.782	93
979.865	128
979.948	389
980.030	225
980.113	209
980.196	-510
980.279	492
980.361	479
980.444	174
980.526	289
980.609	-35
980.692	-284
980.774	447
980.857	-422
980.939	435
981.022	-240
981.104	-283
981.187	-707
981.269	568
981.352	144
981.434	1
981.516	-611
981.599	711
981.681	202
981.763	660
981.846	202
981.928	-677
982.010	-17
982.092	1
982.174	508
982.256	162
982.339	-353
982.421	-322
982.503	148
982.585	-826
982.667	-117
982.749	573
982.831	-305
982.913	-595
982.995	452
983.077	-440
983.158	1165
983.240	-200
983.322	-335
983.404	543
983.486	-837
983.568	67
983.649	-127
983.731	243
983.813	-353
983.894	-27
983.976	-65
984.058	-415
984.139	504
984.221	-506
984.302	580
984.384	-629
984.465	-523
984.547	-83
984.628	-237
984.710	-174
984.791	-529
984.872	-347
984.954	-966
985.035	-448
985.116	-1139
985.198	-964
985.279	567
985.360	-1070
985.441	-576
985.522	668
985.604	-468
985.685	-2132
985.766	932
985.847	280
985.928	-79
986.009	147
986.090	-257
986.171	873
986.252	-389
986.333	-13
986.414	438
986.495	-53
986.576	-700
986.656	-926
986.737	-162
986.818	-237
986.899	-186
986.980	-526
987.060	-285
987.141	-719
987.222	-664
987.302	-793
987.383	-702
987.464	-482
987.544	906
987.625	-1134
987.705	241
987.786	-931
987.866	463
987.947	-678
988.027	142
988.108	-994
988.188	-383
988.268	124
988.349	-805
988.429	108
988.509	-35
988.589	-389
988.670	-1352
988.750	216
988.830	-292
988.910	-119
988.990	-726
989.070	-586
989.151	-719
989.231	-1242
989.311	73
989.391	-112
989.471	-11
989.551	-897
989.631	-791
989.711	-373
989.791	-683
989.870	-967
989.950	301
990.030	-134
990.110	-743
990.190	-1011
990.269	-941
990.349	-844
990.429	-508
990.509	-115
990.588	-1013
990.668	29
990.747	-754
990.827	32
990.907	-256
990.986	-906
991.066	-329
991.145	-675
991.225	-327
991.304	-1006
991.383	-209
991.463	-1076
991.542	-54
991.622	-1122
991.701	-464
991.780	-383
991.859	-876
991.939	-472
992.018	-407
992.097	-137
992.176	-437
992.256	-502
992.335	-623
992.414	-607
992.493	-457
992.572	-1125
992.651	397
992.730	-752
992.809	-695
992.888	-941
992.967	-891
993.046	-309
993.125	-588
993.203	-193
993.282	-394
993.361	-1007
993.440	18
993.519	-2129
993.597	-442
993.676	-1636
993.755	86
993.834	-391
993.912	-1039
993.991	-485
994.069	-348
994.148	-736
994.226	-1083
994.305	-726
994.384	-462
994.462	235
994.540	-850
994.619	-1162
994.697	-167
994.776	-1002
994.854	-223
994.932	-860
995.011	-615
995.089	81
995.167	-277
995.245	-1183
995.324	-913
995.402	-1106
995.480	-1337
995.558	-731
995.636	-575
995.714	-1915
995.792	319
995.870	-1245
995.948	-1242
996.026	-778
996.104	-1270
996.182	-600
996.260	-824
996.338	-454
996.416	-1292
996.494	-904
996.572	-651
996.649	-861
996.727	-1625
996.805	-944
996.883	-1259
996.960	-1976
997.038	-1138
997.116	-785
997.193	-936
997.271	-1214
997.348	-1185
997.426	-96
997.504	-1490
997.581	-1078
997.658	-677
997.736	-1473
997.813	-903
997.891	-216
997.968	-870
998.046	-1162
998.123	-956
998.200	-284
998.277	-1413
998.355	-1147
998.432	-1555
998.509	-1573
998.586	-28
998.663	-131
998.741	-934
998.818	-1046
998.895	-820
998.972	-1300
999.049	-1522
999.126	-2014
999.203	-1114
999.280	-845
999.357	-1505
999.434	-2083
999.511	-1031
999.587	-779
999.664	-529
999.741	-133
999.818	-240
999.895	-828
999.971	-1655
1000.048	-1153
1000.125	-115
1000.202	-684
1000.278	-535
1000.355	-1506
1000.431	-679
1000.508	-826
1000.584	-1073
1000.661	-1084
1000.738	-1832
1000.814	-1658
1000.890	-1312
1000.967	-1463
1001.043	-519
1001.120	-1183
1001.196	-330
1001.272	-1380
1001.349	-962
1001.425	-644
1001.501	-511
1001.577	-2299
1001.654	134
1001.730	-1381
1001.806	-1287
1001.882	-1243
1001.958	-1160
1002.034	-1365
1002.110	-847
1002.186	-1515
1002.262	-1157
1002.338	-1393
1002.414	-524
1002.490	-777
1002.566	-1592
1002.642	-1793
1002.718	127
1002.794	-1039
1002.870	-883
1002.945	-1437
1003.021	-905
1003.097	-1782
1003.173	-1053
1003.248	-2137
1003.324	-1118
1003.400	-756
1003.475	-1510
1003.551	-649
1003.626	-1421
1003.702	-1072
1003.777	-1380
1003.853	-1637
1003.928	-1304
1004.004	-1096
1004.079	-93
1004.155	-1282
1004.230	-2511
1004.305	-715
1004.381	-1408
1004.456	-1039
1004.531	-720
1004.607	-1136
1004.682	-864
1004.757	-1837
1004.832	-1162
1004.907	-1472
1004.982	-1418
1005.057	-693
1005.133	-763
1005.208	-153
1005.283	-1269
1005.358	-1520
1005.433	-1869
1005.508	-1178
1005.583	-1358
1005.657	-1400
1005.732	-220
1005.807	-968
1005.882	-2021
1005.957	-1292
1006.032	-538
1006.106	-1150
1006.181	-1541
1006.256	-1164
1006.331	-1519
1006.405	-1487
1006.480	-1184
1006.554	-1226
1006.629	-1103
1006.704	-1393
1006.778	-1309
1006.853	-1251
1006.927	-916
1007.002	-2079
1007.076	-962
1007.150	-1533
1007.225	-1028
1007.299	-1217
1007.373	-2280
1007.448	-1072
1007.522	-793
1007.596	-1988
1007.671	-1494
1007.745	-863
1007.819	-1427
1007.893	-1312
1007.967	-719
1008.041	-2594
1008.115	-426
1008.190	-1435
1008.264	-1114
1008.338	-2755
1008.412	-827
1008.486	-892
1008.560	-359
1008.633	-1340
1008.707	-1667
1008.781	-1237
1008.855	-1303
1008.929	-1787
1009.003	-1533
1009.076	-2286
1009.150	-1750
1009.224	-1060
1009.298	-1026
1009.371	-2180
1009.445	-315
1009.519	-914
1009.592	-1756
1009.666	-1041
1009.739	-1104
1009.813	-2538
1009.886	-346
1009.960	-2633
1010.033	-718
1010.107	-1716
1010.180	-1706
1010.253	-2049
1010.327	-1911
1010.400	-1540
1010.473	-999
1010.547	-866
1010.620	-976
1010.693	-631
1010.766	-1673
1010.840	-519
1010.913	-1286
1010.986	-1614
1011.059	-2089
1011.132	-1622
1011.205	-1384
1011.278	-1148
1011.351	-954
1011.424	-1368
1011.497	-1879
1011.570	-1685
1011.643	-986
1011.716	-1666
1011.789	-1751
1011.862	-1265
1011.934	-723
1012.007	-2138
1012.080	-1268
1012.153	-1391
1012.225	-1418
1012.298	-2422
1012.371	-1601
1012.443	-1965
1012.516	-1259
1012.588	-1149
1012.661	-1420
1012.733	-2344
1012.806	-1126
1012.879	-1337
1012.951	-846
1013.023	-1612
1013.096	-1363
1013.168	-1573
1013.241	-668
1013.313	-1391
1013.385	-1922
1013.458	-1407
1013.530	-937
1013.602	-2153
1013.674	-1053
1013.746	-1506
1013.819	-1572
1013.891	-1122
1013.963	-1050
1014.035	-1811
1014.107	-1487
1014.179	-1594
1014.251	-1499
1014.323	-1161
1014.395	-1709
1014.467	-1405
1014.539	-956
1014.611	-1900
1014.683	-1012
1014.754	-2335
1014.826	-2176
1014.898	-1652
1014.970	-1987
1015.042	-1331
1015.113	-1266
1015.185	-1191
1015.257	-2334
1015.328	-1795
1015.400	-1545
1015.471	-1437
1015.543	-1894
1015.615	-1595
1015.686	-1433
1015.757	-1834
1015.829	-1628
1015.901	-2292
1015.972	-1529
1016.043	-1794
1016.115	-1041
1016.186	-1805
1016.257	-1517
1016.328	-403
1016.400	-1100
1016.471	-2266
1016.542	-1310
1016.613	-797
1016.685	-1646
1016.756	-1252
1016.827	-1045
1016.898	-1759
1016.969	-540
1017.040	-1589
1017.111	-2395
1017.182	-1830
1017.253	-1092
1017.324	-1082
1017.395	-1441
1017.466	-1931
1017.537	-1381
1017.608	-1764
1017.678	-1581
1017.749	-1792
1017.820	-669
1017.891	-1986
1017.961	-2077
1018.032	-1529
1018.103	-1527
1018.173	-1647
1018.244	-1518
1018.315	-2512
1018.385	-1140
1018.456	-1667
1018.526	-990
1018.597	-1738
1018.667	-1068
1018.738	-1722
1018.808	-1173
1018.878	-1591
1018.949	-1027
1019.019	-1481
1019.089	-1275
1019.160	-1721
1019.230	-1872
1019.300	-1201
1019.371	-1511
1019.441	-1123
1019.511	-1059
1019.581	-1894
1019.651	-1449
1019.721	-1522
1019.791	-1161
1019.861	-1825
1019.931	-1245
1020.001	-2097
1020.071	-708
1020.141	-2000
1020.211	-1501
1020.281	-1860
1020.351	-1249
1020.421	-1289
1020.491	-951
1020.560	-2082
1020.630	-1796
1020.700	-1396
1020.770	-2021
1020.839	-1320
1020.909	-1534
1020.979	-1743
1021.048	-2036
1021.118	-1811
1021.187	-2210
1021.257	-1151
1021.326	-1103
1021.396	-1442
1021.465	-1101
1021.535	-1404
1021.604	-1531
1021.674	-2095
1021.743	-1124
1021.812	-2016
1021.882	-985
1021.951	-1480
1022.020	-1819
1022.089	-1441
1022.159	-1279
1022.228	-1565
1022.297	-1203
1022.366	-1518
1022.435	-1470
1022.504	-2316
1022.573	-1306
1022.642	-727
1022.711	-1771
1022.781	-1553
1022.849	-1234
1022.918	-2038
1022.987	-1414
1023.056	-1811
1023.125	-1797
1023.194	-1354
1023.263	-1106
1023.331	-1155
1023.400	-1526
1023.469	-2414
1023.538	-675
1023.606	-2096
1023.675	-1357
1023.744	-1926
1023.812	-1660
1023.881	-1811
1023.949	-1581
1024.018	-1681
1024.086	-1660
1024.155	-1445
1024.223	-2031
1024.292	-1735
1024.360	-959
1024.429	-1753
1024.497	-2595
1024.565	-1583
1024.634	-1905
1024.702	-1514
1024.770	-1337
1024.838	-1388
1024.907	-704
1024.975	-2088
1025.043	-2010
1025.111	-2282
1025.179	-1585
1025.247	-2371
1025.315	-1414
1025.383	-1962
1025.451	-947
1025.519	-1759
1025.587	-1049
1025.655	-1350
1025.723	-2324
1025.791	-2271
1025.859	-1400
1025.927	-1756
1025.995	-1866
1026.062	-1728
1026.130	-1134
1026.198	-1747
1026.266	-1156
1026.333	-999
1026.401	-970
1026.469	-1237
1026.536	-1226
1026.604	-1236
1026.671	-1171
1026.739	-1209
1026.806	-1314
1026.874	-1869
1026.941	-1104
1027.009	-2151
1027.076	-1855
1027.144	-1129
1027.211	-1787
1027.278	-1376
1027.345	-1522
1027.413	-2022
1027.480	-1709
1027.547	-2152
1027.614	-1340
1027.682	-2013
1027.749	-2510
1027.816	-1853
1027.883	-1407
1027.950	-2377
1028.017	-2303
1028.084	-1350
1028.151	-1226
1028.218	-1899
1028.285	-2088
1028.352	-1998
1028.419	-1651
1028.486	-2391
1028.553	-2098
1028.619	-1427
1028.686	-1454
1028.753	-2189
1028.820	-1471
1028.886	-1071
1028.953	-2129
1029.020	-1116
1029.086	-1494
1029.153	-1230
1029.220	-768
1029.286	-1757
1029.353	-1602
1029.419	-1939
1029.486	-1656
1029.552	-1797
1029.619	-1665
1029.685	-2330
1029.751	-2130
1029.818	-1788
1029.884	-1650
1029.951	-523
1030.017	-1592
1030.083	-2418
1030.149	-1759
1030.216	-1313
1030.282	-1380
1030.348	-1777
1030.414	-1456
1030.480	-2117
1030.546	-1575
1030.612	-1769
1030.678	-1328
1030.744	-1711
1030.810	-1410
1030.876	-1913
1030.942	-1667
1031.008	-1625
1031.074	-2508
1031.140	-1562
1031.206	-1907
1031.272	-2513
1031.337	-1866
1031.403	-1333
1031.469	-1884
1031.534	-1656
1031.600	-1288
1031.666	-1541
1031.731	-2250
1031.797	-1764
1031.863	-2045
1031.928	-2101
1031.994	-2364
1032.059	-2111
1032.125	-1379
1032.190	-2294
1032.256	-1607
1032.321	-2155
1032.386	-1648
1032.452	-1703
1032.517	-1811
1032.582	-2351
1032.647	-1428
1032.713	-2145
1032.778	-1642
1032.843	-2154
1032.908	-1401
1032.974	-2504
1033.039	-2351
1033.104	-1167
1033.169	-1816
1033.234	-2074
1033.299	-1470
1033.364	-1777
1033.429	-1502
1033.494	-1192
1033.559	-2344
1033.624	-1284
1033.688	-1238
1033.753	-2184
1033.818	-2334
1033.883	-2570
1033.948	-2078
1034.013	-2051
1034.077	-2275
1034.142	-2484
1034.207	-2285
1034.271	-1498
1034.336	-1498
1034.400	-1596
1034.465	-1657
1034.530	-1838
1034.594	-2254
1034.658	-1361
1034.723	-1803
1034.787	-1365
1034.852	-962
1034.916	-1080
1034.981	-1717
1035.045	-1926
1035.109	-2324
1035.173	-1870
1035.238	-1380
1035.302	-1530
1035.366	-2210
1035.430	-1727
1035.495	-1543
1035.559	-1618
1035.623	-1328
1035.687	-2137
1035.751	-1898
1035.815	-1961
1035.879	-1655
1035.943	-1884
1036.007	-1752
1036.071	-1868
1036.135	-1473
1036.198	-1819
1036.262	-2197
1036.326	-2125
1036.390	-1930
1036.454	-1564
1036.517	-1330
1036.581	-1871
1036.645	-1518
1036.709	-1684
1036.772	-1434
1036.836	-2167
1036.900	-1373
1036.963	-2656
1037.026	-1563
1037.090	-2130
1037.154	-1890
1037.217	-1853
1037.280	-1410
1037.344	-2296
1037.407	-1479
1037.471	-1985
1037.534	-1859
1037.597	-2711
1037.661	-2233
1037.724	-2120
1037.787	-1655
1037.850	-2363
1037.913	-2019
1037.977	-1271
1038.040	-1486
1038.103	-1814
1038.166	-1789
1038.229	-1923
1038.292	-1951
1038.355	-1832
1038.418	-1606
1038.481	-801
1038.544	-1202
1038.607	-1782
1038.670	-1850
1038.732	-1554
1038.795	-2214
1038.858	-1451
1038.921	-1795
1038.984	-1514
1039.046	-1584
1039.109	-2557
1039.172	-2090
1039.234	-2178
1039.297	-2041
1039.360	-1642
1039.422	-1539
1039.485	-1407
1039.547	-2100
1039.610	-1185
1039.672	-1977
1039.734	-1619
1039.797	-1743
1039.859	-1848
1039.922	-2004
1039.984	-1490
1040.046	-1481
1040.109	-1688
1040.171	-1702
1040.233	-2261
1040.295	-1903
1040.358	-1644
1040.420	-1185
1040.482	-2360
1040.544	-1842
1040.606	-2122
1040.668	-1942
1040.730	-1870
1040.792	-2479
1040.854	-2240
1040.916	-1746
1040.978	-2184
1041.040	-1508
1041.102	-2811
1041.164	-1848
1041.225	-1793
1041.287	-1345
1041.349	-1833
1041.411	-1915
1041.472	-2060
1041.534	-2698
1041.596	-2454
1041.657	-1471
1041.719	-1790
1041.781	-1380
1041.842	-2281
1041.904	-1750
1041.965	-2113
1042.027	-1374
1042.088	-1952
1042.150	-1373
1042.211	-2032
1042.272	-1876
1042.334	-1497
1042.395	-2062
1042.456	-2143
1042.518	-1548
1042.579	-1465
1042.640	-1930
1042.701	-2395
1042.763	-2130
1042.824	-2463
1042.885	-1841
1042.946	-1803
1043.007	-2073
1043.068	-2232
1043.129	-1302
1043.190	-2310
1043.251	-1534
1043.312	-1571
1043.373	-1031
1043.434	-1424
1043.495	-1656
1043.556	-1674
1043.616	-806
1043.677	-2282
1043.738	-1702
1043.799	-2251
1043.859	-1893
1043.920	-1921
1043.981	-1269
1044.041	-1445
1044.102	-1641
1044.162	-1443
1044.223	-1928
1044.284	-899
1044.344	-1296
1044.405	-2087
1044.465	-2371
1044.525	-1807
1044.586	-1050
1044.646	-1965
1044.707	-1469
1044.767	-2098
1044.827	-1355
1044.887	-1479
1044.948	-1390
1045.008	-1858
1045.068	-2630
1045.128	-1563
1045.188	-1805
1045.249	-1423
1045.309	-1030
1045.369	-2296
1045.429	-942
1045.489	-1734
1045.549	-1549
1045.609	-1708
1045.669	-1345
1045.729	-1883
1045.789	-1720
1045.848	-1837
1045.908	-1321
1045.968	-1372
1046.028	-1430
1046.088	-1056
1046.147	-754
1046.207	-920
1046.267	-1514
1046.326	-1215
1046.386	-1487
1046.446	-1419
1046.505	-1151
1046.565	-1219
1046.624	369
1046.684	-1325
1046.743	-585
1046.803	-662
1046.862	-479
1046.922	0
