'Start Wavelength	183.907
'End Wavelength	1046.922
'Gate Delay	5.000
'Gate Width (ms)	1.050
'Laser Output Level	0.000
'X Position	0.000
'Y Position	0.000
'Z Position	0.000
'Grid Point Number	1.000
'Shot Number	100.000
183.907	-172.000
183.977	-213.000
184.047	344
184.116	509
184.186	-122
184.256	-6
184.325	-169
184.395	-448
184.465	545
184.534	272
184.604	-308
184.674	304
184.743	-482
184.813	1016
184.883	-324
184.952	259
185.022	63
185.092	-43
185.161	-504
185.231	-750
185.301	-67
185.370	311
185.440	-483
185.509	-294
185.579	-605
185.649	826
185.718	146
185.788	29
185.857	-173
185.927	-45
185.996	-544
186.066	166
186.136	-625
186.205	272
186.275	141
186.344	697
186.414	-17
186.483	-702
186.553	1224
186.622	152
186.692	330
186.761	-118
186.831	-53
186.900	-536
186.970	-152
187.039	206
187.109	491
187.178	62
187.248	217
187.317	-69
187.387	-1238
187.456	970
187.526	-248
187.595	-700
187.664	187
187.734	-83
187.803	766
187.873	657
187.942	184
188.012	484
188.081	150
188.150	26
188.220	421
188.289	481
188.358	-510
188.428	251
188.497	277
188.567	180
188.636	-194
188.705	-635
188.775	-40
188.844	-561
188.913	349
188.983	80
189.052	-212
189.121	485
189.191	-314
189.260	784
189.329	-405
189.399	523
189.468	-212
189.537	1
189.606	-8
189.676	579
189.745	312
189.814	740
189.883	417
189.953	35
190.022	299
190.091	89
190.161	1166
190.230	257
190.299	-29
190.368	10
190.437	3
190.507	229
190.576	170
190.645	-251
190.714	-257
190.783	187
190.853	1371
190.922	352
190.991	-265
191.060	669
191.129	-478
191.198	652
191.268	-50
191.337	421
191.406	-383
191.475	212
191.544	-426
191.613	585
191.682	-28
191.752	-99
191.821	-345
191.890	295
191.959	429
192.028	1033
192.097	267
192.166	387
192.235	-593
192.304	-698
192.373	305
192.442	432
192.511	-133
192.580	167
192.650	599
192.719	694
192.788	492
192.857	620
192.926	-680
192.995	423
193.064	1522
193.133	1623
193.202	847
193.271	676
193.340	923
193.409	824
193.478	573
193.547	1083
193.615	1603
193.684	1975
193.753	583
193.822	1112
193.891	649
193.960	596
194.029	-834
194.098	205
194.167	324
194.236	1034
194.305	568
194.374	-208
194.443	-671
194.512	550
194.580	319
194.649	-342
194.718	855
194.787	-399
194.856	81
194.925	-166
194.994	272
195.062	743
195.131	80
195.200	-111
195.269	817
195.338	346
195.407	943
195.475	940
195.544	813
195.613	179
195.682	435
195.751	727
195.819	798
195.888	359
195.957	1294
196.026	353
196.094	1400
196.163	452
196.232	782
196.301	95
196.369	354
196.438	58
196.507	384
196.576	223
196.644	313
196.713	566
196.782	-387
196.850	5
196.919	365
196.988	48
197.056	-836
197.125	9
197.194	584
197.262	301
197.331	120
197.400	-77
197.468	1046
197.537	366
197.606	-68
197.674	657
197.743	1258
197.812	274
197.880	981
197.949	137
198.017	1426
198.086	1368
198.155	398
198.223	913
198.292	1269
198.360	469
198.429	-162
198.497	808
198.566	1122
198.635	1249
198.703	811
198.772	584
198.840	2014
198.909	1546
198.977	1362
199.046	89
199.114	708
199.183	818
199.251	503
199.320	1051
199.388	285
199.457	-108
199.525	633
199.594	-2
199.662	-18
199.731	316
199.799	990
199.867	520
199.936	4
200.004	978
200.073	626
200.141	698
200.210	-212
200.278	633
200.346	2
200.415	802
200.483	817
200.552	320
200.620	121
200.688	529
200.757	565
200.825	940
200.893	-184
200.962	1052
201.030	445
201.098	556
201.167	1151
201.235	816
201.303	103
201.372	363
201.440	801
201.508	661
201.577	895
201.645	1475
201.713	141
201.781	434
201.850	39
201.918	871
201.986	269
202.055	903
202.123	252
202.191	513
202.259	194
202.327	406
202.396	716
202.464	948
202.532	740
202.600	1223
202.669	814
202.737	-280
202.805	490
202.873	1125
202.941	1220
203.009	1017
203.078	247
203.146	337
203.214	449
203.282	-300
203.350	773
203.418	787
203.487	290
203.555	1079
203.623	1464
203.691	729
203.759	54
203.827	1123
203.895	-56
203.963	449
204.031	77
204.099	602
204.168	827
204.236	1085
204.304	1118
204.372	1156
204.440	879
204.508	438
204.576	881
204.644	578
204.712	667
204.780	618
204.848	129
204.916	53
204.984	879
205.052	843
205.120	724
205.188	922
205.256	1410
205.324	762
205.392	242
205.460	1526
205.528	153
205.596	1601
205.664	463
205.732	1073
205.799	1529
205.867	3304
205.935	219
206.003	775
206.071	434
206.139	882
206.207	800
206.275	880
206.343	620
206.411	1041
206.478	1006
206.546	1199
206.614	806
206.682	698
206.750	262
206.818	839
206.885	1039
206.953	-39
207.021	1300
207.089	1130
207.157	122
207.225	1419
207.292	107
207.360	656
207.428	1251
207.496	283
207.563	1131
207.631	1386
207.699	-158
207.767	687
207.834	419
207.902	256
207.970	1083
208.038	714
208.105	1128
208.173	1495
208.241	84
208.309	1236
208.376	1352
208.444	2388
208.512	1082
208.579	-210
208.647	956
208.715	1450
208.782	1034
208.850	871
208.918	455
208.985	987
209.053	960
209.120	606
209.188	1168
209.256	1995
209.323	786
209.391	1225
209.459	1357
209.526	1314
209.594	903
209.661	359
209.729	1447
209.796	1315
209.864	1440
209.932	-623
209.999	2075
210.067	473
210.134	1131
210.202	973
210.269	1717
210.337	1148
210.404	1432
210.472	1180
210.539	706
210.607	1734
210.674	1490
210.742	1454
210.809	1547
210.877	998
210.944	1287
211.012	461
211.079	2419
211.146	1327
211.214	1624
211.281	673
211.349	670
211.416	1145
211.484	885
211.551	1240
211.618	787
211.686	957
211.753	1131
211.821	1990
211.888	630
211.955	2364
212.023	589
212.090	1433
212.157	1335
212.225	1809
212.292	2224
212.359	4227
212.427	9922
212.494	4269
212.561	2440
212.629	1847
212.696	1588
212.763	1927
212.831	556
212.898	1442
212.965	1059
213.032	2101
213.100	2343
213.167	1667
213.234	1292
213.301	1556
213.369	1674
213.436	938
213.503	934
213.570	1456
213.638	976
213.705	487
213.772	370
213.839	1453
213.906	1538
213.973	1148
214.041	844
214.108	1646
214.175	1408
214.242	1668
214.309	1606
214.376	1037
214.444	1691
214.511	1454
214.578	1768
214.645	1897
214.712	892
214.779	1280
214.846	1462
214.913	2293
214.980	1975
215.048	2521
215.115	2323
215.182	1570
215.249	1345
215.316	1352
215.383	1330
215.450	1443
215.517	1360
215.584	2287
215.651	1135
215.718	921
215.785	1273
215.852	996
215.919	1974
215.986	1779
216.053	1190
216.120	1077
216.187	963
216.254	1815
216.321	1476
216.388	1480
216.455	880
216.522	2072
216.589	1619
216.656	2278
216.722	2609
216.789	2560
216.856	2969
216.923	2563
216.990	2385
217.057	1146
217.124	2317
217.191	1912
217.258	2115
217.324	3726
217.391	4684
217.458	2733
217.525	2223
217.592	1460
217.659	1219
217.725	2000
217.792	1364
217.859	2096
217.926	808
217.993	1177
218.059	1080
218.126	1549
218.193	1412
218.260	706
218.327	812
218.393	513
218.460	448
218.527	340
218.594	1117
218.660	1678
218.727	2426
218.794	42
218.860	1221
218.927	927
218.994	486
219.061	769
219.127	987
219.194	2016
219.261	615
219.327	232
219.394	503
219.461	-104
219.527	405
219.594	1632
219.661	896
219.727	205
219.794	1180
219.860	724
219.927	715
219.994	1383
220.060	1837
220.127	1997
220.193	2003
220.260	1506
220.326	3352
220.393	4826
220.460	5975
220.526	3681
220.593	1785
220.659	3627
220.726	2425
220.792	5982
220.859	5916
220.925	8086
220.992	9218
221.058	9240
221.125	7753
221.191	6161
221.258	1809
221.324	2223
221.391	1613
221.457	1140
221.524	1758
221.590	2435
221.657	7293
221.723	4450
221.789	3446
221.856	3788
221.922	2068
221.989	2718
222.055	1188
222.121	641
222.188	1933
222.254	1086
222.321	976
222.387	8
222.453	1023
222.520	763
222.586	1462
222.652	366
222.719	1266
222.785	1733
222.851	249
222.918	1216
222.984	308
223.050	1205
223.116	238
223.183	1533
223.249	644
223.315	-204
223.382	483
223.448	233
223.514	367
223.580	408
223.647	1004
223.713	401
223.779	218
223.845	882
223.911	856
223.978	-238
224.044	739
224.110	522
224.176	248
224.242	852
224.309	-844
224.375	1237
224.441	608
224.507	-15
224.573	-495
224.639	1742
224.705	30
224.772	603
224.838	-25
224.904	1002
224.970	534
225.036	-238
225.102	-514
225.168	1009
225.234	585
225.300	485
225.366	-74
225.432	521
225.499	-12
225.565	571
225.631	599
225.697	1218
225.763	1591
225.829	2192
225.895	1269
225.961	2286
226.027	2465
226.093	1657
226.159	2774
226.225	4735
226.291	9644
226.357	13729
226.423	7866
226.489	4194
226.554	3089
226.620	3132
226.686	4152
226.752	5732
226.818	9372
226.884	14943
226.950	13572
227.016	6902
227.082	3833
227.148	2791
227.214	2917
227.279	2524
227.345	1428
227.411	1302
227.477	1386
227.543	1069
227.609	1889
227.674	1917
227.740	924
227.806	1152
227.872	140
227.938	1247
228.003	2637
228.069	955
228.135	1179
228.201	1716
228.267	81
228.332	1536
228.398	769
228.464	875
228.530	-463
228.595	938
228.661	418
228.727	1452
228.792	1506
228.858	570
228.924	-353
228.990	2084
229.055	196
229.121	1320
229.187	446
229.252	14
229.318	866
229.384	1314
229.449	1716
229.515	-970
229.581	-335
229.646	2458
229.712	663
229.777	2792
229.843	2700
229.909	1231
229.974	2718
230.040	1828
230.105	1030
230.171	1064
230.236	2515
230.302	2527
230.368	2184
230.433	1135
230.499	1347
230.564	3090
230.630	819
230.695	725
230.761	1219
230.826	-149
230.892	2875
230.957	517
231.023	568
231.088	713
231.154	1020
231.219	1398
231.284	1141
231.350	2219
231.415	181
231.481	1315
231.546	974
231.612	533
231.677	414
231.742	156
231.808	1907
231.873	69
231.939	-429
232.004	3379
232.069	1923
232.135	1523
232.200	1652
232.265	1411
232.331	787
232.396	553
232.461	832
232.527	-139
232.592	806
232.657	1241
232.723	721
232.788	944
232.853	1286
232.918	633
232.984	394
233.049	115
233.114	376
233.179	1137
233.245	3333
233.310	3600
233.375	348
233.440	1093
233.506	305
233.571	-231
233.636	770
233.701	1095
233.766	1997
233.832	2898
233.897	736
233.962	-335
234.027	2762
234.092	1374
234.157	1345
234.222	1421
234.288	1840
234.353	7747
234.418	5527
234.483	3652
234.548	2230
234.613	908
234.678	2311
234.743	1453
234.808	7624
234.873	3245
234.938	2740
235.004	1264
235.069	1714
235.134	1257
235.199	1245
235.264	1671
235.329	192
235.394	1359
235.459	2265
235.524	1233
235.589	2231
235.654	926
235.719	307
235.784	1119
235.849	2207
235.913	3597
235.978	3690
236.043	3906
236.108	1492
236.173	956
236.238	2601
236.303	1397
236.368	836
236.433	3271
236.498	4550
236.563	4052
236.627	8160
236.692	22080
236.757	18740
236.822	7963
236.887	5459
236.952	5320
237.017	3459
237.081	4610
237.146	6305
237.211	13219
237.276	22852
237.341	30765
237.405	16922
237.470	7490
237.535	5276
237.600	3525
237.664	3624
237.729	2226
237.794	3777
237.859	8859
237.923	5416
237.988	2159
238.053	4042
238.118	3227
238.182	12125
238.247	11134
238.312	3508
238.376	2417
238.441	869
238.506	2586
238.570	984
238.635	3059
238.700	1545
238.764	405
238.829	4430
238.893	3859
238.958	2464
239.023	2328
239.087	1341
239.152	2213
239.216	901
239.281	986
239.346	1699
239.410	1807
239.475	964
239.539	10990
239.604	6753
239.668	1937
239.733	854
239.797	1407
239.862	2766
239.926	6445
239.991	2988
240.055	1563
240.120	1452
240.184	1636
240.249	798
240.313	1243
240.378	408
240.442	4883
240.507	9063
240.571	2538
240.635	3964
240.700	4590
240.764	1463
240.829	1179
240.893	431
240.957	1380
241.022	5649
241.086	8666
241.151	2703
241.215	487
241.279	2896
241.344	4294
241.408	2482
241.472	1372
241.537	3268
241.601	2085
241.665	1026
241.730	1312
241.794	2581
241.858	1186
241.922	1715
241.987	1599
242.051	1594
242.115	492
242.179	1550
242.244	392
242.308	1608
242.372	1624
242.436	1973
242.501	2870
242.565	476
242.629	1199
242.693	1509
242.757	1050
242.822	1338
242.886	2689
242.950	2849
243.014	670
243.078	1673
243.142	1875
243.206	1553
243.271	2719
243.335	2204
243.399	4261
243.463	11671
243.527	28082
243.591	7386
243.655	4383
243.719	1961
243.783	2849
243.847	5214
243.911	5545
243.975	5957
244.040	3467
244.104	2894
244.168	2041
244.232	2742
244.296	4267
244.360	4506
244.424	1837
244.488	2073
244.552	1621
244.615	448
244.679	2443
244.743	2764
244.807	1123
244.871	1363
244.935	1737
244.999	666
245.063	1907
245.127	2742
245.191	3954
245.255	3096
245.319	2135
245.383	727
245.446	3484
245.510	718
245.574	1961
245.638	2018
245.702	364
245.766	5282
245.829	3928
245.893	897
245.957	1584
246.021	3066
246.085	2269
246.149	2256
246.212	7018
246.276	8635
246.340	4120
246.404	2794
246.467	3595
246.531	2628
246.595	3643
246.659	3300
246.722	1784
246.786	2682
246.850	4295
246.913	4144
246.977	1769
247.041	2093
247.104	2615
247.168	2396
247.232	6383
247.295	12132
247.359	5495
247.423	2539
247.486	5631
247.550	3909
247.614	1991
247.677	3907
247.741	2645
247.804	2517
247.868	6489
247.932	6085
247.995	12212
248.059	3614
248.122	1795
248.186	4244
248.249	6436
248.313	22581
248.376	20220
248.440	12397
248.503	4012
248.567	4782
248.630	5195
248.694	8254
248.757	10906
248.821	23317
248.884	11980
248.948	11661
249.011	17553
249.075	25075
249.138	20235
249.202	7481
249.265	4903
249.328	7131
249.392	4348
249.455	4630
249.519	2469
249.582	4511
249.645	5889
249.709	4919
249.772	4465
249.835	3594
249.899	4254
249.962	3645
250.025	2667
250.089	8833
250.152	10799
250.215	4357
250.279	3467
250.342	3980
250.405	3955
250.468	3116
250.532	5271
250.595	8703
250.658	33635
250.721	48337
250.785	15842
250.848	9200
250.911	4699
250.974	4852
251.038	6452
251.101	13561
251.164	6373
251.227	7660
251.290	6976
251.354	10353
251.417	46682
251.480	38562
251.543	29495
251.606	88947
251.669	55175
251.732	21468
251.795	19785
251.859	21138
251.922	50314
251.985	25429
252.048	11936
252.111	9189
252.174	7118
252.237	14378
252.300	27497
252.363	30431
252.426	61965
252.489	22233
252.552	11854
252.615	8323
252.678	8682
252.741	20539
252.804	29259
252.867	64853
252.930	33071
252.993	17326
253.056	10402
253.119	7332
253.182	6507
253.245	10310
253.308	7503
253.371	7229
253.434	5889
253.497	6388
253.559	11486
253.622	8731
253.685	9331
253.748	8758
253.811	5576
253.874	7079
253.937	6012
254.000	4089
254.062	8134
254.125	11766
254.188	12727
254.251	8958
254.314	3865
254.376	8522
254.439	8672
254.502	6870
254.565	7792
254.628	14145
254.690	8270
254.753	3377
254.816	3744
254.878	4142
254.941	9226
255.004	7833
255.067	4458
255.129	3495
255.192	2570
255.255	1387
255.317	3403
255.380	1782
255.443	1590
255.505	979
255.568	1267
255.631	1741
255.693	2344
255.756	1212
255.819	2407
255.881	912
255.944	1749
256.006	1578
256.069	1053
256.132	1754
256.194	3174
256.257	7191
256.319	5200
256.382	3588
256.444	3329
256.507	2398
256.569	2224
256.632	3472
256.694	4137
256.757	14385
256.819	36838
256.882	14807
256.944	6236
257.007	4680
257.069	5362
257.132	3448
257.194	4517
257.257	2663
257.319	2884
257.381	3880
257.444	12448
257.506	43918
257.569	45319
257.631	20247
257.693	10763
257.756	4729
257.818	3757
257.880	3443
257.943	4003
258.005	2312
258.067	2474
258.130	2676
258.192	3169
258.254	5893
258.317	3864
258.379	2955
258.441	6890
258.503	6609
258.566	10668
258.628	11028
258.690	2565
258.753	4374
258.815	5668
258.877	2577
258.939	1892
259.001	2222
259.064	1894
259.126	2555
259.188	3869
259.250	2997
259.312	3205
259.375	8600
259.437	4094
259.499	2022
259.561	2632
259.623	3076
259.685	2335
259.747	3271
259.809	10168
259.872	16674
259.934	31106
259.996	23933
260.058	6187
260.120	3243
260.182	2593
260.244	2029
260.306	959
260.368	2685
260.430	1170
260.492	6592
260.554	11432
260.616	5304
260.678	12709
260.740	14966
260.802	4228
260.864	3462
260.926	2113
260.988	3339
261.050	2646
261.112	9304
261.174	22525
261.236	12264
261.298	4096
261.359	7194
261.421	10050
261.483	1868
261.545	3421
261.607	581
261.669	2343
261.731	4457
261.793	10144
261.854	2510
261.916	3058
261.978	3687
262.040	3942
262.102	2467
262.164	3213
262.225	3266
262.287	2214
262.349	5712
262.411	4049
262.472	2506
262.534	4845
262.596	8849
262.658	2879
262.719	2064
262.781	3469
262.843	8909
262.904	3640
262.966	3358
263.028	4520
263.090	20705
263.151	44694
263.213	14682
263.275	8046
263.336	3542
263.398	3419
263.459	1564
263.521	1923
263.583	5743
263.644	3680
263.706	1536
263.767	230
263.829	1599
263.891	1046
263.952	949
264.014	1272
264.075	4024
264.137	10323
264.198	4009
264.260	785
264.321	1366
264.383	5890
264.444	14722
264.506	3535
264.567	2407
264.629	7300
264.690	11859
264.752	4182
264.813	2259
264.875	1570
264.936	1841
264.998	2189
265.059	900
265.120	2814
265.182	4000
265.243	23343
265.305	19474
265.366	5410
265.427	3491
265.489	3195
265.550	716
265.611	2454
265.673	1480
265.734	1806
265.795	2332
265.857	2038
265.918	2272
265.979	7325
266.040	33139
266.102	25358
266.163	8136
266.224	5730
266.286	2820
266.347	1495
266.408	1537
266.469	2256
266.530	1818
266.592	272
266.653	3725
266.714	5151
266.775	1839
266.836	1872
266.898	513
266.959	3700
267.020	1906
267.081	2349
267.142	1421
267.203	649
267.264	427
267.326	2748
267.387	960
267.448	301
267.509	1394
267.570	1236
267.631	851
267.692	248
267.753	1652
267.814	629
267.875	2818
267.936	7070
267.997	3268
268.058	2846
268.119	1830
268.180	1914
268.241	1597
268.302	566
268.363	977
268.424	1663
268.485	1444
268.546	886
268.607	1231
268.668	478
268.729	1044
268.790	643
268.851	1975
268.912	4739
268.972	4709
269.033	2269
269.094	1479
269.155	875
269.216	589
269.277	1229
269.338	818
269.398	1147
269.459	781
269.520	2749
269.581	2362
269.642	3981
269.702	1648
269.763	2133
269.824	1237
269.885	2360
269.945	2617
270.006	917
270.067	1373
270.128	711
270.188	390
270.249	38
270.310	893
270.370	2097
270.431	719
270.492	517
270.553	1133
270.613	3299
270.674	7080
270.734	2179
270.795	1009
270.856	2330
270.916	1268
270.977	1611
271.038	1668
271.098	1482
271.159	3051
271.219	2447
271.280	321
271.340	537
271.401	1112
271.462	4035
271.522	1976
271.583	1326
271.643	1651
271.704	1252
271.764	1598
271.825	5291
271.885	20067
271.946	24389
272.006	7414
272.066	11389
272.127	18625
272.187	5189
272.248	3006
272.308	3203
272.369	12755
272.429	5959
272.489	4443
272.550	4746
272.610	5984
272.671	3653
272.731	4502
272.791	5965
272.852	1766
272.912	3203
272.972	1305
273.033	1947
273.093	2527
273.153	3583
273.214	2120
273.274	3012
273.334	11416
273.394	17967
273.455	5959
273.515	6532
273.575	14936
273.635	6157
273.696	9407
273.756	16184
273.816	5597
273.876	4048
273.936	9934
273.997	14879
274.057	3501
274.117	2644
274.177	5096
274.237	23680
274.297	17251
274.358	11770
274.418	13367
274.478	8895
274.538	3976
274.598	3368
274.658	12994
274.718	15770
274.778	5480
274.838	3413
274.898	7628
274.958	21355
275.018	18426
275.078	9965
275.138	4471
275.198	2474
275.258	1243
275.318	2595
275.378	5294
275.438	5117
275.498	4020
275.558	12388
275.618	20128
275.678	11549
275.738	8060
275.798	6395
275.858	3713
275.918	1710
275.978	2522
276.038	2159
276.098	1429
276.157	4400
276.217	12197
276.277	4574
276.337	3018
276.397	1856
276.457	2255
276.517	1609
276.576	1129
276.636	1245
276.696	2323
276.756	7713
276.815	4354
276.875	1499
276.935	1894
276.995	2170
277.055	1559
277.114	1444
277.174	3055
277.234	9759
277.293	3040
277.353	1553
277.413	1794
277.472	2101
277.532	1153
277.592	2772
277.651	7075
277.711	11268
277.771	3434
277.830	17164
277.890	11584
277.950	9213
278.009	25491
278.069	8529
278.128	10126
278.188	11453
278.248	5206
278.307	13769
278.367	7271
278.426	1955
278.486	2224
278.545	1481
278.605	1069
278.664	703
278.724	1892
278.783	7004
278.843	16127
278.902	3919
278.962	2443
279.021	3480
279.081	4291
279.140	4112
279.199	3367
279.259	3726
279.318	3726
279.378	4892
279.437	8880
279.496	33203
279.556	119914
279.615	72854
279.675	17635
279.734	9884
279.793	14992
279.853	21135
279.912	7393
279.971	4566
280.031	3686
280.090	9464
280.149	14279
280.208	14198
280.268	79104
280.327	62984
280.386	13483
280.445	9994
280.505	7814
280.564	4426
280.623	3707
280.682	6022
280.742	8017
280.801	2642
280.860	1513
280.919	2067
280.978	1329
281.037	1625
281.097	795
281.156	2123
281.215	2004
281.274	2009
281.333	11820
281.392	6500
281.451	1768
281.510	879
281.569	739
281.628	1172
281.688	202
281.747	2053
281.806	933
281.865	986
281.924	1272
281.983	1289
282.042	256
282.101	864
282.160	1372
282.219	761
282.278	1694
282.337	6035
282.396	3311
282.454	1719
282.513	2304
282.572	9489
282.631	4520
282.690	1269
282.749	860
282.808	1662
282.867	1562
282.926	2107
282.985	774
283.043	589
283.102	454
283.161	1037
283.220	5246
283.279	10223
283.338	2983
283.396	2181
283.455	1520
283.514	1820
283.573	2777
283.631	1666
283.690	1053
283.749	910
283.808	4208
283.866	3763
283.925	1128
283.984	1692
284.043	1862
284.101	2443
284.160	1060
284.219	3558
284.277	1421
284.336	2812
284.395	12192
284.453	9072
284.512	3000
284.570	5526
284.629	2989
284.688	2976
284.746	3144
284.805	3732
284.863	4209
284.922	6023
284.981	7912
285.039	10876
285.098	18797
285.156	46901
285.215	104581
285.273	92939
285.332	45006
285.390	23380
285.449	13987
285.507	9633
285.566	6837
285.624	5281
285.683	4099
285.741	3592
285.799	2491
285.858	3449
285.916	1866
285.975	1773
286.033	801
286.091	1744
286.150	734
286.208	2188
286.267	1769
286.325	1700
286.383	3027
286.442	2830
286.500	880
286.558	1147
286.616	946
286.675	1652
286.733	1799
286.791	662
286.850	2318
286.908	2897
286.966	4423
287.024	1600
287.083	195
287.141	1027
287.199	1741
287.257	2197
287.315	2265
287.374	1461
287.432	5540
287.490	3602
287.548	1726
287.606	1985
287.664	1766
287.723	2584
287.781	4035
287.839	3093
287.897	3231
287.955	4113
288.013	5909
288.071	14597
288.129	60727
288.187	139471
288.245	58064
288.303	20113
288.361	11295
288.419	8063
288.477	4256
288.535	3961
288.593	2603
288.651	1765
288.709	846
288.767	2720
288.825	1526
288.883	1068
288.941	795
288.999	617
289.057	675
289.115	752
289.173	774
289.231	1037
289.289	1399
289.346	1479
289.404	999
289.462	2247
289.520	2038
289.578	901
289.636	65
289.694	1094
289.751	806
289.809	141
289.867	859
289.925	2178
289.983	1722
290.040	1248
290.098	446
290.156	527
290.214	1300
290.271	672
290.329	574
290.387	224
290.444	772
290.502	-67
290.560	892
290.617	968
290.675	53
290.733	447
290.790	1588
290.848	1829
290.906	587
290.963	475
291.021	1054
291.078	961
291.136	1412
291.194	6313
291.251	13986
291.309	3412
291.366	1843
291.424	918
291.481	1039
291.539	369
291.596	990
291.654	-227
291.711	113
291.769	1488
291.826	3173
291.884	1141
291.941	123
291.999	496
292.056	1643
292.114	1291
292.171	953
292.228	1286
292.286	652
292.343	2855
292.401	3028
292.458	2002
292.515	1314
292.573	1943
292.630	2123
292.687	1819
292.745	1216
292.802	2387
292.859	8721
292.917	11927
292.974	4971
293.031	2539
293.089	879
293.146	961
293.203	1380
293.260	1062
293.318	1309
293.375	3875
293.432	1756
293.489	1386
293.546	1570
293.604	1789
293.661	7863
293.718	17799
293.775	9050
293.832	4146
293.889	2336
293.947	2624
294.004	1944
294.061	2633
294.118	5939
294.175	12336
294.232	18221
294.289	6649
294.346	2987
294.403	3535
294.460	2856
294.517	1516
294.574	1321
294.631	1900
294.688	1761
294.745	5834
294.802	23574
294.859	26372
294.916	8680
294.973	5084
295.030	3082
295.087	2978
295.144	2068
295.201	2385
295.258	1725
295.315	1652
295.372	7526
295.429	14577
295.486	6131
295.542	4345
295.599	13140
295.656	20599
295.713	13434
295.770	13596
295.827	5045
295.883	3403
295.940	3008
295.997	4770
296.054	3981
296.111	2712
296.167	1765
296.224	879
296.281	1181
296.338	1587
296.394	1101
296.451	2018
296.508	7076
296.564	13135
296.621	9206
296.678	19253
296.734	23930
296.791	8592
296.848	4834
296.904	5253
296.961	10122
297.018	16507
297.074	11341
297.131	4918
297.187	3221
297.244	5278
297.301	17177
297.357	26363
297.414	8942
297.470	4375
297.527	2610
297.583	1701
297.640	2077
297.696	1696
297.753	1156
297.809	1445
297.866	927
297.922	1430
297.979	1386
298.035	1689
298.092	3054
298.148	9542
298.204	7925
298.261	4060
298.317	9927
298.374	20861
298.430	10835
298.486	5750
298.543	3742
298.599	3353
298.656	3495
298.712	6855
298.768	17486
298.824	11496
298.881	3427
298.937	2727
298.993	1800
299.050	2009
299.106	2226
299.162	1753
299.218	2868
299.275	1903
299.331	1635
299.387	4767
299.443	17691
299.500	15245
299.556	4568
299.612	3059
299.668	2808
299.724	2170
299.780	1632
299.837	2145
299.893	4536
299.949	14184
300.005	14136
300.061	14242
300.117	23593
300.173	10912
300.229	5293
300.285	5699
300.341	6360
300.397	3050
300.453	2092
300.510	1810
300.566	1539
300.622	2124
300.678	3081
300.734	9131
300.790	11946
300.845	15689
300.901	8302
300.957	12207
301.013	9670
301.069	2916
301.125	2435
301.181	2533
301.237	1312
301.293	1545
301.349	1368
301.405	1741
301.461	1032
301.516	2937
301.572	2049
301.628	4312
301.684	3738
301.740	7337
301.796	9000
301.851	6961
301.907	11344
301.963	10061
302.019	18265
302.074	50993
302.130	46842
302.186	21670
302.242	8724
302.297	5829
302.353	5049
302.409	10334
302.464	7887
302.520	7605
302.576	17474
302.631	18982
302.687	10202
302.743	4798
302.798	3405
302.854	2399
302.910	2638
302.965	3483
303.021	6125
303.076	5872
303.132	6690
303.187	7890
303.243	4175
303.299	1746
303.354	2696
303.410	1888
303.465	2002
303.521	2538
303.576	2264
303.632	2949
303.687	5311
303.743	15579
303.798	13023
303.853	4874
303.909	2864
303.964	2213
304.020	3732
304.075	6138
304.130	5439
304.186	9943
304.241	10769
304.297	8463
304.352	3760
304.358	3714
304.407	3343
304.449	2998
304.463	2879
304.518	2603
304.539	2573
304.573	2532
304.629	3420
304.630	3444
304.684	4731
304.720	10192
304.739	12831
304.794	17246
304.811	14640
304.850	8467
304.902	4395
304.905	4143
304.960	3389
304.992	3569
305.015	3664
305.071	2985
305.083	2940
305.126	2751
305.173	2189
305.181	2111
305.236	2355
305.264	2308
305.292	2262
305.347	2797
305.354	2835
305.402	3113
305.445	3725
305.457	3868
305.512	5013
305.535	5003
305.567	5110
305.622	4853
305.626	4998
305.678	8890
305.716	17314
305.733	19992
305.788	18940
305.807	16337
305.843	12703
305.897	17980
305.898	18028
305.953	16243
305.988	11159
306.008	8598
306.063	6266
306.078	5656
306.118	4293
306.168	2836
306.173	2705
306.228	2296
306.259	2526
306.283	2896
306.338	2522
306.349	2875
306.393	4106
306.440	4347
306.448	4412
306.503	4353
306.530	4747
306.558	6691
306.613	14897
306.620	15663
306.668	18163
306.711	20162
306.723	19948
306.778	13734
306.801	10712
306.833	7984
306.888	5017
306.892	4869
306.943	3945
306.982	3835
306.997	3831
307.052	4017
307.072	4010
307.107	4611
307.162	7158
307.163	7179
307.217	10529
307.253	12163
307.272	12012
307.327	11188
307.343	10094
307.381	8393
307.434	8040
307.436	8313
307.491	16693
307.524	23339
307.546	23741
307.600	18659
307.614	16274
307.655	10707
307.704	6762
307.710	6874
307.765	10128
307.795	13055
307.819	15272
307.874	22156
307.885	22212
307.929	18079
307.975	14414
307.984	15088
308.038	21643
308.065	26616
308.093	43070
308.148	84123
308.156	92268
308.202	121791
308.246	133742
308.257	129462
308.312	78487
308.336	58640
308.366	45247
308.421	27510
308.426	25915
308.475	17808
308.517	12914
308.530	12227
308.585	11288
308.607	10863
308.639	11355
308.694	13032
308.697	13163
308.748	22295
308.787	31464
308.803	30847
308.857	22210
308.877	18799
308.912	17541
308.967	17903
308.967	17883
309.021	23419
309.058	28443
309.076	36546
309.130	64065
309.148	74404
309.185	110655
309.238	172940
309.239	173369
309.293	173156
309.328	157083
309.348	138427
309.402	79063
309.418	63735
309.457	46441
309.508	29229
309.511	28860
309.566	24086
309.598	22194
309.620	23160
309.674	26305
309.688	27249
309.729	25247
309.778	20862
309.783	20516
309.837	16473
309.868	14310
309.892	18073
309.946	28256
309.959	31061
310.001	37626
310.049	43255
310.055	41755
310.109	24533
310.139	15271
310.163	12920
310.218	9014
310.229	8300
310.272	7753
310.319	7113
310.326	6983
310.381	6203
310.409	5925
310.435	6215
310.489	6464
310.499	6572
310.543	7329
310.589	7775
310.598	7854
310.652	8478
310.679	8542
310.706	7714
310.760	6247
310.769	5956
310.814	5322
310.859	4934
310.868	4993
310.923	5124
310.948	5222
310.977	5664
311.031	6425
311.038	6522
311.085	6816
311.128	6857
311.139	6877
311.193	7023
311.218	7010
311.247	6790
311.301	6454
311.308	6381
311.356	7287
311.398	8057
311.410	7852
311.464	6731
311.488	6174
311.518	5876
311.572	5381
311.578	5312
311.626	7974
311.668	10242
311.680	10497
311.734	11452
311.758	11834
311.788	11289
311.842	10243
311.847	10095
311.896	14277
311.937	17914
311.950	17341
312.004	14477
312.027	13175
312.058	11270
312.112	7806
312.117	7437
312.165	8054
312.207	8540
312.297	14765
312.386	10081
312.476	8741
312.566	13969
312.656	7894
312.745	7392
312.835	8776
312.925	9653
313.015	8647
313.104	9263
313.194	6566
313.284	7017
313.374	9016
313.463	8199
313.553	7298
313.643	7012
313.732	7027
313.822	5944
313.912	7444
314.001	9032
314.091	11150
314.180	14818
314.270	10356
314.360	11800
314.449	8554
314.539	7501
314.628	7722
314.718	9408
314.808	9808
314.897	7330
314.987	6768
315.076	7314
315.166	9876
315.255	9565
315.345	10070
315.434	9384
315.524	8798
315.613	8737
315.703	10023
315.792	9717
315.881	7287
315.971	7594
316.060	15463
316.150	24257
316.239	24653
316.328	9913
316.418	6471
316.507	6248
316.597	7817
316.686	7249
316.775	14022
316.865	24197
316.954	6847
317.043	5689
317.133	6743
317.222	5888
317.311	6761
317.400	4617
317.490	8380
317.579	7960
317.668	6022
317.757	7360
317.847	8365
317.936	10824
318.025	14503
318.114	9445
318.203	8544
318.293	15589
318.382	27089
318.471	21578
318.560	33295
318.649	65833
318.738	13343
318.828	9569
318.917	9331
319.006	12788
319.095	31877
319.184	81194
319.273	35883
319.362	17271
319.451	7335
319.540	8170
319.629	16700
319.718	21957
319.807	12508
319.896	30103
319.985	93104
320.074	28407
320.163	11525
320.252	16437
320.341	20283
320.430	16953
320.519	15361
320.608	9279
320.697	8772
320.786	8533
320.875	9347
320.964	10812
321.053	15785
321.142	22142
321.230	21468
321.319	21605
321.408	48382
321.497	18388
321.586	18510
321.675	27367
321.764	23661
321.852	17846
321.941	27360
322.030	15874
322.119	22867
322.207	43934
322.296	35733
322.385	19397
322.474	17837
322.562	51621
322.651	26056
322.740	19533
322.829	27455
322.917	32167
323.006	16539
323.095	14478
323.183	12559
323.272	18351
323.361	33273
323.449	78247
323.538	27070
323.626	65374
323.715	30616
323.804	19013
323.892	59452
323.981	26056
324.069	11140
324.158	36965
324.246	26468
324.335	12515
324.424	16550
324.512	7663
324.601	10328
324.689	11247
324.778	18071
324.866	21676
324.954	8205
325.043	8434
325.131	16941
325.220	28547
325.308	28630
325.397	23207
325.485	12782
325.574	6520
325.662	6434
325.750	7534
325.839	6755
325.927	5823
326.015	8946
326.104	12788
326.192	14261
326.280	6808
326.369	6478
326.457	8800
326.545	14496
326.634	7024
326.722	5975
326.810	5555
326.898	5845
326.987	7024
327.075	14140
327.163	13945
327.251	8325
327.340	9047
327.428	8964
327.516	5113
327.604	5846
327.692	5733
327.781	8090
327.869	12686
327.957	8679
328.045	7284
328.133	5655
328.221	7875
328.309	6519
328.397	5874
328.485	6917
328.574	8787
328.662	26548
328.750	15050
328.838	8094
328.926	6612
329.014	5890
329.102	10011
329.190	29820
329.278	14108
329.366	5326
329.454	5321
329.542	6020
329.630	5554
329.718	6490
329.806	7527
329.893	8961
329.981	7065
330.069	8726
330.157	25251
330.245	59310
330.333	28632
330.421	8189
330.509	11107
330.597	33193
330.684	22724
330.772	12724
330.860	21167
330.948	29635
331.036	10336
331.123	5037
331.211	5943
331.299	8834
331.387	26500
331.475	37231
331.562	10399
331.650	5736
331.738	7634
331.825	10664
331.913	6518
332.001	4334
332.089	8837
332.176	17700
332.264	35731
332.352	23605
332.439	9658
332.527	7768
332.614	6318
332.702	8334
332.790	6207
332.877	18012
332.965	29279
333.052	6927
333.140	8065
333.228	14039
333.315	6514
333.403	8293
333.490	21396
333.578	14963
333.665	13236
333.753	8556
333.840	5273
333.928	7853
334.015	22170
334.103	34051
334.190	93218
334.278	22231
334.365	10257
334.452	6086
334.540	4912
334.627	7911
334.715	10174
334.802	20405
334.889	103528
334.977	74393
335.064	9744
335.151	6757
335.239	9214
335.326	12767
335.413	53848
335.501	58476
335.588	9244
335.675	6999
335.762	13057
335.850	21682
335.937	9481
336.024	28973
336.111	111804
336.199	37088
336.286	6989
336.373	5171
336.460	4276
336.547	4883
336.635	7579
336.722	6548
336.809	6966
336.896	9146
336.983	35326
337.070	79790
337.157	94580
337.245	71486
337.332	40732
337.419	7343
337.506	6080
337.593	8290
337.680	35594
337.767	85835
337.854	23603
337.941	30845
338.028	28101
338.115	9272
338.202	16615
338.289	25160
338.376	66237
338.463	20885
338.550	56937
338.637	48223
338.724	17626
338.811	23566
338.898	6639
338.984	6585
339.071	10725
339.158	8435
339.245	19675
339.332	12292
339.419	19031
339.506	15275
339.593	3972
339.679	4974
339.766	5132
339.853	7964
339.940	12119
340.027	5302
340.113	6425
340.200	8614
340.287	6088
340.374	8949
340.460	12048
340.547	5599
340.634	9336
340.720	29318
340.807	14475
340.894	4638
340.980	5330
341.067	4249
341.154	6087
341.240	8138
341.327	15677
341.414	6297
341.500	5793
341.587	5764
341.674	5392
341.760	11507
341.847	11662
341.933	5321
342.020	2790
342.106	2906
342.193	5151
342.279	8619
342.366	6773
342.452	10722
342.539	6690
342.625	14797
342.712	29793
342.798	13001
342.885	6871
342.971	2435
343.058	3062
343.144	4045
343.230	2887
343.317	4153
343.403	3410
343.490	3930
343.576	3426
343.662	3999
343.749	5073
343.835	5410
343.921	10394
344.008	51471
344.094	90789
344.180	20790
344.267	10920
344.353	31360
344.439	32946
344.525	17837
344.612	16928
344.698	19306
344.784	10397
344.870	5873
344.957	5400
345.043	8171
345.129	6165
345.215	10832
345.301	6466
345.387	4916
345.474	3756
345.560	4364
345.646	5934
345.732	5021
345.818	6252
345.904	5251
345.990	5162
346.076	6809
346.162	11450
346.249	5468
346.335	4225
346.421	4842
346.507	14879
346.593	36603
346.679	10369
346.765	6192
346.851	3967
346.937	4589
347.023	4627
347.108	5141
347.194	4586
347.280	5100
347.366	5447
347.452	13193
347.538	43975
347.624	36166
347.710	30991
347.796	7018
347.882	5882
347.967	5672
348.053	11428
348.139	5979
348.225	4197
348.311	4219
348.397	4056
348.482	6111
348.568	5788
348.654	3776
348.740	2957
348.825	2417
348.911	7700
348.997	25483
349.083	40792
349.168	8574
349.254	4755
349.340	4866
349.425	4218
349.511	6236
349.597	7607
349.682	12128
349.768	29691
349.854	14120
349.939	6417
350.025	4374
350.110	6164
350.196	3758
350.282	2688
350.367	4063
350.453	8514
350.538	7329
350.624	6661
350.709	8298
350.795	4249
350.880	3573
350.966	5720
351.051	8295
351.137	6289
351.222	4435
351.308	12853
351.393	28064
351.479	8252
351.564	4561
351.649	5730
351.735	4264
351.820	4016
351.906	4324
351.991	7045
352.076	21634
352.162	25685
352.247	6990
352.332	5275
352.418	9676
352.503	12169
352.588	44089
352.673	32055
352.759	9233
352.844	4915
352.929	5731
353.014	7363
353.100	6244
353.185	8171
353.270	12898
353.355	12126
353.441	5473
353.526	6481
353.611	12259
353.696	12346
353.781	8109
353.866	4954
353.952	5967
354.037	11646
354.122	22546
354.207	21088
354.292	9526
354.377	5356
354.462	5051
354.547	6642
354.632	7507
354.717	12147
354.802	10081
354.887	5447
354.972	4866
355.057	4421
355.142	3908
355.227	6239
355.312	8483
355.397	17674
355.482	35294
355.567	17404
355.652	14293
355.737	14166
355.822	35258
355.907	26654
355.991	8145
356.076	5412
356.161	4965
356.246	4707
356.331	5974
356.416	11713
356.501	53578
356.585	46883
356.670	10686
356.755	8465
356.840	11180
356.924	45115
357.009	119854
357.094	45058
357.179	13501
357.263	8941
357.348	10930
357.433	11316
357.517	9644
357.602	7935
357.687	7367
357.771	11662
357.856	30706
357.941	19923
358.025	39780
358.110	120907
358.195	56079
358.279	13873
358.364	12918
358.448	31608
358.533	70358
358.617	51444
358.702	47032
358.787	18606
358.871	14268
358.956	13327
359.040	6763
359.125	3970
359.209	5507
359.294	15396
359.378	22748
359.462	10728
359.547	7046
359.631	5359
359.716	4314
359.800	6189
359.885	11615
359.969	5120
360.053	5575
360.138	5414
360.222	7210
360.306	10962
360.391	9992
360.475	19155
360.559	35465
360.644	29677
360.728	18121
360.812	32548
360.896	71422
360.981	42041
361.065	26389
361.149	8154
361.233	7771
361.318	6104
361.402	7581
361.486	6778
361.570	4683
361.654	5674
361.739	14907
361.823	52671
361.907	69403
361.991	14736
362.075	11071
362.159	19596
362.243	13235
362.327	8406
362.411	8332
362.495	7624
362.580	5987
362.664	4708
362.748	3642
362.832	3909
362.916	3610
363.000	10811
363.084	49015
363.168	76438
363.252	20240
363.336	10958
363.420	16498
363.503	70354
363.587	74000
363.671	12981
363.755	9732
363.839	12630
363.923	5713
364.007	11738
364.091	13622
364.175	25860
364.258	96155
364.342	43058
364.426	13372
364.510	8787
364.594	15501
364.677	21673
364.761	64563
364.845	43184
364.929	18929
365.013	15865
365.096	13818
365.180	16250
365.264	32889
365.347	102043
365.431	51277
365.515	16204
365.598	6369
365.682	6947
365.766	18643
365.849	23009
365.933	7577
366.017	14872
366.100	12424
366.184	3449
366.267	5603
366.351	4443
366.435	3858
366.518	3222
366.602	3385
366.685	4002
366.769	4813
366.852	15353
366.936	21635
367.019	9372
367.103	14113
367.186	25992
367.270	6140
367.353	2990
367.436	4775
367.520	3681
367.603	4740
367.687	6953
367.770	12659
367.853	8170
367.937	23108
368.020	31641
368.104	8840
368.187	11366
368.270	15554
368.353	15510
368.437	21783
368.520	47887
368.603	26636
368.687	28619
368.770	44554
368.853	14018
368.936	20101
369.020	21952
369.103	6559
369.186	5216
369.269	4994
369.352	10258
369.436	15467
369.519	9513
369.602	4689
369.685	6359
369.768	5882
369.851	6497
369.934	3567
370.018	6883
370.101	11246
370.184	11759
370.267	10014
370.350	13976
370.433	21919
370.516	37017
370.599	35140
370.682	13205
370.765	31531
370.848	37487
370.931	54862
371.014	28956
371.097	7305
371.180	5588
371.263	3742
371.346	2606
371.429	4378
371.511	4353
371.594	8962
371.677	18081
371.760	25673
371.843	15692
371.926	55320
372.009	100999
372.091	37922
372.174	26179
372.257	48989
372.340	21044
372.423	29527
372.505	40205
372.588	15203
372.671	21546
372.754	51616
372.836	27498
372.919	37235
373.002	68139
373.085	19129
373.167	12702
373.250	26765
373.332	50980
373.415	75497
373.498	128164
373.580	53765
373.663	64613
373.746	77628
373.828	22055
373.911	13609
373.993	16982
374.076	65579
374.159	59499
374.241	22305
374.324	49193
374.406	34122
374.489	45146
374.571	101976
374.654	43784
374.736	26544
374.819	69330
374.901	97598
374.983	90114
375.066	18709
375.148	11816
375.231	54340
375.313	98690
375.395	41992
375.478	8341
375.560	6535
375.643	8187
375.725	26781
375.807	81793
375.890	75983
375.972	40857
376.054	24918
376.136	39045
376.219	16292
376.301	29542
376.383	65956
376.465	28097
376.548	20009
376.630	26329
376.712	57081
376.794	26935
376.877	6234
376.959	4907
377.041	7285
377.123	22026
377.205	25771
377.287	5348
377.369	5032
377.452	5014
377.534	5681
377.616	4555
377.698	4051
377.780	4015
377.862	4798
377.944	5867
378.026	4040
378.108	4881
378.190	5264
378.272	4712
378.354	4434
378.436	4260
378.518	12849
378.600	37963
378.682	28400
378.764	36573
378.846	29795
378.928	14341
379.010	15641
379.091	10004
379.173	6467
379.255	5322
379.337	7064
379.419	21252
379.501	48578
379.583	22587
379.664	8688
379.746	16023
379.828	40558
379.910	49228
379.991	38640
380.073	9997
380.155	8442
380.237	7087
380.318	6802
380.400	6998
380.482	11853
380.564	15941
380.645	15003
380.727	14856
380.809	11215
380.890	7728
380.972	6487
381.053	7414
381.135	8665
381.217	16744
381.298	39921
381.380	22498
381.461	21759
381.543	63976
381.624	72008
381.706	18275
381.787	14370
381.869	14194
381.951	37883
382.032	99224
382.113	67996
382.195	21385
382.276	16039
382.358	27448
382.439	56330
382.521	68072
382.602	90725
382.684	50708
382.765	84324
382.846	84640
382.928	89690
383.009	52080
383.090	45348
383.172	137338
383.253	185892
383.334	80728
383.416	83429
383.497	45095
383.578	24345
383.659	43397
383.741	132667
383.822	272481
383.903	141843
383.984	65029
384.066	105098
384.147	67483
384.228	20202
384.309	16346
384.390	13518
384.471	11473
384.553	13699
384.634	17402
384.715	18583
384.796	12901
384.877	16031
384.958	39909
385.039	46297
385.120	23381
385.201	15574
385.282	19844
385.363	24062
385.444	19941
385.525	23475
385.606	49959
385.687	41769
385.768	21107
385.849	27384
385.930	63205
386.011	90036
386.092	35887
386.173	19724
386.254	14748
386.335	14012
386.416	14531
386.496	30759
386.577	44859
386.658	27594
386.739	19299
386.820	22393
386.901	21317
386.981	20980
387.062	20354
387.143	25036
387.224	39562
387.304	37714
387.385	18104
387.466	14823
387.547	20211
387.627	12408
387.708	21503
387.789	62970
387.869	69574
387.950	26638
388.031	15243
388.111	21080
388.192	45264
388.273	65724
388.353	40160
388.434	12558
388.514	16357
388.595	52519
388.676	67534
388.756	37244
388.837	35268
388.917	22840
388.998	6673
389.078	6531
389.159	5567
389.239	4320
389.320	8798
389.400	7019
389.480	19059
389.561	36754
389.641	18849
389.722	9046
389.802	13490
389.883	20343
389.963	39913
390.043	30612
390.124	16331
390.204	17437
390.284	40444
390.365	30196
390.445	52365
390.525	93808
390.605	65506
390.686	22899
390.766	9378
390.846	5616
390.927	4136
391.007	4002
391.087	8186
391.167	8579
391.247	5470
391.328	12255
391.408	21907
391.488	16798
391.568	3615
391.648	6307
391.728	8750
391.808	8281
391.888	8367
391.969	20293
392.049	31215
392.129	21390
392.209	20805
392.289	36523
392.369	26793
392.449	37291
392.529	20585
392.609	11331
392.689	13356
392.769	33767
392.849	28859
392.929	31266
393.009	62915
393.089	32880
393.169	9601
393.248	26319
393.328	110269
393.408	113465
393.488	22205
393.568	8473
393.648	7223
393.728	5552
393.807	4773
393.887	6764
393.967	7123
394.047	10255
394.127	16038
394.206	30667
394.286	108835
394.366	307529
394.446	314764
394.525	108119
394.605	34107
394.685	27027
394.764	56115
394.844	81884
394.924	50718
395.003	14179
395.083	9836
395.163	8549
395.242	8049
395.322	8855
395.402	6181
395.481	11162
395.561	34609
395.640	77750
395.720	56154
395.799	84145
395.879	74655
395.958	54697
396.038	161723
396.117	389502
396.197	396486
396.276	189017
396.356	77919
396.435	51878
396.515	27839
396.594	18124
396.673	18344
396.753	37663
396.832	103701
396.912	95932
396.991	33243
397.070	10092
397.150	5663
397.229	5398
397.308	4947
397.388	5054
397.467	5103
397.546	4987
397.625	2818
397.705	7364
397.784	6477
397.863	4306
397.942	3242
398.022	5497
398.101	29510
398.180	79153
398.259	46865
398.338	13150
398.417	5973
398.497	6209
398.576	5632
398.655	3433
398.734	3529
398.813	6670
398.892	28368
398.971	78272
399.050	39970
399.129	5622
399.208	3610
399.287	4919
399.366	3019
399.445	3644
399.524	3961
399.603	2315
399.682	8207
399.761	25835
399.840	79255
399.919	63168
399.998	10001
400.077	2543
400.156	2543
400.235	7197
400.313	4531
400.392	5869
400.471	22583
400.550	33385
400.629	9950
400.708	6594
400.786	9235
400.865	27519
400.944	29871
401.023	12012
401.102	2440
401.180	3085
401.259	3919
401.338	6075
401.416	6712
401.495	6351
401.574	6775
401.652	5046
401.731	7883
401.810	5961
401.888	3328
401.967	2745
402.046	4129
402.124	7515
402.203	8301
402.281	6519
402.360	10294
402.438	32464
402.517	23807
402.596	8308
402.674	8202
402.753	4934
402.831	3872
402.910	4609
402.988	16620
403.066	42216
403.145	25498
403.223	17145
403.302	35157
403.380	27637
403.459	25147
403.537	12271
403.615	5545
403.694	2029
403.772	3295
403.850	2590
403.929	2501
404.007	3281
404.085	7590
404.164	7400
404.242	7523
404.320	25867
404.398	69003
404.477	75488
404.555	89927
404.633	78090
404.711	55367
404.789	38451
404.868	10622
404.946	5244
405.024	3930
405.102	2652
405.180	2209
405.258	1935
405.336	3999
405.415	3737
405.493	10741
405.571	8752
405.649	1891
405.727	3433
405.805	7913
405.883	5962
405.961	7403
406.039	10526
406.117	3642
406.195	5488
406.273	21889
406.351	66338
406.429	45030
406.507	13683
406.585	4239
406.663	4050
406.740	5652
406.818	4595
406.896	3656
406.974	4650
407.052	8130
407.130	42183
407.208	55049
407.285	12026
407.363	2953
407.441	3277
407.519	2502
407.596	3926
407.674	8961
407.752	22874
407.830	32565
407.907	19478
407.985	5170
408.063	3307
408.141	2761
408.218	9987
408.296	8580
408.373	3407
408.451	3528
408.529	2783
408.606	2049
408.684	2569
408.762	1188
408.839	1370
408.917	1568
408.994	2095
409.072	1269
409.149	1525
409.227	3283
409.304	2998
409.382	2421
409.459	783
409.537	2274
409.614	2834
409.692	1563
409.769	1667
409.846	2670
409.924	5498
410.001	3100
410.079	3249
410.156	3992
410.233	4220
410.311	2763
410.388	1850
410.465	3404
410.543	2918
410.620	2472
410.697	2974
410.775	3162
410.852	994
410.929	3873
411.006	5504
411.083	3597
411.161	8657
411.238	13081
411.315	8844
411.392	3287
411.469	4308
411.547	5673
411.624	2110
411.701	3026
411.778	3496
411.855	6561
411.932	4905
412.009	2271
412.086	3049
412.163	4449
412.240	5870
412.317	7977
412.394	6845
412.471	3685
412.548	2285
412.625	2688
412.702	5155
412.779	9542
412.856	7317
412.933	2348
413.010	3436
413.087	6097
413.164	20914
413.241	28026
413.318	7136
413.395	5475
413.471	6994
413.548	4078
413.625	3784
413.702	4776
413.779	5055
413.855	2365
413.932	2030
414.009	1733
414.086	1899
414.162	3132
414.239	6843
414.316	22842
414.393	40581
414.469	15212
414.546	2834
414.623	2352
414.699	1983
414.776	3687
414.853	3041
414.929	2929
415.006	3988
415.082	6360
415.159	5263
415.236	3911
415.312	3808
415.389	5793
415.465	7522
415.542	4278
415.618	2661
415.695	5079
415.771	4321
415.848	3707
415.924	4489
416.000	4450
416.077	3158
416.153	1466
416.230	691
416.306	1542
416.383	2742
416.459	2770
416.535	1950
416.612	2205
416.688	2606
416.764	2642
416.841	1773
416.917	3168
416.993	3057
417.069	3829
417.146	6360
417.222	9857
417.298	5717
417.374	2568
417.451	3864
417.527	3815
417.603	3887
417.679	3020
417.755	2848
417.831	1722
417.908	2408
417.984	2145
418.060	2791
418.136	5650
418.212	7917
418.288	3706
418.364	3207
418.440	1691
418.516	4903
418.592	10329
418.668	14256
418.744	13693
418.820	10377
418.896	3161
418.972	1227
419.048	2201
419.124	6446
419.200	3991
419.276	1752
419.352	1115
419.428	2492
419.504	2158
419.579	3597
419.655	3554
419.731	4044
419.807	9395
419.883	15245
419.959	9682
420.034	4100
420.110	7949
420.186	25808
420.262	21157
420.337	4508
420.413	4303
420.489	2203
420.565	2218
420.640	1347
420.716	2415
420.792	750
420.867	2717
420.943	1084
421.019	4458
421.094	3428
421.170	2889
421.245	1317
421.321	2703
421.397	1413
421.472	5203
421.548	9960
421.623	8549
421.699	3220
421.774	2587
421.850	1835
421.925	3706
422.001	2008
422.076	1944
422.152	1703
422.227	4191
422.302	4079
422.378	3303
422.453	5021
422.529	12775
422.604	51518
422.679	111441
422.755	58978
422.830	12218
422.905	3836
422.981	1890
423.056	1487
423.131	1653
423.207	2226
423.282	3165
423.357	7192
423.432	4010
423.508	5385
423.583	11907
423.658	9346
423.733	3888
423.808	5810
423.883	4588
423.959	3186
424.034	2209
424.109	1869
424.184	843
424.259	1206
424.334	1805
424.409	1210
424.484	1399
424.559	2514
424.634	1751
424.709	3016
424.784	3210
424.859	2471
424.934	5629
425.009	19018
425.084	29255
425.159	11095
425.234	2238
425.309	1935
425.384	9084
425.459	14272
425.534	6019
425.609	2957
425.683	2566
425.758	1782
425.833	2536
425.908	4408
425.983	12193
426.058	30660
426.132	14632
426.207	4782
426.282	9878
426.357	8640
426.431	2491
426.506	2515
426.581	3316
426.655	3147
426.730	2619
426.805	1951
426.879	2421
426.954	3381
427.029	6372
427.103	29343
427.178	58725
427.253	27268
427.327	4831
427.402	11242
427.476	24248
427.551	10403
427.625	4532
427.700	4613
427.774	2737
427.849	4938
427.923	2415
427.998	1433
428.072	3226
428.147	7232
428.221	14245
428.296	19119
428.370	7221
428.444	4682
428.519	13305
428.593	26129
428.667	23044
428.742	25949
428.816	20699
428.890	31787
428.965	36357
429.039	24460
429.113	28303
429.188	9653
429.262	3231
429.336	5978
429.410	15587
429.485	13729
429.559	21017
429.633	17463
429.707	4963
429.781	12318
429.855	45431
429.930	54670
430.004	54188
430.078	96492
430.152	65245
430.226	20225
430.300	12873
430.374	3601
430.448	5989
430.522	31024
430.596	79451
430.670	42742
430.744	36005
430.818	53933
430.892	14010
430.966	3246
431.040	1921
431.114	529
431.188	1410
431.262	1291
431.336	2673
431.410	11814
431.484	30389
431.557	17150
431.631	1389
431.705	1898
431.779	3472
431.853	11318
431.927	9070
432.000	1529
432.074	1417
432.148	4660
432.222	4285
432.295	1970
432.369	2138
432.443	4937
432.516	29897
432.590	59706
432.664	24811
432.737	3156
432.811	803
432.885	641
432.958	1097
433.032	1073
433.106	685
433.179	1062
433.253	1642
433.326	1678
433.400	991
433.473	1464
433.547	903
433.620	1362
433.694	4120
433.767	3701
433.841	2095
433.914	928
433.988	1179
434.061	877
434.134	1184
434.208	589
434.281	1005
434.355	828
434.428	2268
434.501	869
434.575	1604
434.648	2469
434.721	679
434.795	824
434.868	1102
434.941	892
435.014	666
435.088	1305
435.161	2092
435.234	3528
435.307	3637
435.381	1667
435.454	1292
435.527	627
435.600	1477
435.673	1131
435.746	995
435.819	671
435.892	1313
435.966	1531
436.039	2164
436.112	2073
436.185	211
436.258	810
436.331	167
436.404	567
436.477	1032
436.550	1426
436.623	983
436.696	1002
436.769	1817
436.842	2057
436.915	2451
436.987	3460
437.060	1285
437.133	1461
437.206	1645
437.279	1844
437.352	687
437.425	499
437.498	1771
437.570	4469
437.643	4636
437.716	1703
437.789	1655
437.861	4313
437.934	11269
438.007	4675
438.080	1063
438.152	1568
438.225	6185
438.298	32305
438.370	71752
438.443	31161
438.516	9226
438.588	2776
438.661	595
438.734	1469
438.806	1882
438.879	2510
438.951	3313
439.024	5637
439.096	1732
439.169	2177
439.241	1140
439.314	1327
439.386	4521
439.459	6180
439.531	7309
439.604	2637
439.676	1547
439.749	-68
439.821	947
439.893	961
439.966	1447
440.038	2525
440.110	2902
440.183	1341
440.255	1595
440.327	3322
440.400	17933
440.472	54144
440.544	31211
440.617	4786
440.689	4157
440.761	5441
440.833	9226
440.905	4958
440.978	1029
441.050	805
441.122	1213
441.194	1053
441.266	1432
441.338	820
441.411	4345
441.483	19527
441.555	26096
441.627	6943
441.699	6690
441.771	6563
441.843	2113
441.915	1689
441.987	377
442.059	1698
442.131	3044
442.203	5050
442.275	5518
442.347	3631
442.419	2149
442.491	3578
442.563	6979
442.635	11718
442.706	24562
442.778	17315
442.850	2074
442.922	532
442.994	2695
443.066	5518
443.137	3301
443.209	1841
443.281	2264
443.353	4858
443.425	9717
443.496	10540
443.568	8125
443.640	3916
443.711	3144
443.783	1940
443.855	1775
443.926	1190
443.998	2302
444.070	4637
444.141	3955
444.213	4262
444.285	4435
444.356	4257
444.428	4439
444.499	1589
444.571	1233
444.642	1181
444.714	1520
444.785	4035
444.857	8173
444.928	20440
445.000	11083
445.071	13453
445.143	14112
445.214	5380
445.285	10565
445.357	27928
445.428	21414
445.500	28087
445.571	27925
445.642	10941
445.714	19172
445.785	29087
445.856	6601
445.928	4301
445.999	3682
446.070	2785
446.141	4005
446.213	4257
446.284	2730
446.355	5179
446.426	2801
446.497	3345
446.569	7293
446.640	8047
446.711	3729
446.782	1874
446.853	3585
446.924	3725
446.995	2537
447.066	4481
447.138	8218
447.209	3910
447.280	544
447.351	635
447.422	849
447.493	3318
447.564	3780
447.635	2843
447.706	1937
447.777	1678
447.847	1814
447.918	1891
447.989	3867
448.060	6360
448.131	14241
448.202	10581
448.273	6027
448.344	4078
448.414	1591
448.485	1985
448.556	2090
448.627	737
448.698	1668
448.768	1430
448.839	2330
448.910	7490
448.981	6240
449.051	2489
449.122	1498
449.193	1337
449.263	1394
449.334	1211
449.405	3154
449.475	5743
449.546	5574
449.616	8575
449.687	6223
449.758	1945
449.828	1556
449.899	1542
449.969	1217
450.040	2073
450.110	3143
450.181	3491
450.251	1206
450.322	1743
450.392	2572
450.463	2405
450.533	1171
450.604	1680
450.674	1911
450.744	2650
450.815	1744
450.885	1378
450.955	1006
451.026	1278
451.096	910
451.166	3106
451.237	10743
451.307	22934
451.377	6944
451.447	1464
451.518	1513
451.588	1818
451.658	2340
451.728	6445
451.799	26056
451.869	25107
451.939	4682
452.009	1374
452.079	2045
452.149	2777
452.219	7733
452.289	28850
452.360	16489
452.430	2864
452.500	2435
452.570	2049
452.640	4789
452.710	14969
452.780	22648
452.850	10981
452.920	7877
452.990	3460
453.060	3718
453.129	4191
453.199	5639
453.269	28263
453.339	47405
453.409	66598
453.479	80314
453.549	118205
453.619	124363
453.688	39082
453.758	6552
453.828	3314
453.898	3093
453.968	3024
454.037	2352
454.087	1899
454.107	1705
454.168	1777
454.177	1778
454.247	1795
454.249	1824
454.316	2160
454.330	2527
454.386	3749
454.411	7803
454.456	14549
454.492	16486
454.525	18320
454.574	9037
454.595	5021
454.655	2550
454.665	2164
454.734	3897
454.736	4034
454.804	7554
454.817	10820
454.873	24059
454.898	23918
454.943	23757
454.979	14698
455.013	6568
455.060	4666
455.082	3918
455.141	5169
455.152	5369
455.221	19559
455.222	19777
455.291	32146
455.303	30395
455.360	22046
455.384	28726
455.430	39441
455.465	29994
455.499	21580
455.546	22742
455.569	23155
455.627	12642
455.638	10780
455.707	2356
455.708	2368
455.777	2915
455.789	2869
455.846	2547
455.869	2480
455.916	2340
455.950	2763
455.985	3148
456.031	2922
456.054	2804
456.112	1936
456.124	1788
456.193	1945
456.193	1928
456.262	2638
456.274	2943
456.332	4467
456.355	4478
456.401	4163
456.436	3053
456.470	2012
456.516	1840
456.540	1768
456.597	1630
456.609	1605
456.678	2107
456.678	2100
456.747	1323
456.759	1395
456.817	1695
456.840	1862
456.886	2291
456.920	2227
456.955	2147
457.001	2053
457.024	2090
457.082	2887
457.093	3024
457.162	4617
457.163	4637
457.232	4541
457.243	4270
457.301	2926
457.324	2323
457.370	1616
457.405	2102
457.439	2610
457.485	2412
457.508	2285
457.566	2614
457.577	2598
457.646	3062
457.647	3065
457.715	2701
457.727	2655
457.784	2791
457.808	2743
457.853	2271
457.889	2455
457.922	2840
457.969	3130
457.991	3102
458.050	3351
458.060	3403
458.129	2698
458.130	2702
458.198	2492
458.211	2540
458.267	2462
458.292	2393
458.336	2539
458.372	2514
458.405	2502
458.453	2864
458.474	2980
458.533	2864
458.543	2861
458.611	4418
458.614	4441
458.680	3765
458.694	3371
458.749	2471
458.775	2618
458.818	2582
458.855	2377
458.887	2454
458.936	2328
458.955	2288
459.016	2793
459.024	2832
459.093	3087
459.097	3086
459.162	2703
459.177	2758
459.230	3197
459.257	3393
459.299	3708
459.338	4016
459.368	4091
459.418	4283
459.437	4250
459.499	3881
459.505	3893
459.574	3676
459.579	3682
459.643	3239
459.659	3134
459.711	3339
459.740	3486
459.780	3619
459.820	3703
459.849	3645
459.900	3951
459.917	3990
459.981	4517
459.986	4565
460.054	3662
460.061	3694
460.123	4186
460.141	4315
460.191	4654
460.222	4820
460.260	5071
460.302	5516
460.328	5331
460.382	4554
460.397	4611
460.462	4685
460.465	4734
460.534	6115
460.543	6365
460.602	10975
460.623	12885
460.671	17941
460.703	24317
460.739	23649
460.783	17379
460.808	15316
460.864	6193
460.876	5038
460.944	3921
460.945	3902
461.013	3748
461.024	3707
461.081	3617
461.104	3733
461.150	4055
461.184	3862
461.218	3572
461.264	3334
461.286	3204
461.345	3370
461.355	3536
461.423	4271
461.425	4286
461.491	4518
461.505	4653
461.559	9153
461.585	11315
461.628	14776
461.665	19232
461.696	20371
461.745	24661
461.764	23497
461.825	8153
461.832	7375
461.901	4509
461.905	4497
461.969	4672
461.985	4547
462.037	4523
462.065	4701
462.105	5591
462.145	6397
462.173	7923
462.225	11194
462.241	11974
462.305	17254
462.310	16933
462.378	9924
462.385	8655
462.446	4503
462.465	4095
462.514	4193
462.545	4403
462.582	4352
462.625	4448
462.650	4488
462.705	4512
462.718	4761
462.785	5825
462.786	5843
462.854	7003
462.865	7335
462.922	9746
462.945	10560
462.990	8145
463.025	5310
463.058	4907
463.104	4888
463.126	4709
463.184	4744
463.194	4765
463.262	4382
463.264	4389
463.330	4967
463.344	5030
463.398	5790
463.424	6126
463.466	5616
463.504	5237
463.533	5373
463.583	5632
463.601	5862
463.663	6194
463.669	6337
463.737	8381
463.743	8570
463.805	13723
463.823	15225
463.873	20070
463.903	23731
463.940	24628
463.982	26051
464.008	22146
464.062	9510
464.076	8624
464.142	5280
464.144	5227
464.211	4944
464.221	4935
464.279	4853
464.301	4751
464.347	5754
464.381	6587
464.414	6847
464.461	7304
464.482	7589
464.540	8484
464.550	8368
464.617	6612
464.620	6554
464.685	7919
464.699	8289
464.753	9369
464.779	9830
464.820	10880
464.859	12060
464.888	11671
464.938	10693
464.956	10774
465.018	11215
465.023	11112
465.091	9170
465.098	8962
465.158	8711
465.177	8662
465.226	8596
465.257	8608
465.293	9138
465.336	9690
465.361	10022
465.416	10738
465.428	11793
465.495	17453
465.496	17522
465.563	24340
465.575	25643
465.631	30308
465.654	32431
465.698	21206
465.734	10185
465.765	9165
465.813	8567
465.833	8356
465.893	8078
465.900	8067
465.968	7968
465.972	7941
466.035	7999
466.052	8059
466.102	7899
466.131	7713
466.170	7634
466.210	7561
466.237	7835
466.290	8331
466.304	8324
466.369	8222
466.372	8256
466.439	8949
466.449	9021
466.506	9465
466.528	9621
466.573	15525
466.607	19923
466.641	25243
466.687	32704
466.708	35132
466.766	42132
466.775	38824
466.842	12859
466.845	11612
466.909	9583
466.925	9228
466.977	9681
467.004	9947
467.044	11012
467.083	12044
467.111	12977
467.163	14681
467.178	14798
467.242	15176
467.245	15197
467.312	15166
467.321	15139
467.379	14033
467.400	13595
467.446	15205
467.480	16327
467.559	13799
467.638	11815
467.717	11374
467.796	13213
467.875	14202
467.955	13583
468.034	24853
468.113	40494
468.192	54274
468.271	14093
468.350	10785
468.429	10654
468.508	9867
468.588	10378
468.667	10877
468.746	11825
468.825	11604
468.904	11285
468.983	13547
469.062	18830
469.141	21485
469.220	11785
469.299	11221
469.378	12137
469.456	15674
469.535	14337
469.614	13668
469.693	14916
469.772	17109
469.851	20405
469.930	14922
470.009	11627
470.088	10690
470.166	11727
470.245	12877
470.324	12746
470.403	11960
470.482	11419
470.560	11821
470.639	10459
470.718	12549
470.797	11457
470.875	14185
470.954	16357
471.033	18128
471.111	9269
471.190	9396
471.269	9325
471.347	10680
471.426	10895
471.505	12867
471.583	13244
471.662	12291
471.740	12165
471.819	11782
471.898	10746
471.976	10855
472.055	10589
472.133	12422
472.212	15525
472.290	15834
472.369	11008
472.447	10933
472.526	9163
472.604	10841
472.683	10205
472.761	10730
472.839	10233
472.918	10590
472.996	10572
473.075	11610
473.153	11380
473.231	10219
473.310	11507
473.388	11337
473.466	11323
473.545	11871
473.623	13984
473.701	12545
473.780	10662
473.858	9135
473.936	12313
474.014	10822
474.093	12315
474.171	16405
474.249	21096
474.327	12890
474.405	9201
474.484	8928
474.562	9317
474.640	9500
474.718	9805
474.796	9268
474.874	9451
474.952	8584
475.030	8192
475.108	9316
475.187	8757
475.265	9719
475.343	12798
475.421	13489
475.499	9478
475.577	10582
475.655	14345
475.733	26365
475.811	42087
475.889	34563
475.966	21969
476.044	10132
476.122	11895
476.200	12295
476.278	11020
476.356	10782
476.434	10956
476.512	11184
476.590	13144
476.667	12636
476.745	8873
476.823	11368
476.901	10142
476.979	11202
477.056	9709
477.134	11005
477.212	10452
477.290	10105
477.367	9663
477.445	9202
477.523	8906
477.601	9703
477.678	9249
477.756	12118
477.834	12627
477.911	9709
477.989	9529
478.066	8514
478.144	11010
478.222	11259
478.299	12103
478.377	11529
478.454	8166
478.532	7863
478.609	8273
478.687	9740
478.764	8936
478.842	9240
478.919	9733
478.997	9373
479.074	9009
479.152	11369
479.229	12200
479.307	8967
479.384	7374
479.461	8311
479.539	9183
479.616	10285
479.694	8540
479.771	9846
479.848	11130
479.926	12395
480.003	14366
480.080	9376
480.157	7642
480.235	8007
480.312	8749
480.389	11473
480.467	16720
480.544	18510
480.621	10414
480.698	9678
480.775	10664
480.853	11715
480.930	9410
481.007	10185
481.084	10976
481.161	12034
481.238	10727
481.315	9180
481.392	8490
481.470	8434
481.547	8904
481.624	9368
481.701	8727
481.778	8713
481.855	11094
481.932	17638
482.009	23792
482.086	14980
482.163	9742
482.240	11796
482.317	14556
482.393	11259
482.470	8449
482.547	9358
482.624	9023
482.701	8850
482.778	8642
482.855	8519
482.932	8811
483.009	7535
483.085	8673
483.162	8794
483.239	8391
483.316	7579
483.393	7538
483.469	9418
483.546	10341
483.623	11112
483.699	8312
483.776	8927
483.853	9121
483.930	18349
484.006	38787
484.083	64176
484.160	36016
484.236	50523
484.313	37515
484.389	30070
484.466	26803
484.543	24181
484.619	25280
484.696	27262
484.772	28181
484.849	29756
484.925	24029
485.002	24499
485.078	26187
485.155	25460
485.231	23303
485.308	23521
485.384	24329
485.461	30253
485.537	43326
485.614	47752
485.690	23611
485.766	22280
485.843	22940
485.919	26011
485.995	26210
486.072	22073
486.148	20785
486.224	19735
486.301	22771
486.377	24462
486.453	23723
486.530	25089
486.606	31546
486.682	34645
486.758	38574
486.835	43972
486.911	37187
486.987	51565
487.063	44806
487.139	45977
487.215	34082
487.292	24480
487.368	23315
487.444	23347
487.520	24217
487.596	21559
487.672	23341
487.748	25828
487.824	26157
487.900	22424
487.976	22609
488.052	23040
488.128	26013
488.204	22413
488.280	22031
488.356	29567
488.432	48836
488.508	66453
488.584	23799
488.660	18410
488.736	19251
488.812	19959
488.888	23572
488.964	30373
489.039	45785
489.115	57632
489.191	36452
489.267	20505
489.343	20033
489.418	17392
489.494	17571
489.570	16242
489.646	18858
489.722	17370
489.797	20550
489.873	31159
489.949	52366
490.024	41363
490.100	16890
490.176	16743
490.251	17819
490.327	21479
490.403	15239
490.478	15511
490.554	13675
490.629	15129
490.705	14713
490.781	16769
490.856	15438
490.932	17979
491.007	15826
491.083	16643
491.158	16085
491.234	23144
491.309	41305
491.385	39306
491.460	15519
491.536	16298
491.611	14495
491.686	14558
491.762	19168
491.837	29586
491.913	48755
491.988	61110
492.063	67495
492.139	28599
492.214	21437
492.289	13891
492.365	12407
492.440	15443
492.515	14954
492.590	14955
492.666	12558
492.741	18680
492.816	24693
492.891	14245
492.967	12589
493.042	12164
493.117	12512
493.192	13966
493.267	30774
493.342	73004
493.418	85859
493.493	16022
493.568	11924
493.643	11659
493.718	14920
493.793	20027
493.868	19304
493.943	12279
494.018	11845
494.093	11239
494.168	10764
494.243	11245
494.318	9550
494.393	10427
494.468	10201
494.543	10116
494.618	10882
494.693	11106
494.768	10634
494.842	11358
494.917	9947
494.992	10645
495.067	10660
495.142	9367
495.217	10517
495.292	10805
495.366	12277
495.441	14426
495.516	18406
495.591	25008
495.665	61575
495.740	109080
495.815	45968
495.890	16127
495.964	12534
496.039	16138
496.114	13553
496.188	14123
496.263	13912
496.338	13570
496.412	15413
496.487	18199
496.561	17080
496.636	16724
496.710	14475
496.785	15917
496.860	17659
496.934	13366
497.009	13701
497.083	13688
497.158	14668
497.232	16974
497.307	18832
497.381	16683
497.455	18723
497.530	24599
497.604	16839
497.679	17911
497.753	26297
497.827	29734
497.902	22787
497.976	33214
498.050	101179
498.125	272506
498.199	236243
498.273	31620
498.348	21087
498.422	19704
498.496	19408
498.570	18956
498.645	16045
498.719	15828
498.793	20461
498.867	32076
498.941	53079
499.016	144530
499.090	288590
499.164	86466
499.238	15685
499.312	15239
499.386	17271
499.460	16622
499.534	14275
499.609	19484
499.683	27304
499.757	29498
499.831	77242
499.905	210994
499.979	174700
500.053	33420
500.127	32507
500.201	20112
500.275	15576
500.349	15279
500.422	17282
500.496	23024
500.570	51290
500.644	134114
500.718	209841
500.792	41310
500.866	17768
500.940	22476
501.013	17366
501.087	17230
501.161	25261
501.235	37958
501.309	97767
501.382	211832
501.456	164977
501.530	45537
501.603	71809
501.677	27321
501.751	13542
501.825	19677
501.898	39713
501.972	89693
502.046	51573
502.119	18835
502.193	47648
502.266	93837
502.340	46032
502.413	50589
502.487	86379
502.561	47350
502.634	16783
502.708	12793
502.781	12018
502.855	10791
502.928	9736
503.002	11470
503.075	10968
503.149	11569
503.222	11252
503.295	11919
503.369	15388
503.442	25723
503.516	78667
503.589	167320
503.662	99841
503.736	38433
503.809	76794
503.882	65903
503.956	87348
504.029	68880
504.102	20393
504.175	17379
504.249	10871
504.322	13853
504.395	13153
504.468	10971
504.542	11294
504.615	9415
504.688	8930
504.761	8494
504.834	11499
504.907	11850
504.980	15902
505.053	11764
505.127	11269
505.200	17153
505.273	17033
505.346	11331
505.419	9053
505.492	9695
505.565	8150
505.638	8293
505.711	8461
505.784	8468
505.857	7872
505.930	10027
506.003	7743
506.076	11429
506.149	12936
506.221	14349
506.294	17716
506.367	46107
506.440	115397
506.513	55447
506.586	16489
506.659	10162
506.731	9158
506.804	10872
506.877	12446
506.950	11551
507.022	10005
507.095	12325
507.168	13456
507.241	10405
507.313	8255
507.386	9113
507.459	11144
507.531	8263
507.604	8576
507.677	9034
507.749	6290
507.822	11333
507.894	20604
507.967	24882
508.040	16499
508.112	14390
508.185	12687
508.257	12406
508.330	16070
508.402	13942
508.475	12865
508.547	13770
508.620	15570
508.692	19764
508.765	13896
508.837	10955
508.909	11595
508.982	11058
509.054	12566
509.127	10631
509.199	10826
509.271	10249
509.344	10144
509.416	9932
509.488	10813
509.560	11127
509.633	10899
509.705	12027
509.777	13246
509.849	15052
509.922	12623
509.994	13098
510.066	13788
510.138	14877
510.210	26309
510.283	22436
510.355	18037
510.427	16696
510.499	14746
510.571	14701
510.643	14754
510.715	19023
510.787	15225
510.859	15708
510.931	17042
511.003	18175
511.076	17061
511.148	13770
511.219	15386
511.291	22653
511.363	24312
511.435	14218
511.507	12391
511.579	14527
511.651	13687
511.723	12981
511.795	12562
511.867	13417
511.939	17547
512.010	27670
512.082	21269
512.154	11805
512.226	13605
512.298	20528
512.369	24249
512.441	19461
512.513	17856
512.585	15241
512.656	17158
512.728	15739
512.800	14362
512.871	14397
512.943	14513
513.015	12635
513.086	13943
513.158	14534
513.230	14030
513.301	16817
513.373	17562
513.444	14113
513.516	13165
513.588	13317
513.659	13883
513.731	14831
513.802	13378
513.874	24034
513.945	29959
514.016	15093
514.088	12611
514.159	13345
514.231	17088
514.302	23254
514.374	18174
514.445	19072
514.516	32993
514.588	23178
514.659	18499
514.730	29022
514.802	20540
514.873	12611
514.944	15927
515.016	15172
515.087	15967
515.158	22696
515.229	28409
515.301	13789
515.372	15100
515.443	12466
515.514	12171
515.585	11376
515.656	12606
515.728	12475
515.799	10330
515.870	13296
515.941	12464
516.012	14181
516.083	18682
516.154	17813
516.225	19572
516.296	17936
516.367	15885
516.438	15759
516.509	17660
516.580	26455
516.651	68889
516.722	163836
516.793	74190
516.864	25677
516.935	25139
517.006	26926
517.077	34707
517.148	72657
517.219	190531
517.289	254465
517.360	137181
517.431	48633
517.502	18252
517.573	18496
517.643	18175
517.714	20062
517.785	20756
517.856	19383
517.926	21791
517.997	21948
518.068	23023
518.138	28285
518.209	44567
518.280	150455
518.350	375346
518.421	131271
518.492	26354
518.562	20329
518.633	18747
518.703	15341
518.774	18724
518.845	20239
518.915	18245
518.986	18113
519.056	21866
519.127	34946
519.197	59691
519.268	135213
519.338	77565
519.408	23379
519.479	21964
519.549	17391
519.620	16743
519.690	13223
519.760	13982
519.831	13901
519.901	13754
519.971	13977
520.042	14454
520.112	16232
520.182	17125
520.253	17968
520.323	15182
520.393	18601
520.463	24847
520.534	18978
520.604	32858
520.674	19328
520.744	20193
520.814	35980
520.885	33076
520.955	60127
521.025	155110
521.095	53473
521.165	16459
521.235	14554
521.305	12270
521.375	12605
521.445	14072
521.515	14304
521.585	17398
521.655	14087
521.725	15503
521.795	14947
521.865	11697
521.935	20967
522.005	16804
522.075	11303
522.145	14308
522.215	14938
522.285	20798
522.355	28313
522.424	46389
522.494	37453
522.564	19345
522.634	32076
522.704	64089
522.774	25043
522.843	12972
522.913	11439
522.983	13125
523.053	11371
523.122	12344
523.192	16726
523.262	37840
523.331	31450
523.401	13185
523.471	10185
523.540	11012
523.610	8619
523.680	9916
523.749	10805
523.819	14012
523.888	12800
523.958	10062
524.027	11198
524.097	12567
524.166	11724
524.236	11451
524.305	13493
524.375	10397
524.444	10819
524.514	12871
524.583	12180
524.653	14164
524.722	15442
524.791	11046
524.861	13075
524.930	9050
524.999	9664
525.069	13977
525.138	12649
525.207	16220
525.277	10850
525.346	10500
525.415	11123
525.484	11406
525.554	11695
525.623	11656
525.692	9849
525.761	10664
525.830	10417
525.900	9336
525.969	12713
526.038	12767
526.107	9416
526.176	15162
526.245	12812
526.314	16743
526.383	17834
526.452	13439
526.522	23979
526.591	34617
526.660	29266
526.729	16133
526.797	20380
526.867	47756
526.935	155572
527.004	97999
527.073	32190
527.142	11284
527.211	11064
527.280	12028
527.349	10792
527.418	7796
527.487	10188
527.555	8037
527.624	8711
527.693	6210
527.762	10454
527.831	7408
527.899	9685
527.968	8724
528.037	7943
528.106	10862
528.174	16806
528.243	15693
528.312	21852
528.380	21509
528.449	10022
528.518	9348
528.586	6437
528.655	8807
528.723	8360
528.792	8089
528.861	8539
528.929	7777
528.998	8645
529.066	7374
529.135	7880
529.203	7571
529.272	6986
529.340	7216
529.409	9688
529.477	7651
529.545	10634
529.614	13490
529.682	12355
529.751	13567
529.819	16937
529.887	10374
529.956	7690
530.024	8297
530.092	6887
530.161	9244
530.229	12085
530.297	7663
530.365	8381
530.434	7296
530.502	6323
530.570	7808
530.638	5932
530.707	9075
530.775	10249
530.843	8427
530.911	6976
530.979	7898
531.047	7745
531.115	8863
531.183	7777
531.252	8366
531.320	8924
531.388	8442
531.456	8652
531.524	5839
531.592	8528
531.660	9205
531.728	8019
531.796	6821
531.864	7742
531.932	9020
532.000	7299
532.067	7826
532.135	8893
532.203	10271
532.271	10970
532.339	18234
532.407	30720
532.475	18922
532.542	12061
532.610	13468
532.678	17864
532.746	64986
532.814	117710
532.881	27444
532.949	11013
533.017	8868
533.084	8265
533.152	8836
533.220	8589
533.287	8812
533.355	8420
533.423	7940
533.490	7783
533.558	8411
533.625	9212
533.693	10115
533.761	10945
533.828	11012
533.896	11074
533.963	19015
534.031	21104
534.098	24451
534.166	14013
534.233	11156
534.300	13331
534.368	12387
534.435	10654
534.503	10851
534.570	11108
534.637	8728
534.705	9090
534.772	9886
534.840	9437
534.907	12192
534.974	11544
535.041	9908
535.109	11021
535.176	8353
535.243	9419
535.310	9445
535.378	7722
535.445	8745
535.512	8973
535.579	8888
535.646	8359
535.714	10709
535.781	12371
535.848	12243
535.915	13879
535.982	14601
536.049	13326
536.116	14493
536.183	11998
536.250	11565
536.317	10970
536.384	12115
536.451	14103
536.518	13642
536.585	10858
536.652	15230
536.719	16484
536.786	11855
536.853	11720
536.920	17523
536.987	22829
537.053	24217
537.120	74591
537.187	49107
537.254	10382
537.321	8525
537.388	10795
537.454	8379
537.521	8330
537.588	9199
537.654	10908
537.721	12190
537.788	12364
537.855	9322
537.921	9667
537.988	9267
538.055	11032
538.121	9820
538.188	10271
538.254	13986
538.321	20111
538.388	12980
538.454	10625
538.521	9286
538.587	8951
538.654	8165
538.720	9570
538.787	9277
538.853	10469
538.920	13126
538.986	12690
539.053	10949
539.119	10126
539.185	10317
539.252	13334
539.318	14319
539.385	14146
539.451	11724
539.517	13109
539.583	14906
539.650	30419
539.716	52863
539.782	15802
539.849	10356
539.915	10944
539.981	10280
540.047	11700
540.114	11875
540.180	13085
540.246	9973
540.312	13103
540.378	22101
540.444	21218
540.510	29397
540.576	58191
540.643	18190
540.709	9386
540.775	9970
540.841	11098
540.907	16821
540.973	22171
541.039	17277
541.105	15648
541.171	11329
541.237	10541
541.303	11780
541.369	14224
541.435	14197
541.500	19017
541.566	12022
541.632	9990
541.698	9494
541.764	11009
541.830	10079
541.896	10074
541.961	11195
542.027	10237
542.093	9815
542.159	11202
542.224	11322
542.290	17287
542.356	19918
542.421	20436
542.487	13726
542.553	12834
542.618	13497
542.684	10765
542.750	10607
542.815	13492
542.881	22635
542.947	59094
543.012	34071
543.078	10788
543.143	9866
543.209	12014
543.274	11036
543.340	14053
543.405	26239
543.471	31325
543.536	11712
543.602	11694
543.667	9720
543.732	11843
543.798	10329
543.863	11495
543.928	10342
543.994	9835
544.059	10206
544.124	10570
544.190	10312
544.255	10562
544.320	10177
544.386	10418
544.451	13768
544.516	14436
544.581	15839
544.646	42316
544.712	47959
544.777	15306
544.842	14794
544.907	15698
544.972	13332
545.037	13732
545.102	14810
545.168	14500
545.233	15552
545.298	16666
545.363	17798
545.428	18789
545.493	28370
545.558	44035
545.623	21122
545.688	14017
545.753	14460
545.818	14447
545.883	15535
545.947	13996
546.012	16238
546.077	15159
546.142	15518
546.207	13514
546.272	16939
546.337	16184
546.401	15941
546.466	15227
546.531	13485
546.596	15349
546.661	14389
546.725	14883
546.790	12373
546.855	13750
546.919	11737
546.984	13788
547.049	14106
547.113	15968
547.178	12208
547.243	15790
547.307	15373
547.372	18033
547.436	18070
547.501	13831
547.565	12891
547.630	16209
547.695	15519
547.759	19905
547.823	15986
547.888	12969
547.952	12940
548.017	14579
548.081	17021
548.146	21853
548.210	18763
548.274	12432
548.339	12193
548.403	12950
548.468	10833
548.532	12166
548.596	12513
548.660	12299
548.725	14586
548.789	15926
548.853	16857
548.917	15257
548.982	22487
549.046	19996
549.110	12999
549.174	12731
549.238	11454
549.303	11099
549.367	13300
549.431	12496
549.495	11361
549.559	12898
549.623	12451
549.687	15368
549.751	19663
549.815	14744
549.879	13642
549.943	12178
550.007	13756
550.071	13829
550.135	17495
550.199	14042
550.263	14605
550.327	17448
550.391	21608
550.455	14908
550.519	14075
550.582	14667
550.646	17735
550.710	17045
550.774	13440
550.838	14115
550.901	14399
550.965	14749
551.029	14642
551.093	17408
551.156	23684
551.220	47838
551.284	40877
551.347	25702
551.411	63945
551.475	55896
551.538	16140
551.602	14191
551.666	13373
551.729	11632
551.793	13211
551.856	13726
551.920	14292
551.983	14282
552.047	12438
552.110	12281
552.174	12772
552.237	12039
552.301	11671
552.364	11630
552.428	13094
552.491	12906
552.554	12844
552.618	13583
552.681	13718
552.745	14455
552.808	19508
552.871	21314
552.934	15321
552.998	14283
553.061	16876
553.124	15363
553.187	15061
553.251	15644
553.314	16969
553.377	19460
553.440	32251
553.503	100084
553.567	121087
553.630	23246
553.693	14973
553.756	13875
553.819	12428
553.882	12946
553.945	12839
554.008	12066
554.071	10635
554.134	12834
554.197	11442
554.260	11553
554.323	13385
554.386	13544
554.449	12185
554.512	12115
554.575	11423
554.638	13803
554.701	12069
554.764	12088
554.827	12958
554.889	10746
554.952	11352
555.015	11452
555.078	10900
555.141	12359
555.203	11857
555.266	10976
555.329	13017
555.391	11431
555.454	11464
555.517	11512
555.580	11459
555.642	10765
555.705	11664
555.768	12245
555.830	11669
555.893	11511
555.955	11092
556.018	12869
556.080	11245
556.143	11336
556.206	10590
556.268	13028
556.330	13125
556.393	12111
556.455	12965
556.518	20542
556.580	17492
556.643	11499
556.705	11581
556.767	11039
556.830	12713
556.892	14128
556.955	16215
557.017	13530
557.079	11955
557.142	10935
557.204	13191
557.266	22396
557.328	17982
557.391	10791
557.453	10607
557.515	11709
557.577	14288
557.639	13156
557.701	10842
557.764	10096
557.826	10004
557.888	11750
557.950	10928
558.012	10071
558.074	11586
558.136	14414
558.198	15449
558.260	13476
558.322	11459
558.384	12406
558.446	12014
558.508	13003
558.570	15022
558.632	22930
558.694	26834
558.756	16571
558.818	23268
558.880	34056
558.942	16184
559.003	14662
559.065	10946
559.127	10821
559.189	10985
559.251	11251
559.312	11787
559.374	15442
559.436	24899
559.498	15355
559.559	10893
559.621	11739
559.683	13904
559.744	19922
559.806	28497
559.868	24543
559.929	15131
559.991	15937
560.052	14494
560.114	18194
560.176	15729
560.237	16533
560.299	18186
560.360	14269
560.422	15011
560.483	14604
560.545	14338
560.606	14014
560.667	13537
560.729	13970
560.790	13389
560.852	14433
560.913	13350
560.974	13939
561.036	12796
561.097	13518
561.158	13873
561.220	14138
561.281	12640
561.342	14041
561.403	15958
561.465	18352
561.526	32611
561.587	34508
561.648	15491
561.709	13745
561.771	14035
561.832	14019
561.893	13810
561.954	13886
562.015	13722
562.076	13435
562.137	13238
562.198	13477
562.259	12901
562.320	13733
562.381	14944
562.442	17259
562.503	15343
562.564	13237
562.625	12453
562.686	12965
562.747	13885
562.808	14509
562.869	15481
562.930	19405
562.991	18140
563.051	16585
563.112	15220
563.173	14795
563.234	13202
563.294	13410
563.355	12930
563.416	13206
563.477	13833
563.537	15580
563.598	14617
563.659	13910
563.720	14470
563.780	15003
563.841	14593
563.901	14746
563.962	13927
564.023	14175
564.083	14969
564.144	14785
564.204	14005
564.265	14875
564.325	18224
564.386	32277
564.446	24128
564.507	14102
564.567	13058
564.628	14189
564.688	13194
564.749	14637
564.809	16906
564.869	17841
564.930	14482
564.990	13568
565.050	12997
565.111	13767
565.171	13526
565.231	13477
565.292	13061
565.352	13077
565.412	13830
565.472	14135
565.532	14625
565.593	13379
565.653	12414
565.713	13643
565.773	13172
565.833	15457
565.893	16368
565.953	13224
566.013	12839
566.074	15544
566.134	20218
566.194	29080
566.254	25244
566.314	18777
566.374	14373
566.434	14680
566.494	14107
566.554	14265
566.614	13987
566.673	14310
566.733	15366
566.793	14735
566.853	14993
566.913	14978
566.973	16404
567.033	16557
567.092	15846
567.152	14680
567.212	15832
567.272	16251
567.331	16091
567.391	16099
567.451	17009
567.511	22752
567.570	21365
567.630	14440
567.690	14728
567.749	14445
567.809	14645
567.868	15505
567.928	16504
567.988	15794
568.047	17388
568.107	18237
568.166	20434
568.226	24137
568.285	28900
568.345	27009
568.404	25063
568.464	23483
568.523	22152
568.582	22688
568.642	22974
568.701	26666
568.761	33323
568.820	42716
568.879	42491
568.939	40076
568.998	30247
569.057	25901
569.116	23096
569.176	20198
569.235	17352
569.294	17408
569.353	15362
569.413	16584
569.472	14931
569.531	14722
569.590	13446
569.649	13900
569.708	12977
569.767	13150
569.827	15060
569.886	13476
569.945	13138
570.004	13129
570.063	13420
570.122	13449
570.181	14238
570.240	15130
570.299	15178
570.358	14463
570.417	12431
570.475	11846
570.534	12358
570.593	12523
570.652	12971
570.711	13141
570.770	12652
570.829	13867
570.887	12541
570.946	13664
571.005	11184
571.064	12133
571.122	12687
571.181	13702
571.240	11907
571.299	11770
571.357	12783
571.416	13012
571.475	16008
571.533	14625
571.592	12194
571.650	12810
571.709	10530
571.768	11103
571.826	10686
571.885	11145
571.943	10608
572.002	11122
572.060	11988
572.119	11223
572.177	10261
572.236	10469
572.294	10226
572.352	10719
572.411	10154
572.469	10091
572.528	9607
572.586	10456
572.644	10766
572.703	12262
572.761	10577
572.819	10913
572.877	10763
572.936	9717
572.994	9038
573.052	9788
573.110	9417
573.169	10198
573.227	9152
573.285	9265
573.343	9632
573.401	9714
573.459	9776
573.517	9590
573.576	9014
573.634	10325
573.692	9580
573.750	10216
573.808	9113
573.866	11279
573.924	14050
573.982	12606
574.040	10442
574.098	10182
574.155	9700
574.213	9553
574.271	7944
574.329	9536
574.387	8291
574.445	8217
574.503	8809
574.560	8215
574.618	8237
574.676	8563
574.734	8626
574.792	8593
574.849	8803
574.907	7950
574.965	9141
575.022	8543
575.080	7407
575.138	8884
575.195	8279
575.253	8356
575.311	8388
575.368	8481
575.426	7965
575.483	8438
575.541	8315
575.598	8561
575.656	8469
575.713	9078
575.771	7710
575.828	8689
575.886	7869
575.943	9807
576.001	9406
576.058	9271
576.115	10497
576.173	12807
576.230	12059
576.287	12467
576.345	10514
576.402	9350
576.459	9937
576.517	10512
576.574	11181
576.631	11331
576.688	10796
576.746	10627
576.803	9843
576.860	8281
576.917	10654
576.974	9542
577.031	10184
577.089	10971
577.146	9500
577.203	9418
577.260	9766
577.317	10813
577.374	11463
577.431	10098
577.488	9447
577.545	10109
577.602	9548
577.659	10476
577.716	10157
577.773	11377
577.830	10162
577.886	9911
577.943	10161
578.000	9907
578.057	10829
578.114	11666
578.171	13688
578.227	17946
578.284	16490
578.341	14620
578.398	11769
578.454	13083
578.511	12244
578.568	13338
578.625	11000
578.681	9591
578.738	9073
578.794	10473
578.851	9693
578.908	9696
578.964	9519
579.021	9636
579.077	9775
579.134	9491
579.190	9089
579.247	8514
579.303	8261
579.360	8146
579.416	8910
579.473	8660
579.529	9363
579.586	9153
579.642	9756
579.698	10276
579.755	9227
579.811	9722
579.867	10258
579.924	10756
579.980	11108
580.036	13906
580.093	16991
580.149	25550
580.205	26369
580.261	20906
580.317	16668
580.374	14901
580.430	13356
580.486	12432
580.542	10667
580.598	10102
580.619	10009
580.654	9848
580.692	9975
580.710	10050
580.765	9432
580.767	9415
580.823	9989
580.838	10083
580.879	10360
580.911	9955
580.935	9658
580.984	9285
580.991	9245
581.047	10187
581.057	10232
581.103	10451
581.130	11274
581.159	12144
581.203	12842
581.215	13014
581.270	13192
581.276	13022
581.326	11406
581.349	10984
581.382	10379
581.422	10399
581.438	10405
581.494	11124
581.494	11121
581.550	10808
581.567	10846
581.606	11013
581.640	10274
581.661	9776
581.713	10238
581.717	10284
581.773	9383
581.786	9721
581.829	10770
581.859	10561
581.885	10418
581.932	10288
581.940	10266
581.996	10623
582.004	10620
582.052	10464
582.077	10554
582.107	10732
582.150	10560
582.163	10500
582.219	10364
582.223	10402
582.274	10847
582.296	10801
582.330	10730
582.368	10421
582.386	10259
582.441	10078
582.441	10075
582.497	11228
582.514	11232
582.552	11360
582.587	12397
582.608	12950
582.659	10907
582.663	10727
582.719	10976
582.732	10917
582.774	11149
582.805	11643
582.830	11899
582.877	11157
582.885	11049
582.941	11396
582.950	11552
582.996	12248
583.023	12535
583.052	13168
583.095	14999
583.107	15573
583.162	18453
583.168	18739
583.218	20555
583.240	19330
583.273	17019
583.313	15768
583.328	15466
583.384	14077
583.385	14059
583.439	13303
583.458	13131
583.494	13072
583.531	12431
583.549	12109
583.603	11578
583.605	11557
583.660	11927
583.676	11837
583.715	11789
583.748	12002
583.770	12214
583.820	13151
583.825	13220
583.881	12570
583.893	12467
583.936	12166
583.965	12026
583.991	11864
584.038	11877
584.046	11938
584.101	12036
584.110	12267
584.156	13302
584.183	12874
584.211	12203
584.255	12668
584.266	12859
584.321	11794
584.328	11813
584.376	12181
584.400	12358
584.431	12512
584.472	12447
584.486	12398
584.541	11664
584.545	11717
584.596	12973
584.617	12796
584.651	12861
584.689	14003
584.706	14259
584.761	14006
584.762	13993
584.816	13870
584.834	13894
584.871	13974
584.906	14049
584.926	14122
584.978	14090
584.980	14108
585.035	15303
585.051	15353
585.090	15537
585.123	15885
585.145	16113
585.195	16477
585.200	16540
585.254	17380
585.267	17587
585.309	19009
585.340	20209
585.364	20300
585.412	18413
585.419	18176
585.473	17999
585.484	17691
585.528	17236
585.556	17356
585.583	17703
585.628	18899
585.637	19345
585.692	22704
585.700	23012
585.747	23937
585.772	23513
585.801	21383
585.845	18641
585.856	18373
585.910	17980
585.917	17849
585.965	17931
585.989	18365
586.019	18951
586.061	18962
586.074	18920
586.128	18709
586.133	18720
586.183	20156
586.205	20994
586.237	21703
586.277	21473
586.292	21508
586.346	21604
586.349	21611
586.401	22305
586.421	22590
586.455	23940
586.493	25873
586.509	28412
586.564	38301
586.565	38562
586.618	58479
586.637	60271
586.672	45043
586.709	31548
586.727	28458
586.781	23503
586.781	23545
586.835	23424
586.853	23571
586.889	23916
586.925	23505
586.944	23579
586.996	25058
586.998	25137
587.052	25739
587.068	25808
587.106	26207
587.140	26541
587.161	26771
587.212	27253
587.215	27346
587.269	28464
587.284	28555
587.323	28490
587.356	28495
587.377	28885
587.427	30464
587.431	30633
587.485	31035
587.499	31315
587.539	32268
587.571	32721
587.593	33535
587.643	35264
587.648	35484
587.702	36502
587.715	37099
587.755	39563
587.786	40424
587.810	40873
587.858	42091
587.864	42445
587.917	46048
587.930	46526
587.971	50638
588.001	53748
588.025	54554
588.073	56259
588.079	57021
588.133	62132
588.145	63436
588.187	68703
588.217	72040
588.241	76497
588.288	85161
588.295	86624
588.348	98235
588.360	100685
588.402	113280
588.431	121649
588.456	130796
588.503	149147
588.510	152707
588.564	181122
588.575	187338
588.617	221767
588.646	246697
588.671	281549
588.718	353757
588.725	373181
588.778	532273
588.789	567467
588.832	810437
588.861	983588
588.886	1133511
588.932	1386946
588.939	1390661
588.993	1334054
589.004	1316380
589.047	1189358
589.075	1080912
589.100	900319
589.147	576997
589.154	556739
589.207	407634
589.218	378133
589.261	347954
589.290	330830
589.314	346383
589.361	382435
589.368	400468
589.421	556055
589.433	591869
589.475	857560
589.504	1047505
589.528	1154177
589.576	1303344
589.582	1285658
589.635	1056647
589.647	1000881
589.689	670625
589.718	448836
589.742	374735
589.790	235707
589.795	230412
589.849	179290
589.861	167893
589.902	153761
589.932	141400
589.955	127523
590.004	98304
590.009	97334
590.062	85313
590.075	82123
590.115	75898
590.146	70991
590.168	69215
590.218	64985
590.222	64961
590.275	62040
590.289	61208
590.328	59380
590.360	57358
590.381	56243
590.431	53201
590.435	53216
590.488	50836
590.503	50154
590.541	49787
590.574	49032
590.594	48626
590.645	46945
590.647	47049
590.700	46149
590.716	45728
590.753	44273
590.787	42677
590.806	42461
590.859	41500
590.859	41618
590.912	41007
590.930	40707
590.965	40602
591.001	40190
591.018	40297
591.071	40376
591.072	40247
591.124	40708
591.143	40757
591.177	40425
591.214	39700
591.230	40129
591.283	41330
591.285	41235
591.336	40954
591.356	40724
591.389	40730
591.427	40258
591.442	39960
591.495	38470
591.498	38231
591.547	37627
591.569	37227
591.600	37324
591.640	37030
591.653	37358
591.706	38299
591.711	38268
591.759	40518
591.782	41512
591.811	43671
591.853	46348
591.864	45422
591.917	39893
591.924	38954
591.969	37605
591.995	36653
592.022	37483
592.066	38536
592.075	39521
592.127	44739
592.137	45570
592.180	50711
592.208	53634
592.233	49039
592.279	39923
592.285	39757
592.338	37147
592.350	36436
592.390	36120
592.421	35660
592.443	36017
592.491	36403
592.495	36495
592.548	36049
592.562	35803
592.600	36043
592.633	36030
592.653	36079
592.704	35690
592.705	35901
592.775	36183
592.846	36561
592.916	36732
592.987	36885
593.058	35380
593.128	34292
593.199	33724
593.270	33550
593.341	33249
593.411	33221
593.482	32966
593.553	33694
593.623	31646
593.694	33762
593.764	37508
593.835	33523
593.906	31869
593.976	32354
594.047	35095
594.117	41030
594.188	41579
594.258	31696
594.329	30630
594.399	31142
594.470	30818
594.540	30092
594.611	29597
594.681	30974
594.751	30301
594.822	32794
594.892	32413
594.963	33207
595.033	33190
595.103	33391
595.174	36861
595.244	53662
595.314	69440
595.384	35271
595.455	31651
595.525	32212
595.595	32106
595.665	32901
595.736	31565
595.806	31541
595.876	31016
595.946	31195
596.016	29372
596.087	30702
596.157	30433
596.227	31002
596.297	30365
596.367	32267
596.437	36203
596.507	49502
596.577	62294
596.647	35646
596.717	30608
596.787	29668
596.857	29465
596.927	30074
596.997	31037
597.067	30776
597.137	36843
597.207	35220
597.277	33329
597.347	32663
597.417	31285
597.487	32346
597.557	32665
597.626	33058
597.696	34168
597.766	42910
597.836	59061
597.906	37180
597.975	30057
598.045	29279
598.115	30009
598.185	28767
598.254	30858
598.324	30906
598.394	29611
598.464	29970
598.533	28903
598.603	28445
598.672	30045
598.742	31333
598.812	30861
598.881	29634
598.951	29653
599.020	28233
599.090	26986
599.159	28435
599.229	26740
599.299	25293
599.368	26721
599.437	26114
599.507	27559
599.576	29766
599.646	31705
599.715	32572
599.785	27645
599.854	30869
599.924	34710
599.993	32802
600.062	28819
600.132	27644
600.201	27781
600.270	30330
600.340	29802
600.409	28227
600.478	28644
600.547	27622
600.617	28752
600.686	28430
600.755	28319
600.824	27545
600.894	28344
600.963	26900
601.032	27854
601.101	27597
601.170	26921
601.239	27101
601.308	29139
601.378	28024
601.447	26470
601.516	26215
601.585	26894
601.654	28646
601.723	27029
601.792	28021
601.861	27802
601.930	33054
601.999	30212
602.068	25918
602.137	27899
602.206	26518
602.275	26779
602.343	28821
602.412	28266
602.481	25267
602.550	24821
602.619	24529
602.688	26129
602.756	25149
602.825	24890
602.894	24939
602.963	25431
603.032	25590
603.100	23744
603.169	23708
603.238	24742
603.307	24989
603.375	23190
603.444	24369
603.513	23475
603.581	22914
603.650	24999
603.719	23414
603.787	23803
603.856	24094
603.924	23688
603.993	23082
604.061	22634
604.130	23195
604.198	23254
604.267	23542
604.335	22871
604.404	22490
604.472	22194
604.541	22224
604.609	22573
604.678	21759
604.746	21830
604.815	22819
604.883	22584
604.951	23307
605.020	21140
605.088	23108
605.156	22172
605.225	22257
605.293	22649
605.361	23495
605.429	23054
605.498	22055
605.566	22618
605.634	22401
605.702	22710
605.771	22622
605.839	21962
605.907	22116
605.975	22600
606.043	21613
606.111	22289
606.180	23215
606.248	28714
606.316	30980
606.384	24759
606.452	31315
606.520	29365
606.588	22862
606.656	20975
606.724	20541
606.792	20555
606.860	19961
606.928	20173
606.996	20166
607.064	19321
607.132	20369
607.200	18983
607.267	20844
607.335	20347
607.403	20200
607.471	19826
607.539	20971
607.607	19467
607.674	19193
607.742	20769
607.810	20513
607.878	19568
607.946	19591
608.013	20497
608.081	20485
608.149	20580
608.216	19314
608.284	20877
608.352	19704
608.419	23172
608.487	35537
608.555	25552
608.622	19496
608.690	18803
608.757	18895
608.825	19454
608.893	20871
608.960	23268
609.028	29876
609.095	37337
609.163	24197
609.230	22062
609.298	21896
609.365	19045
609.432	19560
609.500	19768
609.567	19681
609.635	20677
609.702	21309
609.769	23210
609.837	26950
609.904	24154
609.971	21646
610.039	26930
610.106	34386
610.173	51640
610.241	103387
610.308	172690
610.375	123808
610.442	40295
610.509	26274
610.577	23116
610.644	21451
610.711	20926
610.778	20709
610.845	20790
610.912	21300
610.980	24676
611.047	37294
611.114	27329
611.181	19601
611.248	18127
611.315	19677
611.382	18297
611.449	18092
611.516	19356
611.583	19130
611.650	18394
611.717	18801
611.784	18718
611.851	19458
611.918	21518
611.984	21126
612.051	26086
612.118	37048
612.185	64964
612.252	48765
612.319	20559
612.386	19418
612.452	20701
612.519	24296
612.586	39015
612.653	27761
612.719	19351
612.786	18592
612.853	17464
612.919	17693
612.986	17993
613.053	16551
613.120	17942
613.186	20139
613.253	21326
613.319	18894
613.386	18919
613.453	19548
613.519	20978
613.586	23848
613.652	32164
613.719	26543
613.785	24937
613.852	19390
613.918	18868
613.985	22175
614.051	31201
614.118	62540
614.184	63087
614.250	21919
614.317	18419
614.383	18018
614.449	17727
614.516	18171
614.582	20385
614.648	17584
614.715	17195
614.781	18782
614.847	22190
614.914	23172
614.980	20032
615.046	19489
615.112	18634
615.179	17657
615.245	19877
615.311	21206
615.377	25305
615.443	27524
615.509	23579
615.575	22496
615.642	20818
615.708	21930
615.774	22943
615.840	26513
615.906	30500
615.972	32872
616.038	45095
616.104	65153
616.170	96052
616.236	85387
616.302	35216
616.368	28425
616.434	26370
616.500	28597
616.565	27144
616.631	26709
616.697	25072
616.763	24468
616.829	27088
616.895	32703
616.961	32845
617.026	27005
617.092	22958
617.158	22815
617.224	22973
617.289	23509
617.355	24212
617.421	25573
617.487	25532
617.552	24095
617.618	22170
617.684	21446
617.749	25173
617.815	21687
617.880	21449
617.946	22809
618.012	22667
618.077	23353
618.143	22477
618.208	24148
618.274	24205
618.339	25029
618.405	23917
618.470	25419
618.536	25483
618.601	30892
618.667	28772
618.732	26483
618.798	25817
618.863	26312
618.928	25641
618.994	28817
619.059	29545
619.124	37620
619.190	31836
619.255	26679
619.320	26355
619.386	26004
619.451	23954
619.516	24564
619.581	25296
619.647	25817
619.712	25798
619.777	25740
619.842	26587
619.907	26392
619.972	26846
620.038	26839
620.103	25817
620.168	25356
620.233	25583
620.298	25014
620.363	23946
620.428	24678
620.493	25227
620.558	24181
620.623	23805
620.688	24086
620.753	23277
620.818	22962
620.883	24575
620.948	24219
621.013	24522
621.078	25593
621.143	25122
621.207	28652
621.272	26868
621.337	28606
621.402	32814
621.467	43008
621.532	44449
621.596	35248
621.661	30764
621.726	30549
621.791	30246
621.855	31433
621.920	32781
621.985	35085
622.049	39769
622.114	39549
622.179	33720
622.243	35691
622.308	33837
622.373	35600
622.437	33592
622.502	30938
622.566	32677
622.631	31530
622.695	32077
622.760	32852
622.824	32766
622.889	32418
622.953	33813
623.018	41402
623.082	40366
623.147	31392
623.211	31748
623.276	32231
623.340	29336
623.404	29251
623.469	30080
623.533	30842
623.597	28989
623.662	29874
623.726	29750
623.790	27932
623.854	29317
623.919	30939
623.983	28835
624.047	30376
624.111	28383
624.176	28177
624.240	31010
624.304	33471
624.368	28873
624.432	29280
624.496	28696
624.560	29995
624.625	30694
624.689	28975
624.753	27656
624.817	27445
624.881	26049
624.945	28438
625.009	27996
625.073	28832
625.137	28350
625.201	32757
625.265	32097
625.329	27865
625.393	28975
625.456	29385
625.520	30062
625.584	33800
625.648	42370
625.712	66354
625.776	158382
625.839	182982
625.903	70585
625.967	38506
626.031	62444
626.095	104057
626.158	37775
626.222	25065
626.286	25152
626.349	24734
626.413	23801
626.477	27177
626.540	24256
626.604	24733
626.668	25053
626.731	23923
626.795	26470
626.858	25954
626.922	24155
626.986	24489
627.049	22037
627.113	24044
627.176	23236
627.240	22966
627.303	22807
627.366	23608
627.430	23408
627.493	24342
627.557	25331
627.620	24973
627.684	24255
627.747	23839
627.810	22120
627.874	23833
627.937	21428
628.000	25040
628.064	24612
628.127	21977
628.190	21989
628.253	23373
628.317	21866
628.380	22671
628.443	21941
628.506	22381
628.569	22273
628.632	21371
628.696	21007
628.759	20546
628.822	20702
628.885	21001
628.948	21107
629.011	22005
629.074	20843
629.137	20588
629.200	19703
629.263	23544
629.326	18995
629.389	20976
629.452	21061
629.515	22783
629.578	21763
629.641	22287
629.704	20881
629.767	21506
629.830	19636
629.892	21175
629.955	19890
630.018	21954
630.081	20494
630.144	23255
630.207	19201
630.269	23144
630.332	24281
630.395	22971
630.458	18528
630.520	18993
630.583	19590
630.646	19127
630.708	18415
630.771	18641
630.834	18673
630.896	17656
630.959	17909
631.021	17782
631.084	17860
631.146	21355
631.209	25307
631.272	18442
631.334	17220
631.397	17290
631.459	16813
631.522	17695
631.584	17959
631.646	18196
631.709	18492
631.771	21992
631.834	17834
631.896	17388
631.958	16315
632.021	17053
632.083	15828
632.145	17735
632.208	16218
632.270	17335
632.332	16494
632.395	15509
632.457	17908
632.519	16834
632.581	17381
632.643	15498
632.706	15979
632.768	15489
632.830	16353
632.892	15525
632.954	15659
633.016	16887
633.078	15075
633.141	16227
633.203	16176
633.265	17398
633.327	15927
633.389	14579
633.451	17846
633.513	19576
633.575	20225
633.637	18637
633.698	16553
633.760	15543
633.822	15341
633.884	15352
633.946	15572
634.008	15348
634.070	16319
634.132	19270
634.193	16837
634.255	14558
634.317	13550
634.379	15766
634.441	14624
634.502	15176
634.564	14577
634.626	14763
634.687	14944
634.749	15349
634.811	15024
634.873	13967
634.934	13526
634.996	14971
635.057	14071
635.119	14422
635.181	15018
635.242	14389
635.304	12025
635.365	15681
635.427	13123
635.488	14612
635.550	12443
635.611	14751
635.673	12152
635.734	16451
635.796	14796
635.857	15304
635.918	13217
635.980	15847
636.041	12952
636.102	13888
636.164	13511
636.225	15123
636.286	12333
636.348	14531
636.409	13554
636.470	13336
636.531	14633
636.593	16478
636.654	16777
636.715	13163
636.776	11520
636.838	13349
636.899	13762
636.960	13032
637.021	12890
637.082	12852
637.143	13635
637.204	12322
637.265	11344
637.326	12827
637.387	12920
637.448	11367
637.509	12592
637.570	12667
637.631	12663
637.692	11494
637.753	10993
637.814	12301
637.875	12002
637.936	13510
637.997	10943
638.058	12296
638.119	13232
638.179	11668
638.240	11641
638.301	12334
638.362	10993
638.423	12538
638.483	12709
638.544	10948
638.605	11694
638.666	10992
638.726	12468
638.787	12161
638.848	12045
638.908	12413
638.969	11850
639.030	13162
639.090	11044
639.151	10552
639.211	12782
639.272	14561
639.332	19206
639.393	14968
639.453	10760
639.514	12345
639.574	11259
639.635	10960
639.695	12299
639.756	10539
639.816	11329
639.877	13009
639.937	16442
639.997	19651
640.058	11492
640.118	10181
640.178	10509
640.239	10635
640.299	10611
640.359	10543
640.420	11035
640.480	11092
640.540	9668
640.600	10303
640.661	9866
640.721	9850
640.781	13255
640.841	11253
640.901	10787
640.961	11002
641.021	11158
641.082	11118
641.142	13407
641.202	12896
641.262	9117
641.322	10852
641.382	9695
641.442	11287
641.502	10612
641.562	10975
641.622	9212
641.682	10030
641.742	9718
641.802	10671
641.861	11737
641.921	11460
641.981	12760
642.041	12222
642.101	13482
642.161	10909
642.221	9767
642.280	10093
642.340	9133
642.400	9909
642.460	11165
642.519	10192
642.579	9757
642.639	10273
642.698	7179
642.758	11902
642.818	9980
642.877	10420
642.937	10093
642.997	11228
643.056	14169
643.116	9711
643.175	11619
643.235	9352
643.294	10355
643.354	10147
643.414	11174
643.473	12951
643.532	9907
643.592	9379
643.651	11934
643.711	13812
643.770	17910
643.830	31097
643.889	62330
643.948	21550
644.008	10831
644.067	10031
644.126	8289
644.186	9257
644.245	9605
644.304	8326
644.363	10719
644.423	8032
644.482	8929
644.541	9941
644.600	7312
644.659	9878
644.719	9140
644.778	10302
644.837	10844
644.896	13427
644.955	18229
645.014	12789
645.073	12723
645.132	10699
645.191	10602
645.250	9386
645.309	10330
645.368	9867
645.427	10477
645.486	8346
645.545	10374
645.604	8527
645.663	8724
645.722	9063
645.781	9381
645.840	9388
645.898	9010
645.957	10651
646.016	8625
646.075	12502
646.134	15044
646.192	29283
646.251	42897
646.310	12327
646.369	8908
646.427	9234
646.486	7083
646.545	9111
646.603	9217
646.662	9157
646.721	9161
646.779	7784
646.838	6565
646.896	9258
646.955	7682
647.014	10307
647.072	8716
647.131	12634
647.189	9639
647.248	7424
647.306	8495
647.365	9002
647.423	6883
647.481	9204
647.540	7109
647.598	8837
647.657	7285
647.715	8635
647.773	6552
647.832	9877
647.890	7263
647.948	8800
648.007	9370
648.065	8403
648.123	8552
648.181	11327
648.240	12264
648.298	11562
648.356	9376
648.414	10604
648.472	9960
648.531	10664
648.589	8475
648.647	9415
648.705	8965
648.763	9467
648.821	9737
648.879	9178
648.937	9019
648.995	9030
649.053	8263
649.111	9826
649.169	10616
649.227	11414
649.285	13895
649.343	26028
649.401	21596
649.459	23187
649.516	20165
649.574	14946
649.632	28831
649.690	37092
649.748	17526
649.806	17406
649.863	26245
649.921	14791
649.979	9985
650.037	8770
650.094	7302
650.152	9013
650.210	7782
650.268	8971
650.325	8171
650.383	8507
650.440	6834
650.498	8631
650.556	7859
650.613	6144
650.671	7708
650.728	8262
650.786	9349
650.843	8734
650.901	5908
650.958	8467
651.016	6866
651.073	6953
651.131	6939
651.188	7163
651.246	8757
651.303	7673
651.360	7935
651.418	7560
651.475	7790
651.532	6297
651.590	7696
651.647	7559
651.704	6851
651.762	7626
651.819	7704
651.876	7332
651.933	6793
651.990	8579
652.048	6081
652.105	7062
652.162	7952
652.219	6318
652.276	7212
652.333	7081
652.390	6546
652.448	7505
652.505	7460
652.562	7956
652.619	8922
652.676	12897
652.733	14553
652.790	7346
652.847	6468
652.904	6779
652.961	4980
653.017	5818
653.074	6981
653.131	6767
653.188	6047
653.245	6509
653.302	6621
653.359	6523
653.415	7163
653.472	6465
653.529	6918
653.586	6141
653.642	6442
653.699	6445
653.756	6255
653.813	5886
653.869	7653
653.926	5191
653.983	5007
654.039	6758
654.096	5881
654.152	7854
654.209	5838
654.266	7210
654.322	6016
654.379	7747
654.435	8253
654.492	8164
654.548	11730
654.605	16654
654.661	9384
654.717	7900
654.774	8127
654.830	7752
654.887	7415
654.943	7635
655.000	7326
655.056	7224
655.112	7960
655.168	7220
655.225	7977
655.281	9481
655.337	10858
655.394	18939
655.450	13740
655.506	12257
655.562	20006
655.618	16883
655.675	7565
655.731	7962
655.787	7639
655.843	9455
655.899	7440
655.955	9208
656.011	9699
656.067	9428
656.123	10645
656.179	11276
656.235	12416
656.291	11191
656.347	11831
656.403	11618
656.459	9685
656.515	10373
656.571	10472
656.627	9400
656.683	8005
656.739	8369
656.795	7317
656.850	8247
656.906	8400
656.962	8936
657.018	6640
657.074	7114
657.129	7052
657.185	7453
657.241	6648
657.297	6952
657.352	7313
657.408	6599
657.464	8870
657.519	7372
657.575	6681
657.630	6744
657.686	6688
657.742	5744
657.797	6100
657.853	7183
657.908	7652
657.964	5727
658.019	6313
658.075	7010
658.130	8251
658.186	5579
658.241	5835
658.297	5146
658.352	6128
658.407	6881
658.463	6258
658.518	7086
658.573	6116
658.629	5967
658.684	5360
658.739	7245
658.795	5582
658.850	5648
658.905	5462
658.960	6191
659.016	5128
659.071	6117
659.126	6304
659.181	7071
659.236	9556
659.291	10056
659.346	8474
659.401	8874
659.457	9193
659.512	11751
659.567	8695
659.622	6658
659.677	5938
659.732	6192
659.787	6463
659.842	7557
659.897	10586
659.952	7583
660.007	5687
660.061	7294
660.116	5313
660.171	5913
660.226	6474
660.281	7047
660.336	5845
660.391	6147
660.445	4585
660.500	7000
660.555	6137
660.610	5784
660.664	6511
660.719	5747
660.774	5917
660.828	6381
660.883	6167
660.938	6851
660.992	5443
661.047	6921
661.101	5410
661.156	6062
661.211	5646
661.265	5852
661.320	6508
661.374	6118
661.429	5868
661.483	6854
661.538	4992
661.592	6467
661.647	6866
661.701	6477
661.755	6658
661.810	6447
661.864	5703
661.919	6438
661.973	5973
662.027	6472
662.081	4922
662.136	5846
662.190	6668
662.244	7740
662.299	6543
662.353	6411
662.407	5587
662.461	7142
662.515	6768
662.569	7430
662.624	7464
662.678	6952
662.732	6168
662.786	6939
662.840	6966
662.894	6769
662.948	6515
663.002	5625
663.056	6318
663.110	5322
663.164	6438
663.218	5643
663.272	5772
663.326	6545
663.380	6422
663.434	6216
663.488	6241
663.542	7947
663.595	6959
663.649	7065
663.703	6171
663.757	6543
663.811	6240
663.864	6106
663.918	6722
663.972	6517
664.026	6122
664.079	6409
664.133	7000
664.187	6029
664.240	5755
664.294	7049
664.348	6663
664.401	6427
664.455	5990
664.508	6027
664.562	7263
664.615	6842
664.669	5956
664.722	7357
664.776	5773
664.829	5628
664.883	6824
664.936	7148
664.990	6817
665.043	7919
665.097	7617
665.150	8715
665.203	7822
665.257	7783
665.310	7561
665.363	7461
665.417	7648
665.470	7963
665.523	6634
665.576	7422
665.630	7851
665.683	6802
665.736	7328
665.789	7390
665.842	7197
665.895	7900
665.949	8117
666.002	7066
666.055	7571
666.108	7363
666.161	7015
666.214	7499
666.267	7121
666.320	8000
666.373	7667
666.426	7004
666.479	6612
666.532	7859
666.585	8093
666.638	9376
666.691	8627
666.744	9060
666.796	7640
666.849	8276
666.902	7900
666.955	6939
667.008	5607
667.060	5976
667.113	5585
667.166	6271
667.219	6019
667.271	7182
667.324	6825
667.377	6404
667.430	6534
667.482	8953
667.535	8642
667.587	7763
667.640	7120
667.693	7458
667.745	9819
667.798	10424
667.850	6796
667.903	6937
667.955	6766
668.008	6811
668.060	7934
668.113	8765
668.165	7643
668.218	8932
668.270	7680
668.322	7954
668.375	8147
668.427	7515
668.479	7972
668.532	8011
668.584	7588
668.636	7316
668.689	7450
668.741	7767
668.793	7647
668.845	7302
668.898	7682
668.950	7408
669.002	7806
669.054	6980
669.106	7514
669.158	8513
669.211	8203
669.263	8509
669.315	9300
669.367	10934
669.419	7257
669.471	9425
669.523	9483
669.575	11263
669.627	8946
669.679	9056
669.731	7919
669.783	9242
669.835	9751
669.886	9663
669.938	8747
669.990	8456
670.042	8685
670.094	9875
670.146	9822
670.197	11892
670.249	13644
670.301	15221
670.353	20431
670.404	28823
670.456	37851
670.508	55015
670.560	82306
670.611	127589
670.663	208873
670.715	423974
670.766	633179
670.818	315785
670.869	75554
670.921	36724
670.972	24191
671.024	18246
671.075	15167
671.127	13803
671.178	11322
671.230	11252
671.281	10984
671.333	10209
671.384	9709
671.436	9937
671.487	10195
671.538	9725
671.590	9314
671.641	10326
671.692	9893
671.744	11006
671.795	11288
671.846	9826
671.897	9398
671.949	8928
672.000	8558
672.051	8485
672.102	9140
672.153	8358
672.204	7737
672.256	8084
672.307	8752
672.358	9155
672.409	7701
672.460	8229
672.511	7759
672.562	7893
672.613	7760
672.664	7348
672.715	8511
672.766	7639
672.817	6810
672.868	8316
672.919	7044
672.970	6573
673.021	7254
673.071	7104
673.122	7562
673.173	7543
673.224	7336
673.275	6878
673.326	7128
673.376	8048
673.427	6648
673.478	6518
673.528	7199
673.579	6717
673.630	6580
673.680	8014
673.731	6959
673.782	5973
673.832	6850
673.883	7813
673.934	6294
673.984	6841
674.035	7673
674.085	7361
674.136	7808
674.186	7956
674.237	9157
674.287	13717
674.338	8300
674.388	7154
674.438	5945
674.489	6914
674.539	6456
674.589	7128
674.640	6493
674.690	7417
674.740	7368
674.791	7563
674.841	6832
674.891	7505
674.942	6650
674.992	6652
675.042	6159
675.092	6421
675.142	5968
675.193	6465
675.243	5693
675.293	6923
675.343	6428
675.393	7375
675.443	6996
675.493	5673
675.543	5948
675.593	6414
675.643	6438
675.693	6687
675.743	6223
675.793	6211
675.843	5980
675.893	6156
675.943	5725
675.993	6619
676.043	5905
676.093	6548
676.142	5316
676.192	6451
676.242	6126
676.292	5752
676.341	5926
676.391	6797
676.441	6267
676.491	5880
676.540	5557
676.590	6421
676.640	5325
676.689	5332
676.739	4833
676.789	5329
676.838	5201
676.888	5529
676.937	5343
676.987	5407
677.037	5340
677.086	5765
677.136	5483
677.185	6123
677.235	4987
677.284	5014
677.333	4510
677.383	4724
677.432	4003
677.482	5551
677.531	5233
677.580	5682
677.630	5076
677.679	5024
677.728	5279
677.778	5547
677.827	5014
677.876	4774
677.925	4199
677.975	5176
678.024	5360
678.073	4812
678.122	5823
678.171	5626
678.220	6170
678.269	6821
678.319	6252
678.368	5239
678.417	4689
678.466	6679
678.515	5707
678.564	5493
678.613	5405
678.662	5733
678.711	5357
678.760	5879
678.809	5389
678.857	6625
678.906	5584
678.955	5063
679.004	6594
679.053	5488
679.102	5076
679.151	5295
679.199	5909
679.248	5696
679.297	6056
679.346	6078
679.394	5962
679.443	5885
679.492	4886
679.540	5043
679.589	5476
679.638	6046
679.686	5686
679.735	4852
679.784	5324
679.832	5312
679.881	4928
679.929	5620
679.978	4985
680.026	5218
680.075	4769
680.123	5544
680.172	4425
680.220	4563
680.268	4785
680.317	3964
680.365	5079
680.414	4535
680.462	4986
680.510	4777
680.559	4052
680.607	5235
680.655	4839
680.703	4852
680.752	4373
680.800	4658
680.848	4078
680.896	4212
680.945	3798
680.993	4768
681.041	3421
681.089	4186
681.137	4009
681.185	3971
681.233	4537
681.258	4478
681.281	4410
681.329	4013
681.377	4749
681.380	4792
681.425	5351
681.473	5057
681.502	5054
681.521	5018
681.569	4969
681.617	4545
681.624	4576
681.665	4700
681.713	4923
681.745	4997
681.761	5016
681.809	4965
681.857	5225
681.867	5053
681.904	4407
681.952	5827
681.989	5155
682.000	4939
682.048	4954
682.096	4852
682.111	4964
682.143	5153
682.191	4995
682.233	5542
682.239	5617
682.286	4658
682.334	4671
682.354	4798
682.382	4946
682.430	4840
682.476	4267
682.477	4240
682.525	4259
682.572	4973
682.598	4825
682.620	4706
682.667	4815
682.715	4874
682.720	4880
682.763	4758
682.810	4617
682.841	4703
682.857	4746
682.905	5098
682.952	5452
682.963	5466
683.000	5444
683.047	5431
683.085	5473
683.095	5457
683.142	4879
683.190	4873
683.206	4947
683.237	5106
683.284	5106
683.328	5025
683.332	5006
683.379	5145
683.426	5110
683.449	5169
683.473	5172
683.521	4699
683.568	5585
683.571	5531
683.615	4751
683.662	5374
683.693	5038
683.709	4848
683.757	4420
683.804	5586
683.814	5560
683.851	5354
683.898	4894
683.936	5424
683.945	5558
683.992	5207
684.039	4864
684.057	4922
684.086	4953
684.133	5823
684.179	4958
684.180	4924
684.227	5605
684.274	5439
684.300	5742
684.321	5943
684.368	4963
684.415	5431
684.422	5442
684.462	5418
684.509	5574
684.543	5082
684.556	4920
684.603	5326
684.649	5105
684.665	5348
684.696	5787
684.743	5156
684.786	5468
684.790	5490
684.837	5913
684.883	5982
684.908	6190
684.930	6407
684.977	6700
685.023	5926
685.029	5997
685.070	6244
685.117	5601
685.150	6119
685.164	6397
685.210	6345
685.257	7331
685.272	7298
685.303	7035
685.350	6872
685.393	6506
685.396	6473
685.443	6283
685.490	6917
685.514	6668
685.536	6498
685.583	6526
685.629	6479
685.636	6471
685.675	6306
685.722	6773
685.757	6716
685.768	6701
685.815	6247
685.861	6696
685.878	6576
685.908	6465
685.954	6767
686.000	7222
686.000	7224
686.047	7513
686.093	8396
686.121	8313
686.139	8212
686.185	7369
686.232	7503
686.242	7291
686.278	6478
686.324	7078
686.363	6302
686.370	6199
686.416	6759
686.463	7081
686.484	7248
686.509	7295
686.555	6637
686.601	6641
686.606	6675
686.647	7054
686.693	6133
686.727	6524
686.739	6663
686.785	7018
686.831	6653
686.848	6485
686.877	6196
686.923	6177
686.969	6441
686.969	6442
687.015	6678
687.061	6361
687.090	6708
687.107	6882
687.153	6708
687.199	7575
687.211	7306
687.245	6588
687.291	7316
687.332	7294
687.336	7278
687.382	7722
687.428	7077
687.453	7142
687.474	7227
687.520	7293
687.565	7345
687.574	7248
687.611	6900
687.657	6912
687.695	6733
687.702	6736
687.748	7452
687.794	7623
687.816	7829
687.839	7785
687.885	6764
687.931	6876
687.937	6746
687.976	6468
688.022	7435
688.058	7569
688.067	7553
688.113	7435
688.158	7286
688.179	7178
688.204	7093
688.249	7564
688.295	7914
688.300	7899
688.340	7898
688.386	8125
688.421	7709
688.431	7500
688.477	7679
688.522	7395
688.542	7290
688.567	7465
688.613	7827
688.658	7709
688.663	7687
688.703	7454
688.749	8035
688.784	8221
688.794	8236
688.839	8168
688.884	7773
688.905	7776
688.930	7827
688.975	7914
689.020	8073
689.026	8018
689.065	7710
689.110	8335
689.146	7830
689.155	7718
689.201	7633
689.246	7901
689.267	7912
689.291	7953
689.336	7990
689.381	8505
689.388	8449
689.426	8071
689.471	8042
689.509	7704
689.516	7647
689.561	8167
689.606	7854
689.630	7883
689.651	8037
689.696	7823
689.741	8630
689.750	8562
689.785	8156
689.830	8552
689.871	8045
689.875	8018
689.920	7953
689.965	8292
689.992	8265
690.010	8211
690.054	7483
690.099	8068
690.112	7887
690.144	7589
690.189	8268
690.233	7775
690.233	7783
690.278	8471
690.323	8427
690.354	8748
690.367	8887
690.412	8934
690.457	8867
690.474	9041
690.501	9242
690.546	9250
690.590	8694
690.595	8741
690.635	9657
690.680	9939
690.716	10310
690.724	10556
690.769	12271
690.813	14037
690.836	14693
690.857	16184
690.902	19779
690.946	23780
690.957	24830
690.991	32786
691.035	44452
691.077	56621
691.080	56672
691.124	51155
691.168	42657
691.198	38341
691.213	35207
691.257	27138
691.301	18891
691.318	15962
691.346	14894
691.390	12994
691.434	11009
691.439	10832
691.478	10720
691.522	10444
691.559	9922
691.567	9865
691.611	10413
691.655	9620
691.680	9842
691.699	10100
691.743	9564
691.787	10002
691.800	9809
691.831	9402
691.875	9723
691.919	9762
691.921	9758
691.964	10142
692.008	10000
692.041	9960
692.052	10023
692.096	10465
692.139	10722
692.162	10739
692.183	10516
692.227	10297
692.271	10036
692.282	9953
692.315	10003
692.359	10104
692.402	10240
692.403	10257
692.447	10051
692.490	10310
692.523	10369
692.534	10436
692.578	10577
692.622	10320
692.643	10460
692.666	10583
692.709	10598
692.753	10447
692.763	10455
692.797	10431
692.840	10434
692.884	10269
692.884	10289
692.928	10592
692.971	10838
693.004	10931
693.015	10920
693.059	10945
693.102	11228
693.124	10925
693.146	10779
693.189	11422
693.233	11735
693.245	11841
693.276	12389
693.320	12856
693.363	13332
693.365	13324
693.407	14085
693.450	15531
693.485	16036
693.493	16579
693.537	19890
693.580	23015
693.605	25027
693.624	28596
693.667	36660
693.710	45209
693.725	48462
693.753	64242
693.797	90544
693.840	117284
693.845	119879
693.883	109735
693.926	93368
693.966	80250
693.970	78354
694.013	58761
694.056	39720
694.086	26867
694.099	25772
694.142	22049
694.185	18446
694.206	16696
694.229	16155
694.272	15444
694.315	14668
694.326	14318
694.358	13765
694.401	13398
694.444	12807
694.446	12771
694.487	12780
694.530	12413
694.566	12285
694.573	12294
694.616	12093
694.659	11707
694.686	11467
694.702	11402
694.745	11456
694.787	11241
694.806	11144
694.830	11023
694.873	10932
694.916	10597
694.926	10506
694.959	10606
695.002	10844
695.044	10883
695.046	10871
695.087	11056
695.130	10892
695.166	11179
695.172	11266
695.215	11228
695.258	11050
695.286	11321
695.301	11501
695.343	11630
695.386	11681
695.406	11722
695.428	11690
695.471	11523
695.514	11191
695.526	11125
695.556	11132
695.599	11242
695.641	11269
695.646	11232
695.684	10813
695.726	10374
695.766	10015
695.769	10066
695.811	10407
695.854	10789
695.886	11047
695.896	11130
695.938	11284
695.981	11543
696.005	11586
696.023	11485
696.065	11311
696.108	11167
696.125	11011
696.150	11006
696.192	11307
696.235	11183
696.245	11160
696.277	11155
696.319	11158
696.361	11143
696.365	11120
696.404	11496
696.446	11760
696.485	11998
696.488	12015
696.530	11985
696.572	11852
696.604	11758
696.614	11744
696.656	11399
696.698	11333
696.724	11086
696.740	11031
696.783	10982
696.825	10969
696.844	10917
696.867	11017
696.909	11157
696.951	11222
696.964	11216
696.992	11031
697.034	10786
697.076	10499
697.083	10429
697.118	10806
697.160	11285
697.202	11610
697.203	11592
697.244	11397
697.286	11177
697.323	10879
697.327	10894
697.369	10791
697.411	10701
697.442	10574
697.453	10676
697.494	11108
697.536	11469
697.562	11604
697.578	11529
697.620	11364
697.661	11152
697.682	11069
697.703	11230
697.744	11353
697.786	11612
697.801	11631
697.828	11645
697.869	11724
697.911	11685
697.921	11671
697.952	11648
697.994	11505
698.035	11452
698.040	11403
698.077	11154
698.118	10905
698.160	10632
698.160	10602
698.201	11046
698.243	11326
698.279	11645
698.284	11668
698.325	11567
698.367	11464
698.399	11327
698.408	11281
698.449	10986
698.491	10669
698.518	10418
698.532	10571
698.573	10961
698.614	11387
698.638	11571
698.656	11642
698.697	11762
698.738	11887
698.757	11919
698.779	11840
698.820	11611
698.862	11412
698.877	11297
698.903	11753
698.944	12454
698.985	13154
698.996	13315
699.026	13152
699.067	12886
699.116	12540
699.235	11549
699.354	10999
699.474	11838
699.593	12456
699.713	12689
699.832	12784
699.951	12114
700.070	12486
700.190	11604
700.309	11490
700.428	11632
700.547	11387
700.667	11303
700.786	12175
700.905	11287
701.024	12378
701.143	10907
701.262	10914
701.381	11343
701.500	11281
701.619	11444
701.738	10270
701.857	11559
701.976	10824
702.095	10730
702.214	11855
702.333	10376
702.452	10790
702.571	11970
702.690	11477
702.809	11478
702.928	10496
703.047	11160
703.165	11683
703.284	10769
703.403	11413
703.522	12202
703.640	12029
703.759	12368
703.878	15163
703.997	10919
704.115	11166
704.234	10848
704.353	11377
704.471	11048
704.590	10810
704.708	10524
704.827	11088
704.946	10578
705.064	10960
705.183	11391
705.301	14935
705.420	20144
705.538	17676
705.656	15717
705.775	16963
705.893	23857
706.012	28391
706.130	16103
706.249	16442
706.367	15933
706.485	15667
706.604	15596
706.722	16344
706.840	16989
706.958	16902
707.077	15348
707.195	15852
707.313	14493
707.431	15408
707.549	15088
707.668	14540
707.786	15173
707.904	14419
708.022	14130
708.140	14945
708.258	14758
708.376	14285
708.494	15215
708.612	16782
708.730	24112
708.848	21933
708.966	19984
709.084	17874
709.202	17868
709.320	18691
709.438	19324
709.556	18660
709.674	19632
709.791	18775
709.909	18389
710.027	18328
710.145	18978
710.263	19043
710.380	18489
710.498	18535
710.616	18098
710.733	18136
710.851	17783
710.969	18875
711.086	18412
711.204	17596
711.322	18347
711.439	18674
711.557	17070
711.674	17748
711.792	17471
711.909	18415
712.027	18416
712.144	16832
712.262	16449
712.379	19971
712.497	27121
712.614	27412
712.732	22767
712.849	22552
712.966	22231
713.084	24251
713.201	24217
713.318	23073
713.436	23398
713.553	23157
713.670	22854
713.787	23773
713.905	23674
714.022	22824
714.139	20566
714.256	22095
714.373	20711
714.490	22159
714.608	21558
714.725	30297
714.842	29000
714.959	20701
715.076	19883
715.193	20113
715.310	19014
715.427	19517
715.544	18769
715.661	19480
715.778	19799
715.895	22058
716.011	21321
716.128	18302
716.245	19545
716.362	20821
716.479	19495
716.596	19224
716.713	19867
716.829	18525
716.946	18913
717.063	17599
717.180	18423
717.296	18042
717.413	18703
717.530	18495
717.646	18104
717.763	16843
717.880	17189
717.996	18056
718.113	17372
718.229	17196
718.346	17006
718.462	17301
718.579	18877
718.695	20053
718.812	20251
718.928	20394
719.045	17041
719.161	15645
719.277	16928
719.394	15202
719.510	16983
719.626	17736
719.743	19114
719.859	17765
719.975	17254
720.092	18654
720.208	21386
720.324	18682
720.440	15604
720.557	18672
720.673	20325
720.789	27509
720.905	45150
721.021	20651
721.137	16439
721.253	16675
721.369	16896
721.486	17945
721.602	21536
721.718	15350
721.834	14386
721.950	16339
722.066	15548
722.181	15574
722.297	15382
722.413	14994
722.529	14922
722.645	14518
722.761	14947
722.877	14318
722.993	13204
723.108	14766
723.224	14941
723.340	15133
723.456	15084
723.571	15392
723.687	14954
723.803	14655
723.918	13155
724.034	14586
724.150	13431
724.265	15520
724.381	23993
724.497	23223
724.612	13868
724.728	13232
724.843	13165
724.959	15302
725.074	22586
725.190	21202
725.305	13829
725.421	13304
725.536	11882
725.651	13179
725.767	12629
725.882	12447
725.997	12320
726.113	12007
726.228	11945
726.343	12779
726.459	11653
726.574	13388
726.689	11934
726.804	11919
726.920	12509
727.035	12890
727.150	12010
727.265	12159
727.380	13206
727.495	12314
727.610	12132
727.725	12989
727.841	13987
727.956	21110
728.071	16740
728.186	11536
728.301	9725
728.416	11753
728.531	11781
728.645	10946
728.760	12164
728.875	11157
728.990	12428
729.105	11189
729.220	11917
729.335	10724
729.449	10903
729.564	10418
729.679	10755
729.794	10830
729.908	11736
730.023	10596
730.138	10021
730.253	10861
730.367	9977
730.482	10432
730.596	9967
730.711	11451
730.826	11319
730.940	10685
731.055	10463
731.169	10109
731.284	9921
731.398	10076
731.513	11482
731.627	9995
731.742	11764
731.856	11308
731.970	9976
732.085	10131
732.199	9105
732.313	9505
732.428	10296
732.542	12111
732.656	10709
732.771	9323
732.885	9825
732.999	10195
733.113	10282
733.227	9766
733.342	9755
733.456	8306
733.570	9508
733.684	9382
733.798	9458
733.912	8783
734.026	9045
734.140	7766
734.254	10436
734.368	14842
734.482	14577
734.596	9283
734.710	9191
734.824	9605
734.938	8683
735.052	8610
735.166	10256
735.280	8939
735.393	8622
735.507	8988
735.621	11417
735.735	16559
735.849	9312
735.962	9124
736.076	9596
736.190	10087
736.303	11252
736.417	12445
736.531	9343
736.644	8890
736.758	8207
736.872	8445
736.985	8567
737.099	8841
737.212	8469
737.326	8328
737.439	8688
737.553	8269
737.666	8303
737.780	8696
737.893	7946
738.007	7928
738.120	8606
738.233	9379
738.347	8318
738.460	8507
738.573	9453
738.687	8201
738.800	8286
738.913	8869
739.026	8478
739.140	9292
739.253	8750
739.366	7988
739.479	7737
739.592	8698
739.705	8368
739.818	8669
739.932	8405
740.045	8212
740.158	8021
740.271	8682
740.384	7829
740.497	8447
740.610	8616
740.723	8257
740.836	8350
740.949	8011
741.062	9130
741.174	8937
741.287	7825
741.400	8414
741.513	8899
741.626	8906
741.739	8439
741.851	8918
741.964	8165
742.077	8594
742.189	8870
742.302	11532
742.415	9283
742.527	8402
742.640	8362
742.753	8303
742.865	7755
742.978	6794
743.090	7938
743.203	7802
743.316	7459
743.428	8385
743.541	7805
743.653	7929
743.766	7740
743.878	8080
743.990	10710
744.103	13565
744.215	16529
744.327	9309
744.440	8281
744.552	8971
744.664	8432
744.777	7977
744.889	7903
745.001	8582
745.113	7752
745.226	7870
745.338	8647
745.450	7326
745.562	8211
745.674	8161
745.786	7953
745.898	8279
746.010	9235
746.122	8126
746.234	8741
746.347	8221
746.459	8389
746.570	9655
746.682	13281
746.794	22009
746.906	11638
747.018	8420
747.130	8283
747.242	7918
747.354	7430
747.466	8948
747.577	8157
747.689	8633
747.801	8175
747.913	7924
748.024	7565
748.136	8022
748.248	7731
748.359	7940
748.471	7984
748.583	8261
748.694	8926
748.806	10070
748.918	8833
749.029	8466
749.141	8992
749.252	8594
749.364	8341
749.475	10373
749.587	9780
749.698	7790
749.809	7308
749.921	8425
750.032	7419
750.144	7727
750.255	7987
750.366	7681
750.478	8324
750.589	7695
750.700	8105
750.811	7811
750.923	9014
751.034	11146
751.145	10608
751.256	8182
751.367	8246
751.479	7970
751.590	7714
751.701	8599
751.812	7847
751.923	8973
752.034	8080
752.145	8159
752.256	8309
752.367	9123
752.478	8071
752.589	8693
752.700	8488
752.811	9074
752.922	7967
753.032	8218
753.143	8702
753.254	8181
753.365	7731
753.476	8287
753.586	8529
753.697	8798
753.808	8620
753.919	8714
754.029	8146
754.140	8799
754.251	8343
754.361	7789
754.472	8889
754.582	8928
754.693	9208
754.804	9285
754.914	8018
755.025	9076
755.135	9335
755.246	9637
755.356	9044
755.466	9256
755.577	9182
755.687	9668
755.798	8255
755.908	9393
756.018	9838
756.129	10587
756.239	9505
756.349	9171
756.460	9486
756.570	10271
756.680	9659
756.790	10327
756.900	9884
757.011	10255
757.121	9113
757.231	9934
757.341	10344
757.451	10314
757.561	10398
757.671	10179
757.781	10332
757.891	12205
758.001	11489
758.111	12112
758.221	11461
758.331	11279
758.441	11962
758.551	11204
758.661	11608
758.771	12613
758.880	13131
758.990	12772
759.100	13386
759.210	13933
759.320	13757
759.429	12622
759.539	13802
759.649	13672
759.758	14207
759.868	14657
759.978	14226
760.087	14715
760.197	15068
760.307	15323
760.416	15128
760.526	15320
760.635	15848
760.745	16236
760.854	16578
760.964	17253
761.073	17417
761.182	17499
761.292	18103
761.401	19056
761.511	19105
761.620	19926
761.729	18335
761.839	19822
761.948	20653
762.057	21397
762.166	22261
762.276	20943
762.385	23862
762.494	23790
762.603	24147
762.712	26295
762.822	26781
762.931	28082
763.040	28511
763.149	28702
763.258	30362
763.367	31959
763.476	33667
763.585	36805
763.694	38220
763.803	39647
763.912	42238
764.021	43807
764.130	47831
764.238	49527
764.347	53609
764.456	57252
764.565	63017
764.674	67774
764.783	75445
764.891	82299
765.000	92250
765.109	103979
765.217	120575
765.326	139731
765.435	166888
765.543	202369
765.652	253318
765.761	322756
765.869	425957
765.978	578411
766.086	796865
766.195	1062178
766.303	1194729
766.412	927905
766.520	1071398
766.629	1227041
766.737	938632
766.846	668735
766.954	481734
767.062	361577
767.171	278349
767.279	219160
767.387	179578
767.496	150726
767.604	132400
767.712	115119
767.820	103327
767.928	94752
768.037	87663
768.145	83620
768.253	80900
768.361	77479
768.469	79557
768.577	80523
768.685	84156
768.793	91070
768.901	100092
769.009	116570
769.117	142641
769.225	182717
769.333	250549
769.441	368887
769.549	570770
769.657	886394
769.765	1065555
769.873	935309
769.981	1085410
770.088	763313
770.196	480431
770.304	327914
770.412	240212
770.519	184131
770.627	148524
770.735	122296
770.842	102341
770.950	88551
771.058	78727
771.165	69761
771.273	61903
771.380	57138
771.488	51831
771.595	48819
771.703	45019
771.810	41514
771.918	39191
772.025	36301
772.133	34108
772.240	32675
772.348	31562
772.455	30228
772.562	29090
772.670	27696
772.777	26889
772.884	25044
772.991	23970
773.099	23540
773.206	23372
773.313	22449
773.420	20677
773.528	20242
773.635	19780
773.742	19229
773.849	19336
773.956	18204
774.063	17229
774.170	17271
774.277	18360
774.384	17232
774.491	16372
774.598	16314
774.705	16805
774.812	16240
774.919	15993
775.026	15784
775.133	14633
775.239	14714
775.346	13914
775.453	13577
775.560	13828
775.667	14597
775.773	12939
775.880	13806
775.987	13251
776.093	12590
776.200	12194
776.307	11980
776.413	12958
776.520	11145
776.627	11966
776.733	13639
776.840	12861
776.946	15678
777.053	21165
777.159	35486
777.266	21709
777.372	31653
777.478	25127
777.585	15615
777.691	11496
777.798	10798
777.904	11444
778.010	12407
778.117	10310
778.223	10590
778.329	10028
778.435	10329
778.542	10352
778.648	9035
778.754	9174
778.860	9657
778.966	9908
779.072	9845
779.178	9946
779.284	9582
779.391	10146
779.497	11227
779.603	16015
779.708	23656
779.815	54525
779.920	187796
780.026	236769
780.132	35061
780.238	12761
780.344	10911
780.450	10560
780.556	10302
780.661	8545
780.767	8155
780.873	7114
780.979	6863
781.085	7551
781.190	8031
781.296	7359
781.402	7209
781.507	7085
781.613	7460
781.719	6195
781.824	7347
781.930	7219
782.035	7208
782.141	7474
782.246	6825
782.352	6315
782.457	6306
782.563	6385
782.668	7314
782.773	6311
782.879	6587
782.984	7384
783.090	8059
783.195	7618
783.300	7326
783.405	6846
783.511	6521
783.616	6838
783.721	6578
783.826	5624
783.932	7315
784.037	6854
784.142	6360
784.247	5731
784.352	5463
784.457	5959
784.562	6824
784.667	6737
784.772	5656
784.877	5820
784.982	6355
785.087	5837
785.192	6842
785.297	5838
785.402	5660
785.507	6109
785.611	5172
785.716	6101
785.821	4941
785.926	5070
786.031	5084
786.135	5245
786.240	5221
786.345	5494
786.450	6084
786.554	5572
786.659	5613
786.763	3861
786.868	5467
786.973	6306
787.077	4929
787.182	5546
787.286	5190
787.391	4939
787.495	5440
787.600	5081
787.704	5265
787.809	5249
787.913	5176
788.017	6057
788.122	5432
788.226	5170
788.330	4231
788.435	5320
788.539	4957
788.643	4318
788.747	3955
788.852	5609
788.956	4779
789.060	5075
789.164	4801
789.268	4353
789.372	5478
789.476	4983
789.580	4564
789.684	4932
789.788	4730
789.892	4523
789.996	4982
790.100	4317
790.204	4503
790.308	4692
790.412	5611
790.516	5896
790.620	3832
790.724	5014
790.828	3937
790.931	3867
791.035	6565
791.139	4474
791.242	3315
791.346	5236
791.450	3550
791.554	4076
791.657	3329
791.761	5432
791.864	4889
791.968	4402
792.072	4189
792.175	4605
792.279	4154
792.382	4645
792.486	4538
792.589	4470
792.693	5082
792.796	3109
792.899	4844
793.003	4201
793.106	2375
793.209	3709
793.313	4679
793.416	2995
793.519	4974
793.623	4819
793.726	4316
793.829	4073
793.932	3687
794.035	3456
794.138	5023
794.242	5643
794.345	7901
794.448	13570
794.551	31358
794.654	103994
794.757	141395
794.860	21362
794.963	6981
795.066	4681
795.169	6714
795.272	4021
795.375	4780
795.477	3621
795.580	3866
795.683	2570
795.786	4421
795.889	2674
795.991	4667
796.094	3807
796.197	3358
796.300	4840
796.402	2708
796.505	2674
796.608	3251
796.710	3477
796.813	3323
796.915	2463
797.018	3863
797.120	2746
797.223	2323
797.326	4804
797.428	3468
797.530	3144
797.633	2625
797.735	4033
797.838	4443
797.940	4420
798.042	2906
798.145	3164
798.247	3889
798.349	2056
798.452	2748
798.554	2917
798.656	2389
798.758	3400
798.860	3317
798.962	2235
799.065	2827
799.167	2510
799.269	3928
799.371	3851
799.473	3572
799.575	2225
799.677	2606
799.779	4399
799.881	2221
799.983	3325
800.085	3537
800.187	3209
800.289	3041
800.390	1553
800.492	3045
800.594	3172
800.696	1812
800.798	2328
800.899	2401
801.001	2328
801.103	2202
801.205	2254
801.306	2927
801.408	2175
801.509	2305
801.611	2466
801.713	2866
801.814	2225
801.916	2469
802.017	2933
802.119	2224
802.220	2615
802.322	1034
802.423	4876
802.525	1822
802.626	2210
802.727	2606
802.829	3547
802.930	761
803.031	3627
803.133	1609
803.234	2014
803.335	2146
803.436	1925
803.538	2211
803.639	1133
803.740	2601
803.841	1443
803.942	1999
804.043	1568
804.144	1101
804.245	2159
804.346	2015
804.447	2048
804.548	2137
804.649	2736
804.750	1701
804.851	1736
804.952	2130
805.053	2187
805.154	1183
805.255	2481
805.355	2750
805.456	1815
805.557	1553
805.658	1276
805.758	2111
805.859	1517
805.960	1588
806.061	976
806.161	1666
806.262	1747
806.362	1612
806.463	1542
806.564	2209
806.664	2091
806.765	1240
806.865	2111
806.966	1485
807.066	1643
807.166	2920
807.267	1778
807.367	1225
807.468	2233
807.568	607
807.668	1984
807.769	2314
807.869	1286
807.969	2156
808.069	1458
808.170	1494
808.270	1317
808.370	2401
808.470	1923
808.570	1290
808.670	1534
808.770	2014
808.870	1055
808.970	2644
809.070	1330
809.170	1142
809.271	2383
809.370	1147
809.470	1291
809.570	820
809.670	877
809.770	927
809.870	2547
809.970	1767
810.070	1841
810.169	1798
810.269	650
810.369	1990
810.469	1407
810.568	1117
810.668	875
810.768	1189
810.867	1883
810.967	1437
811.066	1607
811.166	1286
811.265	2030
811.365	1231
811.464	1159
811.564	1461
811.663	1083
811.763	457
811.862	2110
811.962	2304
812.061	1185
812.160	580
812.260	1660
812.359	2267
812.458	2047
812.557	7077
812.657	6247
812.756	2645
812.855	1493
812.954	1562
813.053	1912
813.153	1642
813.252	442
813.351	1037
813.450	1047
813.549	446
813.648	1879
813.747	1431
813.846	1386
813.945	1122
814.044	1633
814.143	493
814.242	1642
814.341	1296
814.439	1138
814.538	1284
814.637	1225
814.736	1111
814.835	1954
814.933	860
815.032	1084
815.131	625
815.229	883
815.328	719
815.427	1478
815.525	893
815.624	1491
815.722	1014
815.821	1038
815.919	526
816.018	682
816.116	813
816.215	404
816.313	1885
816.412	1260
816.510	715
816.609	2015
816.707	1450
816.805	519
816.904	813
817.002	1094
817.100	2091
817.198	1627
817.296	1251
817.395	2085
817.493	2115
817.591	1151
817.689	2074
817.787	2358
817.885	5878
817.983	9419
818.081	20853
818.179	48770
818.277	112015
818.375	76272
818.473	19517
818.571	8123
818.669	6629
818.767	7588
818.865	5936
818.963	6762
819.061	9494
819.158	17432
819.256	41650
819.354	97638
819.452	200043
819.549	100514
819.647	23212
819.745	8976
819.842	6851
819.940	4951
820.038	4203
820.135	3189
820.233	3155
820.330	2152
820.428	1542
820.525	2751
820.623	2109
820.720	1094
820.818	1881
820.915	2035
821.012	2835
821.110	369
821.207	2742
821.304	1258
821.402	2814
821.499	5568
821.596	7915
821.693	3260
821.791	1416
821.888	1489
821.985	2789
822.082	1509
822.179	3711
822.276	3834
822.373	1616
822.470	1159
822.567	1201
822.664	150
822.761	1957
822.858	396
822.955	1196
823.052	934
823.149	389
823.246	136
823.343	573
823.440	1287
823.536	533
823.633	98
823.730	1093
823.827	1834
823.923	776
824.020	2308
824.117	2357
824.213	2555
824.310	1988
824.407	911
824.503	779
824.600	652
824.696	783
824.793	1284
824.889	-484
824.986	797
825.082	-114
825.179	1119
825.275	825
825.371	184
825.468	1535
825.564	-106
825.660	637
825.757	981
825.853	1176
825.949	29
826.045	968
826.142	253
826.238	843
826.334	1013
826.430	142
826.526	1988
826.622	-240
826.718	90
826.814	474
826.910	603
827.006	296
827.102	-234
827.198	1298
827.294	7
827.390	632
827.486	404
827.582	-422
827.678	-341
827.774	649
827.869	-252
827.965	2050
828.061	-716
828.157	327
828.252	285
828.348	392
828.444	1739
828.539	-445
828.635	-143
828.731	897
828.826	256
828.922	218
829.017	481
829.113	642
829.208	84
829.304	-321
829.399	887
829.495	-38
829.590	1436
829.685	-623
829.781	1367
829.876	205
829.971	610
830.066	1037
830.162	329
830.257	163
830.352	-19
830.447	454
830.543	966
830.638	-712
830.733	447
830.828	-190
830.923	991
831.018	351
831.113	522
831.208	608
831.303	-428
831.398	-30
831.493	43
831.588	-312
831.683	-125
831.778	394
831.873	161
831.967	961
832.062	137
832.157	544
832.252	510
832.346	575
832.441	484
832.536	445
832.631	1855
832.725	1197
832.820	139
832.914	850
833.009	535
833.104	1136
833.198	1162
833.293	55
833.387	303
833.482	1090
833.576	-737
833.670	764
833.765	-129
833.859	-473
833.954	89
834.048	408
834.142	841
834.237	29
834.331	201
834.425	572
834.519	500
834.613	987
834.708	530
834.802	739
834.896	-686
834.990	207
835.084	86
835.178	-133
835.272	302
835.366	36
835.460	949
835.554	396
835.648	706
835.742	-123
835.836	-101
835.930	-234
836.024	-215
836.117	1205
836.211	484
836.305	1684
836.399	2021
836.493	-635
836.586	335
836.680	-838
836.774	-652
836.867	1201
836.961	-755
837.055	241
837.148	475
837.242	365
837.335	-171
837.429	648
837.522	548
837.616	632
837.709	2122
837.803	516
837.896	363
837.989	-110
838.083	1198
838.176	2396
838.269	842
838.363	1829
838.456	-54
838.549	609
838.642	395
838.735	2197
838.829	1011
838.922	258
839.015	119
839.108	-779
839.201	-14
839.294	340
839.387	1066
839.480	-73
839.573	691
839.666	283
839.759	630
839.852	-1134
839.945	-191
840.038	690
840.131	52
840.223	-369
840.316	762
840.409	-399
840.502	8
840.594	-301
840.687	-672
840.780	637
840.873	-332
840.965	183
841.058	1154
841.150	2480
841.243	1016
841.336	719
841.428	497
841.521	985
841.613	-273
841.706	433
841.798	511
841.890	-211
841.983	-500
842.075	538
842.167	720
842.260	136
842.352	1118
842.444	457
842.537	3321
842.629	3979
842.721	665
842.813	171
842.905	-1003
842.997	407
843.090	507
843.182	1352
843.274	2387
843.366	7013
843.458	11051
843.550	6221
843.642	760
843.734	734
843.826	814
843.918	1036
844.009	577
844.101	-403
844.193	135
844.285	630
844.377	1384
844.469	2791
844.560	4693
844.652	3535
844.744	984
844.835	742
844.927	422
845.019	1040
845.110	434
845.202	195
845.293	124
845.385	-630
845.476	-255
845.568	826
845.659	135
845.751	853
845.842	-301
845.934	110
846.025	-435
846.116	1021
846.208	-33
846.299	99
846.390	5
846.482	524
846.573	469
846.664	957
846.755	471
846.846	1361
846.937	-407
847.029	-38
847.120	-352
847.211	-457
847.302	530
847.393	-618
847.484	632
847.575	-258
847.666	-289
847.757	144
847.847	495
847.938	419
848.029	92
848.120	-478
848.211	-1103
848.302	-512
848.392	-378
848.483	57
848.574	-556
848.664	174
848.755	83
848.846	804
848.936	-868
849.027	-629
849.118	-863
849.208	358
849.299	-260
849.389	-226
849.480	741
849.570	178
849.661	803
849.751	680
849.841	-5
849.932	328
850.022	-478
850.112	-193
850.203	-588
850.293	426
850.383	212
850.474	-576
850.564	508
850.654	34
850.744	-184
850.834	-458
850.924	-496
851.014	106
851.104	-117
851.194	-448
851.284	365
851.374	-61
851.464	659
851.554	718
851.644	449
851.734	2071
851.824	1337
851.914	1967
852.004	5482
852.094	3010
852.183	1124
852.273	496
852.363	-137
852.452	98
852.542	-672
852.632	-926
852.721	238
852.811	174
852.901	-554
852.990	272
853.080	75
853.169	-548
853.259	-395
853.348	-820
853.438	177
853.527	3
853.617	-226
853.706	-460
853.795	-63
853.885	1668
853.974	769
854.063	3093
854.152	3063
854.242	1310
854.331	109
854.420	-588
854.509	42
854.598	-41
854.687	274
854.777	58
854.866	-358
854.955	-382
855.044	-947
855.133	500
855.222	-39
855.311	-1161
855.400	19
855.488	-146
855.577	-748
855.666	-177
855.755	606
855.844	328
855.933	371
856.021	192
856.110	265
856.199	-263
856.288	-590
856.376	-187
856.465	-546
856.554	-18
856.642	-248
856.731	-28
856.819	-507
856.908	-166
856.996	-273
857.085	-442
857.173	-615
857.262	-146
857.350	-337
857.438	-533
857.527	-309
857.615	-350
857.703	-810
857.792	-1356
857.880	-744
857.968	-846
858.056	97
858.145	-332
858.233	-204
858.321	-516
858.409	-43
858.497	-1400
858.585	-539
858.673	88
858.761	-41
858.849	-12
858.937	-407
859.025	17
859.113	465
859.201	-467
859.289	1033
859.377	666
859.465	-223
859.552	427
859.640	233
859.728	283
859.816	48
859.903	198
859.991	-143
860.079	-830
860.166	-506
860.254	1
860.342	-363
860.429	-278
860.517	-403
860.604	-403
860.692	123
860.779	-281
860.867	-741
860.954	-504
861.042	369
861.129	-662
861.216	-866
861.304	-1091
861.391	-162
861.478	-334
861.565	-515
861.653	468
861.740	-199
861.827	-949
861.914	-146
862.001	-178
862.089	-700
862.176	260
862.263	-393
862.350	-542
862.437	220
862.524	-368
862.611	841
862.698	474
862.785	1208
862.871	1543
862.958	-408
863.045	-647
863.132	76
863.219	-348
863.306	-828
863.392	-570
863.479	-670
863.566	-746
863.652	-351
863.739	-488
863.826	-454
863.912	-849
863.999	-809
864.086	-1104
864.172	-265
864.259	-338
864.345	-1020
864.432	-485
864.518	-835
864.604	-580
864.691	-1218
864.777	-534
864.863	-152
864.950	-233
865.036	-1403
865.122	14
865.209	-175
865.295	-294
865.381	-704
865.467	-160
865.553	1027
865.639	-1002
865.726	-1122
865.812	166
865.898	597
865.984	1102
866.070	2192
866.156	1697
866.242	-560
866.328	164
866.414	-1633
866.499	616
866.585	-725
866.671	141
866.757	358
866.843	-255
866.928	-557
867.014	-466
867.100	-4
867.186	-815
867.271	106
867.357	375
867.442	-369
867.528	-224
867.614	694
867.699	1549
867.785	2693
867.870	4160
867.956	4230
868.041	2484
868.127	1238
868.212	3186
868.297	2066
868.383	1582
868.468	1319
868.553	2162
868.639	1528
868.724	1336
868.809	786
868.894	-420
868.979	-465
869.065	-194
869.150	-1048
869.235	-561
869.320	-1396
869.405	-726
869.490	-1037
869.575	-1146
869.660	-329
869.745	-186
869.830	-1165
869.915	-641
870.000	370
870.085	-246
870.169	-8
870.254	590
870.339	-905
870.424	-884
870.509	220
870.593	-933
870.678	38
870.763	58
870.847	51
870.932	-608
871.016	134
871.101	192
871.186	46
871.270	-908
871.355	-42
871.439	-512
871.523	-827
871.608	403
871.692	39
871.777	-570
871.861	336
871.945	-913
872.030	465
872.114	-896
872.198	-971
872.282	-364
872.367	-980
872.451	-340
872.535	-596
872.619	106
872.703	-1258
872.787	-242
872.871	-1080
872.955	-947
873.039	-580
873.123	-198
873.207	-26
873.291	-906
873.375	-1385
873.459	353
873.543	-717
873.627	-1121
873.711	-949
873.794	-728
873.878	-317
873.962	-1116
874.045	-670
874.129	-1115
874.137	-1146
874.213	-1460
874.245	-1339
874.296	-1135
874.352	-1176
874.380	-1204
874.460	-1032
874.464	-1026
874.547	-821
874.568	-718
874.631	-421
874.676	-697
874.714	-919
874.784	-618
874.798	-565
874.881	108
874.892	1
874.965	-688
874.999	-637
875.048	-611
875.107	-918
875.131	-1030
875.215	-387
875.215	-387
875.298	-704
875.323	-758
875.381	-886
875.430	-517
875.465	-221
875.538	-445
875.548	-482
875.631	-1047
875.646	-1036
875.714	-1057
875.753	-885
875.798	-595
875.861	-869
875.881	-988
875.964	-266
875.968	-308
876.047	-933
876.076	-764
876.130	-534
876.183	-730
876.213	-780
876.291	-507
876.296	-496
876.379	-1197
876.398	-1141
876.462	-953
876.506	-714
876.545	-534
876.613	-43
876.628	96
876.711	-102
876.721	-12
876.794	506
876.828	-314
876.877	-1317
876.935	-305
876.960	27
877.043	-711
877.043	-712
877.125	-710
877.150	-398
877.208	246
877.258	-16
877.291	-133
877.365	-430
877.374	-494
877.456	181
877.472	147
877.539	177
877.579	-123
877.622	-478
877.687	-466
877.704	-437
877.787	-151
877.794	-162
877.869	-440
877.901	-368
877.952	-62
878.008	-13
878.034	-103
878.115	-521
878.117	-524
878.199	-296
878.222	-234
878.282	-209
878.329	-100
878.364	125
878.437	115
878.447	86
878.529	123
878.544	113
878.611	87
878.651	-30
878.694	-165
878.758	-245
878.776	-268
878.858	246
878.865	223
878.941	-61
878.972	-398
879.023	-910
879.078	-640
879.105	-480
879.185	170
879.187	183
879.269	95
879.292	-52
879.351	-588
879.399	-538
879.433	-404
879.506	185
879.516	244
879.598	-224
879.613	-361
879.680	-657
879.720	-252
879.762	-85
879.827	-737
879.844	-805
879.926	13
879.933	-10
880.007	-524
880.040	-465
880.089	-316
880.147	34
880.171	210
880.253	-8
880.254	-10
880.335	-126
880.360	-41
880.417	306
880.467	689
880.499	1082
880.574	2155
880.580	2142
880.662	-15
880.680	-298
880.744	-585
880.787	-376
880.825	-288
880.893	-225
880.907	-193
880.989	-300
881.000	-264
881.070	32
881.106	7
881.152	-74
881.213	13
881.233	87
881.315	152
881.319	140
881.396	99
881.426	289
881.478	291
881.532	-80
881.559	-78
881.639	-201
881.641	-217
881.722	-369
881.745	-431
881.803	126
881.852	344
881.885	213
881.958	79
881.966	102
882.047	214
882.064	216
882.129	308
882.171	676
882.210	797
882.277	40
882.291	-124
882.372	-416
882.383	-407
882.454	278
882.489	440
882.535	283
882.596	-16
882.616	-78
882.697	-373
882.702	-388
882.778	-259
882.808	-126
882.859	76
882.914	249
882.940	180
883.020	19
883.021	23
883.102	78
883.127	154
883.183	282
883.233	242
883.264	210
883.339	508
883.345	526
883.426	58
883.445	160
883.507	493
883.551	357
883.587	308
883.657	285
883.668	333
883.749	743
883.763	794
883.830	200
883.869	-109
883.910	260
883.975	1017
883.991	949
884.072	127
884.081	54
884.152	132
884.187	75
884.233	-189
884.292	23
884.314	249
884.394	68
884.398	102
884.475	-71
884.504	-241
884.555	195
884.610	253
884.636	84
884.716	100
884.716	107
884.797	618
884.821	827
884.877	580
884.927	103
884.958	62
885.033	368
885.038	372
885.118	281
885.139	151
885.199	327
885.244	725
885.279	734
885.350	729
885.359	749
885.439	696
885.456	675
885.520	225
885.561	-26
885.600	166
885.667	437
885.680	408
885.760	292
885.773	264
885.840	324
885.878	305
885.920	149
885.984	13
886.000	123
886.080	683
886.089	746
886.160	610
886.195	352
886.240	358
886.300	577
886.320	514
886.400	272
886.406	247
886.480	888
886.511	1182
886.560	873
886.616	384
886.640	294
886.720	22
886.722	13
886.800	103
886.827	135
886.879	283
886.932	252
886.959	158
887.038	161
887.039	174
887.119	816
887.143	1036
887.198	1206
887.248	1275
887.278	1280
887.354	1408
887.358	1388
887.437	624
887.459	483
887.517	936
887.564	1174
887.596	887
887.669	361
887.676	393
887.755	710
887.774	756
887.835	300
887.880	27
887.914	427
887.985	1151
887.994	1081
888.073	528
888.090	369
888.153	536
888.195	689
888.232	678
888.300	685
888.311	755
888.391	1158
888.405	1238
888.470	599
888.510	135
888.549	427
888.615	977
888.628	847
888.708	5
888.720	-125
888.787	444
888.825	712
888.866	767
888.930	939
888.945	992
889.024	1211
889.035	1231
889.103	608
889.140	281
889.182	699
889.245	1299
889.261	1129
889.340	268
889.349	174
889.419	347
889.454	410
889.498	483
889.559	603
889.577	760
889.656	1443
889.664	1509
889.735	1067
889.768	853
889.814	1067
889.873	1347
889.978	178
890.083	1162
890.187	677
890.292	824
890.397	-36
890.501	1062
890.606	823
890.710	1835
890.815	596
890.919	1423
891.024	99
891.128	964
891.233	555
891.337	1021
891.442	739
891.546	1294
891.650	322
891.755	698
891.859	1593
891.963	409
892.068	936
892.172	1101
892.276	-574
892.380	572
892.484	544
892.589	545
892.693	-204
892.797	610
892.901	653
893.005	916
893.109	492
893.213	1097
893.317	136
893.421	1205
893.525	278
893.629	977
893.733	1057
893.837	1510
893.941	-149
894.045	1596
894.148	1141
894.252	2198
894.356	868
894.460	1109
894.564	781
894.667	755
894.771	1141
894.875	1362
894.978	1190
895.082	1611
895.186	248
895.289	1305
895.393	1110
895.496	1193
895.600	-40
895.703	898
895.807	663
895.910	1448
896.014	244
896.117	515
896.221	872
896.324	1414
896.427	733
896.531	1150
896.634	1162
896.737	1521
896.840	615
896.944	614
897.047	34
897.150	1082
897.253	279
897.356	673
897.460	570
897.563	646
897.666	1065
897.769	1118
897.872	231
897.975	957
898.078	946
898.181	1345
898.284	892
898.387	1097
898.490	484
898.593	1085
898.695	842
898.798	1101
898.901	1406
899.004	713
899.107	153
899.209	1319
899.312	369
899.415	846
899.518	897
899.620	822
899.723	872
899.826	1340
899.928	1370
900.031	645
900.133	593
900.236	557
900.338	102
900.441	1359
900.543	439
900.646	1368
900.748	-123
900.851	1002
900.953	279
901.055	1610
901.158	-29
901.260	1946
901.362	538
901.465	956
901.567	50
901.669	1926
901.771	1012
901.873	1414
901.976	1450
902.078	818
902.180	248
902.282	1284
902.384	191
902.486	752
902.588	557
902.690	1749
902.792	1902
902.894	2311
902.996	1224
903.098	1788
903.200	973
903.302	1474
903.404	513
903.505	848
903.607	964
903.709	1552
903.811	1066
903.913	1431
904.014	728
904.116	1233
904.218	1668
904.319	2073
904.421	2194
904.523	5485
904.624	2799
904.726	1695
904.827	2279
904.929	3727
905.030	2056
905.132	1777
905.233	777
905.335	1063
905.436	1310
905.537	1677
905.639	327
905.740	1228
905.841	970
905.943	2506
906.044	3312
906.145	2820
906.247	1684
906.348	1792
906.449	763
906.550	1296
906.651	1761
906.752	1286
906.854	1308
906.955	1050
907.056	812
907.157	1073
907.258	575
907.359	1235
907.460	1560
907.561	1142
907.662	1081
907.762	1339
907.863	162
907.964	1277
908.065	649
908.166	1026
908.267	778
908.367	1287
908.468	8
908.569	1491
908.670	997
908.770	1165
908.871	873
908.971	1654
909.072	800
909.173	672
909.273	-332
909.374	1344
909.474	1155
909.575	1630
909.675	-269
909.776	990
909.876	208
909.977	1056
910.077	264
910.177	945
910.278	1196
910.378	1161
910.478	209
910.579	1293
910.679	120
910.779	1736
910.879	1202
910.980	664
911.080	716
911.180	626
911.280	187
911.380	756
911.480	1086
911.580	1495
911.680	577
911.780	1629
911.880	431
911.980	1158
912.080	772
912.180	1324
912.280	620
912.380	1394
912.480	194
912.580	1206
912.679	630
912.779	1162
912.879	385
912.979	1228
913.078	737
913.178	1657
913.278	516
913.377	1131
913.477	1341
913.577	1385
913.676	1348
913.776	631
913.875	-17
913.975	906
914.074	658
914.174	692
914.273	339
914.373	1326
914.472	560
914.572	1257
914.671	610
914.770	953
914.870	404
914.969	1163
915.068	609
915.167	1465
915.267	333
915.366	459
915.465	1330
915.564	1325
915.663	934
915.763	984
915.862	587
915.961	1119
916.060	574
916.159	1487
916.258	189
916.357	708
916.456	621
916.555	1511
916.654	302
916.752	1497
916.851	-14
916.950	1284
917.049	635
917.148	1360
917.247	652
917.345	1352
917.444	484
917.543	963
917.642	305
917.740	521
917.839	435
917.937	2021
918.036	570
918.135	958
918.233	920
918.332	1357
918.430	46
918.529	703
918.627	670
918.726	633
918.824	1006
918.923	219
919.021	649
919.119	761
919.218	-532
919.316	1365
919.414	258
919.512	1180
919.611	932
919.709	974
919.807	1039
919.905	906
920.003	340
920.102	871
920.200	329
920.298	894
920.396	501
920.494	660
920.592	250
920.690	934
920.788	767
920.886	246
920.984	999
921.082	1142
921.180	444
921.277	1324
921.375	-365
921.473	1239
921.571	183
921.669	1561
921.766	439
921.864	1029
921.962	569
922.060	1353
922.157	-460
922.255	1003
922.352	197
922.450	1149
922.548	428
922.645	362
922.743	872
922.840	1136
922.938	259
923.035	505
923.133	807
923.230	630
923.327	418
923.425	772
923.522	307
923.619	1212
923.717	49
923.814	571
923.911	-182
924.008	1157
924.106	286
924.203	143
924.300	321
924.397	1189
924.494	1362
924.591	1268
924.688	261
924.786	930
924.883	219
924.979	389
925.077	423
925.173	1726
925.270	205
925.367	572
925.464	863
925.561	1146
925.658	547
925.755	1567
925.852	869
925.948	2351
926.045	3080
926.142	3457
926.239	4429
926.335	5472
926.432	4314
926.529	5354
926.625	5399
926.722	3670
926.818	1728
926.915	2023
927.011	131
927.108	1631
927.204	275
927.301	1224
927.397	466
927.494	472
927.590	255
927.687	766
927.783	699
927.879	1401
927.976	165
928.072	659
928.168	761
928.264	769
928.361	-306
928.457	1179
928.553	617
928.649	610
928.745	433
928.841	955
928.937	392
929.033	1069
929.129	555
929.225	298
929.321	420
929.417	34
929.513	-701
929.609	20
929.705	515
929.801	1023
929.897	-897
929.993	119
930.089	-5
930.184	793
930.280	-756
930.376	1201
930.471	-441
930.567	519
930.663	450
930.758	-75
930.854	4
930.950	307
931.045	-116
931.141	833
931.236	206
931.332	909
931.427	371
931.523	810
931.618	1059
931.714	301
931.809	117
931.905	1791
932.000	-311
932.095	-217
932.191	732
932.286	735
932.381	149
932.476	671
932.572	-20
932.667	248
932.762	-137
932.857	541
932.952	-275
933.047	502
933.142	255
933.237	304
933.332	-73
933.427	700
933.522	58
933.617	679
933.712	-630
933.807	181
933.902	-73
933.997	763
934.092	262
934.187	-213
934.282	563
934.376	857
934.471	0
934.566	362
934.661	-123
934.755	824
934.850	670
934.945	986
935.039	259
935.134	904
935.228	-660
935.323	1086
935.417	311
935.512	460
935.606	-42
935.701	921
935.795	272
935.890	452
935.984	38
936.079	78
936.173	213
936.267	155
936.362	28
936.456	742
936.550	-65
936.644	1182
936.738	-156
936.833	1143
936.927	500
937.021	402
937.115	-145
937.209	319
937.303	1094
937.397	1748
937.491	-161
937.585	875
937.679	640
937.773	543
937.867	-10
937.961	897
938.055	357
938.149	1851
938.243	601
938.337	1690
938.430	1126
938.524	3430
938.618	6748
938.712	5225
938.805	918
938.899	1463
938.993	1506
939.086	3991
939.180	9328
939.274	11450
939.367	3616
939.461	2182
939.554	798
939.648	1310
939.741	-76
939.835	373
939.928	353
940.022	1050
940.115	130
940.208	834
940.302	200
940.395	1684
940.488	-729
940.582	1212
940.675	-302
940.768	1566
940.861	90
940.954	886
941.048	-465
941.141	1118
941.234	-369
941.327	1473
941.420	2035
941.513	787
941.606	4
941.699	1587
941.792	-382
941.885	926
941.978	405
942.071	1201
942.164	-675
942.257	1154
942.349	-454
942.442	673
942.535	619
942.628	1571
942.721	836
942.813	-164
942.906	428
942.999	603
943.091	399
943.184	1111
943.277	-133
943.369	1307
943.462	33
943.554	953
943.647	-419
943.739	1455
943.832	331
943.924	863
944.017	964
944.109	38
944.201	1083
944.294	946
944.386	89
944.478	1349
944.571	-31
944.663	1660
944.755	129
944.847	1622
944.940	265
945.032	282
945.124	113
945.216	1786
945.308	294
945.400	899
945.492	980
945.584	735
945.676	418
945.768	1205
945.860	346
945.952	1931
946.044	847
946.136	1206
946.228	372
946.320	901
946.412	173
946.503	1141
946.595	669
946.687	1100
946.779	610
946.870	1312
946.962	3
947.054	1556
947.145	751
947.237	478
947.329	352
947.420	945
947.512	338
947.603	832
947.695	261
947.786	-84
947.878	369
947.969	1478
948.061	142
948.152	271
948.243	375
948.335	1599
948.426	-177
948.517	304
948.609	176
948.700	638
948.791	1277
948.882	1578
948.973	205
949.065	1695
949.156	1103
949.247	144
949.338	620
949.429	1017
949.520	1032
949.611	535
949.702	736
949.793	1077
949.884	-433
949.975	1246
950.066	508
950.157	1367
950.247	1019
950.338	1064
950.429	10
950.520	1776
950.611	685
950.701	1144
950.792	791
950.883	885
950.973	1483
951.064	455
951.155	1141
951.245	1032
951.336	525
951.427	805
951.517	144
951.608	1354
951.698	285
951.788	430
951.879	-554
951.969	541
952.060	1247
952.150	1147
952.240	1253
952.331	-423
952.421	405
952.511	1112
952.602	695
952.692	1363
952.782	955
952.872	915
952.962	633
953.052	561
953.143	956
953.233	980
953.323	612
953.413	691
953.503	740
953.593	1888
953.683	716
953.773	721
953.863	1460
953.953	1665
954.042	1331
954.132	690
954.222	866
954.312	1627
954.402	478
954.492	1016
954.581	838
954.671	1791
954.761	573
954.850	1199
954.940	980
955.030	1591
955.119	527
955.209	1030
955.298	579
955.388	840
955.477	998
955.567	1063
955.656	695
955.746	1482
955.835	392
955.925	1096
956.014	562
956.103	1045
956.193	447
956.282	707
956.371	934
956.461	981
956.550	617
956.639	1610
956.728	623
956.817	1178
956.906	689
956.995	795
957.085	108
957.174	1571
957.263	286
957.352	1106
957.441	414
957.530	1301
957.619	1323
957.708	1301
957.796	501
957.885	1116
957.974	536
958.063	1512
958.152	443
958.241	1658
958.329	133
958.418	1491
958.507	146
958.596	975
958.684	684
958.773	1820
958.861	1775
958.950	1409
959.039	1004
959.127	1329
959.216	1307
959.304	1305
959.393	475
959.481	1460
959.570	425
959.658	786
959.746	198
959.835	2296
959.923	877
960.011	1090
960.100	1333
960.188	763
960.276	-355
960.365	815
960.453	642
960.541	817
960.629	983
960.717	1309
960.805	482
960.893	504
960.981	136
961.069	1485
961.158	894
961.245	1968
961.333	866
961.421	880
961.509	1322
961.597	496
961.685	642
961.773	1206
961.861	477
961.949	1279
962.036	69
962.124	1485
962.212	405
962.299	991
962.387	441
962.475	1405
962.562	-222
962.650	1436
962.738	743
962.825	1476
962.913	1225
963.000	792
963.088	-326
963.175	1685
963.263	357
963.350	-21
963.438	-14
963.525	1209
963.612	1456
963.700	2659
963.787	4611
963.874	2952
963.962	1337
964.049	901
964.136	286
964.223	1111
964.310	74
964.398	1147
964.485	-97
964.572	1798
964.659	1166
964.746	1321
964.833	535
964.920	668
965.007	450
965.094	125
965.181	-87
965.268	752
965.355	621
965.441	1011
965.528	-31
965.615	1844
965.702	572
965.789	519
965.875	-218
965.962	547
966.049	-392
966.136	769
966.222	-379
966.309	916
966.395	-212
966.482	1011
966.569	167
966.655	433
966.742	77
966.828	717
966.915	-69
967.001	1053
967.087	-897
967.174	1577
967.260	760
967.347	1135
967.433	1231
967.519	2816
967.605	-51
967.692	1105
967.778	-814
967.864	452
967.950	-73
968.036	-46
968.123	514
968.209	849
968.295	-489
968.381	1745
968.467	777
968.553	176
968.639	544
968.725	235
968.811	114
968.897	1283
968.983	364
969.069	107
969.154	1181
969.240	1029
969.326	-422
969.412	-13
969.497	-10
969.583	-783
969.669	698
969.755	236
969.840	-306
969.926	903
970.012	-366
970.097	1043
970.183	-597
970.268	664
970.354	194
970.439	740
970.525	1981
970.610	259
970.696	404
970.781	940
970.866	-535
970.952	720
971.037	-750
971.122	248
971.208	353
971.293	331
971.378	-837
971.463	-66
971.549	507
971.634	281
971.719	235
971.804	1170
971.889	1436
971.974	706
972.059	-846
972.144	795
972.229	271
972.314	-386
972.399	421
972.484	440
972.569	-4
972.654	-74
972.739	986
972.824	1263
972.908	-546
972.993	626
973.078	-329
973.163	8
973.247	-621
973.332	-1392
973.417	808
973.501	-1159
973.586	-721
973.671	144
973.755	305
973.840	140
973.924	-332
974.009	600
974.093	-607
974.178	1671
974.262	-138
974.346	-314
974.431	-516
974.515	132
974.600	-544
974.684	202
974.768	-192
974.852	999
974.937	-1556
975.021	-233
975.105	-1277
975.189	-488
975.273	748
975.358	-179
975.442	-1049
975.526	179
975.610	-1480
975.694	-688
975.778	424
975.862	-302
975.946	-1775
976.030	1696
976.114	-466
976.198	-12
976.281	-1169
976.365	711
976.449	-558
976.533	-469
976.617	-488
976.700	662
976.784	-858
976.868	-258
976.951	482
977.035	-11
977.119	-211
977.202	-169
977.286	-485
977.369	-302
977.453	-303
977.536	-382
977.620	-1613
977.703	1045
977.787	-1249
977.870	799
977.953	-538
978.037	-1422
978.120	-203
978.203	596
978.287	352
978.370	371
978.453	-1381
978.536	31
978.620	581
978.703	421
978.786	-576
978.869	-622
978.952	-1617
979.035	956
979.118	-588
979.201	-680
979.284	86
979.367	-46
979.450	-795
979.533	-823
979.616	-1129
979.699	-335
979.782	-427
979.865	672
979.948	-1266
980.030	-453
980.113	-570
980.196	-587
980.279	-533
980.361	50
980.444	-504
980.526	539
980.609	-427
980.692	-306
980.774	56
980.857	-993
980.939	158
981.022	-596
981.104	-478
981.187	-159
981.269	-355
981.352	-1238
981.434	-1155
981.516	-173
981.599	836
981.681	450
981.763	-299
981.846	13
981.928	-1114
982.010	-1350
982.092	-718
982.174	297
982.256	-877
982.339	-169
982.421	-453
982.503	-235
982.585	-1309
982.667	-361
982.749	-846
982.831	-21
982.913	-2095
982.995	574
983.077	-1421
983.158	679
983.240	-1986
983.322	-145
983.404	-270
983.486	-750
983.568	-870
983.649	80
983.731	-928
983.813	-696
983.894	-405
983.976	-1226
984.058	-903
984.139	-136
984.221	-2310
984.302	111
984.384	-1198
984.465	-95
984.547	-841
984.628	-1141
984.710	246
984.791	-233
984.872	-530
984.954	-1099
985.035	-386
985.116	-1383
985.198	-1515
985.279	1607
985.360	-1657
985.441	-739
985.522	-624
985.604	-729
985.685	-2225
985.766	1137
985.847	559
985.928	-430
986.009	-280
986.090	179
986.171	-340
986.252	-658
986.333	-528
986.414	222
986.495	-935
986.576	13
986.656	-831
986.737	98
986.818	-1591
986.899	-1212
986.980	-1214
987.060	368
987.141	-638
987.222	-119
987.302	-581
987.383	-675
987.464	-1824
987.544	414
987.625	-1266
987.705	830
987.786	-289
987.866	-159
987.947	-1338
988.027	-891
988.108	-1117
988.188	-903
988.268	-483
988.349	-270
988.429	-877
988.509	-618
988.589	-1006
988.670	-880
988.750	236
988.830	-446
988.910	-1208
988.990	-868
989.070	-843
989.151	-290
989.231	-1417
989.311	-178
989.391	-821
989.471	-317
989.551	-1763
989.631	-1074
989.711	-36
989.791	-749
989.870	-1504
989.950	190
990.030	-1072
990.110	150
990.190	-1034
990.269	-466
990.349	-1708
990.429	-1006
990.509	-1344
990.588	-633
990.668	-1028
990.747	-819
990.827	-839
990.907	-619
990.986	-1201
991.066	-212
991.145	-1177
991.225	543
991.304	-1755
991.383	-136
991.463	-1427
991.542	-139
991.622	-874
991.701	-1323
991.780	-763
991.859	-495
991.939	-1026
992.018	-263
992.097	-532
992.176	-1103
992.256	-1050
992.335	-710
992.414	-1804
992.493	-1120
992.572	-970
992.651	592
992.730	-1118
992.809	-562
992.888	-1562
992.967	-655
993.046	-471
993.125	-1140
993.203	-916
993.282	-927
993.361	-1536
993.440	-695
993.519	-1620
993.597	-64
993.676	-1191
993.755	677
993.834	-1053
993.912	-2002
993.991	-529
994.069	-359
994.148	-1045
994.226	-527
994.305	-1268
994.384	-1779
994.462	-828
994.540	-907
994.619	-750
994.697	-34
994.776	-1805
994.854	823
994.932	-1381
995.011	-971
995.089	-1572
995.167	-744
995.245	-713
995.324	-1163
995.402	-1358
995.480	-1256
995.558	-1215
995.636	-1508
995.714	-940
995.792	23
995.870	-849
995.948	269
996.026	-701
996.104	-1303
996.182	279
996.260	-1528
996.338	-481
996.416	-771
996.494	-1318
996.572	-84
996.649	-1263
996.727	-799
996.805	-415
996.883	-962
996.960	-1912
997.038	-260
997.116	-770
997.193	-1844
997.271	-1046
997.348	-163
997.426	-1324
997.504	-1837
997.581	-911
997.658	-548
997.736	-1824
997.813	-745
997.891	-1102
997.968	-1926
998.046	-1718
998.123	-465
998.200	-1314
998.277	-1346
998.355	-404
998.432	-1810
998.509	-1161
998.586	-38
998.663	-513
998.741	-560
998.818	-1360
998.895	-1809
998.972	-1196
999.049	-910
999.126	-1606
999.203	-570
999.280	-1170
999.357	-421
999.434	-2173
999.511	-551
999.587	-1310
999.664	-595
999.741	-1101
999.818	-116
999.895	-1276
999.971	-1977
1000.048	-943
1000.125	-647
1000.202	-2281
1000.278	-1151
1000.355	-1657
1000.431	-878
1000.508	-1966
1000.584	-837
1000.661	-1062
1000.738	-1617
1000.814	-2281
1000.890	437
1000.967	-1810
1001.043	-672
1001.120	-1845
1001.196	-1344
1001.272	-2155
1001.349	-1197
1001.425	-876
1001.501	-1483
1001.577	-1693
1001.654	-983
1001.730	-1619
1001.806	-1028
1001.882	-2182
1001.958	-459
1002.034	-1230
1002.110	-454
1002.186	-1559
1002.262	-1403
1002.338	-1494
1002.414	-516
1002.490	-734
1002.566	-1536
1002.642	-1425
1002.718	-444
1002.794	-1228
1002.870	-1339
1002.945	-2141
1003.021	-907
1003.097	-1266
1003.173	-29
1003.248	-1836
1003.324	-1328
1003.400	-1392
1003.475	-1708
1003.551	-1855
1003.626	-1253
1003.702	-2300
1003.777	-1927
1003.853	-1864
1003.928	-2198
1004.004	-1716
1004.079	-926
1004.155	-1593
1004.230	-2015
1004.305	-885
1004.381	-1209
1004.456	-1678
1004.531	-1739
1004.607	-2147
1004.682	-1240
1004.757	-1591
1004.832	-1563
1004.907	-1751
1004.982	-837
1005.057	-1535
1005.133	-745
1005.208	-1509
1005.283	-1190
1005.358	-1476
1005.433	-1825
1005.508	-1087
1005.583	-1769
1005.657	-2331
1005.732	-855
1005.807	-1815
1005.882	-1668
1005.957	-1343
1006.032	-917
1006.106	-1459
1006.181	-1395
1006.256	-1642
1006.331	-1651
1006.405	-2098
1006.480	-1687
1006.554	-1519
1006.629	-1697
1006.704	-1852
1006.778	-739
1006.853	-1938
1006.927	-1768
1007.002	-2817
1007.076	-1505
1007.150	-2753
1007.225	-514
1007.299	-1100
1007.373	-2153
1007.448	-1712
1007.522	-482
1007.596	-1702
1007.671	-2053
1007.745	-1431
1007.819	-1949
1007.893	-1893
1007.967	-753
1008.041	-2421
1008.115	-1062
1008.190	-2348
1008.264	-1520
1008.338	-3375
1008.412	-1595
1008.486	-1751
1008.560	-1257
1008.633	-2164
1008.707	-1198
1008.781	-1433
1008.855	-1018
1008.929	-2267
1009.003	-1431
1009.076	-2398
1009.150	-815
1009.224	-1297
1009.298	-1192
1009.371	-1583
1009.445	-1348
1009.519	-1988
1009.592	-2207
1009.666	-2360
1009.739	-1818
1009.813	-2687
1009.886	-414
1009.960	-3223
1010.033	-470
1010.107	-1233
1010.180	-937
1010.253	-1259
1010.327	-1286
1010.400	-1542
1010.473	-867
1010.547	-403
1010.620	-1633
1010.693	-468
1010.766	-1043
1010.840	-1162
1010.913	-373
1010.986	-1340
1011.059	-1302
1011.132	-830
1011.205	437
1011.278	-1226
1011.351	183
1011.424	-1016
1011.497	-1917
1011.570	-1023
1011.643	-1018
1011.716	-1247
1011.789	-1777
1011.862	-1831
1011.934	-1418
1012.007	-2573
1012.080	-1949
1012.153	-2067
1012.225	-804
1012.298	-2123
1012.371	-1645
1012.443	-1961
1012.516	-1642
1012.588	-1831
1012.661	-1481
1012.733	-2227
1012.806	-858
1012.879	-1698
1012.951	-1768
1013.023	-2121
1013.096	-664
1013.168	-1610
1013.241	-1045
1013.313	-1782
1013.385	-2247
1013.458	-1633
1013.530	-1208
1013.602	-1402
1013.674	-1077
1013.746	-2373
1013.819	-1070
1013.891	-1424
1013.963	-2149
1014.035	-1663
1014.107	-1606
1014.179	-1620
1014.251	-2097
1014.323	-1453
1014.395	-1330
1014.467	-1795
1014.539	-1484
1014.611	-2737
1014.683	-1535
1014.754	-2244
1014.826	-1933
1014.898	-1512
1014.970	-1608
1015.042	-1254
1015.113	-935
1015.185	-2009
1015.257	-1907
1015.328	-811
1015.400	-1191
1015.471	-1643
1015.543	-1687
1015.615	-1985
1015.686	-1501
1015.757	-2237
1015.829	-1085
1015.901	-3013
1015.972	-1625
1016.043	-1188
1016.115	-340
1016.186	-943
1016.257	-1071
1016.328	-1586
1016.400	-703
1016.471	-2187
1016.542	-1525
1016.613	-1683
1016.685	-686
1016.756	-1009
1016.827	-1030
1016.898	-2566
1016.969	-543
1017.040	-1462
1017.111	-1983
1017.182	-2198
1017.253	-1523
1017.324	-2482
1017.395	-1183
1017.466	-1532
1017.537	-1521
1017.608	-2133
1017.678	-1040
1017.749	-2138
1017.820	-1260
1017.891	-2086
1017.961	-1445
1018.032	-1704
1018.103	-1706
1018.173	-1616
1018.244	-566
1018.315	-2650
1018.385	-1708
1018.456	-1952
1018.526	-1033
1018.597	-1838
1018.667	-1322
1018.738	-1845
1018.808	-1742
1018.878	-1871
1018.949	-644
1019.019	-1909
1019.089	-870
1019.160	-1946
1019.230	-1777
1019.300	-1369
1019.371	-2044
1019.441	-1110
1019.511	-1108
1019.581	-1606
1019.651	-1851
1019.721	-899
1019.791	-855
1019.861	-1664
1019.931	-817
1020.001	-2466
1020.071	-1496
1020.141	-2312
1020.211	-1313
1020.281	-1708
1020.351	-1437
1020.421	-2307
1020.491	-720
1020.560	-2185
1020.630	-242
1020.700	-1620
1020.770	-1347
1020.839	-2107
1020.909	-663
1020.979	-2099
1021.048	-1668
1021.118	-1386
1021.187	-1590
1021.257	-2491
1021.326	-594
1021.396	-1829
1021.465	-877
1021.535	-1947
1021.604	-1195
1021.674	-861
1021.743	-1326
1021.812	-2528
1021.882	-1096
1021.951	-1954
1022.020	-1373
1022.089	-930
1022.159	-1314
1022.228	-1106
1022.297	-1397
1022.366	-2065
1022.435	-1066
1022.504	-2116
1022.573	-1690
1022.642	-1293
1022.711	-1840
1022.781	-1107
1022.849	-1241
1022.918	-2019
1022.987	-1641
1023.056	-2235
1023.125	-1011
1023.194	-2002
1023.263	-1720
1023.331	-1331
1023.400	-1534
1023.469	-2602
1023.538	-1830
1023.606	-1072
1023.675	-1369
1023.744	-1387
1023.812	-956
1023.881	-1453
1023.949	-911
1024.018	-2069
1024.086	-1196
1024.155	-2111
1024.223	-1319
1024.292	-1873
1024.360	-1331
1024.429	-1871
1024.497	-1595
1024.565	-1800
1024.634	-541
1024.702	-1481
1024.770	-754
1024.838	-2120
1024.907	-1935
1024.975	-2126
1025.043	-1482
1025.111	-1750
1025.179	-738
1025.247	-1765
1025.315	-707
1025.383	-1812
1025.451	-1641
1025.519	-2605
1025.587	-1496
1025.655	-2322
1025.723	-1139
1025.791	-1845
1025.859	-601
1025.927	-1918
1025.995	-1325
1026.062	-1067
1026.130	-587
1026.198	-2564
1026.266	-1525
1026.333	-2059
1026.401	-1029
1026.469	-1430
1026.536	-1873
1026.604	-1961
1026.671	-1755
1026.739	-2099
1026.806	-806
1026.874	-1020
1026.941	-1357
1027.009	-2232
1027.076	-1877
1027.144	-2329
1027.211	-1517
1027.278	-2313
1027.345	-1010
1027.413	-2625
1027.480	-2563
1027.547	-2218
1027.614	-1460
1027.682	-2073
1027.749	-811
1027.816	-1274
1027.883	-1114
1027.950	-1957
1028.017	-2315
1028.084	-1286
1028.151	-1402
1028.218	-1444
1028.285	-1626
1028.352	-1855
1028.419	-2219
1028.486	-2452
1028.553	-1402
1028.619	-2626
1028.686	-1082
1028.753	-2326
1028.820	-1110
1028.886	-1488
1028.953	-763
1029.020	-2228
1029.086	-2120
1029.153	-2482
1029.220	-806
1029.286	-1696
1029.353	-1402
1029.419	-2510
1029.486	-1528
1029.552	-1826
1029.619	-1234
1029.685	-1823
1029.751	-1503
1029.818	-1941
1029.884	-1662
1029.951	-1172
1030.017	-1596
1030.083	-1831
1030.149	-2073
1030.216	-2036
1030.282	-1643
1030.348	-2064
1030.414	-2338
1030.480	-1970
1030.546	-1645
1030.612	-2801
1030.678	-2027
1030.744	-1966
1030.810	-1363
1030.876	-2016
1030.942	-1879
1031.008	-2178
1031.074	-2137
1031.140	-1773
1031.206	-2000
1031.272	-2331
1031.337	-1370
1031.403	-2117
1031.469	-1298
1031.534	-1709
1031.600	-950
1031.666	-1704
1031.731	-1677
1031.797	-1747
1031.863	-1785
1031.928	-2245
1031.994	-2582
1032.059	-2053
1032.125	-1718
1032.190	-2483
1032.256	-1481
1032.321	-1557
1032.386	-980
1032.452	-2105
1032.517	-1684
1032.582	-1902
1032.647	-1497
1032.713	-2626
1032.778	-968
1032.843	-1613
1032.908	-1148
1032.974	-2073
1033.039	-1586
1033.104	-950
1033.169	-2459
1033.234	-1247
1033.299	-1784
1033.364	-2468
1033.429	-2580
1033.494	-1740
1033.559	-2348
1033.624	-2061
1033.688	-1543
1033.753	-2509
1033.818	-1214
1033.883	-2552
1033.948	-2202
1034.013	-1968
1034.077	-2011
1034.142	-1902
1034.207	-1575
1034.271	-2546
1034.336	-1781
1034.400	-2337
1034.465	-1562
1034.530	-1772
1034.594	-1479
1034.658	-2109
1034.723	-2115
1034.787	-2693
1034.852	-1588
1034.916	-2204
1034.981	-2167
1035.045	-2257
1035.109	-2234
1035.173	-1859
1035.238	-1658
1035.302	-1869
1035.366	-1826
1035.430	-2108
1035.495	-2162
1035.559	-2296
1035.623	-1956
1035.687	-2057
1035.751	-1992
1035.815	-1728
1035.879	-1807
1035.943	-2175
1036.007	-1689
1036.071	-1997
1036.135	-1310
1036.198	-2604
1036.262	-2312
1036.326	-2693
1036.390	-1759
1036.454	-1965
1036.517	-1689
1036.581	-2354
1036.645	-1442
1036.709	-2231
1036.772	-1822
1036.836	-2184
1036.900	-1608
1036.963	-2202
1037.026	-1549
1037.090	-1919
1037.154	-1931
1037.217	-2614
1037.280	-1857
1037.344	-2093
1037.407	-2646
1037.471	-2484
1037.534	-1870
1037.597	-1939
1037.661	-1910
1037.724	-2651
1037.787	-1812
1037.850	-1903
1037.913	-2109
1037.977	-1869
1038.040	-2336
1038.103	-2710
1038.166	-1703
1038.229	-2364
1038.292	-1868
1038.355	-2830
1038.418	-2002
1038.481	-1705
1038.544	-2164
1038.607	-2151
1038.670	-2049
1038.732	-2390
1038.795	-2533
1038.858	-2505
1038.921	-1344
1038.984	-2169
1039.046	-1583
1039.109	-2001
1039.172	-2280
1039.234	-2937
1039.297	-1581
1039.360	-3079
1039.422	-1640
1039.485	-1757
1039.547	-2211
1039.610	-2086
1039.672	-2353
1039.734	-2257
1039.797	-1811
1039.859	-2619
1039.922	-1629
1039.984	-2375
1040.046	-2209
1040.109	-2488
1040.171	-1203
1040.233	-2268
1040.295	-1815
1040.358	-2748
1040.420	-2547
1040.482	-2377
1040.544	-1900
1040.606	-2590
1040.668	-1721
1040.730	-3189
1040.792	-2118
1040.854	-2340
1040.916	-2093
1040.978	-2696
1041.040	-1631
1041.102	-2268
1041.164	-1718
1041.225	-2472
1041.287	-1687
1041.349	-2384
1041.411	-1085
1041.472	-2433
1041.534	-2191
1041.596	-2137
1041.657	-1532
1041.719	-2137
1041.781	-1426
1041.842	-1262
1041.904	-2113
1041.965	-1937
1042.027	-1359
1042.088	-2731
1042.150	-1251
1042.211	-3157
1042.272	-895
1042.334	-2382
1042.395	-1552
1042.456	-3079
1042.518	-545
1042.579	-1587
1042.640	-1196
1042.701	-2708
1042.763	-1726
1042.824	-2298
1042.885	-2078
1042.946	-1650
1043.007	-2460
1043.068	-1474
1043.129	-1908
1043.190	-2372
1043.251	-521
1043.312	-2153
1043.373	-986
1043.434	-2088
1043.495	-1525
1043.556	-900
1043.616	-2013
1043.677	-1831
1043.738	-1410
1043.799	-1746
1043.859	-1728
1043.920	-1935
1043.981	-1326
1044.041	-1245
1044.102	-1634
1044.162	-1736
1044.223	-1341
1044.284	-1844
1044.344	-995
1044.405	-2096
1044.465	-1603
1044.525	-1330
1044.586	-1294
1044.646	-1681
1044.707	-1075
1044.767	-1403
1044.827	-1367
1044.887	-1830
1044.948	-730
1045.008	-1730
1045.068	-931
1045.128	-1399
1045.188	-2012
1045.249	-1035
1045.309	-1285
1045.369	-2051
1045.429	-458
1045.489	-1496
1045.549	-599
1045.609	-1714
1045.669	-1324
1045.729	-1689
1045.789	-1986
1045.848	-1111
1045.908	-1159
1045.968	-2148
1046.028	-1200
1046.088	-1569
1046.147	-737
1046.207	-1373
1046.267	-748
1046.326	-1571
1046.386	-1002
1046.446	-1195
1046.505	-53
1046.565	-186
1046.624	-101
1046.684	-989
1046.743	-260
1046.803	159
1046.862	363
1046.922	0
