'Start Wavelength	183.907
'End Wavelength	1046.922
'Gate Delay	5.000
'Gate Width (ms)	1.050
'Laser Output Level	0.000
'X Position	0.000
'Y Position	0.000
'Z Position	0.000
'Grid Point Number	1.000
'Shot Number	100.000
183.907	746.000
183.977	-93.000
184.047	673
184.116	1038
184.186	496
184.256	1155
184.325	-2
184.395	366
184.465	341
184.534	425
184.604	101
184.674	737
184.743	635
184.813	434
184.883	1204
184.952	965
185.022	992
185.092	776
185.161	761
185.231	575
185.301	124
185.370	856
185.440	829
185.509	521
185.579	-412
185.649	619
185.718	665
185.788	783
185.857	50
185.927	83
185.996	784
186.066	796
186.136	287
186.205	757
186.275	146
186.344	1420
186.414	255
186.483	325
186.553	2228
186.622	3861
186.692	1044
186.761	1150
186.831	1006
186.900	-216
186.970	1140
187.039	1632
187.109	2718
187.178	1083
187.248	1538
187.317	2362
187.387	489
187.456	923
187.526	1815
187.595	1865
187.664	706
187.734	1008
187.803	1418
187.873	636
187.942	2392
188.012	1188
188.081	992
188.150	1421
188.220	3631
188.289	3255
188.358	1715
188.428	2341
188.497	1270
188.567	1047
188.636	1286
188.705	1770
188.775	1702
188.844	723
188.913	1966
188.983	1222
189.052	879
189.121	623
189.191	1657
189.260	2474
189.329	2441
189.399	1817
189.468	1916
189.537	935
189.606	1566
189.676	1298
189.745	1445
189.814	2024
189.883	1278
189.953	1405
190.022	2897
190.091	7975
190.161	12905
190.230	4233
190.299	1875
190.368	1030
190.437	1258
190.507	1875
190.576	1544
190.645	976
190.714	805
190.783	694
190.853	2648
190.922	1449
190.991	2260
191.060	2445
191.129	801
191.198	2303
191.268	464
191.337	1597
191.406	1510
191.475	1499
191.544	893
191.613	1770
191.682	1064
191.752	2115
191.821	1664
191.890	1166
191.959	2079
192.028	1131
192.097	1264
192.166	1125
192.235	1368
192.304	1535
192.373	792
192.442	1031
192.511	1100
192.580	1126
192.650	516
192.719	626
192.788	1771
192.857	1783
192.926	1003
192.995	1086
193.064	1842
193.133	2547
193.202	3355
193.271	2539
193.340	2030
193.409	2363
193.478	3138
193.547	2888
193.615	4336
193.684	4175
193.753	2481
193.822	2526
193.891	1507
193.960	2112
194.029	1731
194.098	2373
194.167	597
194.236	2089
194.305	1143
194.374	1330
194.443	873
194.512	1920
194.580	1845
194.649	3039
194.718	3073
194.787	2108
194.856	1479
194.925	2119
194.994	2093
195.062	2263
195.131	2013
195.200	2718
195.269	3193
195.338	2201
195.407	2330
195.475	1748
195.544	2903
195.613	2541
195.682	1363
195.751	3265
195.819	3488
195.888	2658
195.957	3454
196.026	3640
196.094	3049
196.163	2693
196.232	3095
196.301	3070
196.369	2180
196.438	2815
196.507	2069
196.576	1815
196.644	1294
196.713	2386
196.782	1936
196.850	2231
196.919	1546
196.988	1702
197.056	1160
197.125	1766
197.194	2697
197.262	1975
197.331	1987
197.400	1636
197.468	1651
197.537	1975
197.606	1973
197.674	4442
197.743	12629
197.812	5496
197.880	11061
197.949	8715
198.017	9465
198.086	8120
198.155	3057
198.223	4556
198.292	12607
198.360	7722
198.429	3190
198.497	3305
198.566	7247
198.635	13439
198.703	5187
198.772	4548
198.840	14051
198.909	16658
198.977	4660
199.046	3213
199.114	3205
199.183	3006
199.251	2192
199.320	1754
199.388	2083
199.457	1685
199.525	2253
199.594	2426
199.662	1728
199.731	2396
199.799	2075
199.867	2826
199.936	2662
200.004	2803
200.073	2259
200.141	1872
200.210	1666
200.278	1188
200.346	2364
200.415	3972
200.483	5012
200.552	3183
200.620	1969
200.688	1329
200.757	2277
200.825	1844
200.893	2637
200.962	2626
201.030	1847
201.098	1680
201.167	2729
201.235	2360
201.303	2459
201.372	2173
201.440	2808
201.508	3933
201.577	3779
201.645	3527
201.713	3577
201.781	3268
201.850	4736
201.918	2495
201.986	2774
202.055	2552
202.123	2241
202.191	1930
202.259	1886
202.327	2488
202.396	1650
202.464	3714
202.532	6581
202.600	24268
202.669	14633
202.737	5318
202.805	2129
202.873	2691
202.941	3580
203.009	2523
203.078	2258
203.146	3004
203.214	1786
203.282	944
203.350	2487
203.418	2365
203.487	3056
203.555	2235
203.623	2248
203.691	2225
203.759	1526
203.827	2100
203.895	2666
203.963	2941
204.031	2367
204.099	3447
204.168	1957
204.236	2020
204.304	3175
204.372	2951
204.440	2354
204.508	1727
204.576	1969
204.644	1745
204.712	1773
204.780	2441
204.848	2565
204.916	1980
204.984	1538
205.052	2617
205.120	3219
205.188	2458
205.256	1813
205.324	2615
205.392	2259
205.460	3254
205.528	3695
205.596	4288
205.664	2794
205.732	3108
205.799	13056
205.867	23933
205.935	5748
206.003	3837
206.071	3460
206.139	3424
206.207	3810
206.275	2777
206.343	2234
206.411	2210
206.478	2253
206.546	3371
206.614	3221
206.682	2791
206.750	1926
206.818	5113
206.885	5727
206.953	1604
207.021	2356
207.089	3118
207.157	1520
207.225	2614
207.292	2624
207.360	2988
207.428	3536
207.496	2866
207.563	2231
207.631	2773
207.699	2865
207.767	3036
207.834	1962
207.902	3581
207.970	3624
208.038	3072
208.105	2379
208.173	3355
208.241	4993
208.309	5297
208.376	4632
208.444	9679
208.512	6341
208.579	1548
208.647	4992
208.715	5651
208.782	3656
208.850	2725
208.918	2140
208.985	2453
209.053	3647
209.120	3670
209.188	2989
209.256	3148
209.323	2965
209.391	5501
209.459	4568
209.526	3679
209.594	2366
209.661	3132
209.729	3601
209.796	3775
209.864	3709
209.932	2313
209.999	3778
210.067	4081
210.134	3815
210.202	4081
210.269	6326
210.337	7186
210.404	4195
210.472	3672
210.539	3406
210.607	3277
210.674	5068
210.742	3948
210.809	3431
210.877	4015
210.944	5026
211.012	3175
211.079	5485
211.146	3699
211.214	3570
211.281	8414
211.349	7511
211.416	4869
211.484	4617
211.551	3857
211.618	4294
211.686	4002
211.753	2807
211.821	3950
211.888	4004
211.955	3809
212.023	3686
212.090	3741
212.157	4818
212.225	5831
212.292	11682
212.359	26058
212.427	78434
212.494	36431
212.561	11072
212.629	7456
212.696	5907
212.763	6026
212.831	3908
212.898	5166
212.965	3485
213.032	4263
213.100	5541
213.167	4602
213.234	7180
213.301	4411
213.369	3948
213.436	3303
213.503	3826
213.570	4950
213.638	4059
213.705	3554
213.772	3323
213.839	5471
213.906	6657
213.973	5894
214.041	4250
214.108	4391
214.175	3150
214.242	4209
214.309	3866
214.376	4148
214.444	4075
214.511	4948
214.578	4071
214.645	5060
214.712	5187
214.779	5367
214.846	3366
214.913	4328
214.980	4237
215.048	6041
215.115	7692
215.182	5855
215.249	5087
215.316	4331
215.383	4161
215.450	4204
215.517	4287
215.584	4333
215.651	4288
215.718	4138
215.785	6483
215.852	5387
215.919	5422
215.986	5461
216.053	4197
216.120	3376
216.187	4851
216.254	5067
216.321	4624
216.388	5046
216.455	6552
216.522	5800
216.589	7092
216.656	14251
216.722	16294
216.789	7142
216.856	6088
216.923	5152
216.990	5150
217.057	5657
217.124	6728
217.191	5838
217.258	6876
217.324	7312
217.391	6932
217.458	6495
217.525	5306
217.592	5487
217.659	4242
217.725	7163
217.792	12786
217.859	13850
217.926	4889
217.993	4193
218.059	3720
218.126	4752
218.193	4176
218.260	3457
218.327	3665
218.393	4819
218.460	4856
218.527	3730
218.594	5080
218.660	14435
218.727	14695
218.794	6087
218.860	5312
218.927	3590
218.994	3674
219.061	3984
219.127	5505
219.194	13450
219.261	6567
219.327	4159
219.394	4076
219.461	3190
219.527	3354
219.594	10126
219.661	7693
219.727	3544
219.794	5423
219.860	4204
219.927	4997
219.994	8426
220.060	19553
220.127	13020
220.193	6909
220.260	5724
220.326	7309
220.393	8624
220.460	11129
220.526	8255
220.593	6435
220.659	7971
220.726	9119
220.792	31303
220.859	23060
220.925	17008
220.992	20651
221.058	32665
221.125	46331
221.191	35967
221.258	13759
221.324	8666
221.391	8091
221.457	5728
221.524	5785
221.590	10652
221.657	43945
221.723	33762
221.789	25953
221.856	24208
221.922	12459
221.989	7887
222.055	5427
222.121	5245
222.188	8170
222.254	7189
222.321	6005
222.387	3488
222.453	4126
222.520	4112
222.586	2727
222.652	4375
222.719	4706
222.785	4690
222.851	4256
222.918	3852
222.984	4291
223.050	4032
223.116	2633
223.183	4520
223.249	2877
223.315	2158
223.382	3565
223.448	3555
223.514	3167
223.580	2771
223.647	2761
223.713	3253
223.779	2744
223.845	3301
223.911	4245
223.978	2062
224.044	3831
224.110	3388
224.176	2858
224.242	3562
224.309	1943
224.375	2917
224.441	3079
224.507	2611
224.573	2685
224.639	3804
224.705	2565
224.772	4010
224.838	3155
224.904	4155
224.970	4445
225.036	3519
225.102	3966
225.168	4499
225.234	3989
225.300	3625
225.366	3944
225.432	3113
225.499	3914
225.565	4408
225.631	4720
225.697	4416
225.763	4637
225.829	5398
225.895	5473
225.961	11375
226.027	9810
226.093	7318
226.159	8556
226.225	10750
226.291	20625
226.357	33829
226.423	19069
226.489	12717
226.554	8569
226.620	8713
226.686	10222
226.752	15474
226.818	20677
226.884	47403
226.950	44441
227.016	17549
227.082	11605
227.148	8949
227.214	10107
227.279	7743
227.345	6753
227.411	6731
227.477	9136
227.543	25798
227.609	28435
227.674	13709
227.740	8125
227.806	7366
227.872	6063
227.938	6469
228.003	9166
228.069	6169
228.135	3139
228.201	4526
228.267	4732
228.332	6138
228.398	8973
228.464	7105
228.530	4052
228.595	4099
228.661	4186
228.727	10371
228.792	8812
228.858	4437
228.924	4837
228.990	8838
229.055	6286
229.121	8342
229.187	4757
229.252	6022
229.318	4518
229.384	5323
229.449	7688
229.515	3133
229.581	3004
229.646	5517
229.712	6531
229.777	18774
229.843	22363
229.909	11936
229.974	10176
230.040	10375
230.105	7331
230.171	8774
230.236	10831
230.302	16752
230.368	13480
230.433	6681
230.499	7471
230.564	6976
230.630	5277
230.695	5197
230.761	5382
230.826	3805
230.892	9310
230.957	6396
231.023	5003
231.088	6182
231.154	4820
231.219	5895
231.284	9570
231.350	11032
231.415	4864
231.481	4873
231.546	4043
231.612	4871
231.677	3962
231.742	3674
231.808	5850
231.873	3761
231.939	3303
232.004	11655
232.069	12544
232.135	5555
232.200	5014
232.265	4189
232.331	3461
232.396	3385
232.461	3254
232.527	4023
232.592	4622
232.657	6051
232.723	11392
232.788	10649
232.853	5583
232.918	4574
232.984	4849
233.049	4434
233.114	10949
233.179	11420
233.245	16665
233.310	25438
233.375	7383
233.440	6642
233.506	3943
233.571	4091
233.636	4237
233.701	4716
233.766	12898
233.832	19128
233.897	7185
233.962	6363
234.027	8443
234.092	7136
234.157	5889
234.222	7346
234.288	12464
234.353	46067
234.418	39254
234.483	19922
234.548	12795
234.613	9174
234.678	9027
234.743	10628
234.808	41801
234.873	29220
234.938	11427
235.004	8019
235.069	7909
235.134	6560
235.199	5939
235.264	6500
235.329	4925
235.394	6060
235.459	9241
235.524	9142
235.589	7386
235.654	5912
235.719	4154
235.784	6697
235.849	7684
235.913	21765
235.978	23414
236.043	29635
236.108	11041
236.173	10034
236.238	11157
236.303	6470
236.368	7353
236.433	13237
236.498	28587
236.563	13632
236.627	19812
236.692	71386
236.757	61443
236.822	26040
236.887	22835
236.952	16026
237.017	11940
237.081	13956
237.146	15614
237.211	26506
237.276	71110
237.341	144124
237.405	69995
237.470	27266
237.535	22874
237.600	13755
237.664	11036
237.729	8792
237.794	9531
237.859	16253
237.923	19083
237.988	12416
238.053	17311
238.118	21906
238.182	59113
238.247	59617
238.312	25275
238.376	17360
238.441	13680
238.506	11446
238.570	7108
238.635	8247
238.700	7384
238.764	7033
238.829	23135
238.893	35159
238.958	13070
239.023	12335
239.087	8128
239.152	10285
239.216	7872
239.281	7334
239.346	5991
239.410	7024
239.475	11012
239.539	55354
239.604	54107
239.668	14515
239.733	11073
239.797	17586
239.862	46867
239.926	59626
239.991	24210
240.055	12060
240.120	9080
240.184	8610
240.249	7286
240.313	7698
240.378	8501
240.442	31339
240.507	61973
240.571	19854
240.635	26229
240.700	35455
240.764	12274
240.829	8299
240.893	6260
240.957	8796
241.022	29575
241.086	60534
241.151	28271
241.215	9544
241.279	14100
241.344	30248
241.408	14166
241.472	7896
241.537	8404
241.601	8767
241.665	7020
241.730	6573
241.794	8915
241.858	7240
241.922	7897
241.987	7544
242.051	6526
242.115	6293
242.179	7442
242.244	6529
242.308	7445
242.372	8631
242.436	11660
242.501	8739
242.565	6673
242.629	6400
242.693	6996
242.757	5866
242.822	6926
242.886	8575
242.950	8496
243.014	9392
243.078	10074
243.142	10414
243.206	9436
243.271	11663
243.335	10830
243.399	17456
243.463	69278
243.527	204667
243.591	68748
243.655	24776
243.719	15474
243.783	14654
243.847	22579
243.911	29781
243.975	32418
244.040	23967
244.104	13077
244.168	9048
244.232	14268
244.296	22442
244.360	25198
244.424	15935
244.488	11997
244.552	11023
244.615	7820
244.679	8038
244.743	11482
244.807	11831
244.871	8423
244.935	7492
244.999	6406
245.063	8099
245.127	8699
245.191	16619
245.255	19211
245.319	13392
245.383	12850
245.446	10601
245.510	7144
245.574	9121
245.638	9719
245.702	8932
245.766	27906
245.829	17426
245.893	12495
245.957	9638
246.021	10521
246.085	11946
246.149	15479
246.212	36454
246.276	71669
246.340	28733
246.404	16733
246.467	16493
246.531	27987
246.595	17266
246.659	14142
246.722	12954
246.786	16195
246.850	18033
246.913	25100
246.977	11922
247.041	12138
247.104	13543
247.168	12959
247.232	33448
247.295	93627
247.359	44971
247.423	17837
247.486	30842
247.550	19109
247.614	13838
247.677	18519
247.741	13581
247.804	11921
247.868	14491
247.932	31460
247.995	87522
248.059	31755
248.122	14900
248.186	18757
248.249	32344
248.313	140480
248.376	150632
248.440	96447
248.503	35024
248.567	24097
248.630	32517
248.694	41142
248.757	53841
248.821	157801
248.884	83120
248.948	70946
249.011	111972
249.075	180385
249.138	158989
249.202	52251
249.265	32633
249.328	42833
249.392	29714
249.455	22074
249.519	17221
249.582	21233
249.645	34186
249.709	27358
249.772	20172
249.835	18465
249.899	23397
249.962	19367
250.025	18223
250.089	50838
250.152	74571
250.215	31394
250.279	23629
250.342	23417
250.405	23358
250.468	21463
250.532	27558
250.595	44615
250.658	177727
250.721	335718
250.785	107678
250.848	53181
250.911	32791
250.974	29723
251.038	40869
251.101	95749
251.164	47216
251.227	39787
251.290	38180
251.354	58563
251.417	252709
251.480	279461
251.543	164675
251.606	484401
251.669	388166
251.732	133382
251.795	130755
251.859	136030
251.922	308098
251.985	187179
252.048	62301
252.111	46152
252.174	41428
252.237	70930
252.300	188368
252.363	178821
252.426	408777
252.489	175484
252.552	77484
252.615	54786
252.678	55516
252.741	135925
252.804	174621
252.867	413213
252.930	243167
252.993	116462
253.056	63354
253.119	46643
253.182	36737
253.245	59344
253.308	46177
253.371	40786
253.434	38102
253.497	36184
253.559	75000
253.622	52845
253.685	53023
253.748	54591
253.811	30162
253.874	38268
253.937	38980
254.000	26943
254.062	48341
254.125	90181
254.188	58080
254.251	54251
254.314	27125
254.376	45327
254.439	51918
254.502	40858
254.565	53068
254.628	99558
254.690	48935
254.753	28631
254.816	23295
254.878	27337
254.941	58053
255.004	69403
255.067	26172
255.129	24195
255.192	15468
255.255	13321
255.317	15678
255.380	13067
255.443	10174
255.505	10701
255.568	10640
255.631	11070
255.693	11601
255.756	10223
255.819	10402
255.881	9717
255.944	9232
256.006	9392
256.069	10444
256.132	9315
256.194	15386
256.257	46962
256.319	35675
256.382	33146
256.444	17100
256.507	12696
256.569	10302
256.632	11881
256.694	21260
256.757	35153
256.819	102666
256.882	46901
256.944	21630
257.007	17878
257.069	20479
257.132	14665
257.194	12279
257.257	12306
257.319	12520
257.381	12460
257.444	30226
257.506	124135
257.569	150427
257.631	122406
257.693	57073
257.756	26702
257.818	26231
257.880	15613
257.943	13563
258.005	11573
258.067	11047
258.130	11279
258.192	13750
258.254	31085
258.317	21518
258.379	14924
258.441	42057
258.503	43151
258.566	55480
258.628	84345
258.690	22020
258.753	16097
258.815	25775
258.877	17925
258.939	11784
259.001	10754
259.064	10671
259.126	15373
259.188	25222
259.250	15960
259.312	22992
259.375	73646
259.437	47663
259.499	16130
259.561	13934
259.623	14544
259.685	12362
259.747	14214
259.809	52305
259.872	111515
259.934	152523
259.996	137384
260.058	34040
260.120	19179
260.182	15415
260.244	12283
260.306	11380
260.368	11255
260.430	12045
260.492	20273
260.554	53993
260.616	59097
260.678	71522
260.740	116430
260.802	30592
260.864	20162
260.926	15703
260.988	15445
261.050	16571
261.112	26184
261.174	90284
261.236	93927
261.298	26720
261.359	43413
261.421	70334
261.483	20716
261.545	15582
261.607	11779
261.669	12854
261.731	26536
261.793	69477
261.854	28369
261.916	16995
261.978	12860
262.040	15938
262.102	14183
262.164	26090
262.225	22918
262.287	13622
262.349	30307
262.411	27392
262.472	14635
262.534	28578
262.596	72072
262.658	22929
262.719	14589
262.781	19990
262.843	65522
262.904	31452
262.966	19791
263.028	26777
263.090	112420
263.151	313215
263.213	98153
263.275	42624
263.336	23217
263.398	17428
263.459	12714
263.521	12853
263.583	26524
263.644	21608
263.706	10419
263.767	8331
263.829	8517
263.891	8180
263.952	7172
264.014	7807
264.075	9755
264.137	20925
264.198	15163
264.260	7806
264.321	8529
264.383	19066
264.444	37560
264.506	13885
264.567	10296
264.629	14765
264.690	26944
264.752	13650
264.813	10000
264.875	8519
264.936	8250
264.998	7513
265.059	7882
265.120	8832
265.182	12211
265.243	37710
265.305	43821
265.366	14199
265.427	9639
265.489	9666
265.550	6496
265.611	10198
265.673	10218
265.734	8022
265.795	6676
265.857	7961
265.918	9056
265.979	14684
266.040	71131
266.102	67575
266.163	20629
266.224	18776
266.286	12428
266.347	10404
266.408	10681
266.469	11995
266.530	11186
266.592	10021
266.653	19417
266.714	31527
266.775	12225
266.836	8834
266.898	9801
266.959	11912
267.020	10014
267.081	10025
267.142	8974
267.203	10606
267.264	8778
267.326	11245
267.387	9666
267.448	7400
267.509	8283
267.570	8914
267.631	8069
267.692	10756
267.753	17027
267.814	9240
267.875	18146
267.936	41509
267.997	17824
268.058	14008
268.119	10632
268.180	9860
268.241	8948
268.302	7842
268.363	6772
268.424	9535
268.485	9304
268.546	7693
268.607	5521
268.668	5744
268.729	6794
268.790	8267
268.851	10828
268.912	22219
268.972	28485
269.033	14760
269.094	9369
269.155	8656
269.216	6920
269.277	10419
269.338	8136
269.398	6685
269.459	9065
269.520	12065
269.581	15366
269.642	17949
269.702	13720
269.763	11292
269.824	10236
269.885	13238
269.945	18966
270.006	9393
270.067	6889
270.128	7543
270.188	8158
270.249	8646
270.310	6870
270.370	8235
270.431	10194
270.492	6820
270.553	8510
270.613	19337
270.674	36136
270.734	18906
270.795	10826
270.856	15110
270.916	14321
270.977	8461
271.038	10783
271.098	11669
271.159	17547
271.219	20521
271.280	10118
271.340	9248
271.401	13089
271.462	35760
271.522	19337
271.583	12076
271.643	12459
271.704	11834
271.764	14224
271.825	29507
271.885	110087
271.946	186136
272.006	52554
272.066	70347
272.127	148897
272.187	44065
272.248	24341
272.308	26252
272.369	92231
272.429	56131
272.489	30624
272.550	30645
272.610	29841
272.671	27346
272.731	24778
272.791	44521
272.852	23797
272.912	20422
272.972	13423
273.033	14096
273.093	23204
273.153	20003
273.214	17949
273.274	19765
273.334	53343
273.394	124719
273.455	47909
273.515	41648
273.575	95650
273.635	46376
273.696	59516
273.756	136015
273.816	55144
273.876	32095
273.936	64192
273.997	124039
274.057	35053
274.117	25537
274.177	34591
274.237	136557
274.297	140084
274.358	93792
274.418	94320
274.478	69633
274.538	30243
274.598	29056
274.658	91550
274.718	123459
274.778	49292
274.838	27338
274.898	53339
274.958	175694
275.018	144440
275.078	95534
275.138	35226
275.198	23194
275.258	18661
275.318	21354
275.378	31936
275.438	32006
275.498	25296
275.558	71807
275.618	155517
275.678	90656
275.738	44783
275.798	34386
275.858	19685
275.918	13641
275.978	16135
276.038	16435
276.098	14372
276.157	24505
276.217	64160
276.277	36253
276.337	24578
276.397	15954
276.457	19140
276.517	14429
276.576	12325
276.636	15729
276.696	25400
276.756	42820
276.815	35214
276.875	19046
276.935	20871
276.995	20633
277.055	15212
277.114	15960
277.174	19381
277.234	54775
277.293	28013
277.353	17089
277.413	14753
277.472	16309
277.532	17715
277.592	24338
277.651	81235
277.711	175827
277.771	60565
277.830	164096
277.890	155817
277.950	109574
278.009	336031
278.069	139036
278.128	116037
278.188	175807
278.248	77091
278.307	183404
278.367	124778
278.426	40072
278.486	28222
278.545	23256
278.605	21277
278.664	19165
278.724	22410
278.783	48789
278.843	136764
278.902	48376
278.962	30124
279.021	34775
279.081	72971
279.140	75226
279.199	40340
279.259	37882
279.318	45245
279.378	62432
279.437	115699
279.496	363621
279.556	928645
279.615	853334
279.675	271129
279.734	151094
279.793	199472
279.853	313363
279.912	119387
279.971	65404
280.031	58768
280.090	95733
280.149	181401
280.208	169339
280.268	603201
280.327	714786
280.386	207197
280.445	114805
280.505	93043
280.564	54492
280.623	43777
280.682	45531
280.742	60513
280.801	29527
280.860	23081
280.919	20260
280.978	21322
281.037	20836
281.097	18428
281.156	19989
281.215	19439
281.274	22627
281.333	73635
281.392	67335
281.451	21523
281.510	17772
281.569	16598
281.628	15198
281.688	15102
281.747	15841
281.806	14769
281.865	13574
281.924	13068
281.983	12935
282.042	10551
282.101	10793
282.160	11954
282.219	11846
282.278	15147
282.337	34686
282.396	28288
282.454	14824
282.513	18445
282.572	48998
282.631	35288
282.690	15033
282.749	13004
282.808	15766
282.867	15641
282.926	15722
282.985	12522
283.043	12066
283.102	13539
283.161	15839
283.220	29337
283.279	68191
283.338	26633
283.396	16338
283.455	17445
283.514	17582
283.573	33822
283.631	28693
283.690	16526
283.749	16614
283.808	25397
283.866	30857
283.925	17528
283.984	16655
284.043	20616
284.101	23755
284.160	18364
284.219	21541
284.277	24070
284.336	38704
284.395	80879
284.453	76578
284.512	33905
284.570	39185
284.629	40090
284.688	39784
284.746	45836
284.805	53746
284.863	67460
284.922	84931
284.981	107436
285.039	158395
285.098	267504
285.156	587850
285.215	1222478
285.273	1256359
285.332	690633
285.390	359878
285.449	226929
285.507	157310
285.566	118447
285.624	90723
285.683	68294
285.741	53461
285.799	45385
285.858	40157
285.916	37100
285.975	30140
286.033	25385
286.091	24973
286.150	22856
286.208	21344
286.267	25334
286.325	25190
286.383	27939
286.442	25529
286.500	20221
286.558	21026
286.616	17193
286.675	22453
286.733	21372
286.791	20512
286.850	19235
286.908	22265
286.966	32056
287.024	18843
287.083	16338
287.141	14138
287.199	14773
287.257	18616
287.315	15750
287.374	18248
287.432	30272
287.490	23896
287.548	16311
287.606	16955
287.664	15709
287.723	18732
287.781	23099
287.839	18302
287.897	20368
287.955	27433
288.013	44282
288.071	98780
288.129	331856
288.187	976224
288.245	483642
288.303	147585
288.361	84517
288.419	63021
288.477	44666
288.535	34577
288.593	26006
288.651	20524
288.709	16540
288.767	14889
288.825	14245
288.883	12418
288.941	16563
288.999	15152
289.057	12002
289.115	10866
289.173	11894
289.231	12575
289.289	14124
289.346	15591
289.404	15355
289.462	20267
289.520	19594
289.578	11944
289.636	8993
289.694	9904
289.751	8613
289.809	9449
289.867	9695
289.925	11389
289.983	13343
290.040	8666
290.098	7597
290.156	9995
290.214	11658
290.271	9056
290.329	8866
290.387	7826
290.444	7002
290.502	5898
290.560	7654
290.617	8356
290.675	8802
290.733	8938
290.790	10193
290.848	8442
290.906	12332
290.963	12031
291.021	9611
291.078	10225
291.136	13005
291.194	22959
291.251	53286
291.309	19694
291.366	9566
291.424	8389
291.481	10660
291.539	12642
291.596	13877
291.654	8387
291.711	6786
291.769	8947
291.826	17778
291.884	13097
291.941	7736
291.999	7763
292.056	9937
292.114	11011
292.171	8272
292.228	9219
292.286	12085
292.343	19542
292.401	25802
292.458	19895
292.515	14401
292.573	14954
292.630	14011
292.687	14938
292.745	12112
292.802	14485
292.859	33114
292.917	69644
292.974	42732
293.031	15305
293.089	12771
293.146	10910
293.203	9395
293.260	9738
293.318	17964
293.375	16958
293.432	10491
293.489	10111
293.546	12136
293.604	21633
293.661	64071
293.718	153821
293.775	71681
293.832	32131
293.889	31206
293.947	37834
294.004	26280
294.061	20415
294.118	30220
294.175	55399
294.232	56737
294.289	30634
294.346	17011
294.403	14619
294.460	15436
294.517	14242
294.574	11176
294.631	11354
294.688	16429
294.745	36182
294.802	133780
294.859	121105
294.916	55650
294.973	42490
295.030	25222
295.087	20539
295.144	15417
295.201	13980
295.258	14123
295.315	18884
295.372	48638
295.429	112634
295.486	46908
295.542	24065
295.599	34348
295.656	58629
295.713	50266
295.770	87556
295.827	38465
295.883	18215
295.940	16053
295.997	23335
296.054	24562
296.111	13435
296.167	10594
296.224	8929
296.281	8747
296.338	9356
296.394	9905
296.451	13743
296.508	35356
296.564	72028
296.621	51770
296.678	111046
296.734	189798
296.791	68642
296.848	32664
296.904	30204
296.961	54643
297.018	100833
297.074	84766
297.131	35778
297.187	27821
297.244	39747
297.301	114815
297.357	241173
297.414	89993
297.470	31836
297.527	23464
297.583	21557
297.640	18434
297.696	14945
297.753	11336
297.809	10026
297.866	9017
297.922	9645
297.979	9478
298.035	13401
298.092	21598
298.148	55941
298.204	59933
298.261	32880
298.317	49850
298.374	152518
298.430	101888
298.486	43814
298.543	34895
298.599	35757
298.656	49442
298.712	52400
298.768	98173
298.824	84523
298.881	33452
298.937	20450
298.993	16737
299.050	18497
299.106	16824
299.162	14176
299.218	16758
299.275	15215
299.331	19573
299.387	36768
299.443	128032
299.500	158729
299.556	68031
299.612	32076
299.668	30654
299.724	40795
299.780	45871
299.837	26774
299.893	34358
299.949	91840
300.005	126404
300.061	100636
300.117	194572
300.173	105602
300.229	43128
300.285	40748
300.341	43698
300.397	25896
300.453	19293
300.510	20360
300.566	22795
300.622	27727
300.678	71037
300.734	123313
300.790	103419
300.845	138277
300.901	88123
300.957	101449
301.013	77815
301.069	34901
301.125	23831
301.181	23816
301.237	19226
301.293	15413
301.349	15956
301.405	19249
301.461	23676
301.516	42485
301.572	34040
301.628	31037
301.684	28843
301.740	44891
301.796	82447
301.851	54317
301.907	70537
301.963	84427
302.019	133190
302.074	385241
302.130	415276
302.186	206441
302.242	82664
302.297	49105
302.353	43092
302.409	69878
302.464	74167
302.520	55999
302.576	113846
302.631	141606
302.687	74597
302.743	31860
302.798	19911
302.854	17188
302.910	17498
302.965	20454
303.021	34936
303.076	37161
303.132	37784
303.187	42603
303.243	24361
303.299	14645
303.354	12131
303.410	11788
303.465	12123
303.521	11862
303.576	12835
303.632	19845
303.687	37302
303.743	116838
303.798	111666
303.853	43332
303.909	21214
303.964	18215
304.020	22449
304.075	34442
304.130	31954
304.186	47286
304.241	49058
304.297	40642
304.352	24064
304.358	23183
304.407	16050
304.449	16097
304.463	16124
304.518	17034
304.539	16889
304.573	16707
304.629	19078
304.630	19326
304.684	31712
304.720	65345
304.739	82004
304.794	147539
304.811	124852
304.850	70960
304.902	30407
304.905	27812
304.960	18955
304.992	17941
305.015	17243
305.071	16844
305.083	16351
305.126	14538
305.173	10454
305.181	9793
305.236	8921
305.264	9862
305.292	10917
305.347	14582
305.354	15351
305.402	19969
305.445	18714
305.457	18349
305.512	18145
305.535	18499
305.567	19289
305.622	22410
305.626	23154
305.678	39922
305.716	77798
305.733	91406
305.788	122460
305.807	106313
305.843	80261
305.897	107644
305.898	107863
305.953	121644
305.988	79398
306.008	56649
306.063	30592
306.078	27441
306.118	20459
306.168	15094
306.173	14624
306.228	12258
306.259	11390
306.283	10850
306.338	9911
306.349	9975
306.393	10196
306.440	11139
306.448	11358
306.503	11836
306.530	13303
306.558	17132
306.613	33776
306.620	36757
306.668	56020
306.711	78631
306.723	81747
306.778	71316
306.801	54135
306.833	34479
306.888	17510
306.892	17000
306.943	12865
306.982	11138
306.997	10541
307.052	10628
307.072	10537
307.107	11258
307.162	14026
307.163	14079
307.217	19650
307.253	23638
307.272	24300
307.327	27048
307.343	25304
307.381	22225
307.434	21402
307.436	21891
307.491	39047
307.524	58012
307.546	62927
307.600	65702
307.614	58268
307.655	36747
307.704	19889
307.710	19004
307.765	20884
307.795	25172
307.819	28914
307.874	44766
307.885	44856
307.929	36286
307.975	25412
307.984	25352
308.038	34200
308.065	44191
308.093	77975
308.148	164912
308.156	188618
308.202	290249
308.246	361391
308.257	363143
308.312	187469
308.336	130829
308.366	91320
308.421	61206
308.426	58649
308.475	38761
308.517	28515
308.530	26293
308.585	22599
308.607	22089
308.639	22946
308.694	25564
308.697	25928
308.748	42657
308.787	61177
308.803	60825
308.857	47063
308.877	39425
308.912	33391
308.967	32068
308.967	32159
309.021	46793
309.058	61373
309.076	75166
309.130	129576
309.148	151776
309.185	275638
309.238	492187
309.239	492688
309.293	565963
309.328	485519
309.348	420628
309.402	198500
309.418	150125
309.457	101850
309.508	70479
309.511	69672
309.566	76844
309.598	85472
309.620	98928
309.674	145162
309.688	158259
309.729	149910
309.778	115222
309.783	112559
309.837	77666
309.868	62528
309.892	65303
309.946	79865
309.959	86619
310.001	99602
310.049	109700
310.055	106644
310.109	66092
310.139	42961
310.163	34233
310.218	23209
310.229	21731
310.272	17832
310.319	13956
310.326	13477
310.381	11557
310.409	10979
310.435	10299
310.489	9069
310.499	8905
310.543	9270
310.589	10126
310.598	10009
310.652	9441
310.679	9086
310.706	8232
310.760	6287
310.769	6087
310.814	5946
310.859	5730
310.868	5780
310.923	6298
310.948	6694
310.977	7754
311.031	9977
311.038	10313
311.085	9405
311.128	7948
311.139	7674
311.193	6702
311.218	6204
311.247	6114
311.301	6251
311.308	6275
311.356	6059
311.398	5925
311.410	5799
311.464	5290
311.488	5066
311.518	5150
311.572	5345
311.578	5397
311.626	7639
311.668	9701
311.680	9704
311.734	9477
311.758	9436
311.788	9533
311.842	9808
311.847	9847
311.896	11268
311.937	12602
311.950	12296
312.004	10984
312.027	10416
312.058	8836
312.112	6092
312.117	5845
312.165	5567
312.207	5396
312.297	7048
312.386	7113
312.476	9831
312.566	16829
312.656	7405
312.745	4789
312.835	4831
312.925	6138
313.015	6969
313.104	7119
313.194	6077
313.284	6843
313.374	8711
313.463	7103
313.553	5725
313.643	5222
313.732	4706
313.822	4065
313.912	5763
314.001	6108
314.091	8242
314.180	8388
314.270	9190
314.360	11067
314.449	8602
314.539	6156
314.628	4625
314.718	7935
314.808	9991
314.897	6596
314.987	7193
315.076	10455
315.166	11690
315.255	11509
315.345	11019
315.434	12013
315.524	10965
315.613	14442
315.703	20720
315.792	57481
315.881	184928
315.971	51229
316.060	24214
316.150	30848
316.239	29987
316.328	11308
316.418	6357
316.507	7737
316.597	9903
316.686	9342
316.775	16876
316.865	32558
316.954	7957
317.043	6483
317.133	6961
317.222	6475
317.311	6793
317.400	6014
317.490	11963
317.579	14838
317.668	16500
317.757	31991
317.847	107593
317.936	323060
318.025	88146
318.114	60067
318.203	26581
318.293	27505
318.382	40172
318.471	30901
318.560	40030
318.649	57324
318.738	13626
318.828	12378
318.917	12244
319.006	16816
319.095	41704
319.184	80977
319.273	43477
319.362	22726
319.451	9815
319.540	9518
319.629	24479
319.718	32727
319.807	16730
319.896	38541
319.985	102108
320.074	31293
320.163	11734
320.252	20142
320.341	13278
320.430	10355
320.519	17116
320.608	9421
320.697	9166
320.786	9473
320.875	13609
320.964	17823
321.053	26343
321.142	37448
321.230	34580
321.319	32783
321.408	58371
321.497	26076
321.586	26660
321.675	33451
321.764	27117
321.852	19691
321.941	34900
322.030	21946
322.119	28812
322.207	64019
322.296	45172
322.385	24912
322.474	35741
322.562	82846
322.651	36826
322.740	36524
322.829	43091
322.917	44098
323.006	24047
323.095	20768
323.183	16680
323.272	26819
323.361	54786
323.449	150753
323.538	50204
323.626	104095
323.715	56282
323.804	27214
323.892	90454
323.981	40856
324.069	16240
324.158	49830
324.246	40055
324.335	16659
324.424	21607
324.512	9115
324.601	11927
324.689	21312
324.778	31646
324.866	30537
324.954	9350
325.043	9926
325.131	20965
325.220	35659
325.308	38555
325.397	29096
325.485	15710
325.574	7466
325.662	5914
325.750	7601
325.839	6596
325.927	5897
326.015	9201
326.104	15939
326.192	18204
326.280	6126
326.369	6658
326.457	10551
326.545	17103
326.634	6838
326.722	5484
326.810	6135
326.898	5923
326.987	8499
327.075	17999
327.163	18082
327.251	9884
327.340	14140
327.428	13446
327.516	7138
327.604	6981
327.692	7442
327.781	8859
327.869	14066
327.957	9381
328.045	8770
328.133	5726
328.221	7396
328.309	6188
328.397	6144
328.485	8408
328.574	16115
328.662	41784
328.750	21243
328.838	9016
328.926	4624
329.014	5197
329.102	9354
329.190	19174
329.278	11380
329.366	4125
329.454	3437
329.542	3840
329.630	4159
329.718	4314
329.806	6980
329.893	5254
329.981	4990
330.069	9201
330.157	36182
330.245	79963
330.333	33405
330.421	8907
330.509	16780
330.597	48059
330.684	26006
330.772	10142
330.860	12141
330.948	12989
331.036	6319
331.123	3323
331.211	4158
331.299	5946
331.387	15066
331.475	19773
331.562	7329
331.650	4384
331.738	6647
331.825	7996
331.913	4447
332.001	4814
332.089	7093
332.176	16790
332.264	45443
332.352	29016
332.439	9134
332.527	6527
332.614	6592
332.702	8147
332.790	7875
332.877	23738
332.965	44734
333.052	14225
333.140	22754
333.228	39778
333.315	9794
333.403	9294
333.490	27290
333.578	33827
333.665	54859
333.753	19388
333.840	7762
333.928	10610
334.015	28872
334.103	50072
334.190	118744
334.278	26840
334.365	18869
334.452	13735
334.540	9737
334.627	11174
334.715	18571
334.802	44885
334.889	202138
334.977	178771
335.064	27177
335.151	10919
335.239	10120
335.326	17627
335.413	64755
335.501	60468
335.588	11382
335.675	8223
335.762	11532
335.850	15796
335.937	20541
336.024	61377
336.111	199911
336.199	76795
336.286	16938
336.373	8522
336.460	6874
336.547	6250
336.635	7997
336.722	7461
336.809	8555
336.896	13503
336.983	36663
337.070	83394
337.157	113970
337.245	116725
337.332	70659
337.419	10023
337.506	6884
337.593	8467
337.680	28661
337.767	54867
337.854	18467
337.941	22610
338.028	33188
338.115	11155
338.202	13380
338.289	35516
338.376	107374
338.463	30225
338.550	42234
338.637	33032
338.724	20784
338.811	29435
338.898	5973
338.984	5672
339.071	5804
339.158	9865
339.245	22494
339.332	13434
339.419	22876
339.506	16639
339.593	4785
339.679	4710
339.766	4219
339.853	9312
339.940	16314
340.027	5265
340.113	6847
340.200	9345
340.287	6924
340.374	11278
340.460	14323
340.547	6759
340.634	17318
340.720	52276
340.807	23878
340.894	6165
340.980	6576
341.067	5949
341.154	7645
341.240	13323
341.327	21994
341.414	8628
341.500	7674
341.587	6449
341.674	6635
341.760	17358
341.847	17247
341.933	5555
342.020	3004
342.106	4100
342.193	8186
342.279	12030
342.366	11429
342.452	15266
342.539	9645
342.625	26804
342.712	51022
342.798	19278
342.885	8029
342.971	3470
343.058	3929
343.144	4676
343.230	4958
343.317	6294
343.403	6080
343.490	4462
343.576	4972
343.662	5803
343.749	7327
343.835	12691
343.921	36617
344.008	223582
344.094	360084
344.180	62689
344.267	28460
344.353	87391
344.439	66532
344.525	25226
344.612	10287
344.698	8346
344.784	6198
344.870	5327
344.957	6968
345.043	9290
345.129	8223
345.215	13460
345.301	8643
345.387	5173
345.474	4035
345.560	4280
345.646	5680
345.732	5978
345.818	7269
345.904	5760
345.990	8132
346.076	9177
346.162	14927
346.249	6600
346.335	4968
346.421	9575
346.507	51509
346.593	114373
346.679	21509
346.765	7269
346.851	7557
346.937	5321
347.023	6407
347.108	6717
347.194	5822
347.280	6199
347.366	13772
347.452	57528
347.538	163534
347.624	96618
347.710	57872
347.796	9589
347.882	5607
347.967	5483
348.053	6544
348.139	5349
348.225	5480
348.311	5547
348.397	5376
348.482	7202
348.568	7309
348.654	6639
348.740	13453
348.825	10075
348.911	19995
348.997	94369
349.083	128062
349.168	17261
349.254	8014
349.340	6719
349.425	5252
349.511	8379
349.597	9509
349.682	26202
349.768	69674
349.854	24344
349.939	5120
350.025	4687
350.110	4394
350.196	4392
350.282	2816
350.367	4475
350.453	10119
350.538	9920
350.624	7926
350.709	6525
350.795	4709
350.880	4965
350.966	6190
351.051	9771
351.137	7450
351.222	7676
351.308	26888
351.393	48660
351.479	11773
351.564	4225
351.649	4602
351.735	4016
351.820	4743
351.906	5590
351.991	10567
352.076	44069
352.162	43954
352.247	8880
352.332	8814
352.418	15661
352.503	24890
352.588	81649
352.673	47768
352.759	12598
352.844	6648
352.929	8671
353.014	10610
353.100	9303
353.185	20750
353.270	22681
353.355	17044
353.441	6308
353.526	8883
353.611	18802
353.696	18437
353.781	11231
353.866	4596
353.952	8001
354.037	19819
354.122	38190
354.207	31422
354.292	10390
354.377	5725
354.462	6008
354.547	8152
354.632	7333
354.717	14774
354.802	20672
354.887	7635
354.972	4038
355.057	4874
355.142	4520
355.227	7138
355.312	13229
355.397	30717
355.482	61333
355.567	25422
355.652	22859
355.737	30217
355.822	91675
355.907	53303
355.991	9851
356.076	5824
356.161	5844
356.246	5816
356.331	9333
356.416	36705
356.501	197859
356.585	144457
356.670	19399
356.755	14477
356.840	30193
356.924	171141
357.009	431220
357.094	118717
357.179	25318
357.263	17146
357.348	17428
357.433	15664
357.517	14805
357.602	13555
357.687	14950
357.771	60337
357.856	148857
357.941	58548
358.025	140306
358.110	467604
358.195	159570
358.279	21906
358.364	19274
358.448	69071
358.533	144165
358.617	99989
358.702	96249
358.787	31441
358.871	19888
358.956	14805
359.040	6998
359.125	7461
359.209	20190
359.294	98379
359.378	94676
359.462	23328
359.547	11213
359.631	7359
359.716	5587
359.800	5963
359.885	8694
359.969	6826
360.053	6605
360.138	7181
360.222	12259
360.306	20712
360.391	24088
360.475	91806
360.559	109327
360.644	60989
360.728	42102
360.812	126791
360.896	250310
360.981	75888
361.065	30382
361.149	12146
361.233	10664
361.318	10899
361.402	13523
361.486	9434
361.570	7852
361.654	13619
361.739	44216
361.823	205148
361.907	236885
361.991	34304
362.075	23198
362.159	39526
362.243	30030
362.327	40976
362.411	45572
362.495	20422
362.580	10963
362.664	8421
362.748	9336
362.832	13717
362.916	31240
363.000	110151
363.084	275495
363.168	290856
363.252	53936
363.336	19263
363.420	30024
363.503	90689
363.587	76541
363.671	17051
363.755	13727
363.839	19177
363.923	12259
364.007	26048
364.091	25781
364.175	52813
364.258	149937
364.342	139415
364.426	181156
364.510	76030
364.594	32579
364.677	67185
364.761	248046
364.845	129276
364.929	37391
365.013	26065
365.096	26294
365.180	27461
365.264	52279
365.347	131454
365.431	41767
365.515	12234
365.598	7175
365.682	8731
365.766	11223
365.849	11326
365.933	8627
366.017	11357
366.100	6754
366.184	5061
366.267	7044
366.351	5708
366.435	4813
366.518	5114
366.602	4939
366.685	7130
366.769	7991
366.852	12670
366.936	20233
367.019	11869
367.103	9489
367.186	13555
367.270	5791
367.353	4970
367.436	5706
367.520	6109
367.603	9472
367.687	14550
367.770	23145
367.853	18673
367.937	69585
368.020	80493
368.104	18714
368.187	19667
368.270	24201
368.353	20701
368.437	34280
368.520	75008
368.603	42820
368.687	76168
368.770	100062
368.853	22855
368.936	21344
369.020	17303
369.103	8253
369.186	6914
369.269	7646
369.352	17557
369.436	20309
369.519	13655
369.602	6553
369.685	9082
369.768	9190
369.851	6915
369.934	5588
370.018	9759
370.101	19349
370.184	14574
370.267	11600
370.350	22368
370.433	42886
370.516	140029
370.599	163283
370.682	52346
370.765	56671
370.848	85750
370.931	141115
371.014	40079
371.097	10308
371.180	8841
371.263	5908
371.346	3914
371.429	6533
371.511	7640
371.594	14758
371.677	19485
371.760	19809
371.843	35274
371.926	206943
372.009	368651
372.091	88130
372.174	79166
372.257	154489
372.340	47006
372.423	30298
372.505	26107
372.588	17633
372.671	60358
372.754	146122
372.836	57757
372.919	43141
373.002	59191
373.085	21766
373.167	27063
373.250	76895
373.332	153719
373.415	274023
373.498	485523
373.580	167208
373.663	350397
373.746	347791
373.828	57367
373.911	21419
373.993	26544
374.076	72833
374.159	54379
374.241	47115
374.324	118395
374.406	75414
374.489	189369
374.571	389256
374.654	117973
374.736	91524
374.819	261628
374.901	371622
374.983	318899
375.066	46239
375.148	22632
375.231	72069
375.313	97193
375.395	31850
375.478	10949
375.560	10269
375.643	19008
375.725	98341
375.807	323880
375.890	181347
375.972	66141
376.054	37418
376.136	58935
376.219	31400
376.301	108561
376.383	233994
376.465	69740
376.548	44392
376.630	78105
376.712	189380
376.794	64158
376.877	9740
376.959	5933
377.041	8703
377.123	13627
377.205	13121
377.287	4869
377.369	5445
377.452	6533
377.534	5821
377.616	6938
377.698	5658
377.780	4945
377.862	6847
377.944	6679
378.026	4262
378.108	5038
378.190	5082
378.272	5265
378.354	3502
378.436	4580
378.518	11437
378.600	28847
378.682	34042
378.764	82806
378.846	47006
378.928	15940
379.010	20395
379.091	11859
379.173	7153
379.255	7097
379.337	13021
379.419	52278
379.501	109516
379.583	33489
379.664	13580
379.746	33414
379.828	80536
379.910	105432
379.991	75968
380.073	13350
380.155	10263
380.237	7723
380.318	6279
380.400	8984
380.482	19869
380.564	27546
380.645	30534
380.727	24191
380.809	13678
380.890	11080
380.972	8738
381.053	8749
381.135	12539
381.217	35862
381.298	74712
381.380	34765
381.461	55099
381.543	223525
381.624	199168
381.706	33735
381.787	20509
381.869	27941
381.951	139822
382.032	410520
382.113	183574
382.195	34576
382.276	31669
382.358	86822
382.439	190853
382.521	243053
382.602	334751
382.684	146977
382.765	264102
382.846	347614
382.928	499790
383.009	225127
383.090	258034
383.172	861313
383.253	931084
383.334	298346
383.416	297706
383.497	132259
383.578	87409
383.659	210776
383.741	811128
383.822	1511082
383.903	591324
383.984	234507
384.066	307886
384.147	153149
384.228	39222
384.309	31361
384.390	23996
384.471	19637
384.553	19738
384.634	24712
384.715	23282
384.796	15650
384.877	27563
384.958	84956
385.039	75652
385.120	25639
385.201	16874
385.282	18346
385.363	18958
385.444	21521
385.525	54634
385.606	157032
385.687	101595
385.768	25172
385.849	44689
385.930	213948
386.011	296002
386.092	61458
386.173	14806
386.254	11698
386.335	12292
386.416	17439
386.496	55726
386.577	67033
386.658	22304
386.739	15459
386.820	13707
386.901	10837
386.981	11889
387.062	12477
387.143	29904
387.224	83510
387.304	59373
387.385	24441
387.466	17283
387.547	19981
387.627	18036
387.708	47980
387.789	165109
387.869	167600
387.950	38431
388.031	10875
388.111	8631
388.192	18540
388.273	25019
388.353	16546
388.434	14568
388.514	54110
388.595	204625
388.676	187870
388.756	70189
388.837	66291
388.917	32572
388.998	9546
389.078	10591
389.159	10134
389.239	7842
389.320	15715
389.400	14366
389.480	41124
389.561	84911
389.641	33467
389.722	16224
389.802	22393
389.883	49154
389.963	109962
390.043	52971
390.124	18748
390.204	37565
390.284	86852
390.365	47450
390.445	72941
390.525	187444
390.605	137655
390.686	39383
390.766	18254
390.846	11439
390.927	9715
391.007	9455
391.087	12517
391.167	15005
391.247	10795
391.328	17261
391.408	18588
391.488	13245
391.568	9323
391.648	14322
391.728	18147
391.808	18477
391.888	25847
391.969	58162
392.049	70262
392.129	31777
392.209	54393
392.289	102873
392.369	47644
392.449	35193
392.529	28137
392.609	30193
392.689	52417
392.769	122138
392.849	88361
392.929	87395
393.009	173213
393.089	152021
393.169	237424
393.248	819023
393.328	2339439
393.408	2046237
393.488	522657
393.568	158077
393.648	80704
393.728	50736
393.807	36228
393.887	30875
393.967	26346
394.047	26004
394.127	26652
394.206	38767
394.286	163017
394.366	600564
394.446	459729
394.525	73658
394.605	24505
394.685	24887
394.764	49032
394.844	75619
394.924	48356
395.003	19287
395.083	16135
395.163	15002
395.242	14569
395.322	15281
395.402	11850
395.481	17716
395.561	42966
395.640	93790
395.720	82977
395.799	96571
395.879	59298
395.958	44134
396.038	215364
396.117	792461
396.197	634557
396.276	122712
396.356	52104
396.435	46717
396.515	50049
396.594	80503
396.673	203026
396.753	841386
396.832	2012541
396.912	1168459
396.991	243417
397.070	78311
397.150	43197
397.229	35764
397.308	54832
397.388	62535
397.467	27200
397.546	16914
397.625	15467
397.705	19548
397.784	16348
397.863	10512
397.942	9326
398.022	12019
398.101	37012
398.180	71057
398.259	29256
398.338	13938
398.417	11866
398.497	7778
398.576	8919
398.655	6944
398.734	7316
398.813	8999
398.892	36149
398.971	82652
399.050	31680
399.129	7245
399.208	6111
399.287	6001
399.366	4443
399.445	4841
399.524	6145
399.603	5064
399.682	13861
399.761	40980
399.840	99381
399.919	54576
399.998	8902
400.077	3563
400.156	4172
400.235	7389
400.313	4346
400.392	10743
400.471	45441
400.550	54051
400.629	12558
400.708	7831
400.786	7168
400.865	15945
400.944	14768
401.023	8674
401.102	3565
401.180	3745
401.259	4757
401.338	5982
401.416	8151
401.495	6112
401.574	5720
401.652	4868
401.731	9013
401.810	7775
401.888	5089
401.967	4706
402.046	6868
402.124	8054
402.203	9013
402.281	6996
402.360	11858
402.438	21085
402.517	11092
402.596	6002
402.674	6936
402.753	3863
402.831	4421
402.910	10694
402.988	62598
403.066	148334
403.145	60591
403.223	57714
403.302	116833
403.380	80952
403.459	75234
403.537	23790
403.615	8844
403.694	2996
403.772	4852
403.850	3424
403.929	4092
404.007	6281
404.085	17377
404.164	16429
404.242	4885
404.320	6859
404.398	14582
404.477	75444
404.555	279640
404.633	174623
404.711	21220
404.789	7756
404.868	8822
404.946	4387
405.024	3230
405.102	3348
405.180	3409
405.258	2844
405.336	4119
405.415	4329
405.493	11855
405.571	11133
405.649	4405
405.727	4270
405.805	8076
405.883	8590
405.961	7159
406.039	6325
406.117	5214
406.195	13516
406.273	76490
406.351	202780
406.429	83437
406.507	11389
406.585	5030
406.663	6246
406.740	8667
406.818	6255
406.896	4839
406.974	6789
407.052	27226
407.130	129781
407.208	129764
407.285	21281
407.363	4797
407.441	4652
407.519	3808
407.596	6288
407.674	12014
407.752	23932
407.830	23659
407.907	13230
407.985	5640
408.063	2961
408.141	4042
408.218	7506
408.296	8425
408.373	7462
408.451	7321
408.529	5278
408.606	3000
408.684	2255
408.762	2904
408.839	2233
408.917	2386
408.994	3944
409.072	4359
409.149	5129
409.227	12204
409.304	13658
409.382	11901
409.459	14195
409.537	18928
409.614	13171
409.692	9805
409.769	13145
409.846	23665
409.924	23269
410.001	13125
410.079	7997
410.156	6720
410.233	6638
410.311	4857
410.388	4819
410.465	7363
410.543	5706
410.620	5070
410.697	5941
410.775	7099
410.852	4438
410.929	9303
411.006	9174
411.083	8127
411.161	15180
411.238	11901
411.315	5673
411.392	4215
411.469	8842
411.547	7911
411.624	3861
411.701	3769
411.778	7675
411.855	12634
411.932	6106
412.009	3151
412.086	3294
412.163	4600
412.240	4964
412.317	7202
412.394	4849
412.471	2446
412.548	2095
412.625	3207
412.702	5972
412.779	10398
412.856	5896
412.933	1952
413.010	2937
413.087	10382
413.164	43216
413.241	41917
413.318	9737
413.395	9054
413.471	10855
413.548	4690
413.625	4016
413.702	3777
413.779	2385
413.855	2093
413.932	2458
414.009	1687
414.086	2386
414.162	3063
414.239	8898
414.316	45141
414.393	74203
414.469	19460
414.546	2794
414.623	1605
414.699	2790
414.776	4305
414.853	2523
414.929	3591
415.006	3342
415.082	3549
415.159	3099
415.236	3308
415.312	4459
415.389	9519
415.465	9952
415.542	4556
415.618	4142
415.695	8335
415.771	4604
415.848	3900
415.924	3822
416.000	2338
416.077	2391
416.153	907
416.230	346
416.306	1815
416.383	2641
416.459	3102
416.535	1579
416.612	2186
416.688	2808
416.764	3103
416.841	3421
416.917	3237
416.993	3277
417.069	4461
417.146	4755
417.222	5898
417.298	4002
417.374	2786
417.451	4187
417.527	6031
417.603	5140
417.679	4801
417.755	3470
417.831	1974
417.908	1561
417.984	2159
418.060	2647
418.136	10667
418.212	11225
418.288	3966
418.364	2629
418.440	3949
418.516	5686
418.592	7554
418.668	15631
418.744	22417
418.820	13193
418.896	3792
418.972	2362
419.048	4038
419.124	11870
419.200	6786
419.276	2777
419.352	1293
419.428	1662
419.504	4413
419.579	5283
419.655	3840
419.731	5824
419.807	18373
419.883	29399
419.959	16362
420.034	6779
420.110	18549
420.186	53159
420.262	28716
420.337	5829
420.413	5338
420.489	3208
420.565	3604
420.640	2800
420.716	4730
420.792	2769
420.867	4513
420.943	4212
421.019	7986
421.094	5879
421.170	4157
421.245	3289
421.321	4817
421.397	4594
421.472	8671
421.548	13776
421.623	11827
421.699	8383
421.774	8949
421.850	9938
421.925	15118
422.001	13501
422.076	13248
422.152	16341
422.227	25298
422.302	30207
422.378	50571
422.453	101602
422.529	283680
422.604	783381
422.679	1119248
422.755	570477
422.830	170436
422.905	71424
422.981	41319
423.056	27978
423.131	21385
423.207	16562
423.282	17176
423.357	22521
423.432	15924
423.508	17970
423.583	29680
423.658	17429
423.733	8485
423.808	9350
423.883	12100
423.959	10542
424.034	10833
424.109	7359
424.184	4836
424.259	4193
424.334	4429
424.409	2474
424.484	4332
424.559	4477
424.634	4753
424.709	8457
424.784	8314
424.859	4916
424.934	11593
425.009	39033
425.084	53155
425.159	15013
425.234	5044
425.309	14200
425.384	73672
425.459	74133
425.534	13400
425.609	3672
425.683	2720
425.758	2550
425.833	3893
425.908	6257
425.983	28399
426.058	56925
426.132	18908
426.207	4619
426.282	6822
426.357	4072
426.431	2938
426.506	4550
426.581	3663
426.655	3360
426.730	3106
426.805	2669
426.879	4232
426.954	4576
427.029	15230
427.103	81726
427.178	161491
427.253	51529
427.327	11580
427.402	38391
427.476	81226
427.551	24574
427.625	6068
427.700	3385
427.774	2202
427.849	4019
427.923	2990
427.998	4047
428.072	5488
428.147	18205
428.221	99044
428.296	212871
428.370	72263
428.444	11153
428.519	10225
428.593	14789
428.667	12562
428.742	17525
428.816	39160
428.890	173192
428.965	212729
429.039	51035
429.113	18014
429.188	7107
429.262	4560
429.336	11798
429.410	25933
429.485	14860
429.559	13852
429.633	9270
429.707	7370
429.781	32758
429.855	149928
429.930	153922
430.004	62187
430.078	75462
430.152	122367
430.226	330823
430.300	226066
430.374	31171
430.448	13484
430.522	34319
430.596	73035
430.670	78320
430.744	263693
430.818	242337
430.892	40464
430.966	7919
431.040	5241
431.114	2153
431.188	2809
431.262	3220
431.336	3891
431.410	10449
431.484	21387
431.557	11941
431.631	4314
431.705	10313
431.779	69016
431.853	202637
431.927	88885
432.000	10689
432.074	5158
432.148	4264
432.222	2367
432.295	2767
432.369	3825
432.443	12605
432.516	86087
432.590	156263
432.664	42727
432.737	5760
432.811	1313
432.885	1760
432.958	2309
433.032	1187
433.106	484
433.179	969
433.253	1776
433.326	1113
433.400	872
433.473	710
433.547	39
433.620	2494
433.694	7122
433.767	6610
433.841	3317
433.914	4162
433.988	4042
434.061	2471
434.134	1539
434.208	867
434.281	1559
434.355	2052
434.428	6117
434.501	3310
434.575	1510
434.648	1209
434.721	1261
434.795	1287
434.868	1006
434.941	474
435.014	2024
435.088	4499
435.161	12519
435.234	12739
435.307	10215
435.381	6514
435.454	7454
435.527	12229
435.600	9889
435.673	6205
435.746	4262
435.819	3620
435.892	2603
435.966	3140
436.039	1799
436.112	2072
436.185	1487
436.258	963
436.331	1302
436.404	638
436.477	1094
436.550	190
436.623	988
436.696	1192
436.769	2662
436.842	1292
436.915	1887
436.987	3528
437.060	1956
437.133	1637
437.206	966
437.279	1308
437.352	1674
437.425	1374
437.498	2785
437.570	5983
437.643	3746
437.716	864
437.789	1196
437.861	9755
437.934	19505
438.007	5366
438.080	2498
438.152	4095
438.225	17517
438.298	130265
438.370	256907
438.443	83273
438.516	18380
438.588	4145
438.661	1483
438.734	1223
438.806	2691
438.879	3693
438.951	6972
439.024	8843
439.096	2752
439.169	888
439.241	1587
439.314	1274
439.386	3582
439.459	6782
439.531	10234
439.604	3119
439.676	1600
439.749	599
439.821	288
439.893	774
439.966	1505
440.038	3465
440.110	3754
440.183	2021
440.255	2117
440.327	6126
440.400	46727
440.472	143643
440.544	68420
440.617	9815
440.689	7810
440.761	11619
440.833	15607
440.905	7585
440.978	2399
441.050	1014
441.122	1503
441.194	1110
441.266	1311
441.338	514
441.411	8202
441.483	45305
441.555	46649
441.627	9944
441.699	5527
441.771	4683
441.843	1705
441.915	1727
441.987	2073
442.059	1935
442.131	4181
442.203	5263
442.275	7084
442.347	8150
442.419	22285
442.491	124304
442.563	196823
442.635	58542
442.706	25505
442.778	14202
442.850	3752
442.922	2412
442.994	4081
443.066	5977
443.137	5142
443.209	6335
443.281	11855
443.353	31557
443.425	160498
443.496	430733
443.568	320395
443.640	92411
443.711	18865
443.783	8489
443.855	5282
443.926	3494
443.998	3541
444.070	4059
444.141	5186
444.213	7098
444.285	8030
444.356	6812
444.428	5953
444.499	2638
444.571	1432
444.642	2532
444.714	3647
444.785	6267
444.857	7445
444.928	12720
445.000	7560
445.071	10541
445.143	13157
445.214	13150
445.285	24713
445.357	76031
445.428	335036
445.500	556450
445.571	311451
445.642	142024
445.714	46457
445.785	26320
445.856	10846
445.928	9875
445.999	9292
446.070	7139
446.141	8065
446.213	8662
446.284	4724
446.355	3226
446.426	3088
446.497	3218
446.569	4692
446.640	7609
446.711	5860
446.782	3235
446.853	5017
446.924	4835
446.995	3453
447.066	2614
447.138	4625
447.209	1423
447.280	382
447.351	-18
447.422	1115
447.493	1601
447.564	4725
447.635	5508
447.706	2047
447.777	505
447.847	704
447.918	158
447.989	2485
448.060	3697
448.131	9311
448.202	7546
448.273	5803
448.344	1836
448.414	2001
448.485	962
448.556	849
448.627	294
448.698	593
448.768	111
448.839	1561
448.910	4356
448.981	3795
449.051	1836
449.122	90
449.193	648
449.263	899
449.334	451
449.405	3493
449.475	7100
449.546	4295
449.616	5764
449.687	4746
449.758	2164
449.828	1719
449.899	1164
449.969	1432
450.040	988
450.110	2520
450.181	3308
450.251	850
450.322	773
450.392	678
450.463	388
450.533	59
450.604	-20
450.674	-25
450.744	1476
450.815	470
450.885	1130
450.955	812
451.026	822
451.096	913
451.166	1634
451.237	7395
451.307	11058
451.377	3118
451.447	785
451.518	757
451.588	488
451.658	1063
451.728	2663
451.799	13163
451.869	10518
451.939	1705
452.009	789
452.079	945
452.149	1081
452.219	4808
452.289	15040
452.360	7171
452.430	1792
452.500	3205
452.570	4775
452.640	11746
452.710	29127
452.780	25228
452.850	18926
452.920	14353
452.990	5171
453.060	3076
453.129	4685
453.199	6663
453.269	25223
453.339	37122
453.409	49078
453.479	61785
453.549	78245
453.619	70404
453.688	20079
453.758	4284
453.828	1188
453.898	679
453.968	843
454.037	1744
454.087	1435
454.107	1278
454.168	1221
454.177	1178
454.247	530
454.249	560
454.316	654
454.330	951
454.386	1893
454.411	4574
454.456	8408
454.492	8574
454.525	8564
454.574	5347
454.595	3976
454.655	2595
454.665	2418
454.734	2420
454.736	2608
454.804	6456
454.817	8695
454.873	15925
454.898	15525
454.943	13926
454.979	9731
455.013	6368
455.060	3791
455.082	3166
455.141	5866
455.152	6041
455.221	13787
455.222	13978
455.291	14725
455.303	13248
455.360	7140
455.384	7018
455.430	7413
455.465	8559
455.499	8959
455.546	12900
455.569	13763
455.627	7869
455.638	6953
455.707	2529
455.708	2553
455.777	1756
455.789	1838
455.846	1932
455.869	1855
455.916	1761
455.950	2120
455.985	2325
456.031	2143
456.054	1952
456.112	1856
456.124	1867
456.193	1480
456.193	1449
456.262	2892
456.274	3191
456.332	3959
456.355	4414
456.401	4593
456.436	3935
456.470	3395
456.516	2534
456.540	2156
456.597	1919
456.609	1847
456.678	2944
456.678	2922
456.747	992
456.759	1108
456.817	1829
456.840	1861
456.886	1649
456.920	2165
456.955	3000
457.001	3135
457.024	3432
457.082	5366
457.093	5622
457.162	8280
457.163	8343
457.232	8498
457.243	7966
457.301	4877
457.324	3923
457.370	3350
457.405	3667
457.439	3994
457.485	4590
457.508	4885
457.566	5153
457.577	5476
457.646	8663
457.647	8755
457.715	21723
457.727	24526
457.784	42773
457.808	54354
457.853	67575
457.889	72288
457.922	62438
457.969	41605
457.991	46147
458.050	68049
458.060	72124
458.129	118264
458.130	119438
458.198	92062
458.211	82180
458.267	40319
458.292	25452
458.336	20281
458.372	19823
458.405	31413
458.453	51425
458.474	68085
458.533	126419
458.543	131028
458.611	185195
458.614	186113
458.680	85479
458.694	63442
458.749	30342
458.775	19476
458.818	13009
458.855	10608
458.887	9410
458.936	7482
458.955	7135
459.016	7970
459.024	8119
459.093	8259
459.097	8339
459.162	8562
459.177	8520
459.230	8736
459.257	9442
459.299	10486
459.338	10681
459.368	10795
459.418	11838
459.437	11099
459.499	7419
459.505	7257
459.574	6697
459.579	6641
459.643	5809
459.659	5611
459.711	5847
459.740	6265
459.780	7123
459.820	7706
459.849	7682
459.900	8080
459.917	8498
459.981	9761
459.986	9861
460.054	12195
460.061	12401
460.123	10296
460.141	9544
460.191	10350
460.222	11076
460.260	11890
460.302	13472
460.328	12211
460.382	8146
460.397	7835
460.462	6623
460.465	6626
460.534	8550
460.543	8701
460.602	16265
460.623	19221
460.671	26846
460.703	33078
460.739	29502
460.783	22733
460.808	18570
460.864	7597
460.876	7259
460.944	7110
460.945	7101
461.013	7555
461.024	7636
461.081	8461
461.104	8941
461.150	9154
461.184	9072
461.218	9297
461.264	9358
461.286	9358
461.345	10123
461.355	10005
461.423	8465
461.425	8446
461.491	10902
461.505	11351
461.559	19992
461.585	24443
461.628	32629
461.665	40064
461.696	42423
461.745	47376
461.764	40570
461.825	12974
461.832	12617
461.901	11143
461.905	11159
461.969	9532
461.985	9165
462.037	9011
462.065	8579
462.105	9376
462.145	10754
462.173	15044
462.225	22731
462.241	24482
462.305	33133
462.310	32287
462.378	17070
462.385	15230
462.446	12225
462.465	11644
462.514	13048
462.545	13978
462.582	14730
462.625	15969
462.650	14016
462.705	8975
462.718	8965
462.785	8663
462.786	8725
462.854	12842
462.865	13608
462.922	16942
462.945	18149
462.990	13748
463.025	9772
463.058	8832
463.104	7832
463.126	7853
463.184	8144
463.194	8327
463.262	9336
463.264	9370
463.330	9725
463.344	9796
463.398	10073
463.424	10129
463.466	10600
463.504	11268
463.533	11095
463.583	10398
463.601	10932
463.663	12961
463.669	13348
463.737	17927
463.743	18323
463.805	25219
463.823	27156
463.873	37343
463.903	43908
463.940	46591
463.982	49473
464.008	39163
464.062	15787
464.076	14841
464.142	10234
464.144	10230
464.211	10422
464.221	10446
464.279	11604
464.301	12175
464.347	13504
464.381	14294
464.414	16874
464.461	20632
464.482	25079
464.540	36872
464.550	37829
464.617	44672
464.620	44827
464.685	24653
464.699	20100
464.753	18468
464.779	17522
464.820	16678
464.859	16161
464.888	16601
464.938	17231
464.956	18029
465.018	20882
465.023	21174
465.091	24403
465.098	24721
465.158	29755
465.177	31279
465.226	26746
465.257	23674
465.293	20474
465.336	16403
465.361	17983
465.416	21804
465.428	22876
465.495	28484
465.496	28616
465.563	41790
465.575	44075
465.631	52928
465.654	56598
465.698	35739
465.734	17841
465.765	15694
465.813	12649
465.833	12779
465.893	13364
465.900	13290
465.968	12542
465.972	12459
466.035	14002
466.052	14379
466.102	14610
466.131	14715
466.170	15616
466.210	16496
466.237	16520
466.290	16476
466.304	17125
466.369	19895
466.372	19976
466.439	21150
466.449	21289
466.506	23437
466.528	24148
466.573	31570
466.607	37110
466.641	51723
466.687	71882
466.708	78523
466.766	96693
466.775	89979
466.842	37632
466.845	35080
466.909	26935
466.925	24965
466.977	23798
467.004	23136
467.044	22861
467.083	22510
467.111	22896
467.163	23482
467.178	23818
467.242	24968
467.245	25001
467.312	24600
467.321	24497
467.379	23757
467.400	23410
467.446	24488
467.480	25179
467.559	22194
467.638	20723
467.717	20773
467.796	26606
467.875	31034
467.955	26509
468.034	35666
468.113	76593
468.192	109959
468.271	37507
468.350	32804
468.429	44603
468.508	47146
468.588	32742
468.667	24933
468.746	23428
468.825	20533
468.904	20450
468.983	22458
469.062	32456
469.141	38924
469.220	18067
469.299	16506
469.378	18826
469.456	19093
469.535	18486
469.614	18318
469.693	20824
469.772	28769
469.851	39907
469.930	29499
470.009	23775
470.088	28708
470.166	43294
470.245	83468
470.324	112064
470.403	69351
470.482	38970
470.560	28146
470.639	29583
470.718	32873
470.797	27255
470.875	27201
470.954	36587
471.033	34319
471.111	15976
471.190	12825
471.269	13828
471.347	13765
471.426	15979
471.505	16566
471.583	16239
471.662	15666
471.740	18164
471.819	19788
471.898	16359
471.976	13456
472.055	14600
472.133	16150
472.212	21568
472.290	22375
472.369	15976
472.447	14324
472.526	13239
472.604	15951
472.683	20818
472.761	23567
472.839	18315
472.918	17165
472.996	19055
473.075	21440
473.153	18152
473.231	15851
473.310	19438
473.388	20238
473.466	17342
473.545	20882
473.623	32473
473.701	35887
473.780	19196
473.858	16912
473.936	19674
474.014	17608
474.093	20070
474.171	27729
474.249	36150
474.327	25688
474.405	15822
474.484	16111
474.562	16672
474.640	17030
474.718	16800
474.796	17450
474.874	16627
474.952	14577
475.030	16134
475.108	19323
475.187	23373
475.265	28623
475.343	51607
475.421	61726
475.499	21686
475.577	25928
475.655	27977
475.733	44675
475.811	72804
475.889	65656
475.966	44320
476.044	20445
476.122	36863
476.200	53774
476.278	37024
476.356	16859
476.434	20655
476.512	30431
476.590	50257
476.667	36272
476.745	16724
476.823	16385
476.901	14890
476.979	14506
477.056	15488
477.134	14880
477.212	15723
477.290	15794
477.367	14195
477.445	13032
477.523	13754
477.601	15498
477.678	14255
477.756	16270
477.834	19803
477.911	14693
477.989	14979
478.066	15975
478.144	19009
478.222	32590
478.299	72752
478.377	60416
478.454	15291
478.532	13143
478.609	17072
478.687	19863
478.764	13703
478.842	19327
478.919	24529
478.997	18541
479.074	12993
479.152	17276
479.229	22826
479.307	14996
479.384	11911
479.461	12171
479.539	13271
479.616	17861
479.694	16669
479.771	16665
479.848	17304
479.926	22566
480.003	26497
480.080	16958
480.157	13995
480.235	13570
480.312	14716
480.389	15211
480.467	25134
480.544	31024
480.621	18870
480.698	19031
480.775	21448
480.853	19406
480.930	15185
481.007	14790
481.084	17161
481.161	17522
481.238	17883
481.315	12733
481.392	13698
481.470	13603
481.547	14383
481.624	14694
481.701	15434
481.778	15691
481.855	17369
481.932	25894
482.009	43370
482.086	33191
482.163	24470
482.240	48931
482.317	100271
482.393	70074
482.470	20984
482.547	19939
482.624	18348
482.701	19915
482.778	19359
482.855	17134
482.932	20077
483.009	16863
483.085	22040
483.162	25997
483.239	26584
483.316	21775
483.393	21837
483.469	18897
483.546	20853
483.623	21877
483.699	16153
483.776	17283
483.853	19448
483.930	25332
484.006	60688
484.083	99219
484.160	37593
484.236	38925
484.313	32796
484.389	28518
484.466	26854
484.543	27025
484.619	33162
484.696	36783
484.772	33644
484.849	31913
484.925	24951
485.002	24196
485.078	27570
485.155	30938
485.231	22198
485.308	22115
485.384	24152
485.461	30259
485.537	56383
485.614	67664
485.690	24381
485.766	23080
485.843	28525
485.919	49304
485.995	53775
486.072	23512
486.148	23461
486.224	22424
486.301	24188
486.377	31332
486.453	35639
486.530	26842
486.606	27162
486.682	32679
486.758	46033
486.835	56742
486.911	45976
486.987	82900
487.063	115976
487.139	162390
487.215	102400
487.292	40951
487.368	35936
487.444	46582
487.520	69573
487.596	75668
487.672	140803
487.748	448412
487.824	702253
487.900	221846
487.976	67190
488.052	50848
488.128	61225
488.204	43303
488.280	30362
488.356	33585
488.432	70541
488.508	111833
488.584	43229
488.660	34440
488.736	32308
488.812	31513
488.888	40366
488.964	58940
489.039	154980
489.115	248935
489.191	135840
489.267	28789
489.343	23397
489.418	20424
489.494	19535
489.570	19404
489.646	20596
489.722	20254
489.797	20643
489.873	34124
489.949	79450
490.024	65289
490.100	21100
490.176	21102
490.251	32560
490.327	48544
490.403	25465
490.478	18339
490.554	17212
490.629	17027
490.705	18485
490.781	19660
490.856	20970
490.932	25082
491.007	27884
491.083	23765
491.158	20730
491.234	26430
491.309	59386
491.385	60642
491.460	21895
491.536	24839
491.611	23654
491.686	28811
491.762	43188
491.837	104083
491.913	169351
491.988	244135
492.063	318049
492.139	72790
492.214	45454
492.289	21579
492.365	19818
492.440	22965
492.515	23527
492.590	20630
492.666	16776
492.741	24668
492.816	36710
492.891	20027
492.967	17749
493.042	14965
493.117	14375
493.192	15992
493.267	20176
493.342	33569
493.418	34613
493.493	17246
493.568	17586
493.643	18352
493.718	22388
493.793	38224
493.868	46587
493.943	29219
494.018	18142
494.093	15126
494.168	18250
494.243	16785
494.318	14383
494.393	13978
494.468	15062
494.543	16758
494.618	21159
494.693	17236
494.768	15928
494.842	15544
494.917	14861
494.992	17535
495.067	14951
495.142	15923
495.217	18849
495.292	19604
495.366	24962
495.441	33037
495.516	41287
495.591	58416
495.665	227762
495.740	565072
495.815	210643
495.890	30038
495.964	20107
496.039	21295
496.114	19741
496.188	20778
496.263	21171
496.338	19057
496.412	22578
496.487	27058
496.561	33707
496.636	33502
496.710	22535
496.785	27159
496.860	29080
496.934	23598
497.009	25553
497.083	22823
497.158	24287
497.232	29443
497.307	37577
497.381	30770
497.455	36999
497.530	45207
497.604	33855
497.679	37895
497.753	56967
497.827	76560
497.902	74122
497.976	81301
498.050	170544
498.125	650220
498.199	650016
498.273	123201
498.348	92559
498.422	72479
498.496	69122
498.570	63008
498.645	44128
498.719	40658
498.793	48857
498.867	68859
498.941	85756
499.016	243980
499.090	673716
499.164	221773
499.238	32921
499.312	29005
499.386	36658
499.460	31940
499.534	31391
499.609	36835
499.683	49944
499.757	47203
499.831	102661
499.905	422324
499.979	383697
500.053	59956
500.127	66153
500.201	58588
500.275	33257
500.349	29857
500.422	36057
500.496	56736
500.570	123030
500.644	246114
500.718	428221
500.792	91558
500.866	27501
500.940	32490
501.013	29035
501.087	30886
501.161	56804
501.235	68946
501.309	123018
501.382	350925
501.456	303058
501.530	72319
501.603	109330
501.677	42834
501.751	21955
501.825	27592
501.898	47273
501.972	134725
502.046	81981
502.119	27226
502.193	64675
502.266	147260
502.340	67577
502.413	62025
502.487	120139
502.561	70106
502.634	27797
502.708	25990
502.781	23696
502.855	17850
502.928	13712
503.002	14964
503.075	15372
503.149	16920
503.222	17005
503.295	19351
503.369	23864
503.442	31405
503.516	98995
503.589	255177
503.662	161791
503.736	56516
503.809	122974
503.882	104894
503.956	155237
504.029	170571
504.102	248367
504.175	350184
504.249	122790
504.322	50910
504.395	34990
504.468	23522
504.542	20674
504.615	16257
504.688	16934
504.761	15415
504.834	20383
504.907	26758
504.980	47498
505.053	20721
505.127	28328
505.200	30050
505.273	23920
505.346	15038
505.419	12903
505.492	12512
505.565	10819
505.638	10600
505.711	10141
505.784	10278
505.857	10085
505.930	12058
506.003	10524
506.076	13983
506.149	18260
506.221	21840
506.294	20108
506.367	50480
506.440	181214
506.513	93931
506.586	25019
506.659	15105
506.731	15924
506.804	19045
506.877	30813
506.950	18187
507.022	12987
507.095	16201
507.168	21835
507.241	16716
507.313	14111
507.386	17004
507.459	27543
507.531	16252
507.604	12978
507.677	11597
507.749	8764
507.822	16693
507.894	31031
507.967	29377
508.040	14398
508.112	15456
508.185	15195
508.257	14004
508.330	26955
508.402	14221
508.475	12700
508.547	14642
508.620	14228
508.692	24673
508.765	14690
508.837	9620
508.909	10278
508.982	11768
509.054	16039
509.127	12526
509.199	9940
509.271	8411
509.344	9822
509.416	9304
509.488	9614
509.560	10934
509.633	14369
509.705	17684
509.777	15610
509.849	26161
509.922	16795
509.994	10073
510.066	11374
510.138	9132
510.210	16713
510.283	15296
510.355	14684
510.427	12815
510.499	13097
510.571	13467
510.643	13839
510.715	29211
510.787	24248
510.859	14825
510.931	17780
511.003	26847
511.076	23295
511.148	11765
511.219	12201
511.291	20931
511.363	24192
511.435	11095
511.507	9725
511.579	11156
511.651	11555
511.723	11044
511.795	10936
511.867	11339
511.939	14312
512.010	33385
512.082	26321
512.154	14156
512.226	13790
512.298	17763
512.369	27155
512.441	21285
512.513	26835
512.585	17898
512.656	17334
512.728	20100
512.800	14752
512.871	14705
512.943	13759
513.015	11685
513.086	15808
513.158	18317
513.230	19650
513.301	33774
513.373	40802
513.444	19231
513.516	14948
513.588	15430
513.659	18930
513.731	25999
513.802	22673
513.874	54621
513.945	106095
514.016	28900
514.088	15216
514.159	17988
514.231	26487
514.302	27538
514.374	17014
514.445	17408
514.516	37435
514.588	26702
514.659	20185
514.730	34159
514.802	31027
514.873	25117
514.944	24097
515.016	20662
515.087	25214
515.158	28987
515.229	37159
515.301	25072
515.372	32275
515.443	21318
515.514	18064
515.585	15454
515.656	16419
515.728	16628
515.799	16147
515.870	18723
515.941	21214
516.012	21894
516.083	27143
516.154	33735
516.225	52635
516.296	54361
516.367	54777
516.438	71195
516.509	96218
516.580	141468
516.651	486687
516.722	1816077
516.793	681597
516.864	135431
516.935	128646
517.006	155782
517.077	208694
517.148	472886
517.219	2107065
517.289	3152871
517.360	537979
517.431	135995
517.502	59738
517.573	51100
517.643	46164
517.714	50184
517.785	56495
517.856	67063
517.926	91504
517.997	121161
518.068	166873
518.138	226282
518.209	350530
518.280	1339780
518.350	4686378
518.421	1767185
518.492	224443
518.562	111406
518.633	96857
518.703	100863
518.774	171045
518.845	430606
518.915	405011
518.986	126227
519.056	74497
519.127	100676
519.197	131713
519.268	223267
519.338	124593
519.408	40592
519.479	56668
519.549	41267
519.620	29002
519.690	22161
519.760	20251
519.831	22730
519.901	23749
519.971	20492
520.042	23163
520.112	29080
520.182	39278
520.253	47851
520.323	48815
520.393	148922
520.463	266828
520.534	173907
520.604	425095
520.674	102848
520.744	105862
520.814	472809
520.885	296743
520.955	74216
521.025	224583
521.095	80823
521.165	20902
521.235	17426
521.305	16676
521.375	16029
521.445	20400
521.515	29888
521.585	32843
521.655	30604
521.725	25748
521.795	19801
521.865	13121
521.935	22719
522.005	19629
522.075	14291
522.145	17783
522.215	17859
522.285	25043
522.355	34349
522.424	64783
522.494	59547
522.564	33484
522.634	77025
522.704	237820
522.774	78570
522.843	22263
522.913	20752
522.983	29174
523.053	20265
523.122	20784
523.192	32573
523.262	135328
523.331	124715
523.401	23189
523.471	13920
523.540	16626
523.610	12065
523.680	12092
523.749	12931
523.819	16342
523.888	15855
523.958	13286
524.027	13673
524.097	15285
524.166	13507
524.236	18695
524.305	16691
524.375	13170
524.444	11139
524.514	13916
524.583	13881
524.653	17070
524.722	25686
524.791	18073
524.861	14352
524.930	13056
524.999	14985
525.069	22849
525.138	16567
525.207	18444
525.277	15942
525.346	18321
525.415	17788
525.484	21823
525.554	25036
525.623	24498
525.692	25916
525.761	34074
525.830	41163
525.900	55231
525.969	81877
526.038	137715
526.107	295414
526.176	871153
526.245	684207
526.314	216992
526.383	455705
526.452	598428
526.522	996699
526.591	940127
526.660	226922
526.729	127461
526.797	133640
526.867	232190
526.935	910503
527.004	2051831
527.073	1112910
527.142	116664
527.211	50246
527.280	43146
527.349	37966
527.418	22273
527.487	25476
527.555	23454
527.624	18696
527.693	15358
527.762	17273
527.831	14260
527.899	14169
527.968	14249
528.037	13802
528.106	19322
528.174	38339
528.243	26346
528.312	39240
528.380	55320
528.449	16825
528.518	14043
528.586	9097
528.655	11465
528.723	10798
528.792	10400
528.861	10751
528.929	9877
528.998	9915
529.066	9406
529.135	9778
529.203	8576
529.272	8642
529.340	10912
529.409	13318
529.477	11314
529.545	16227
529.614	25821
529.682	33917
529.751	31200
529.819	48271
529.887	22603
529.956	12584
530.024	13821
530.092	11466
530.161	15954
530.229	28684
530.297	14643
530.365	10729
530.434	9951
530.502	8750
530.570	9803
530.638	7616
530.707	11293
530.775	11771
530.843	8626
530.911	9437
530.979	9228
531.047	8114
531.115	10533
531.183	9664
531.252	9827
531.320	10165
531.388	8266
531.456	10381
531.524	8932
531.592	10902
531.660	12532
531.728	9700
531.796	9359
531.864	11036
531.932	11023
532.000	10846
532.067	12602
532.135	14982
532.203	17877
532.271	17343
532.339	34778
532.407	106107
532.475	56999
532.542	27593
532.610	29262
532.678	39119
532.746	172445
532.814	429553
532.881	100690
532.949	24893
533.017	17517
533.084	13163
533.152	12465
533.220	12459
533.287	14757
533.355	10921
533.423	11007
533.490	10458
533.558	11248
533.625	11514
533.693	12755
533.761	13578
533.828	14142
533.896	14629
533.963	31852
534.031	39170
534.098	58141
534.166	25151
534.233	14534
534.300	16552
534.368	18529
534.435	18887
534.503	26892
534.570	57872
534.637	36682
534.705	33341
534.772	45202
534.840	92433
534.907	390062
534.974	472590
535.041	53137
535.109	26078
535.176	15979
535.243	14005
535.310	16326
535.378	15145
535.445	12468
535.512	12781
535.579	13192
535.646	11096
535.714	13632
535.781	14304
535.848	14144
535.915	14478
535.982	11792
536.049	13384
536.116	14895
536.183	12932
536.250	14492
536.317	14980
536.384	19547
536.451	32809
536.518	35270
536.585	22827
536.652	29173
536.719	44415
536.786	33828
536.853	25959
536.920	37205
536.987	61538
537.053	56327
537.120	208983
537.187	164193
537.254	22157
537.321	17536
537.388	18467
537.454	14116
537.521	14033
537.588	13615
537.654	16283
537.721	17502
537.788	18360
537.855	13793
537.921	16284
537.988	16200
538.055	15585
538.121	15828
538.188	18432
538.254	31421
538.321	66987
538.388	37916
538.454	18543
538.521	16674
538.587	14835
538.654	14801
538.720	14957
538.787	15303
538.853	15191
538.920	19667
538.986	19926
539.053	16832
539.119	18786
539.185	17541
539.252	22530
539.318	37374
539.385	23393
539.451	19790
539.517	20025
539.583	22954
539.650	56903
539.716	146024
539.782	37886
539.849	19470
539.915	20305
539.981	20689
540.047	25674
540.114	22744
540.180	22476
540.246	22128
540.312	31483
540.378	65156
540.444	60396
540.510	62063
540.576	170340
540.643	49131
540.709	20129
540.775	20198
540.841	20733
540.907	35040
540.973	88462
541.039	47279
541.105	37236
541.171	20913
541.237	17349
541.303	18911
541.369	22856
541.435	31047
541.500	56159
541.566	33093
541.632	16936
541.698	15232
541.764	15742
541.830	14944
541.896	15203
541.961	16684
542.027	18719
542.093	18035
542.159	19049
542.224	19876
542.290	28931
542.356	53677
542.421	61867
542.487	25586
542.553	17747
542.618	19213
542.684	18263
542.750	18585
542.815	22084
542.881	36902
542.947	146209
543.012	95321
543.078	19854
543.143	16243
543.209	17880
543.274	18180
543.340	21706
543.405	53720
543.471	83606
543.536	20166
543.602	15802
543.667	13681
543.732	14533
543.798	13756
543.863	15012
543.928	14483
543.994	13229
544.059	15576
544.124	15158
544.190	15722
544.255	17160
544.320	18031
544.386	18773
544.451	27723
544.516	31817
544.581	31144
544.646	90262
544.712	131172
544.777	26618
544.842	19114
544.907	18179
544.972	17574
545.037	17165
545.102	18857
545.168	18790
545.233	21314
545.298	21734
545.363	24918
545.428	28396
545.493	54104
545.558	117950
545.623	42833
545.688	19559
545.753	20081
545.818	19138
545.883	20325
545.947	19791
546.012	21899
546.077	22494
546.142	23411
546.207	24447
546.272	34230
546.337	34938
546.401	26968
546.466	24322
546.531	23590
546.596	27201
546.661	28033
546.725	27340
546.790	27072
546.855	28463
546.919	30112
546.984	34677
547.049	38655
547.113	44498
547.178	43757
547.243	51024
547.307	56470
547.372	66069
547.436	66159
547.501	62660
547.565	70090
547.630	73905
547.695	68890
547.759	68424
547.823	64203
547.888	62179
547.952	64910
548.017	65878
548.081	70893
548.146	77183
548.210	74673
548.274	72697
548.339	70916
548.403	65168
548.468	62728
548.532	60617
548.596	63116
548.660	63138
548.725	70514
548.789	81549
548.853	77163
548.917	67265
548.982	75273
549.046	68453
549.110	55756
549.174	57565
549.238	64590
549.303	70492
549.367	73266
549.431	70208
549.495	66602
549.559	65848
549.623	76143
549.687	86779
549.751	95283
549.815	98584
549.879	98733
549.943	91978
550.007	98182
550.071	98177
550.135	97501
550.199	87828
550.263	82723
550.327	81936
550.391	88192
550.455	90497
550.519	94761
550.582	101849
550.646	124115
550.710	126479
550.774	116397
550.838	117061
550.901	121668
550.965	129645
551.029	137517
551.093	152528
551.156	178239
551.220	240732
551.284	289062
551.347	188546
551.411	174734
551.475	165131
551.538	127203
551.602	115157
551.666	108880
551.729	101560
551.793	98858
551.856	96051
551.920	94557
551.983	95952
552.047	96108
552.110	95961
552.174	95508
552.237	98377
552.301	91615
552.364	89475
552.428	88572
552.491	94821
552.554	96886
552.618	97934
552.681	104336
552.745	110594
552.808	171338
552.871	224736
552.934	141059
552.998	104012
553.061	95685
553.124	89674
553.187	88255
553.251	89892
553.314	90317
553.377	89747
553.440	94565
553.503	99667
553.567	102722
553.630	95650
553.693	94974
553.756	96378
553.819	94605
553.882	90289
553.945	90543
554.008	90457
554.071	92285
554.134	93019
554.197	87378
554.260	86567
554.323	90797
554.386	90701
554.449	92915
554.512	92470
554.575	88495
554.638	90406
554.701	88099
554.764	87939
554.827	83749
554.889	79621
554.952	75545
555.015	75762
555.078	75599
555.141	76029
555.203	75679
555.266	74786
555.329	75257
555.391	72759
555.454	74776
555.517	72589
555.580	68559
555.642	64375
555.705	63504
555.768	64544
555.830	62334
555.893	58452
555.955	57970
556.018	56750
556.080	57533
556.143	57641
556.206	58475
556.268	57677
556.330	59702
556.393	57524
556.455	54340
556.518	61333
556.580	61335
556.643	50994
556.705	50682
556.767	48907
556.830	48460
556.892	52323
556.955	68586
557.017	54448
557.079	46903
557.142	46990
557.204	52411
557.266	82847
557.328	67456
557.391	42169
557.453	39325
557.515	41336
557.577	47739
557.639	48921
557.701	44069
557.764	42652
557.826	47647
557.888	53276
557.950	55351
558.012	61189
558.074	83699
558.136	217635
558.198	539800
558.260	169358
558.322	68861
558.384	72149
558.446	84166
558.508	99141
558.570	124327
558.632	174747
558.694	234784
558.756	313277
558.818	1031910
558.880	2428267
558.942	713928
559.003	590919
559.065	268527
559.127	111198
559.189	109806
559.251	122920
559.312	175953
559.374	469131
559.436	1606517
559.498	703399
559.559	129113
559.621	107266
559.683	121402
559.744	206540
559.806	740826
559.868	1058887
559.929	183304
559.991	108108
560.052	174635
560.114	524757
560.176	302877
560.237	294928
560.299	470357
560.360	89828
560.422	37450
560.483	30285
560.545	26205
560.606	24978
560.667	23257
560.729	22202
560.790	21963
560.852	21671
560.913	21496
560.974	20428
561.036	20093
561.097	21048
561.158	21820
561.220	22116
561.281	21472
561.342	20631
561.403	25158
561.465	31402
561.526	80089
561.587	98778
561.648	28656
561.709	19786
561.771	19064
561.832	18923
561.893	19191
561.954	17873
562.015	17330
562.076	17806
562.137	17771
562.198	16975
562.259	17932
562.320	18398
562.381	21182
562.442	32463
562.503	23988
562.564	18348
562.625	17210
562.686	17650
562.747	21494
562.808	19505
562.869	17828
562.930	17279
562.991	18050
563.051	16978
563.112	16118
563.173	15136
563.234	15569
563.294	16004
563.355	16559
563.416	17198
563.477	15918
563.537	16032
563.598	17150
563.659	15408
563.720	16077
563.780	17198
563.841	17766
563.901	17217
563.962	15527
564.023	15163
564.083	16210
564.144	16850
564.204	15790
564.265	15302
564.325	17343
564.386	30723
564.446	26803
564.507	15661
564.567	14781
564.628	15637
564.688	14343
564.749	15024
564.809	17498
564.869	18676
564.930	15482
564.990	14935
565.050	15009
565.111	14345
565.171	14540
565.231	14253
565.292	14995
565.352	13070
565.412	15921
565.472	15284
565.532	16979
565.593	15389
565.653	14507
565.713	17122
565.773	17783
565.833	22143
565.893	28050
565.953	15803
566.013	15492
566.074	15926
566.134	20311
566.194	29962
566.254	31348
566.314	20616
566.374	16617
566.434	16810
566.494	16667
566.554	17025
566.614	16938
566.673	17181
566.733	19058
566.793	19674
566.853	19597
566.913	19693
566.973	19827
567.033	22120
567.092	23278
567.152	21977
567.212	21598
567.272	20107
567.331	22259
567.391	21265
567.451	24068
567.511	29115
567.570	28650
567.630	20888
567.690	19967
567.749	20989
567.809	21843
567.868	24671
567.928	27436
567.988	30567
568.047	33781
568.107	39949
568.166	56746
568.226	90214
568.285	123133
568.345	101082
568.404	79941
568.464	67209
568.523	62190
568.582	63316
568.642	72212
568.701	88646
568.761	129985
568.820	209609
568.879	193627
568.939	136637
568.998	96544
569.057	73616
569.116	59131
569.176	48145
569.235	39505
569.294	34957
569.353	30552
569.413	29010
569.472	26437
569.531	22652
569.590	22240
569.649	20837
569.708	19325
569.767	21429
569.827	28354
569.886	23680
569.945	18167
570.004	19421
570.063	17555
570.122	19144
570.181	19873
570.240	19287
570.299	20959
570.358	24454
570.417	17024
570.475	15984
570.534	16637
570.593	17817
570.652	19961
570.711	19730
570.770	17034
570.829	18509
570.887	19490
570.946	20559
571.005	15669
571.064	17392
571.122	21937
571.181	20846
571.240	16006
571.299	14540
571.357	14757
571.416	14834
571.475	16130
571.533	16945
571.592	14191
571.650	14498
571.709	14575
571.768	16632
571.826	17487
571.885	14508
571.943	13311
572.002	13580
572.060	13869
572.119	11931
572.177	11540
572.236	11702
572.294	12090
572.352	13219
572.411	13774
572.469	12796
572.528	13022
572.586	13800
572.644	16691
572.703	23731
572.761	14954
572.819	11829
572.877	11991
572.936	10267
572.994	10962
573.052	12148
573.110	14659
573.169	13698
573.227	11733
573.285	11582
573.343	11597
573.401	11277
573.459	10894
573.517	11406
573.576	12627
573.634	13092
573.692	14168
573.750	13479
573.808	11439
573.866	12019
573.924	15103
573.982	14112
574.040	12152
574.098	11317
574.155	11552
574.213	11198
574.271	11891
574.329	12946
574.387	11334
574.445	10115
574.503	10181
574.560	9516
574.618	9271
574.676	10301
574.734	10886
574.792	10512
574.849	10050
574.907	9427
574.965	9252
575.022	8933
575.080	9177
575.138	9258
575.195	10524
575.253	10704
575.311	12563
575.368	9867
575.426	9084
575.483	9371
575.541	9636
575.598	9755
575.656	10606
575.713	10033
575.771	10939
575.828	9473
575.886	9480
575.943	10439
576.001	9184
576.058	9546
576.115	10063
576.173	11638
576.230	13888
576.287	17916
576.345	13922
576.402	10319
576.459	10415
576.517	10238
576.574	10319
576.631	10644
576.688	9946
576.746	8343
576.803	9231
576.860	7880
576.917	8985
576.974	8540
577.031	10178
577.089	9970
577.146	9107
577.203	10273
577.260	10323
577.317	9853
577.374	11812
577.431	10355
577.488	10122
577.545	8458
577.602	8200
577.659	8366
577.716	9197
577.773	9265
577.830	8858
577.886	8810
577.943	8512
578.000	8879
578.057	10275
578.114	9539
578.171	10090
578.227	8784
578.284	9472
578.341	10248
578.398	10371
578.454	10526
578.511	12357
578.568	13591
578.625	11271
578.681	9169
578.738	8813
578.794	10339
578.851	10429
578.908	9821
578.964	9985
579.021	11004
579.077	11548
579.134	10856
579.190	9681
579.247	9106
579.303	8831
579.360	8688
579.416	9253
579.473	7976
579.529	8609
579.586	8283
579.642	8893
579.698	8915
579.755	9187
579.811	10021
579.867	9945
579.924	8131
579.980	7980
580.036	8715
580.093	9506
580.149	8993
580.205	8912
580.261	8590
580.317	10415
580.374	10144
580.430	12019
580.486	11723
580.542	10341
580.598	10346
580.619	10820
580.654	11656
580.692	10405
580.710	9811
580.765	10116
580.767	10137
580.823	10807
580.838	10455
580.879	9585
580.911	9417
580.935	9312
580.984	9777
580.991	9854
581.047	9404
581.057	9363
581.103	9220
581.130	9388
581.159	9590
581.203	9596
581.215	9617
581.270	8415
581.276	8489
581.326	9213
581.349	9011
581.382	8718
581.422	9573
581.438	9965
581.494	9546
581.494	9543
581.550	10186
581.567	10157
581.606	10108
581.640	10196
581.661	10245
581.713	9775
581.717	9751
581.773	9923
581.786	9717
581.829	9015
581.859	9203
581.885	9433
581.932	8831
581.940	8718
581.996	9498
582.004	9510
582.052	9558
582.077	9061
582.107	8526
582.150	8784
582.163	8873
582.219	9042
582.223	9058
582.274	9305
582.296	9672
582.330	10273
582.368	9355
582.386	8950
582.441	8908
582.441	8911
582.497	7761
582.514	8106
582.552	9095
582.587	9080
582.608	9000
582.659	8834
582.663	8814
582.719	9196
582.732	9207
582.774	9474
582.805	9287
582.830	9083
582.877	9539
582.885	9617
582.941	8525
582.950	8668
582.996	9269
583.023	9059
583.052	9005
583.095	9385
583.107	9448
583.162	9097
583.168	9169
583.218	9788
583.240	9425
583.273	8940
583.313	9097
583.328	9154
583.384	9140
583.385	9138
583.439	9052
583.458	9204
583.494	9526
583.531	9272
583.549	9168
583.603	9398
583.605	9398
583.660	9646
583.676	9535
583.715	9288
583.748	9655
583.770	10016
583.820	10277
583.825	10251
583.881	9021
583.893	8946
583.936	9051
583.965	9026
583.991	8908
584.038	9358
584.046	9432
584.101	9317
584.110	9234
584.156	8731
584.183	8718
584.211	8868
584.255	8859
584.266	8789
584.321	9269
584.328	9284
584.376	9718
584.400	10042
584.431	10284
584.472	9602
584.486	9394
584.541	10310
584.545	10302
584.596	9831
584.617	9883
584.651	10365
584.689	11295
584.706	11452
584.761	11384
584.762	11384
584.816	11094
584.834	11558
584.871	12436
584.906	12499
584.926	12444
584.978	12664
584.980	12672
585.035	14473
585.051	14956
585.090	16443
585.123	17541
585.145	18139
585.195	20067
585.200	20264
585.254	23453
585.267	24529
585.309	27804
585.340	30178
585.364	32107
585.412	36649
585.419	37345
585.473	43982
585.484	46300
585.528	56834
585.556	70610
585.583	90689
585.628	150607
585.637	167479
585.692	365370
585.700	400542
585.747	553985
585.772	430596
585.801	251006
585.845	95783
585.856	68654
585.910	38228
585.917	35950
585.965	27630
585.989	24795
586.019	21652
586.061	19010
586.074	18447
586.128	18445
586.133	18474
586.183	18575
586.205	18680
586.237	18751
586.277	17670
586.292	17175
586.346	16893
586.349	16898
586.401	16911
586.421	16990
586.455	16982
586.493	17479
586.509	18241
586.564	21680
586.565	21894
586.618	30206
586.637	29880
586.672	26973
586.709	24303
586.727	23409
586.781	24521
586.781	24489
586.835	20013
586.853	19375
586.889	18417
586.925	17897
586.944	17834
586.996	18232
586.998	18212
587.052	18253
587.068	18292
587.106	18731
587.140	19293
587.161	19362
587.212	19420
587.215	19408
587.269	19571
587.284	19846
587.323	20601
587.356	21143
587.377	21576
587.427	22894
587.431	22918
587.485	23142
587.499	23339
587.539	24109
587.571	24688
587.593	25087
587.643	26758
587.648	26921
587.702	29166
587.715	29776
587.755	30764
587.786	31699
587.810	32788
587.858	34936
587.864	35079
587.917	37702
587.930	38489
587.971	41817
588.001	44539
588.025	46306
588.073	50515
588.079	51139
588.133	58305
588.145	60220
588.187	66705
588.217	71698
588.241	76084
588.288	87239
588.295	88808
588.348	105922
588.360	110214
588.402	125430
588.431	138139
588.456	149001
588.503	173532
588.510	176920
588.564	212856
588.575	222025
588.617	258829
588.646	290383
588.671	321323
588.718	398309
588.725	414299
588.778	581734
588.789	631482
588.832	949622
588.861	1225190
588.886	1581323
588.932	2332307
588.939	2389062
588.993	2582734
589.004	2552098
589.047	1764074
589.075	1212833
589.100	912848
589.147	531299
589.154	503102
589.207	381915
589.218	365023
589.261	337423
589.290	332845
589.314	343228
589.361	390539
589.368	406111
589.421	585225
589.433	639783
589.475	1037525
589.504	1382900
589.528	1702467
589.576	2254266
589.582	2204779
589.635	1376583
589.647	1193726
589.689	647792
589.718	362736
589.742	283091
589.790	178603
589.795	171222
589.849	126220
589.861	118134
589.902	99021
589.932	87098
589.955	79529
590.004	66578
590.009	65395
590.062	57520
590.075	55864
590.115	50234
590.146	46847
590.168	45102
590.218	41640
590.222	41203
590.275	37997
590.289	37263
590.328	35388
590.360	33894
590.381	32695
590.431	30435
590.435	30225
590.488	28849
590.503	28436
590.541	27723
590.574	27727
590.594	27184
590.645	25670
590.647	25565
590.700	24687
590.716	24566
590.753	24201
590.787	24082
590.806	23822
590.859	23282
590.859	23217
590.912	22858
590.930	22849
590.965	22336
591.001	21894
591.018	21645
591.071	20966
591.072	21013
591.124	20623
591.143	20617
591.177	20515
591.214	20620
591.230	20711
591.283	21127
591.285	21194
591.336	21681
591.356	21904
591.389	21762
591.427	21565
591.442	20931
591.495	18679
591.498	18574
591.547	18533
591.569	18586
591.600	18040
591.640	17358
591.653	17507
591.706	18360
591.711	18507
591.759	17794
591.782	17492
591.811	18222
591.853	19363
591.864	19052
591.917	17635
591.924	17480
591.969	17685
591.995	17879
592.022	17833
592.066	17955
592.075	18106
592.127	19280
592.137	19571
592.180	19951
592.208	20133
592.233	19515
592.279	18499
592.285	18370
592.338	17729
592.350	17630
592.390	17728
592.421	17898
592.443	17939
592.491	18162
592.495	18119
592.548	18182
592.562	18252
592.600	17554
592.633	17040
592.653	16967
592.704	16841
592.705	16941
592.775	17251
592.846	18122
592.916	18474
592.987	20754
593.058	18485
593.128	18741
593.199	17834
593.270	17066
593.341	18005
593.411	18882
593.482	20014
593.553	19525
593.623	17554
593.694	19825
593.764	18440
593.835	19061
593.906	18834
593.976	19403
594.047	19720
594.117	21504
594.188	20935
594.258	20733
594.329	19523
594.399	20483
594.470	20703
594.540	21477
594.611	20999
594.681	22117
594.751	22232
594.822	25007
594.892	26120
594.963	23906
595.033	24592
595.103	25372
595.174	26338
595.244	30163
595.314	30703
595.384	26661
595.455	25319
595.525	27379
595.595	28221
595.665	29394
595.736	27490
595.806	28311
595.876	28247
595.946	29020
596.016	29164
596.087	31210
596.157	29984
596.227	30050
596.297	31455
596.367	33332
596.437	35173
596.507	37680
596.577	39265
596.647	37004
596.717	36856
596.787	38417
596.857	36901
596.927	38441
596.997	38338
597.067	38998
597.137	39438
597.207	40543
597.277	39055
597.347	37492
597.417	36461
597.487	39286
597.557	37283
597.626	40177
597.696	40538
597.766	40988
597.836	40529
597.906	37038
597.975	34885
598.045	35505
598.115	36201
598.185	38857
598.254	43166
598.324	48398
598.394	49003
598.464	47439
598.533	45965
598.603	41985
598.672	40617
598.742	42583
598.812	42139
598.881	44736
598.951	43492
599.020	43577
599.090	44323
599.159	46180
599.229	43800
599.299	42009
599.368	43706
599.437	42696
599.507	39975
599.576	38490
599.646	37419
599.715	38530
599.785	38287
599.854	36689
599.924	36178
599.993	36517
600.062	36301
600.132	38058
600.201	39308
600.270	46258
600.340	48416
600.409	45675
600.478	46527
600.547	47150
600.617	42565
600.686	33648
600.755	31241
600.824	31914
600.894	29122
600.963	28926
601.032	28560
601.101	28188
601.170	26397
601.239	26489
601.308	28893
601.378	27524
601.447	26126
601.516	26162
601.585	28564
601.654	31520
601.723	27157
601.792	27465
601.861	28604
601.930	31577
601.999	31743
602.068	31444
602.137	34832
602.206	34171
602.275	31833
602.343	35401
602.412	34422
602.481	31661
602.550	30246
602.619	32448
602.688	32475
602.756	31987
602.825	32521
602.894	32959
602.963	32817
603.032	34897
603.100	33864
603.169	35088
603.238	34143
603.307	34737
603.375	34866
603.444	37228
603.513	35466
603.581	37896
603.650	37817
603.719	37358
603.787	38131
603.856	39907
603.924	40423
603.993	42714
604.061	42857
604.130	45318
604.198	46088
604.267	46285
604.335	45995
604.404	47750
604.472	47302
604.541	47980
604.609	49405
604.678	49405
604.746	49458
604.815	50511
604.883	51042
604.951	51967
605.020	52379
605.088	53860
605.156	55047
605.225	56296
605.293	55643
605.361	56004
605.429	57521
605.498	59107
605.566	60712
605.634	63405
605.702	64808
605.771	67126
605.839	67127
605.907	65604
605.975	62667
606.043	61203
606.111	62527
606.180	61909
606.248	60182
606.316	61244
606.384	60183
606.452	63937
606.520	67740
606.588	66688
606.656	64898
606.724	64055
606.792	60483
606.860	54803
606.928	50125
606.996	47980
607.064	47444
607.132	48298
607.200	51355
607.267	52826
607.335	54562
607.403	55156
607.471	52541
607.539	51732
607.607	52269
607.674	46666
607.742	47673
607.810	48247
607.878	47556
607.946	47211
608.013	50040
608.081	51687
608.149	51725
608.216	52167
608.284	54021
608.352	53471
608.419	52324
608.487	55195
608.555	51471
608.622	53559
608.690	56775
608.757	62820
608.825	64178
608.893	62775
608.960	60753
609.028	59812
609.095	57697
609.163	55961
609.230	49093
609.298	46586
609.365	48448
609.432	52914
609.500	57207
609.567	64789
609.635	72900
609.702	76181
609.769	74290
609.837	59172
609.904	50489
609.971	54470
610.039	63994
610.106	88119
610.173	178632
610.241	408473
610.308	218859
610.375	78714
610.442	57009
610.509	53036
610.577	53356
610.644	52976
610.711	53713
610.778	55303
610.845	57431
610.912	60997
610.980	64441
611.047	64481
611.114	62336
611.181	61418
611.248	59987
611.315	64770
611.382	64880
611.449	68628
611.516	69762
611.583	67882
611.650	69198
611.717	70079
611.784	72838
611.851	80798
611.918	87296
611.984	108419
612.051	167886
612.118	360763
612.185	905517
612.252	515765
612.319	125429
612.386	96468
612.452	83846
612.519	81014
612.586	80559
612.653	80053
612.719	81644
612.786	77208
612.853	71090
612.919	70167
612.986	70066
613.053	65832
613.120	61538
613.186	59971
613.253	61226
613.319	60918
613.386	60793
613.453	63691
613.519	64888
613.586	67101
613.652	75234
613.719	70127
613.785	68732
613.852	63169
613.918	62485
613.985	64481
614.051	66607
614.118	67305
614.184	64908
614.250	62811
614.317	64439
614.383	62921
614.449	63656
614.516	65644
614.582	64583
614.648	62065
614.715	62618
614.781	61852
614.847	62396
614.914	62773
614.980	60492
615.046	59832
615.112	62177
615.179	61635
615.245	63415
615.311	65597
615.377	71774
615.443	73995
615.509	67386
615.575	70744
615.642	67895
615.708	71348
615.774	76226
615.840	84899
615.906	98017
615.972	133541
616.038	218650
616.104	470849
616.170	1139430
616.236	889741
616.302	192399
616.368	130361
616.434	92334
616.500	86004
616.565	95520
616.631	120155
616.697	96885
616.763	103172
616.829	160771
616.895	286752
616.961	256619
617.026	106676
617.092	73210
617.158	69016
617.224	65220
617.289	59612
617.355	56941
617.421	54857
617.487	56285
617.552	52912
617.618	51545
617.684	51495
617.749	53520
617.815	50383
617.880	48751
617.946	50307
618.012	50377
618.077	51733
618.143	48249
618.208	49222
618.274	53570
618.339	54407
618.405	44351
618.470	44675
618.536	43950
618.601	43891
618.667	40592
618.732	39554
618.798	37653
618.863	39417
618.928	37629
618.994	40979
619.059	41158
619.124	48062
619.190	39804
619.255	37914
619.320	36848
619.386	37887
619.451	37260
619.516	36840
619.581	37790
619.647	38247
619.712	37887
619.777	36382
619.842	36977
619.907	38703
619.972	38221
620.038	38772
620.103	37549
620.168	36364
620.233	37186
620.298	37189
620.363	38091
620.428	39486
620.493	39231
620.558	40063
620.623	41225
620.688	40486
620.753	39424
620.818	40309
620.883	40264
620.948	41116
621.013	40033
621.078	40489
621.143	38533
621.207	42640
621.272	40012
621.337	40000
621.402	39389
621.467	41259
621.532	41762
621.596	39883
621.661	38412
621.726	37876
621.791	37693
621.855	39072
621.920	37790
621.985	39270
622.049	40559
622.114	40601
622.179	39801
622.243	40130
622.308	40164
622.373	43808
622.437	42230
622.502	39513
622.566	39179
622.631	38709
622.695	40815
622.760	39501
622.824	39225
622.889	40449
622.953	41362
623.018	52826
623.082	50729
623.147	43270
623.211	40040
623.276	42670
623.340	38496
623.404	37937
623.469	37425
623.533	37473
623.597	36741
623.662	37613
623.726	34543
623.790	33045
623.854	32034
623.919	33713
623.983	32909
624.047	33661
624.111	34330
624.176	35244
624.240	36366
624.304	38384
624.368	33489
624.432	34413
624.496	36350
624.560	39924
624.625	40134
624.689	37603
624.753	37784
624.817	36785
624.881	35141
624.945	33063
625.009	31074
625.073	32274
625.137	34614
625.201	39474
625.265	38155
625.329	34300
625.393	33842
625.456	34861
625.520	35533
625.584	36713
625.648	38411
625.712	43464
625.776	54783
625.839	56007
625.903	35062
625.967	30195
626.031	36257
626.095	44673
626.158	32580
626.222	24985
626.286	24430
626.349	22777
626.413	20365
626.477	24095
626.540	21271
626.604	21498
626.668	21265
626.731	21514
626.795	20324
626.858	21772
626.922	19301
626.986	21457
627.049	18822
627.113	21511
627.176	20514
627.240	20074
627.303	19438
627.366	20252
627.430	20562
627.493	19977
627.557	18023
627.620	20896
627.684	20513
627.747	20845
627.810	18326
627.874	18689
627.937	15698
628.000	18823
628.064	17544
628.127	14019
628.190	15504
628.253	15019
628.317	14095
628.380	14395
628.443	13666
628.506	13260
628.569	12529
628.632	12336
628.696	11979
628.759	12214
628.822	11744
628.885	10991
628.948	11441
629.011	12590
629.074	11686
629.137	11258
629.200	11326
629.263	12624
629.326	9301
629.389	9641
629.452	10583
629.515	9915
629.578	9345
629.641	11653
629.704	10702
629.767	11333
629.830	11389
629.892	10113
629.955	8860
630.018	12630
630.081	11765
630.144	14043
630.207	10066
630.269	12362
630.332	8597
630.395	10524
630.458	9103
630.520	8345
630.583	9920
630.646	9534
630.708	8277
630.771	8203
630.834	10165
630.896	9894
630.959	9290
631.021	9238
631.084	9789
631.146	10110
631.209	10562
631.272	9431
631.334	9397
631.397	9973
631.459	10680
631.522	11703
631.584	11970
631.646	12835
631.709	14012
631.771	15816
631.834	13449
631.896	12884
631.958	10782
632.021	10759
632.083	8274
632.145	10797
632.208	9335
632.270	10697
632.332	8097
632.395	8829
632.457	8867
632.519	8368
632.581	9346
632.643	7710
632.706	9325
632.768	7811
632.830	8143
632.892	9228
632.954	8105
633.016	10085
633.078	8485
633.141	9026
633.203	8132
633.265	9220
633.327	8468
633.389	8706
633.451	10040
633.513	11167
633.575	11450
633.637	11527
633.698	10558
633.760	10362
633.822	10746
633.884	11129
633.946	11043
634.008	10925
634.070	12477
634.132	13787
634.193	14615
634.255	16421
634.317	15964
634.379	17990
634.441	14765
634.502	12139
634.564	13399
634.626	13395
634.687	14166
634.749	11042
634.811	9322
634.873	9205
634.934	9176
634.996	10151
635.057	8517
635.119	8078
635.181	8275
635.242	10091
635.304	8031
635.365	11669
635.427	8736
635.488	9828
635.550	9034
635.611	10540
635.673	7911
635.734	12817
635.796	10672
635.857	14107
635.918	12847
635.980	16588
636.041	16503
636.102	19577
636.164	18295
636.225	19951
636.286	13276
636.348	13883
636.409	11998
636.470	10706
636.531	10114
636.593	10248
636.654	8653
636.715	8658
636.776	8055
636.838	7525
636.899	7869
636.960	8044
637.021	7639
637.082	8947
637.143	8584
637.204	6326
637.265	5528
637.326	7798
637.387	7146
637.448	6354
637.509	8025
637.570	7066
637.631	7799
637.692	6250
637.753	5013
637.814	6244
637.875	6769
637.936	7504
637.997	6143
638.058	5622
638.119	8017
638.179	6936
638.240	5439
638.301	6951
638.362	5272
638.423	6038
638.483	7298
638.544	4449
638.605	6051
638.666	5882
638.726	7046
638.787	7334
638.848	5309
638.908	5750
638.969	6455
639.030	5843
639.090	4049
639.151	5291
639.211	6753
639.272	9067
639.332	12489
639.393	8361
639.453	6227
639.514	6785
639.574	6021
639.635	4722
639.695	6302
639.756	5107
639.816	6885
639.877	7285
639.937	12739
639.997	16182
640.058	5603
640.118	5023
640.178	5909
640.239	5900
640.299	5127
640.359	5720
640.420	6365
640.480	7534
640.540	7990
640.600	8612
640.661	6488
640.721	6616
640.781	9972
640.841	4628
640.901	6152
640.961	6917
641.021	6573
641.082	8062
641.142	10743
641.202	8359
641.262	3186
641.322	6887
641.382	4332
641.442	6366
641.502	4219
641.562	6507
641.622	4862
641.682	6291
641.742	7159
641.802	6861
641.861	5858
641.921	6199
641.981	6980
642.041	6340
642.101	8196
642.161	5180
642.221	3968
642.280	5117
642.340	4089
642.400	4712
642.460	5332
642.519	5438
642.579	5266
642.639	6238
642.698	2391
642.758	7686
642.818	4596
642.877	4883
642.937	5614
642.997	7442
643.056	8858
643.116	5449
643.175	7263
643.235	5870
643.294	6097
643.354	7746
643.414	8501
643.473	11772
643.532	14392
643.592	22971
643.651	39615
643.711	73282
643.770	149621
643.830	369285
643.889	766700
643.948	166028
644.008	26247
644.067	15240
644.126	10366
644.186	9596
644.245	8084
644.304	5330
644.363	8025
644.423	5965
644.482	6043
644.541	7078
644.600	5580
644.659	10377
644.719	12139
644.778	19591
644.837	34762
644.896	75462
644.955	169679
645.014	52622
645.073	11604
645.132	7794
645.191	7262
645.250	6225
645.309	7994
645.368	8384
645.427	10610
645.486	17319
645.545	31674
645.604	9112
645.663	6849
645.722	6729
645.781	7645
645.840	9833
645.898	13781
645.957	21302
646.016	33865
646.075	66707
646.134	133219
646.192	366279
646.251	519772
646.310	70198
646.369	18190
646.427	13329
646.486	8740
646.545	7931
646.603	6522
646.662	6226
646.721	5537
646.779	5355
646.838	5268
646.896	8756
646.955	11898
647.014	20365
647.072	37945
647.131	105250
647.189	48846
647.248	7487
647.306	5404
647.365	5222
647.423	2305
647.481	5820
647.540	2899
647.598	4285
647.657	3285
647.715	4343
647.773	3052
647.832	4335
647.890	2071
647.948	2898
648.007	3464
648.065	1821
648.123	2786
648.181	4873
648.240	3707
648.298	2569
648.356	3177
648.414	3818
648.472	3619
648.531	3366
648.589	2694
648.647	3032
648.705	2270
648.763	3044
648.821	3719
648.879	3974
648.937	5111
648.995	6296
649.053	9809
649.111	15412
649.169	27062
649.227	48614
649.285	106127
649.343	307676
649.401	139162
649.459	26325
649.516	13952
649.574	5939
649.632	8192
649.690	9131
649.748	9346
649.806	12685
649.863	25328
649.921	73473
649.979	47082
650.037	6436
650.094	1667
650.152	3284
650.210	2249
650.268	3203
650.325	2043
650.383	2123
650.440	1906
650.498	2745
650.556	2427
650.613	2512
650.671	2590
650.728	2002
650.786	2552
650.843	4413
650.901	703
650.958	2821
651.016	1793
651.073	2107
651.131	1303
651.188	1501
651.246	1371
651.303	1116
651.360	986
651.418	2018
651.475	1307
651.532	644
651.590	2287
651.647	1530
651.704	725
651.762	1554
651.819	1166
651.876	1220
651.933	1341
651.990	2255
652.048	368
652.105	1283
652.162	1525
652.219	903
652.276	830
652.333	2614
652.390	30
652.448	1208
652.505	1256
652.562	1377
652.619	339
652.676	1875
652.733	1853
652.790	1612
652.847	-83
652.904	1503
652.961	77
653.017	649
653.074	1244
653.131	2195
653.188	-153
653.245	729
653.302	110
653.359	698
653.415	1372
653.472	947
653.529	1955
653.586	-123
653.642	1015
653.699	2028
653.756	354
653.813	399
653.869	1343
653.926	1013
653.983	124
654.039	1669
654.096	328
654.152	2018
654.209	-83
654.266	1010
654.322	-155
654.379	2334
654.435	2036
654.492	1993
654.548	2043
654.605	3897
654.661	1887
654.717	1305
654.774	1557
654.830	961
654.887	372
654.943	877
655.000	757
655.056	1620
655.112	1235
655.168	1835
655.225	667
655.281	2500
655.337	1651
655.394	2640
655.450	1790
655.506	2348
655.562	1973
655.618	3439
655.675	286
655.731	2404
655.787	1041
655.843	2971
655.899	1792
655.955	3264
656.011	4646
656.067	4452
656.123	5471
656.179	6282
656.235	8294
656.291	5486
656.347	6208
656.403	4528
656.459	3223
656.515	3793
656.571	2630
656.627	2631
656.683	2108
656.739	2733
656.795	2125
656.850	1905
656.906	3084
656.962	2629
657.018	664
657.074	1615
657.129	1994
657.185	3445
657.241	6627
657.297	3944
657.352	1327
657.408	636
657.464	2036
657.519	1781
657.575	92
657.630	1152
657.686	521
657.742	379
657.797	-164
657.853	1288
657.908	1003
657.964	-13
658.019	620
658.075	959
658.130	513
658.186	486
658.241	-59
658.297	957
658.352	399
658.407	701
658.463	412
658.518	1782
658.573	986
658.629	1137
658.684	576
658.739	1792
658.795	-18
658.850	794
658.905	-144
658.960	1217
659.016	-934
659.071	441
659.126	724
659.181	1051
659.236	3664
659.291	3792
659.346	1110
659.401	254
659.457	324
659.512	844
659.567	1331
659.622	1388
659.677	-257
659.732	295
659.787	867
659.842	745
659.897	564
659.952	1172
660.007	373
660.061	126
660.116	70
660.171	723
660.226	-306
660.281	1345
660.336	-53
660.391	1441
660.445	-93
660.500	762
660.555	291
660.610	354
660.664	1300
660.719	-16
660.774	-117
660.828	1826
660.883	857
660.938	1146
660.992	-1017
661.047	806
661.101	75
661.156	527
661.211	-50
661.265	828
661.320	464
661.374	402
661.429	-666
661.483	1871
661.538	-470
661.592	473
661.647	62
661.701	173
661.755	428
661.810	601
661.864	-368
661.919	-57
661.973	731
662.027	212
662.081	521
662.136	387
662.190	807
662.244	1059
662.299	449
662.353	1136
662.407	-42
662.461	463
662.515	-403
662.569	860
662.624	254
662.678	755
662.732	176
662.786	-179
662.840	-21
662.894	407
662.948	105
663.002	965
663.056	343
663.110	313
663.164	72
663.218	692
663.272	440
663.326	1324
663.380	885
663.434	574
663.488	546
663.542	-11
663.595	333
663.649	70
663.703	1459
663.757	828
663.811	309
663.864	854
663.918	740
663.972	517
664.026	634
664.079	263
664.133	646
664.187	984
664.240	-24
664.294	1316
664.348	361
664.401	853
664.455	-531
664.508	458
664.562	-195
664.615	-150
664.669	-218
664.722	962
664.776	1063
664.829	1520
664.883	12
664.936	-303
664.990	75
665.043	1177
665.097	-4
665.150	1090
665.203	284
665.257	85
665.310	-105
665.363	984
665.417	935
665.470	1138
665.523	507
665.576	1313
665.630	527
665.683	813
665.736	-102
665.789	829
665.842	124
665.895	933
665.949	491
666.002	140
666.055	26
666.108	1520
666.161	-97
666.214	587
666.267	1065
666.320	1667
666.373	1275
666.426	1203
666.479	-45
666.532	474
666.585	-130
666.638	1929
666.691	-515
666.744	1282
666.796	-95
666.849	982
666.902	861
666.955	264
667.008	101
667.060	225
667.113	-168
667.166	650
667.219	349
667.271	791
667.324	393
667.377	1091
667.430	799
667.482	1204
667.535	778
667.587	1274
667.640	508
667.693	1899
667.745	3385
667.798	3362
667.850	367
667.903	1214
667.955	676
668.008	1009
668.060	-211
668.113	1217
668.165	523
668.218	1650
668.270	1290
668.322	839
668.375	-574
668.427	691
668.479	385
668.532	916
668.584	608
668.636	387
668.689	881
668.741	197
668.793	-226
668.845	1353
668.898	395
668.950	968
669.002	672
669.054	269
669.106	-212
669.158	922
669.211	861
669.263	847
669.315	716
669.367	857
669.419	357
669.471	2130
669.523	1130
669.575	2481
669.627	858
669.679	1310
669.731	1217
669.783	1300
669.835	1169
669.886	865
669.938	1001
669.990	1406
670.042	224
670.094	1590
670.146	1181
670.197	1880
670.249	1754
670.301	2066
670.353	3936
670.404	5941
670.456	7816
670.508	13578
670.560	21706
670.611	35394
670.663	61661
670.715	158458
670.766	270022
670.818	89314
670.869	12708
670.921	7078
670.972	4363
671.024	3582
671.075	2887
671.127	3033
671.178	727
671.230	1597
671.281	1925
671.333	1940
671.384	1392
671.436	2609
671.487	5094
671.538	6295
671.590	9522
671.641	14664
671.692	28063
671.744	55904
671.795	35819
671.846	11122
671.897	4724
671.949	3941
672.000	1880
672.051	2400
672.102	2017
672.153	1102
672.204	801
672.256	1326
672.307	993
672.358	1570
672.409	544
672.460	1489
672.511	815
672.562	858
672.613	390
672.664	415
672.715	1163
672.766	1212
672.817	320
672.868	-10
672.919	807
672.970	1145
673.021	-324
673.071	282
673.122	546
673.173	912
673.224	476
673.275	282
673.326	267
673.376	1359
673.427	-179
673.478	1023
673.528	476
673.579	406
673.630	265
673.680	894
673.731	103
673.782	1380
673.832	-239
673.883	272
673.934	-573
673.984	709
674.035	17
674.085	503
674.136	856
674.186	603
674.237	-199
674.287	1140
674.338	1124
674.388	494
674.438	-83
674.489	1103
674.539	145
674.589	942
674.640	955
674.690	771
674.740	654
674.791	992
674.841	-135
674.891	941
674.942	765
674.992	781
675.042	587
675.092	546
675.142	-609
675.193	338
675.243	481
675.293	430
675.343	104
675.393	418
675.443	803
675.493	613
675.543	-717
675.593	363
675.643	407
675.693	293
675.743	884
675.793	686
675.843	-804
675.893	563
675.943	-260
675.993	207
676.043	459
676.093	-68
676.142	-570
676.192	929
676.242	-638
676.292	37
676.341	-175
676.391	391
676.441	-942
676.491	79
676.540	-509
676.590	729
676.640	313
676.689	508
676.739	-648
676.789	-436
676.838	-47
676.888	751
676.937	-921
676.987	407
677.037	204
677.086	-369
677.136	-72
677.185	-234
677.235	-221
677.284	342
677.333	-210
677.383	-1
677.432	-380
677.482	1065
677.531	75
677.580	-436
677.630	-398
677.679	-415
677.728	694
677.778	839
677.827	-173
677.876	761
677.925	-263
677.975	293
678.024	-95
678.073	-46
678.122	-229
678.171	542
678.220	-187
678.269	556
678.319	76
678.368	1518
678.417	324
678.466	1176
678.515	342
678.564	243
678.613	-86
678.662	-28
678.711	-297
678.760	-78
678.809	-180
678.857	-591
678.906	-520
678.955	353
679.004	-238
679.053	358
679.102	-902
679.151	5
679.199	-1274
679.248	-563
679.297	-41
679.346	247
679.394	-742
679.443	33
679.492	64
679.540	362
679.589	-582
679.638	273
679.686	-750
679.735	-166
679.784	-258
679.832	836
679.881	-190
679.929	62
679.978	-192
680.026	-401
680.075	-207
680.123	-636
680.172	-517
680.220	-93
680.268	-256
680.317	73
680.365	-22
680.414	-225
680.462	95
680.510	220
680.559	-461
680.607	-106
680.655	-351
680.703	-995
680.752	-958
680.800	-514
680.848	-25
680.896	192
680.945	-694
680.993	-270
681.041	-844
681.089	-453
681.137	-45
681.185	-636
681.233	-290
681.258	-9
681.281	249
681.329	-1398
681.377	-1328
681.380	-1268
681.425	-291
681.473	588
681.502	-498
681.521	-1273
681.569	591
681.617	-557
681.624	-488
681.665	-84
681.713	-74
681.745	-469
681.761	-675
681.809	-660
681.857	31
681.867	-21
681.904	-233
681.952	707
681.989	-659
682.000	-1083
682.048	15
682.096	-824
682.111	-396
682.143	493
682.191	-537
682.233	1136
682.239	1387
682.286	-524
682.334	335
682.354	-21
682.382	-545
682.430	682
682.476	-240
682.477	-265
682.525	-86
682.572	-506
682.598	-650
682.620	-780
682.667	-274
682.715	-249
682.720	-202
682.763	134
682.810	-13
682.841	-178
682.857	-276
682.905	412
682.952	-114
682.963	-69
683.000	52
683.047	125
683.085	1253
683.095	1557
683.142	173
683.190	18
683.206	57
683.237	100
683.284	1065
683.328	-24
683.332	-123
683.379	846
683.426	110
683.449	123
683.473	170
683.521	98
683.568	744
683.571	694
683.615	-120
683.662	335
683.693	-122
683.709	-395
683.757	51
683.804	686
683.814	581
683.851	248
683.898	-94
683.936	412
683.945	528
683.992	561
684.039	442
684.057	576
684.086	796
684.133	559
684.179	297
684.180	279
684.227	870
684.274	1102
684.300	1143
684.321	1198
684.368	642
684.415	182
684.422	313
684.462	920
684.509	91
684.543	51
684.556	81
684.603	725
684.649	168
684.665	321
684.696	577
684.743	18
684.786	1224
684.790	1323
684.837	-48
684.883	1367
684.908	847
684.930	368
684.977	869
685.023	96
685.029	177
685.070	684
685.117	533
685.150	760
685.164	858
685.210	377
685.257	1600
685.272	1441
685.303	1132
685.350	1060
685.393	1133
685.396	1138
685.443	1457
685.490	1672
685.514	1727
685.536	1682
685.583	984
685.629	540
685.636	576
685.675	771
685.722	527
685.757	630
685.768	698
685.815	1431
685.861	1230
685.878	1367
685.908	1539
685.954	654
686.000	1652
686.000	1668
686.047	979
686.093	1652
686.121	1607
686.139	1543
686.185	1037
686.232	732
686.242	774
686.278	824
686.324	1270
686.363	821
686.370	775
686.416	1163
686.463	1322
686.484	1255
686.509	1041
686.555	549
686.601	957
686.606	956
686.647	1222
686.693	1347
686.727	1260
686.739	1190
686.785	1317
686.831	1389
686.848	1309
686.877	1114
686.923	1263
686.969	959
686.969	958
687.015	1348
687.061	674
687.090	1442
687.107	1881
687.153	1548
687.199	1803
687.211	1702
687.245	1442
687.291	1387
687.332	1275
687.336	1265
687.382	1657
687.428	1454
687.453	1344
687.474	1270
687.520	1503
687.565	1563
687.574	1484
687.611	1133
687.657	1391
687.695	1657
687.702	1733
687.748	2080
687.794	2323
687.816	2235
687.839	1926
687.885	1459
687.931	1662
687.937	1571
687.976	1352
688.022	2110
688.058	1906
688.067	1828
688.113	1743
688.158	1396
688.179	1678
688.204	2085
688.249	1345
688.295	1789
688.300	1786
688.340	1789
688.386	2556
688.421	2024
688.431	1835
688.477	2014
688.522	1569
688.542	1650
688.567	1897
688.613	1437
688.658	2061
688.663	2023
688.703	1510
688.749	1663
688.784	1650
688.794	1699
688.839	1866
688.884	1832
688.905	2096
688.930	2304
688.975	2182
689.020	1942
689.026	1837
689.065	1302
689.110	1395
689.146	2031
689.155	2175
689.201	1534
689.246	1569
689.267	1694
689.291	1928
689.336	1967
689.381	2834
689.388	2785
689.426	2317
689.471	2462
689.509	1838
689.516	1756
689.561	2238
689.606	2009
689.630	2252
689.651	2393
689.696	1746
689.741	2024
689.750	1920
689.785	1631
689.830	2240
689.871	1842
689.875	1809
689.920	1631
689.965	1975
689.992	2054
690.010	2106
690.054	1623
690.099	1813
690.112	1735
690.144	1573
690.189	2165
690.233	1726
690.233	1729
690.278	2583
690.323	2427
690.354	2628
690.367	2596
690.412	2308
690.457	1809
690.474	1778
690.501	1868
690.546	2306
690.590	1753
690.595	1796
690.635	2321
690.680	1625
690.716	2118
690.724	2187
690.769	2299
690.813	2123
690.836	1768
690.857	1630
690.902	2339
690.946	2096
690.957	2234
690.991	2702
691.035	2664
691.077	3011
691.080	3019
691.124	2420
691.168	2939
691.198	2629
691.213	2526
691.257	2864
691.301	2821
691.318	2725
691.346	2643
691.390	2836
691.434	3022
691.439	3009
691.478	2790
691.522	2939
691.559	2892
691.567	2935
691.611	3000
691.655	2867
691.680	2967
691.699	2885
691.743	2570
691.787	2429
691.800	2321
691.831	2229
691.875	2535
691.919	2248
691.921	2241
691.964	2495
692.008	3214
692.041	3191
692.052	3135
692.096	2800
692.139	3269
692.162	3100
692.183	2881
692.227	2554
692.271	2783
692.282	2697
692.315	2595
692.359	2695
692.402	2918
692.403	2928
692.447	2668
692.490	3300
692.523	3342
692.534	3293
692.578	3075
692.622	3163
692.643	3416
692.666	3672
692.709	2819
692.753	3089
692.763	2963
692.797	2574
692.840	2960
692.884	2588
692.884	2597
692.928	3236
692.971	3093
693.004	3471
693.015	3425
693.059	2966
693.102	3138
693.124	2772
693.146	2706
693.189	3020
693.233	2971
693.245	3095
693.276	3241
693.320	3255
693.363	2599
693.365	2585
693.407	2646
693.450	2941
693.485	2859
693.493	2835
693.537	2970
693.580	2628
693.605	2892
693.624	3213
693.667	3030
693.710	3140
693.725	3219
693.753	3206
693.797	3242
693.840	3134
693.845	3157
693.883	3470
693.926	3335
693.966	3263
693.970	3267
694.013	3316
694.056	3271
694.086	3368
694.099	3395
694.142	3155
694.185	3314
694.206	3176
694.229	3188
694.272	3515
694.315	3754
694.326	3739
694.358	3646
694.401	3906
694.444	3847
694.446	3834
694.487	4014
694.530	4384
694.566	4582
694.573	4530
694.616	3964
694.659	3767
694.686	3457
694.702	3449
694.745	3527
694.787	3406
694.806	3402
694.830	3442
694.873	3592
694.916	3735
694.926	3713
694.959	3487
695.002	3477
695.044	2984
695.046	2967
695.087	3313
695.130	3528
695.166	3866
695.172	3891
695.215	3721
695.258	3888
695.286	3776
695.301	3804
695.343	4001
695.386	4202
695.406	4270
695.428	4195
695.471	3987
695.514	3776
695.526	3682
695.556	3632
695.599	3857
695.641	3840
695.646	3838
695.684	3688
695.726	3090
695.766	3012
695.769	3046
695.811	3171
695.854	3451
695.886	3475
695.896	3452
695.938	3444
695.981	3444
696.005	3369
696.023	3556
696.065	3944
696.108	4657
696.125	4771
696.150	4621
696.192	4660
696.235	4530
696.245	4481
696.277	4496
696.319	4488
696.361	4590
696.365	4565
696.404	4356
696.446	4367
696.485	4291
696.488	4320
696.530	4561
696.572	4596
696.604	4776
696.614	4716
696.656	4288
696.698	3951
696.724	3658
696.740	3711
696.783	3859
696.825	4058
696.844	4121
696.867	4213
696.909	4289
696.951	4545
696.964	4552
696.992	4425
697.034	4337
697.076	4128
697.083	4104
697.118	4523
697.160	4870
697.202	5321
697.203	5316
697.244	5195
697.286	5090
697.323	4947
697.327	4985
697.369	5237
697.411	5401
697.442	5612
697.453	5609
697.494	5484
697.536	5331
697.562	5141
697.578	5241
697.620	5633
697.661	5924
697.682	6105
697.703	6158
697.744	6093
697.786	6249
697.801	6186
697.828	6209
697.869	6388
697.911	6483
697.921	6498
697.952	6312
697.994	5978
698.035	5770
698.040	5718
698.077	5492
698.118	5219
698.160	4921
698.160	4903
698.201	4896
698.243	4873
698.279	4872
698.284	4944
698.325	5426
698.367	5962
698.399	6284
698.408	6257
698.449	6151
698.491	5982
698.518	5868
698.532	5883
698.573	5859
698.614	5830
698.638	5803
698.656	5779
698.697	5681
698.738	5575
698.757	5519
698.779	5521
698.820	5474
698.862	5426
698.877	5395
698.903	5628
698.944	5976
698.985	6317
698.996	6396
699.026	6160
699.067	5804
699.116	5366
699.235	5668
699.354	4754
699.474	5162
699.593	5371
699.713	5526
699.832	6015
699.951	6497
700.070	5960
700.190	5996
700.309	5628
700.428	6064
700.547	5926
700.667	5957
700.786	5737
700.905	5357
701.024	5038
701.143	5361
701.262	5082
701.381	5012
701.500	4884
701.619	6263
701.738	5154
701.857	5037
701.976	5007
702.095	5090
702.214	5524
702.333	5652
702.452	6156
702.571	5702
702.690	4599
702.809	4589
702.928	4464
703.047	4906
703.165	4815
703.284	5103
703.403	5180
703.522	5393
703.640	5410
703.759	5552
703.878	6178
703.997	4458
704.115	4330
704.234	4437
704.353	4385
704.471	4313
704.590	3295
704.708	4630
704.827	4422
704.946	4357
705.064	4115
705.183	4240
705.301	3910
705.420	5551
705.538	4595
705.656	4643
705.775	4213
705.893	4765
706.012	4405
706.130	4020
706.249	4580
706.367	4450
706.485	3884
706.604	4038
706.722	4973
706.840	5757
706.958	5542
707.077	4149
707.195	4443
707.313	4615
707.431	3812
707.549	4108
707.668	3986
707.786	4816
707.904	3690
708.022	4240
708.140	4394
708.258	3289
708.376	4239
708.494	3204
708.612	4027
708.730	5193
708.848	4222
708.966	5447
709.084	5355
709.202	4504
709.320	4076
709.438	3423
709.556	3855
709.674	4044
709.791	4287
709.909	3555
710.027	4208
710.145	3773
710.263	4056
710.380	3328
710.498	3943
710.616	3868
710.733	3991
710.851	3733
710.969	4758
711.086	3668
711.204	4681
711.322	3902
711.439	3495
711.557	4206
711.674	3909
711.792	3264
711.909	4040
712.027	3140
712.144	3180
712.262	3950
712.379	3745
712.497	4806
712.614	5387
712.732	4730
712.849	4580
712.966	5292
713.084	5527
713.201	4966
713.318	4670
713.436	5366
713.553	3897
713.670	5339
713.787	5355
713.905	5208
714.022	5084
714.139	4769
714.256	7892
714.373	11101
714.490	24591
714.608	75837
714.725	327053
714.842	262096
714.959	17220
715.076	8428
715.193	5512
715.310	5997
715.427	4519
715.544	4793
715.661	6902
715.778	4134
715.895	5157
716.011	4923
716.128	4436
716.245	4989
716.362	6162
716.479	5471
716.596	4650
716.713	4650
716.829	3485
716.946	3651
717.063	3217
717.180	3597
717.296	3985
717.413	3651
717.530	3688
717.646	3131
717.763	3343
717.880	3745
717.996	2928
718.113	3311
718.229	3244
718.346	3531
718.462	4407
718.579	6241
718.695	10455
718.812	6012
718.928	4080
719.045	3525
719.161	3662
719.277	3964
719.394	4649
719.510	3675
719.626	4812
719.743	5954
719.859	8359
719.975	19698
720.092	90876
720.208	168644
720.324	15255
720.440	4839
720.557	4568
720.673	7998
720.789	7468
720.905	10799
721.021	3905
721.137	3287
721.253	3077
721.369	2989
721.486	3648
721.602	3544
721.718	2557
721.834	2834
721.950	3051
722.066	2603
722.181	2405
722.297	2805
722.413	2907
722.529	3014
722.645	2697
722.761	2917
722.877	2736
722.993	2509
723.108	4095
723.224	3319
723.340	3816
723.456	3003
723.571	3296
723.687	3085
723.803	2437
723.918	2958
724.034	2700
724.150	2409
724.265	2507
724.381	4100
724.497	5240
724.612	2620
724.728	1986
724.843	1862
724.959	3399
725.074	5105
725.190	4625
725.305	3452
725.421	2105
725.536	2718
725.651	2217
725.767	2275
725.882	1772
725.997	1944
726.113	2384
726.228	1999
726.343	2033
726.459	2416
726.574	1652
726.689	1500
726.804	2094
726.920	1578
727.035	2618
727.150	1355
727.265	2051
727.380	2694
727.495	2228
727.610	2129
727.725	2472
727.841	2009
727.956	2375
728.071	3291
728.186	1876
728.301	2650
728.416	2411
728.531	2181
728.645	2062
728.760	3509
728.875	3738
728.990	3504
729.105	2838
729.220	2307
729.335	2617
729.449	2246
729.564	1703
729.679	1909
729.794	2346
729.908	2134
730.023	1418
730.138	1834
730.253	1717
730.367	1997
730.482	2013
730.596	2159
730.711	2066
730.826	2685
730.940	2153
731.055	1917
731.169	1593
731.284	2466
731.398	2114
731.513	2690
731.627	2084
731.742	3249
731.856	3552
731.970	3112
732.085	3961
732.199	6312
732.313	11609
732.428	33867
732.542	99504
732.656	46828
732.771	7752
732.885	4979
732.999	3490
733.113	3234
733.227	4314
733.342	3530
733.456	2897
733.570	2613
733.684	1795
733.798	2109
733.912	2102
734.026	2501
734.140	2265
734.254	2933
734.368	4631
734.482	4202
734.596	1931
734.710	2332
734.824	2478
734.938	1816
735.052	2249
735.166	2637
735.280	1834
735.393	2643
735.507	2831
735.621	2612
735.735	3820
735.849	3018
735.962	2682
736.076	2211
736.190	2376
736.303	2388
736.417	2698
736.531	2254
736.644	2095
736.758	2071
736.872	2137
736.985	2199
737.099	2035
737.212	2263
737.326	1315
737.439	2393
737.553	1646
737.666	1729
737.780	1393
737.893	1750
738.007	1341
738.120	1812
738.233	1966
738.347	2179
738.460	2907
738.573	2383
738.687	1707
738.800	2230
738.913	3338
739.026	1624
739.140	1342
739.253	1893
739.366	2172
739.479	1792
739.592	2581
739.705	1892
739.818	2401
739.932	2192
740.045	2416
740.158	2510
740.271	2597
740.384	1854
740.497	3043
740.610	4085
740.723	2309
740.836	3106
740.949	3730
741.062	4231
741.174	3143
741.287	1815
741.400	3188
741.513	3343
741.626	3379
741.739	3219
741.851	2885
741.964	2770
742.077	2565
742.189	3406
742.302	8758
742.415	7359
742.527	2797
742.640	2757
742.753	2308
742.865	1938
742.978	1064
743.090	712
743.203	1464
743.316	1469
743.428	1478
743.541	1306
743.653	1442
743.766	1259
743.878	1856
743.990	3072
744.103	6765
744.215	14383
744.327	4405
744.440	3051
744.552	3875
744.664	1433
744.777	1269
744.889	702
745.001	1358
745.113	731
745.226	738
745.338	1389
745.450	1400
745.562	2026
745.674	1961
745.786	1481
745.898	787
746.010	836
746.122	2394
746.234	2577
746.347	1873
746.459	1584
746.570	1905
746.682	7259
746.794	21084
746.906	8192
747.018	1663
747.130	1804
747.242	1143
747.354	1309
747.466	1098
747.577	1812
747.689	2025
747.801	1119
747.913	990
748.024	1408
748.136	1301
748.248	793
748.359	1424
748.471	1271
748.583	1152
748.694	926
748.806	586
748.918	684
749.029	1321
749.141	1782
749.252	1441
749.364	1781
749.475	4211
749.587	2058
749.698	472
749.809	1464
749.921	757
750.032	1143
750.144	329
750.255	177
750.366	-141
750.478	1333
750.589	1057
750.700	1405
750.811	1147
750.923	2382
751.034	4970
751.145	3898
751.256	1542
751.367	1036
751.479	858
751.590	994
751.701	936
751.812	688
751.923	934
752.034	687
752.145	582
752.256	1111
752.367	948
752.478	1377
752.589	1408
752.700	1390
752.811	673
752.922	24
753.032	595
753.143	1380
753.254	423
753.365	899
753.476	828
753.586	733
753.697	109
753.808	644
753.919	391
754.029	214
754.140	947
754.251	1304
754.361	1123
754.472	869
754.582	923
754.693	93
754.804	974
754.914	273
755.025	502
755.135	708
755.246	961
755.356	310
755.466	980
755.577	1335
755.687	1094
755.798	440
755.908	1303
756.018	714
756.129	637
756.239	666
756.349	1103
756.460	-67
756.570	1058
756.680	1397
756.790	628
756.900	1368
757.011	-120
757.121	542
757.231	-332
757.341	-150
757.451	726
757.561	-90
757.671	319
757.781	-180
757.891	1113
758.001	-186
758.111	999
758.221	-256
758.331	1271
758.441	1196
758.551	1952
758.661	1641
758.771	52
758.880	502
758.990	749
759.100	838
759.210	780
759.320	2066
759.429	294
759.539	952
759.649	1053
759.758	470
759.868	1729
759.978	1192
760.087	1344
760.197	1704
760.307	960
760.416	1533
760.526	72
760.635	1921
760.745	1506
760.854	507
760.964	1735
761.073	1662
761.182	2563
761.292	1516
761.401	2017
761.511	928
761.620	1205
761.729	955
761.839	-57
761.948	730
762.057	770
762.166	876
762.276	-1212
762.385	1309
762.494	-129
762.603	981
762.712	415
762.822	263
762.931	1201
763.040	-433
763.149	188
763.258	157
763.367	889
763.476	1196
763.585	111
763.694	103
763.803	684
763.912	621
764.021	1246
764.130	370
764.238	874
764.347	261
764.456	310
764.565	881
764.674	1031
764.783	1249
764.891	-252
765.000	863
765.109	269
765.217	282
765.326	1757
765.435	1370
765.543	1736
765.652	1068
765.761	1421
765.869	2090
765.978	3243
766.086	6244
766.195	14969
766.303	48990
766.412	196232
766.520	110406
766.629	9550
766.737	3445
766.846	2469
766.954	1911
767.062	2255
767.171	1233
767.279	1600
767.387	808
767.496	515
767.604	862
767.712	947
767.820	373
767.928	827
768.037	235
768.145	1442
768.253	1352
768.361	390
768.469	1049
768.577	904
768.685	1509
768.793	845
768.901	27
769.009	1015
769.117	773
769.225	938
769.333	1665
769.441	2941
769.549	5730
769.657	14752
769.765	66185
769.873	132137
769.981	19932
770.088	2892
770.196	2324
770.304	2086
770.412	1102
770.519	598
770.627	1101
770.735	992
770.842	557
770.950	531
771.058	607
771.165	807
771.273	607
771.380	2227
771.488	1206
771.595	1010
771.703	946
771.810	1711
771.918	778
772.025	1502
772.133	1536
772.240	1322
772.348	1678
772.455	1466
772.562	857
772.670	893
772.777	1722
772.884	1421
772.991	1081
773.099	1321
773.206	707
773.313	1107
773.420	1415
773.528	863
773.635	1092
773.742	1321
773.849	1205
773.956	882
774.063	1567
774.170	956
774.277	1512
774.384	1319
774.491	1443
774.598	971
774.705	1954
774.812	1465
774.919	1463
775.026	1320
775.133	1404
775.239	1059
775.346	538
775.453	942
775.560	824
775.667	913
775.773	-268
775.880	1243
775.987	641
776.093	1577
776.200	802
776.307	911
776.413	1136
776.520	1164
776.627	1162
776.733	811
776.840	1687
776.946	5808
777.053	12723
777.159	42523
777.266	21632
777.372	32505
777.478	28389
777.585	13799
777.691	2450
777.798	1573
777.904	2175
778.010	2554
778.117	1810
778.223	348
778.329	48
778.435	1610
778.542	693
778.648	137
778.754	221
778.860	477
778.966	1189
779.072	428
779.178	251
779.284	423
779.391	-566
779.497	-79
779.603	2334
779.708	-383
779.815	858
779.920	974
780.026	1677
780.132	1079
780.238	48
780.344	529
780.450	939
780.556	1134
780.661	-170
780.767	595
780.873	767
780.979	1218
781.085	-447
781.190	1023
781.296	694
781.402	200
781.507	-162
781.613	615
781.719	-156
781.824	-513
781.930	1107
782.035	522
782.141	279
782.246	173
782.352	-338
782.457	84
782.563	-140
782.668	361
782.773	410
782.879	315
782.984	1137
783.090	895
783.195	2507
783.300	681
783.405	472
783.511	-13
783.616	-494
783.721	326
783.826	-3
783.932	342
784.037	184
784.142	866
784.247	-12
784.352	927
784.457	-340
784.562	207
784.667	570
784.772	-756
784.877	-181
784.982	262
785.087	-318
785.192	852
785.297	-256
785.402	-60
785.507	-606
785.611	-63
785.716	-241
785.821	357
785.926	-251
786.031	359
786.135	440
786.240	191
786.345	-1554
786.450	48
786.554	0
786.659	-750
786.763	-840
786.868	896
786.973	581
787.077	-259
787.182	-220
787.286	-921
787.391	346
787.495	-590
787.600	60
787.704	-1081
787.809	396
787.913	-768
788.017	553
788.122	66
788.226	374
788.330	-731
788.435	-643
788.539	-243
788.643	-465
788.747	-375
788.852	-211
788.956	-789
789.060	310
789.164	399
789.268	-491
789.372	126
789.476	-566
789.580	-611
789.684	-309
789.788	449
789.892	-49
789.996	350
790.100	28
790.204	151
790.308	22
790.412	-841
790.516	64
790.620	-439
790.724	907
790.828	512
790.931	-1166
791.035	1291
791.139	-366
791.242	-709
791.346	423
791.450	-221
791.554	144
791.657	-503
791.761	419
791.864	-73
791.968	285
792.072	-20
792.175	44
792.279	-524
792.382	493
792.486	-171
792.589	-478
792.693	-292
792.796	-1075
792.899	754
793.003	854
793.106	-1179
793.209	-1055
793.313	607
793.416	-1646
793.519	1680
793.623	1102
793.726	1798
793.829	-159
793.932	39
794.035	-616
794.138	1012
794.242	600
794.345	-96
794.448	907
794.551	258
794.654	2161
794.757	2232
794.860	-166
794.963	140
795.066	366
795.169	1269
795.272	226
795.375	23
795.477	-1313
795.580	386
795.683	-1101
795.786	-700
795.889	-1155
795.991	733
796.094	215
796.197	-1614
796.300	338
796.402	-766
796.505	-751
796.608	-1113
796.710	347
796.813	-733
796.915	-343
797.018	-380
797.120	-308
797.223	-1924
797.326	1128
797.428	-1408
797.530	242
797.633	100
797.735	88
797.838	-395
797.940	-110
798.042	-690
798.145	-739
798.247	503
798.349	-1265
798.452	-482
798.554	-683
798.656	-772
798.758	1519
798.860	-642
798.962	-755
799.065	-727
799.167	-1370
799.269	286
799.371	351
799.473	90
799.575	-1008
799.677	-1089
799.779	1330
799.881	-1029
799.983	420
800.085	328
800.187	-1220
800.289	-777
800.390	-920
800.492	-208
800.594	399
800.696	-1228
800.798	-206
800.899	-518
801.001	-135
801.103	-1208
801.205	-405
801.306	-227
801.408	-854
801.509	-656
801.611	-376
801.713	-729
801.814	-772
801.916	-503
802.017	-1034
802.119	-1326
802.220	-399
802.322	-2927
802.423	851
802.525	-2128
802.626	-914
802.727	-703
802.829	-128
802.930	-1789
803.031	774
803.133	-608
803.234	-335
803.335	-463
803.436	-1613
803.538	-433
803.639	-1084
803.740	170
803.841	-1837
803.942	-146
804.043	-264
804.144	-1374
804.245	-627
804.346	-1073
804.447	-684
804.548	596
804.649	741
804.750	-946
804.851	-1349
804.952	-1393
805.053	-684
805.154	-634
805.255	-19
805.355	-1011
805.456	-1326
805.557	-1922
805.658	-1705
805.758	-205
805.859	-465
805.960	-1092
806.061	-1562
806.161	-803
806.262	-900
806.362	-1100
806.463	-907
806.564	-768
806.664	-492
806.765	-1336
806.865	-302
806.966	-1271
807.066	-589
807.166	-403
807.267	738
807.367	-1862
807.468	508
807.568	-1576
807.668	-420
807.769	-286
807.869	-1556
807.969	-956
808.069	-457
808.170	-708
808.270	-663
808.370	261
808.470	-552
808.570	-539
808.670	-112
808.770	-827
808.870	-694
808.970	-366
809.070	-406
809.170	-1346
809.271	-531
809.370	-944
809.470	-571
809.570	-1560
809.670	-341
809.770	-1339
809.870	-1532
809.970	-763
810.070	-728
810.169	-1107
810.269	-2239
810.369	485
810.469	-503
810.568	-543
810.668	-1468
810.768	-751
810.867	-149
810.967	-1216
811.066	-625
811.166	-1131
811.265	-99
811.365	-1075
811.464	-1359
811.564	-537
811.663	-817
811.763	-2006
811.862	-351
811.962	99
812.061	-1044
812.160	-1135
812.260	-961
812.359	-862
812.458	-1102
812.557	416
812.657	-594
812.756	-307
812.855	-963
812.954	-1153
813.053	-378
813.153	-1005
813.252	-1210
813.351	-543
813.450	-553
813.549	-739
813.648	-1286
813.747	-971
813.846	-632
813.945	-906
814.044	-530
814.143	-819
814.242	-976
814.341	-1493
814.439	-872
814.538	-303
814.637	-503
814.736	-644
814.835	-168
814.933	-1546
815.032	835
815.131	-302
815.229	673
815.328	-161
815.427	-471
815.525	-128
815.624	810
815.722	-1054
815.821	231
815.919	-619
816.018	-587
816.116	653
816.215	-197
816.313	154
816.412	420
816.510	556
816.609	1927
816.707	936
816.805	560
816.904	703
817.002	2083
817.100	1768
817.198	1085
817.296	407
817.395	1267
817.493	2163
817.591	1633
817.689	2974
817.787	3277
817.885	6834
817.983	12627
818.081	28906
818.179	69709
818.277	162573
818.375	115798
818.473	38152
818.571	15865
818.669	10268
818.767	13287
818.865	10003
818.963	9542
819.061	14619
819.158	25825
819.256	59795
819.354	146034
819.452	280463
819.549	146093
819.647	42123
819.745	19350
819.842	12230
819.940	7672
820.038	5890
820.135	3999
820.233	4734
820.330	1945
820.428	855
820.525	2090
820.623	1412
820.720	1724
820.818	1575
820.915	2263
821.012	2795
821.110	1798
821.207	1433
821.304	818
821.402	2844
821.499	6769
821.596	14269
821.693	8046
821.791	1612
821.888	1835
821.985	3356
822.082	2541
822.179	3491
822.276	5627
822.373	2891
822.470	639
822.567	15
822.664	-690
822.761	796
822.858	-1605
822.955	336
823.052	453
823.149	-478
823.246	-167
823.343	-595
823.440	239
823.536	-245
823.633	-312
823.730	-604
823.827	468
823.923	600
824.020	1266
824.117	831
824.213	4785
824.310	2379
824.407	-147
824.503	281
824.600	716
824.696	825
824.793	1381
824.889	64
824.986	-210
825.082	1
825.179	757
825.275	-378
825.371	-901
825.468	481
825.564	-833
825.660	15
825.757	577
825.853	-158
825.949	-691
826.045	-719
826.142	-522
826.238	-892
826.334	539
826.430	-1354
826.526	-326
826.622	-905
826.718	-65
826.814	-859
826.910	-64
827.006	-899
827.102	-1051
827.198	47
827.294	-365
827.390	-745
827.486	304
827.582	-1519
827.678	-981
827.774	177
827.869	-994
827.965	162
828.061	-1134
828.157	-839
828.252	-36
828.348	-1310
828.444	-88
828.539	-1347
828.635	-38
828.731	-159
828.826	-1029
828.922	438
829.017	-1073
829.113	13
829.208	-1296
829.304	-1592
829.399	554
829.495	-547
829.590	-375
829.685	-1291
829.781	-542
829.876	-1502
829.971	-1639
830.066	-1316
830.162	-341
830.257	-1172
830.352	-434
830.447	-281
830.543	-247
830.638	-1070
830.733	638
830.828	-1382
830.923	-498
831.018	-611
831.113	-498
831.208	-1811
831.303	-518
831.398	-576
831.493	-393
831.588	426
831.683	-989
831.778	-1104
831.873	-337
831.967	396
832.062	-1056
832.157	-1331
832.252	185
832.346	-984
832.441	208
832.536	-143
832.631	1703
832.725	-81
832.820	-1441
832.914	-978
833.009	-1292
833.104	-198
833.198	-230
833.293	-1410
833.387	-751
833.482	-161
833.576	-1352
833.670	97
833.765	-949
833.859	-462
833.954	-159
834.048	-312
834.142	-426
834.237	-1527
834.331	-1525
834.425	-931
834.519	-1167
834.613	-463
834.708	-1461
834.802	-848
834.896	-1170
834.990	-840
835.084	-1471
835.178	-1286
835.272	-1200
835.366	-933
835.460	69
835.554	-840
835.648	-814
835.742	-919
835.836	-1656
835.930	-2053
836.024	-334
836.117	-798
836.211	-1110
836.305	-183
836.399	199
836.493	-1394
836.586	-616
836.680	-821
836.774	-1848
836.867	-586
836.961	-1423
837.055	-1552
837.148	-1309
837.242	-627
837.335	-1452
837.429	-89
837.522	-1097
837.616	-1137
837.709	797
837.803	-789
837.896	-696
837.989	-1182
838.083	387
838.176	-145
838.269	-1817
838.363	-72
838.456	-1825
838.549	791
838.642	125
838.735	1207
838.829	-12
838.922	-1571
839.015	-1636
839.108	-2027
839.201	-477
839.294	-401
839.387	-676
839.480	-1847
839.573	-1266
839.666	-648
839.759	-900
839.852	-1439
839.945	-215
840.038	-1312
840.131	-1082
840.223	-670
840.316	59
840.409	-820
840.502	-1556
840.594	-141
840.687	-1867
840.780	-1375
840.873	-559
840.965	-1301
841.058	239
841.150	102
841.243	-890
841.336	208
841.428	-225
841.521	-1811
841.613	-1447
841.706	-837
841.798	-697
841.890	42
841.983	-1493
842.075	-163
842.167	-763
842.260	-552
842.352	-491
842.444	-973
842.537	546
842.629	119
842.721	-461
842.813	-574
842.905	-1342
842.997	-573
843.090	-1176
843.182	54
843.274	-33
843.366	1886
843.458	3489
843.550	1002
843.642	-1109
843.734	-143
843.826	-542
843.918	-1014
844.009	-616
844.101	-977
844.193	-297
844.285	680
844.377	2680
844.469	5055
844.560	10948
844.652	9497
844.744	2650
844.835	-159
844.927	-395
845.019	-931
845.110	-28
845.202	-1409
845.293	-710
845.385	-745
845.476	-1113
845.568	210
845.659	-885
845.751	637
845.842	-1420
845.934	-1260
846.025	-875
846.116	22
846.208	-1099
846.299	-815
846.390	-1119
846.482	-903
846.573	-556
846.664	-998
846.755	37
846.846	26
846.937	-1504
847.029	-754
847.120	-949
847.211	-825
847.302	135
847.393	-1382
847.484	-1286
847.575	-1229
847.666	-1452
847.757	-139
847.847	-690
847.938	-528
848.029	-684
848.120	-1659
848.211	-785
848.302	-1719
848.392	-809
848.483	25
848.574	-1201
848.664	-1224
848.755	-162
848.846	-183
848.936	-728
849.027	202
849.118	11
849.208	-996
849.299	2217
849.389	4680
849.480	12977
849.570	26813
849.661	54226
849.751	81416
849.841	24237
849.932	1539
850.022	225
850.112	1164
850.203	-315
850.293	148
850.383	-516
850.474	-583
850.564	-120
850.654	-1374
850.744	-811
850.834	-1077
850.924	-256
851.014	-123
851.104	-1042
851.194	-887
851.284	-211
851.374	144
851.464	-703
851.554	-277
851.644	98
851.734	-596
851.824	-396
851.914	-1036
852.004	-337
852.094	-1044
852.183	-668
852.273	230
852.363	-1404
852.452	-1195
852.542	-276
852.632	-523
852.721	-752
852.811	-804
852.901	-686
852.990	-279
853.080	323
853.169	72
853.259	542
853.348	861
853.438	2916
853.527	4863
853.617	8508
853.706	18114
853.795	34937
853.885	79241
853.974	148163
854.063	284129
854.152	384142
854.242	127070
854.331	22706
854.420	8742
854.509	5496
854.598	4070
854.687	2253
854.777	1581
854.866	1671
854.955	818
855.044	257
855.133	569
855.222	521
855.311	-373
855.400	-342
855.488	-794
855.577	-539
855.666	33
855.755	752
855.844	-506
855.933	-479
856.021	-447
856.110	-309
856.199	-1206
856.288	-1277
856.376	-739
856.465	-1144
856.554	-409
856.642	-1289
856.731	410
856.819	-157
856.908	-358
856.996	-1096
857.085	-937
857.173	-1089
857.262	-771
857.350	-555
857.438	-360
857.527	-442
857.615	-1120
857.703	-192
857.792	-1808
857.880	-1476
857.968	-1696
858.056	-573
858.145	-974
858.233	-898
858.321	-851
858.409	60
858.497	-893
858.585	-1532
858.673	-1089
858.761	-1386
858.849	-1012
858.937	-960
859.025	-623
859.113	139
859.201	-546
859.289	1434
859.377	936
859.465	-341
859.552	-708
859.640	-1102
859.728	-823
859.816	-1446
859.903	-219
859.991	-1613
860.079	-639
860.166	-1318
860.254	-673
860.342	-1320
860.429	-944
860.517	-1609
860.604	-322
860.692	-757
860.779	-65
860.867	-1093
860.954	-1464
861.042	-827
861.129	397
861.216	-339
861.304	-1964
861.391	-583
861.478	-827
861.565	-356
861.653	-425
861.740	-1688
861.827	-1026
861.914	-318
862.001	-650
862.089	-1125
862.176	-1351
862.263	-967
862.350	-757
862.437	-760
862.524	-851
862.611	-689
862.698	1107
862.785	2929
862.871	4018
862.958	724
863.045	-325
863.132	-749
863.219	-1300
863.306	-1520
863.392	145
863.479	-990
863.566	-1047
863.652	-917
863.739	-995
863.826	-1245
863.912	-1163
863.999	-1873
864.086	-910
864.172	-897
864.259	-787
864.345	-355
864.432	-1057
864.518	-324
864.604	-1048
864.691	-1718
864.777	72
864.863	99
864.950	-3
865.036	335
865.122	1719
865.209	1547
865.295	2511
865.381	3378
865.467	4230
865.553	5896
865.639	9806
865.726	19424
865.812	40323
865.898	76740
865.984	115070
866.070	224536
866.156	203623
866.242	48441
866.328	9785
866.414	4653
866.499	3370
866.585	2635
866.671	1355
866.757	1565
866.843	1876
866.928	1621
867.014	557
867.100	624
867.186	661
867.271	1191
867.357	658
867.442	979
867.528	1105
867.614	1654
867.699	3386
867.785	5104
867.870	9617
867.956	14075
868.041	7506
868.127	4677
868.212	6504
868.297	6676
868.383	2988
868.468	3672
868.553	4307
868.639	2365
868.724	4870
868.809	2084
868.894	643
868.979	-412
869.065	-383
869.150	-780
869.235	175
869.320	-22
869.405	-199
869.490	-170
869.575	-694
869.660	-381
869.745	-360
869.830	-925
869.915	-351
870.000	-76
870.085	358
870.169	2092
870.254	2188
870.339	72
870.424	-572
870.509	21
870.593	-207
870.678	173
870.763	-395
870.847	664
870.932	2
871.016	2553
871.101	2214
871.186	909
871.270	-14
871.355	-749
871.439	331
871.523	18
871.608	945
871.692	955
871.777	2581
871.861	1468
871.945	-766
872.030	97
872.114	-455
872.198	-658
872.282	-729
872.367	-873
872.451	-954
872.535	-789
872.619	-191
872.703	-537
872.787	-356
872.871	222
872.955	-153
873.039	-509
873.123	-860
873.207	-357
873.291	-1277
873.375	-1254
873.459	-39
873.543	-592
873.627	-972
873.711	-827
873.794	-286
873.878	-376
873.962	-496
874.045	-648
874.129	-607
874.137	-553
874.213	-12
874.245	-213
874.296	-534
874.352	-950
874.380	-1159
874.460	-639
874.464	-619
874.547	-734
874.568	-669
874.631	-497
874.676	-75
874.714	277
874.784	-221
874.798	-316
874.881	681
874.892	534
874.965	-472
874.999	-350
875.048	-215
875.107	-359
875.131	-419
875.215	-392
875.215	-392
875.298	-843
875.323	-883
875.381	-969
875.430	-317
875.465	153
875.538	-296
875.548	-364
875.631	-1626
875.646	-1626
875.714	-1587
875.753	-1003
875.798	-374
875.861	-835
875.881	-992
875.964	-457
875.968	-487
876.047	-744
876.076	-576
876.130	-494
876.183	-679
876.213	-657
876.291	739
876.296	817
876.379	-730
876.398	-814
876.462	-1096
876.506	-714
876.545	-302
876.613	-213
876.628	-187
876.711	-891
876.721	-789
876.794	-53
876.828	-237
876.877	-632
876.935	-554
876.960	-408
877.043	162
877.043	160
877.125	-460
877.150	-257
877.208	360
877.258	283
877.291	223
877.365	319
877.374	318
877.456	-393
877.472	-250
877.539	474
877.579	384
877.622	253
877.687	231
877.704	214
877.787	-307
877.794	-233
877.869	578
877.901	457
877.952	282
878.008	119
878.034	60
878.115	-11
878.117	-10
878.199	-345
878.222	-161
878.282	336
878.329	373
878.364	417
878.437	541
878.447	522
878.529	-388
878.544	-360
878.611	81
878.651	112
878.694	200
878.758	204
878.776	132
878.858	539
878.865	491
878.941	-98
878.972	-71
879.023	176
879.078	283
879.105	414
879.185	1040
879.187	1051
879.269	593
879.292	624
879.351	598
879.399	564
879.433	529
879.506	464
879.516	486
879.598	231
879.613	339
879.680	806
879.720	987
879.762	1116
879.827	768
879.844	725
879.926	586
879.933	685
880.007	1505
880.040	1501
880.089	1869
880.147	2874
880.171	3404
880.253	6019
880.254	6028
880.335	9603
880.360	10818
880.417	18204
880.467	27281
880.499	33538
880.574	42045
880.580	40634
880.662	15469
880.680	10875
880.744	4873
880.787	2136
880.825	1714
880.893	1155
880.907	1100
880.989	917
881.000	853
881.070	1055
881.106	1224
881.152	1087
881.213	664
881.233	588
881.315	334
881.319	346
881.396	823
881.426	593
881.478	358
881.532	939
881.559	1046
881.639	960
881.641	964
881.722	671
881.745	622
881.803	992
881.852	1278
881.885	1105
881.958	322
881.966	307
882.047	988
882.064	986
882.129	1060
882.171	1336
882.210	2006
882.277	3042
882.291	3019
882.372	2255
882.383	2197
882.454	1613
882.489	1278
882.535	1109
882.596	952
882.616	917
882.697	239
882.702	234
882.778	709
882.808	846
882.859	612
882.914	236
882.940	381
883.020	452
883.021	458
883.102	945
883.127	950
883.183	925
883.233	1120
883.264	974
883.339	339
883.345	318
883.426	-47
883.445	-2
883.507	727
883.551	882
883.587	949
883.657	1060
883.668	1093
883.749	1419
883.763	1477
883.830	1047
883.869	697
883.910	468
883.975	458
883.991	582
884.072	682
884.081	722
884.152	1284
884.187	1361
884.233	1398
884.292	1644
884.314	1544
884.394	1014
884.398	984
884.475	799
884.504	694
884.555	909
884.610	1110
884.636	1104
884.716	1244
884.716	1256
884.797	1379
884.821	1532
884.877	1295
884.927	922
884.958	1000
885.033	1258
885.038	1258
885.118	903
885.139	865
885.199	865
885.244	708
885.279	620
885.350	838
885.359	993
885.439	1936
885.456	2123
885.520	1529
885.561	1294
885.600	1192
885.667	644
885.680	769
885.760	1509
885.773	1653
885.840	942
885.878	392
885.920	706
885.984	1357
886.000	1460
886.080	1794
886.089	1838
886.160	1407
886.195	1077
886.240	1177
886.300	1346
886.320	1389
886.400	1570
886.406	1577
886.480	1638
886.511	1657
886.560	2310
886.616	2891
886.640	2865
886.720	2753
886.722	2736
886.800	1015
886.827	404
886.879	785
886.932	1245
886.959	1458
887.038	2012
887.039	2022
887.119	1831
887.143	1787
887.198	1559
887.248	1326
887.278	1485
887.354	1759
887.358	1782
887.437	2076
887.459	2172
887.517	1986
887.564	1745
887.596	1740
887.669	1795
887.676	1765
887.755	1091
887.774	959
887.835	1203
887.880	1364
887.914	1459
887.985	1601
887.994	1630
888.073	1795
888.090	1813
888.153	2130
888.195	2327
888.232	2076
888.300	1649
888.311	1664
888.391	1651
888.405	1634
888.470	1130
888.510	834
888.549	1157
888.615	1654
888.628	1651
888.708	1559
888.720	1544
888.787	2018
888.825	2223
888.866	1933
888.930	1557
888.945	1656
889.024	2057
889.035	2103
889.103	2057
889.140	2017
889.182	2090
889.245	2172
889.261	2152
889.340	2015
889.349	1990
889.419	2049
889.454	2058
889.498	1902
889.559	1681
889.577	1702
889.656	1760
889.664	1761
889.735	1954
889.768	2037
889.814	2279
889.873	2583
889.978	1747
890.083	2204
890.187	1584
890.292	2146
890.397	1755
890.501	1844
890.606	2185
890.710	1609
890.815	2255
890.919	1918
891.024	3056
891.128	3615
891.233	2134
891.337	2106
891.442	2209
891.546	1624
891.650	1286
891.755	903
891.859	3093
891.963	2397
892.068	1683
892.172	1665
892.276	1657
892.380	2092
892.484	2830
892.589	4215
892.693	3996
892.797	1440
892.901	1354
893.005	1520
893.109	2786
893.213	2463
893.317	2108
893.421	1116
893.525	2059
893.629	1256
893.733	2447
893.837	1948
893.941	1393
894.045	2324
894.148	1638
894.252	1617
894.356	2327
894.460	3004
894.564	1545
894.667	767
894.771	1904
894.875	902
894.978	1585
895.082	1948
895.186	1988
895.289	1818
895.393	1647
895.496	2577
895.600	891
895.703	1606
895.807	1323
895.910	1698
896.014	1322
896.117	1639
896.221	1804
896.324	1689
896.427	2029
896.531	986
896.634	884
896.737	988
896.840	1223
896.944	2462
897.047	2243
897.150	1125
897.253	1619
897.356	1310
897.460	1145
897.563	1293
897.666	1932
897.769	2475
897.872	1052
897.975	1367
898.078	1897
898.181	1417
898.284	1203
898.387	1722
898.490	1295
898.593	1325
898.695	923
898.798	1328
898.901	1880
899.004	1893
899.107	1028
899.209	1878
899.312	1754
899.415	1096
899.518	1508
899.620	1575
899.723	3075
899.826	4234
899.928	4331
900.031	1704
900.133	1980
900.236	1285
900.338	819
900.441	865
900.543	877
900.646	1761
900.748	1585
900.851	2224
900.953	1778
901.055	2175
901.158	1862
901.260	1658
901.362	1219
901.465	598
901.567	1814
901.669	3306
901.771	2143
901.873	1179
901.976	1690
902.078	1834
902.180	1513
902.282	1405
902.384	1243
902.486	2334
902.588	1504
902.690	1457
902.792	949
902.894	1472
902.996	2321
903.098	1701
903.200	1244
903.302	2022
903.404	1423
903.505	1228
903.607	2139
903.709	1990
903.811	2053
903.913	1381
904.014	1068
904.116	1135
904.218	1853
904.319	2133
904.421	1705
904.523	1457
904.624	1486
904.726	1623
904.827	1940
904.929	1318
905.030	1054
905.132	1750
905.233	2609
905.335	1002
905.436	479
905.537	865
905.639	1543
905.740	1126
905.841	2240
905.943	1431
906.044	1190
906.145	1164
906.247	553
906.348	344
906.449	787
906.550	1457
906.651	463
906.752	1274
906.854	772
906.955	1556
907.056	974
907.157	2448
907.258	1300
907.359	1090
907.460	560
907.561	1154
907.662	1608
907.762	1786
907.863	1564
907.964	2299
908.065	1656
908.166	1022
908.267	1303
908.367	1366
908.468	1147
908.569	1576
908.670	2296
908.770	2766
908.871	2920
908.971	2043
909.072	1316
909.173	1293
909.273	1499
909.374	1452
909.474	1275
909.575	1448
909.675	1153
909.776	2294
909.876	1641
909.977	1854
910.077	2747
910.177	1553
910.278	1623
910.378	1390
910.478	1271
910.579	2500
910.679	1408
910.779	1513
910.879	1479
910.980	985
911.080	1679
911.180	1317
911.280	1309
911.380	1221
911.480	1929
911.580	1474
911.680	1811
911.780	2465
911.880	1816
911.980	925
912.080	1616
912.180	1821
912.280	1974
912.380	790
912.480	1206
912.580	735
912.679	719
912.779	1895
912.879	2033
912.979	1476
913.078	548
913.178	341
913.278	1467
913.377	1494
913.477	1301
913.577	968
913.676	1685
913.776	1883
913.875	795
913.975	1136
914.074	1209
914.174	1348
914.273	510
914.373	2157
914.472	1400
914.572	820
914.671	1004
914.770	1509
914.870	1566
914.969	1295
915.068	1099
915.167	1073
915.267	718
915.366	1730
915.465	796
915.564	1656
915.663	1573
915.763	925
915.862	1650
915.961	1274
916.060	2044
916.159	1243
916.258	829
916.357	1517
916.456	2841
916.555	1782
916.654	1627
916.752	1938
916.851	1114
916.950	1937
917.049	887
917.148	651
917.247	607
917.345	845
917.444	1330
917.543	1021
917.642	1232
917.740	1536
917.839	1706
917.937	1977
918.036	1717
918.135	1261
918.233	1378
918.332	537
918.430	582
918.529	1083
918.627	1623
918.726	1981
918.824	1907
918.923	1531
919.021	1759
919.119	1292
919.218	1132
919.316	1659
919.414	851
919.512	1508
919.611	1226
919.709	1294
919.807	2008
919.905	1832
920.003	2444
920.102	2099
920.200	1190
920.298	2819
920.396	1618
920.494	1118
920.592	1796
920.690	1455
920.788	1513
920.886	1507
920.984	1873
921.082	1440
921.180	2353
921.277	2143
921.375	3258
921.473	3076
921.571	3028
921.669	2408
921.766	1644
921.864	3231
921.962	2611
922.060	2474
922.157	2591
922.255	2059
922.352	2369
922.450	3321
922.548	2772
922.645	2752
922.743	4052
922.840	6627
922.938	6012
923.035	5549
923.133	5741
923.230	6461
923.327	7745
923.425	7350
923.522	6045
923.619	6159
923.717	5084
923.814	5812
923.911	5539
924.008	6933
924.106	5232
924.203	5680
924.300	6067
924.397	6938
924.494	6654
924.591	6062
924.688	6036
924.786	6239
924.883	5608
924.979	6413
925.077	5683
925.173	5899
925.270	6377
925.367	6229
925.464	6877
925.561	7845
925.658	8617
925.755	7860
925.852	8049
925.948	6701
926.045	7847
926.142	6893
926.239	6325
926.335	5561
926.432	5981
926.529	6908
926.625	6833
926.722	5155
926.818	5435
926.915	5747
927.011	5163
927.108	5217
927.204	5399
927.301	4293
927.397	5899
927.494	5582
927.590	3645
927.687	4894
927.783	5473
927.879	5739
927.976	4303
928.072	5062
928.168	5354
928.264	4362
928.361	3941
928.457	5076
928.553	4009
928.649	4799
928.745	5711
928.841	4002
928.937	4956
929.033	4816
929.129	4901
929.225	5548
929.321	4481
929.417	4288
929.513	5561
929.609	3545
929.705	4513
929.801	5133
929.897	3726
929.993	4580
930.089	4050
930.184	3697
930.280	4346
930.376	5411
930.471	3798
930.567	4064
930.663	4728
930.758	4072
930.854	4296
930.950	3195
931.045	3510
931.141	3853
931.236	5620
931.332	3880
931.427	3676
931.523	4643
931.618	4748
931.714	3576
931.809	3832
931.905	5092
932.000	2372
932.095	3577
932.191	5396
932.286	4909
932.381	3843
932.476	3033
932.572	3860
932.667	2848
932.762	2950
932.857	3700
932.952	3851
933.047	3831
933.142	3225
933.237	3915
933.332	4228
933.427	4444
933.522	3280
933.617	2471
933.712	2897
933.807	5292
933.902	4408
933.997	4918
934.092	3389
934.187	3585
934.282	3461
934.376	3419
934.471	4487
934.566	3373
934.661	2934
934.755	3795
934.850	4318
934.945	3786
935.039	3676
935.134	2499
935.228	3762
935.323	5614
935.417	2534
935.512	2239
935.606	2550
935.701	3673
935.795	3854
935.890	3742
935.984	2544
936.079	2913
936.173	3634
936.267	2555
936.362	1998
936.456	4306
936.550	4649
936.644	3152
936.738	2830
936.833	2158
936.927	3150
937.021	3066
937.115	2964
937.209	3387
937.303	4067
937.397	2434
937.491	3134
937.585	3461
937.679	2339
937.773	2803
937.867	2128
937.961	2642
938.055	4056
938.149	2821
938.243	2315
938.337	2867
938.430	2854
938.524	3428
938.618	2707
938.712	3646
938.805	3541
938.899	4107
938.993	3753
939.086	2050
939.180	2645
939.274	4393
939.367	4380
939.461	3542
939.554	2814
939.648	2768
939.741	2166
939.835	3697
939.928	3454
940.022	2955
940.115	2410
940.208	3993
940.302	4508
940.395	3827
940.488	1810
940.582	3539
940.675	1921
940.768	3422
940.861	3778
940.954	3940
941.048	3282
941.141	3351
941.234	3969
941.327	6390
941.420	7479
941.513	5221
941.606	3236
941.699	4094
941.792	3941
941.885	3231
941.978	3479
942.071	2881
942.164	1966
942.257	1983
942.349	3420
942.442	2995
942.535	1972
942.628	2651
942.721	3053
942.813	2320
942.906	3688
942.999	2827
943.091	2807
943.184	2675
943.277	2218
943.369	2382
943.462	1609
943.554	3066
943.647	2359
943.739	3509
943.832	2643
943.924	1353
944.017	1904
944.109	1920
944.201	2806
944.294	2262
944.386	2804
944.478	2281
944.571	2150
944.663	2581
944.755	2619
944.847	2578
944.940	2808
945.032	1560
945.124	2318
945.216	3139
945.308	2062
945.400	2287
945.492	2251
945.584	2876
945.676	2032
945.768	2164
945.860	3050
945.952	2160
946.044	2732
946.136	2187
946.228	2194
946.320	1876
946.412	2361
946.503	3489
946.595	2773
946.687	1455
946.779	1813
946.870	1714
946.962	970
947.054	2141
947.145	2541
947.237	1909
947.329	1513
947.420	1333
947.512	2449
947.603	1362
947.695	2088
947.786	1537
947.878	1589
947.969	2346
948.061	2293
948.152	1891
948.243	1295
948.335	2018
948.426	1239
948.517	1779
948.609	2326
948.700	2062
948.791	979
948.882	1605
948.973	144
949.065	1700
949.156	1960
949.247	2051
949.338	2189
949.429	340
949.520	1235
949.611	1015
949.702	1684
949.793	1214
949.884	1768
949.975	1314
950.066	537
950.157	1078
950.247	1206
950.338	493
950.429	1559
950.520	2328
950.611	1259
950.701	1959
950.792	3033
950.883	2461
950.973	1377
951.064	2087
951.155	1978
951.245	2345
951.336	1750
951.427	1202
951.517	2493
951.608	2250
951.698	1731
951.788	1605
951.879	-130
951.969	1050
952.060	1232
952.150	1080
952.240	2769
952.331	712
952.421	3400
952.511	972
952.602	1931
952.692	1462
952.782	1674
952.872	1420
952.962	977
953.052	2230
953.143	172
953.233	1802
953.323	1342
953.413	1570
953.503	705
953.593	552
953.683	1242
953.773	1550
953.863	365
953.953	1761
954.042	2000
954.132	2248
954.222	1780
954.312	1464
954.402	1129
954.492	2147
954.581	3420
954.671	1194
954.761	315
954.850	2265
954.940	470
955.030	1694
955.119	1189
955.209	963
955.298	1883
955.388	1572
955.477	806
955.567	422
955.656	1459
955.746	1627
955.835	736
955.925	383
956.014	1101
956.103	1443
956.193	1820
956.282	1580
956.371	750
956.461	515
956.550	1237
956.639	783
956.728	777
956.817	801
956.906	1203
956.995	983
957.085	755
957.174	719
957.263	1072
957.352	777
957.441	1008
957.530	1425
957.619	922
957.708	605
957.796	641
957.885	1140
957.974	1005
958.063	1367
958.152	-334
958.241	745
958.329	68
958.418	977
958.507	802
958.596	2213
958.684	673
958.773	1022
958.861	323
958.950	580
959.039	733
959.127	646
959.216	1086
959.304	112
959.393	410
959.481	1043
959.570	1674
959.658	183
959.746	149
959.835	1898
959.923	2117
960.011	892
960.100	743
960.188	938
960.276	714
960.365	65
960.453	1432
960.541	447
960.629	379
960.717	-222
960.805	171
960.893	785
960.981	376
961.069	1805
961.158	1185
961.245	1401
961.333	783
961.421	87
961.509	473
961.597	1175
961.685	877
961.773	56
961.861	219
961.949	917
962.036	16
962.124	799
962.212	835
962.299	1318
962.387	675
962.475	17
962.562	59
962.650	1258
962.738	1227
962.825	174
962.913	693
963.000	326
963.088	1371
963.175	387
963.263	1001
963.350	520
963.438	1001
963.525	1092
963.612	3239
963.700	5431
963.787	12649
963.874	4514
963.962	1571
964.049	1030
964.136	813
964.223	-264
964.310	805
964.398	956
964.485	258
964.572	1047
964.659	1895
964.746	655
964.833	586
964.920	857
965.007	440
965.094	448
965.181	80
965.268	21
965.355	1025
965.441	677
965.528	-792
965.615	1896
965.702	480
965.789	607
965.875	-57
965.962	625
966.049	-410
966.136	1523
966.222	818
966.309	2455
966.395	2045
966.482	1152
966.569	140
966.655	939
966.742	498
966.828	288
966.915	76
967.001	630
967.087	-618
967.174	391
967.260	1148
967.347	2127
967.433	4188
967.519	8889
967.605	3922
967.692	-347
967.778	732
967.864	-595
967.950	170
968.036	-428
968.123	238
968.209	59
968.295	-329
968.381	1470
968.467	832
968.553	-40
968.639	923
968.725	874
968.811	4248
968.897	2786
968.983	239
969.069	81
969.154	375
969.240	489
969.326	-254
969.412	241
969.497	312
969.583	-225
969.669	808
969.755	511
969.840	592
969.926	1858
970.012	2530
970.097	5033
970.183	2960
970.268	604
970.354	736
970.439	1803
970.525	4718
970.610	618
970.696	885
970.781	299
970.866	-670
970.952	549
971.037	82
971.122	76
971.208	114
971.293	-420
971.378	-838
971.463	-337
971.549	54
971.634	345
971.719	944
971.804	706
971.889	1500
971.974	-379
972.059	-103
972.144	-84
972.229	-224
972.314	-211
972.399	937
972.484	292
972.569	1111
972.654	-249
972.739	2677
972.824	1854
972.908	-738
972.993	278
973.078	284
973.163	-530
973.247	1013
973.332	-1083
973.417	1691
973.501	445
973.586	64
973.671	994
973.755	490
973.840	1009
973.924	1032
974.009	1528
974.093	570
974.178	2458
974.262	1696
974.346	2996
974.431	515
974.515	144
974.600	304
974.684	567
974.768	346
974.852	933
974.937	331
975.021	1006
975.105	164
975.189	-227
975.273	1146
975.358	218
975.442	-746
975.526	671
975.610	-944
975.694	-403
975.778	1023
975.862	-112
975.946	-1690
976.030	586
976.114	-899
976.198	24
976.281	60
976.365	834
976.449	263
976.533	976
976.617	-377
976.700	-75
976.784	999
976.868	648
976.951	1884
977.035	504
977.119	331
977.202	512
977.286	688
977.369	93
977.453	1491
977.536	803
977.620	137
977.703	600
977.787	-406
977.870	1039
977.953	1078
978.037	-734
978.120	1361
978.203	1523
978.287	2684
978.370	620
978.453	306
978.536	180
978.620	2104
978.703	1167
978.786	1164
978.869	49
978.952	-526
979.035	1936
979.118	465
979.201	-244
979.284	356
979.367	-331
979.450	541
979.533	-391
979.616	386
979.699	-224
979.782	1435
979.865	474
979.948	259
980.030	89
980.113	-415
980.196	-327
980.279	768
980.361	226
980.444	349
980.526	897
980.609	1507
980.692	1087
980.774	1188
980.857	-362
980.939	1613
981.022	402
981.104	1069
981.187	66
981.269	1942
981.352	371
981.434	162
981.516	221
981.599	653
981.681	350
981.763	424
981.846	1404
981.928	-148
982.010	142
982.092	-66
982.174	1323
982.256	199
982.339	207
982.421	-346
982.503	498
982.585	442
982.667	639
982.749	405
982.831	194
982.913	-692
982.995	393
983.077	-907
983.158	1530
983.240	-557
983.322	785
983.404	1981
983.486	468
983.568	1444
983.649	347
983.731	409
983.813	788
983.894	1545
983.976	163
984.058	246
984.139	1263
984.221	28
984.302	997
984.384	410
984.465	-443
984.547	1230
984.628	-80
984.710	940
984.791	870
984.872	192
984.954	578
985.035	817
985.116	544
985.198	-306
985.279	1783
985.360	-366
985.441	240
985.522	1400
985.604	590
985.685	-331
985.766	998
985.847	1017
985.928	-92
986.009	866
986.090	253
986.171	314
986.252	67
986.333	1048
986.414	522
986.495	686
986.576	1264
986.656	645
986.737	1320
986.818	634
986.899	-16
986.980	1349
987.060	1448
987.141	553
987.222	1074
987.302	1200
987.383	908
987.464	478
987.544	1256
987.625	1032
987.705	895
987.786	417
987.866	1106
987.947	-225
988.027	1223
988.108	328
988.188	1204
988.268	1270
988.349	1020
988.429	858
988.509	1678
988.589	339
988.670	-1075
988.750	2776
988.830	992
988.910	1158
988.990	247
989.070	1151
989.151	1223
989.231	813
989.311	674
989.391	791
989.471	471
989.551	780
989.631	1014
989.711	1749
989.791	-22
989.870	-107
989.950	921
990.030	-124
990.110	436
990.190	577
990.269	364
990.349	474
990.429	1455
990.509	1149
990.588	243
990.668	254
990.747	-105
990.827	1072
990.907	1357
990.986	1037
991.066	811
991.145	369
991.225	1108
991.304	871
991.383	1643
991.463	693
991.542	320
991.622	-258
991.701	622
991.780	135
991.859	303
991.939	421
992.018	84
992.097	-113
992.176	802
992.256	-270
992.335	-867
992.414	118
992.493	-420
992.572	-236
992.651	1575
992.730	521
992.809	-105
992.888	63
992.967	725
993.046	635
993.125	-530
993.203	578
993.282	449
993.361	370
993.440	931
993.519	-722
993.597	337
993.676	-902
993.755	1291
993.834	657
993.912	-863
993.991	1917
994.069	-160
994.148	-73
994.226	-926
994.305	988
994.384	-503
994.462	1294
994.540	-1127
994.619	119
994.697	1276
994.776	189
994.854	-81
994.932	-92
995.011	1098
995.089	-491
995.167	-43
995.245	700
995.324	-437
995.402	748
995.480	3
995.558	241
995.636	-465
995.714	-653
995.792	1191
995.870	-1425
995.948	367
996.026	115
996.104	-842
996.182	1219
996.260	-441
996.338	-43
996.416	-730
996.494	87
996.572	126
996.649	-535
996.727	-1085
996.805	499
996.883	-457
996.960	-207
997.038	624
997.116	-90
997.193	-503
997.271	903
997.348	-975
997.426	567
997.504	-410
997.581	655
997.658	452
997.736	-673
997.813	-1199
997.891	709
997.968	-638
998.046	164
998.123	249
998.200	195
998.277	-219
998.355	-106
998.432	-1654
998.509	-118
998.586	222
998.663	5
998.741	371
998.818	590
998.895	-822
998.972	-230
999.049	207
999.126	-1489
999.203	-5
999.280	-195
999.357	-419
999.434	-272
999.511	-392
999.587	-754
999.664	-163
999.741	86
999.818	98
999.895	-880
999.971	-915
1000.048	-344
1000.125	711
1000.202	-736
1000.278	-348
1000.355	78
1000.431	-691
1000.508	-1099
1000.584	-583
1000.661	268
1000.738	-195
1000.814	-576
1000.890	571
1000.967	-253
1001.043	304
1001.120	-938
1001.196	-221
1001.272	-1046
1001.349	-159
1001.425	203
1001.501	-1004
1001.577	-802
1001.654	-279
1001.730	-663
1001.806	-675
1001.882	-1904
1001.958	-102
1002.034	-366
1002.110	-477
1002.186	-704
1002.262	-333
1002.338	-614
1002.414	-624
1002.490	-178
1002.566	-1227
1002.642	-1253
1002.718	800
1002.794	-1170
1002.870	366
1002.945	-737
1003.021	-745
1003.097	-731
1003.173	-330
1003.248	-928
1003.324	-966
1003.400	-1054
1003.475	-365
1003.551	-774
1003.626	-1039
1003.702	-1246
1003.777	-729
1003.853	-1059
1003.928	-791
1004.004	-1112
1004.079	196
1004.155	-616
1004.230	-1457
1004.305	96
1004.381	-722
1004.456	-1124
1004.531	-1237
1004.607	-384
1004.682	-755
1004.757	-310
1004.832	-1359
1004.907	-784
1004.982	-751
1005.057	-233
1005.133	-41
1005.208	-607
1005.283	-1243
1005.358	-612
1005.433	-1097
1005.508	-135
1005.583	-1399
1005.657	-1076
1005.732	-375
1005.807	-992
1005.882	-955
1005.957	-621
1006.032	-1294
1006.106	-144
1006.181	-491
1006.256	-431
1006.331	-1471
1006.405	-1538
1006.480	-123
1006.554	-516
1006.629	-195
1006.704	-1301
1006.778	-589
1006.853	-687
1006.927	-1242
1007.002	-516
1007.076	-636
1007.150	-1077
1007.225	-1435
1007.299	-1108
1007.373	-1940
1007.448	-1280
1007.522	-355
1007.596	-311
1007.671	-2186
1007.745	-244
1007.819	-766
1007.893	-860
1007.967	-701
1008.041	-1752
1008.115	-768
1008.190	-1050
1008.264	-181
1008.338	-1743
1008.412	-1375
1008.486	-1237
1008.560	-1533
1008.633	-1494
1008.707	-617
1008.781	-350
1008.855	-595
1008.929	-825
1009.003	-2059
1009.076	-1684
1009.150	-1125
1009.224	-446
1009.298	-1340
1009.371	-1870
1009.445	-839
1009.519	-1131
1009.592	-1277
1009.666	-699
1009.739	168
1009.813	-2482
1009.886	-441
1009.960	-1252
1010.033	-713
1010.107	-1097
1010.180	-1212
1010.253	-1162
1010.327	-1996
1010.400	-1186
1010.473	-769
1010.547	-795
1010.620	-937
1010.693	-1746
1010.766	-1804
1010.840	-498
1010.913	-974
1010.986	-2162
1011.059	-1111
1011.132	-1670
1011.205	-531
1011.278	-1433
1011.351	-1173
1011.424	-1514
1011.497	-1530
1011.570	-1385
1011.643	-1025
1011.716	-1679
1011.789	-764
1011.862	-962
1011.934	-313
1012.007	-1475
1012.080	-443
1012.153	-794
1012.225	-471
1012.298	-1748
1012.371	-1417
1012.443	-1418
1012.516	-1908
1012.588	-895
1012.661	-849
1012.733	-1975
1012.806	-707
1012.879	-1971
1012.951	-1093
1013.023	-1578
1013.096	-1695
1013.168	-2275
1013.241	-1107
1013.313	-1036
1013.385	-1349
1013.458	-1214
1013.530	-930
1013.602	-2084
1013.674	-757
1013.746	-1370
1013.819	-1106
1013.891	-972
1013.963	-1903
1014.035	-800
1014.107	-758
1014.179	-1421
1014.251	-1119
1014.323	-686
1014.395	-1588
1014.467	-883
1014.539	-1178
1014.611	-1592
1014.683	-618
1014.754	-837
1014.826	-1179
1014.898	-816
1014.970	-2258
1015.042	-644
1015.113	-1698
1015.185	-1070
1015.257	-1521
1015.328	-789
1015.400	-2198
1015.471	-1704
1015.543	-1485
1015.615	-1467
1015.686	-1576
1015.757	-1549
1015.829	-727
1015.901	-1357
1015.972	-2015
1016.043	-1117
1016.115	-1890
1016.186	-2451
1016.257	-1657
1016.328	-810
1016.400	-499
1016.471	-1423
1016.542	-1565
1016.613	-1418
1016.685	-1582
1016.756	-1429
1016.827	-1453
1016.898	-2242
1016.969	-1608
1017.040	-2082
1017.111	-1282
1017.182	-1308
1017.253	-1054
1017.324	-1783
1017.395	-1412
1017.466	-1510
1017.537	-1948
1017.608	-1595
1017.678	-1149
1017.749	-2035
1017.820	-1290
1017.891	-1755
1017.961	-1694
1018.032	-1553
1018.103	-897
1018.173	-1216
1018.244	-1709
1018.315	-1941
1018.385	-1729
1018.456	-1403
1018.526	-1891
1018.597	-1260
1018.667	-2000
1018.738	-1557
1018.808	-1398
1018.878	-2228
1018.949	-1116
1019.019	-1471
1019.089	-1169
1019.160	-1106
1019.230	-1997
1019.300	-1612
1019.371	-2505
1019.441	-1267
1019.511	-1677
1019.581	-1412
1019.651	-1240
1019.721	-1337
1019.791	-1004
1019.861	-903
1019.931	-1891
1020.001	-2005
1020.071	-1354
1020.141	-2092
1020.211	-1329
1020.281	-1893
1020.351	-1244
1020.421	-967
1020.491	-569
1020.560	-2146
1020.630	-693
1020.700	-1073
1020.770	-1374
1020.839	-1166
1020.909	-1511
1020.979	-1561
1021.048	-1771
1021.118	-2034
1021.187	-1001
1021.257	-1547
1021.326	-880
1021.396	-1184
1021.465	-1402
1021.535	-1918
1021.604	-1627
1021.674	-1304
1021.743	-1348
1021.812	-1842
1021.882	-1514
1021.951	-1919
1022.020	-820
1022.089	-1043
1022.159	-2522
1022.228	-1743
1022.297	-1410
1022.366	-1628
1022.435	-1814
1022.504	-1684
1022.573	-1967
1022.642	-1608
1022.711	-1646
1022.781	-1933
1022.849	-1740
1022.918	-1766
1022.987	-1383
1023.056	-1153
1023.125	-1109
1023.194	-1867
1023.263	-1106
1023.331	-1608
1023.400	-1732
1023.469	-1562
1023.538	-1776
1023.606	-1368
1023.675	-1635
1023.744	-2324
1023.812	-2367
1023.881	-1247
1023.949	-2057
1024.018	-1269
1024.086	-1935
1024.155	-1741
1024.223	-1686
1024.292	-1069
1024.360	-1156
1024.429	-1329
1024.497	-2766
1024.565	-954
1024.634	-1045
1024.702	-1813
1024.770	-2043
1024.838	-1902
1024.907	-1073
1024.975	-1545
1025.043	-1854
1025.111	-2003
1025.179	-1301
1025.247	-1855
1025.315	-1335
1025.383	-1725
1025.451	-1713
1025.519	-1409
1025.587	-2892
1025.655	-1137
1025.723	-1183
1025.791	-1445
1025.859	-2577
1025.927	-1150
1025.995	-2099
1026.062	-1163
1026.130	-1478
1026.198	-1288
1026.266	-2775
1026.333	-1510
1026.401	-1256
1026.469	-1097
1026.536	-1746
1026.604	-1669
1026.671	-2306
1026.739	-1036
1026.806	-2514
1026.874	-1709
1026.941	-1742
1027.009	-2361
1027.076	-2057
1027.144	-1097
1027.211	-2486
1027.278	-2394
1027.345	-2096
1027.413	-1722
1027.480	-1842
1027.547	-1737
1027.614	-1994
1027.682	-1606
1027.749	-1064
1027.816	-2117
1027.883	-1840
1027.950	-1747
1028.017	-1556
1028.084	-1550
1028.151	-1795
1028.218	-1715
1028.285	-2307
1028.352	-2046
1028.419	-2372
1028.486	-1496
1028.553	-1948
1028.619	-2270
1028.686	-1171
1028.753	-1786
1028.820	-2527
1028.886	-2017
1028.953	-1634
1029.020	-1842
1029.086	-2020
1029.153	-2413
1029.220	-1931
1029.286	-1960
1029.353	-1610
1029.419	-1912
1029.486	-1795
1029.552	-1443
1029.619	-1346
1029.685	-1192
1029.751	-2211
1029.818	-966
1029.884	-2205
1029.951	-864
1030.017	-1880
1030.083	-2343
1030.149	-2253
1030.216	-2367
1030.282	-2175
1030.348	-1321
1030.414	-2972
1030.480	-1732
1030.546	-1797
1030.612	-1616
1030.678	-1673
1030.744	-2569
1030.810	-2201
1030.876	-1680
1030.942	-2075
1031.008	-1578
1031.074	-1482
1031.140	-2648
1031.206	-1566
1031.272	-2063
1031.337	-2131
1031.403	-1260
1031.469	-2354
1031.534	-2043
1031.600	-1933
1031.666	-2114
1031.731	-2554
1031.797	-1213
1031.863	-1629
1031.928	-2220
1031.994	-2032
1032.059	-2099
1032.125	-2083
1032.190	-2217
1032.256	-1997
1032.321	-1856
1032.386	-1830
1032.452	-1030
1032.517	-1828
1032.582	-2530
1032.647	-2054
1032.713	-1928
1032.778	-1873
1032.843	-1881
1032.908	-2095
1032.974	-1433
1033.039	-1875
1033.104	-1563
1033.169	-1481
1033.234	-865
1033.299	-953
1033.364	-723
1033.429	-365
1033.494	-1579
1033.559	-2241
1033.624	-1958
1033.688	-1826
1033.753	-1454
1033.818	-2103
1033.883	-1636
1033.948	-596
1034.013	-1239
1034.077	554
1034.142	-179
1034.207	1535
1034.271	3820
1034.336	5147
1034.400	3323
1034.465	2112
1034.530	1017
1034.594	-658
1034.658	-963
1034.723	-2174
1034.787	-1435
1034.852	-2002
1034.916	-2471
1034.981	-2374
1035.045	-2716
1035.109	-1887
1035.173	-1922
1035.238	-2533
1035.302	-2111
1035.366	-1244
1035.430	-2241
1035.495	-2302
1035.559	-1560
1035.623	-2102
1035.687	-2133
1035.751	-2400
1035.815	-2273
1035.879	-1840
1035.943	-1879
1036.007	-1827
1036.071	-2178
1036.135	-1707
1036.198	-1762
1036.262	-1731
1036.326	-1376
1036.390	-1237
1036.454	-697
1036.517	128
1036.581	485
1036.645	1993
1036.709	1955
1036.772	-1516
1036.836	-2439
1036.900	-1681
1036.963	-1843
1037.026	-1743
1037.090	-1700
1037.154	-2178
1037.217	-1982
1037.280	-2437
1037.344	-1086
1037.407	-2436
1037.471	-1583
1037.534	-1918
1037.597	-1806
1037.661	-2017
1037.724	-1966
1037.787	-2181
1037.850	-1937
1037.913	-1768
1037.977	-2149
1038.040	-1912
1038.103	-2376
1038.166	-2053
1038.229	-1547
1038.292	-1592
1038.355	-1980
1038.418	-2322
1038.481	-2694
1038.544	-1719
1038.607	-1978
1038.670	-2445
1038.732	-1901
1038.795	-1840
1038.858	-2067
1038.921	-1236
1038.984	-1539
1039.046	-1592
1039.109	-2187
1039.172	-2517
1039.234	-2281
1039.297	-2140
1039.360	-2177
1039.422	-2509
1039.485	-1819
1039.547	-2728
1039.610	-1764
1039.672	-2920
1039.734	-2004
1039.797	-2277
1039.859	-2081
1039.922	-1937
1039.984	-2051
1040.046	-2289
1040.109	-1621
1040.171	-2162
1040.233	-2451
1040.295	-2513
1040.358	-2550
1040.420	-2361
1040.482	-1516
1040.544	-2444
1040.606	-1774
1040.668	-2415
1040.730	-2007
1040.792	-2324
1040.854	-2260
1040.916	-2135
1040.978	-2312
1041.040	-1309
1041.102	-1839
1041.164	-1441
1041.225	-1996
1041.287	-2005
1041.349	-2835
1041.411	-1866
1041.472	-1221
1041.534	-1957
1041.596	-3083
1041.657	-1190
1041.719	-1919
1041.781	-1676
1041.842	-1922
1041.904	-2040
1041.965	-1804
1042.027	-1853
1042.088	-2192
1042.150	-1940
1042.211	-1964
1042.272	-2188
1042.334	-2553
1042.395	-2167
1042.456	-2403
1042.518	-1623
1042.579	-2168
1042.640	-1932
1042.701	-2275
1042.763	-2518
1042.824	-2581
1042.885	-2238
1042.946	-2210
1043.007	-1235
1043.068	-2313
1043.129	-1209
1043.190	-2077
1043.251	-1373
1043.312	-1039
1043.373	-2175
1043.434	-2705
1043.495	-1854
1043.556	-2432
1043.616	-2078
1043.677	-2550
1043.738	-2297
1043.799	-2092
1043.859	-2368
1043.920	-2048
1043.981	-2037
1044.041	-1891
1044.102	-2138
1044.162	-1604
1044.223	-2431
1044.284	-2191
1044.344	-1804
1044.405	-2184
1044.465	-2071
1044.525	-2123
1044.586	-1646
1044.646	-1877
1044.707	-1728
1044.767	-2045
1044.827	-1747
1044.887	-1804
1044.948	-1035
1045.008	-1769
1045.068	-2373
1045.128	-1703
1045.188	-1954
1045.249	-480
1045.309	-1805
1045.369	-1364
1045.429	-2010
1045.489	-1584
1045.549	-2476
1045.609	-2258
1045.669	-1308
1045.729	-2038
1045.789	-1794
1045.848	-2132
1045.908	-1766
1045.968	-1669
1046.028	-1039
1046.088	-1448
1046.147	-1356
1046.207	-1891
1046.267	-1830
1046.326	-1763
1046.386	-671
1046.446	-937
1046.505	-1369
1046.565	-122
1046.624	-1060
1046.684	-819
1046.743	-578
1046.803	-1448
1046.862	-370
1046.922	0
