'Start Wavelength	183.907
'End Wavelength	1046.922
'Gate Delay	5.000
'Gate Width (ms)	1.050
'Laser Output Level	0.000
'X Position	0.000
'Y Position	0.000
'Z Position	0.000
'Grid Point Number	1.000
'Shot Number	100.000
183.907	85.000
183.977	-142.000
184.047	60
184.116	856
184.186	306
184.256	-482
184.325	-229
184.395	-952
184.465	1157
184.534	424
184.604	-450
184.674	-110
184.743	-314
184.813	-58
184.883	-594
184.952	729
185.022	-78
185.092	374
185.161	389
185.231	-259
185.301	28
185.370	474
185.440	-638
185.509	34
185.579	-472
185.649	-255
185.718	87
185.788	-48
185.857	36
185.927	-518
185.996	-768
186.066	-261
186.136	-413
186.205	-449
186.275	-435
186.344	290
186.414	271
186.483	-203
186.553	413
186.622	48
186.692	-415
186.761	-163
186.831	1
186.900	153
186.970	-192
187.039	42
187.109	165
187.178	575
187.248	-300
187.317	462
187.387	-206
187.456	21
187.526	-67
187.595	175
187.664	88
187.734	-53
187.803	117
187.873	651
187.942	441
188.012	830
188.081	-278
188.150	225
188.220	449
188.289	874
188.358	200
188.428	872
188.497	-216
188.567	623
188.636	209
188.705	-357
188.775	-737
188.844	-131
188.913	-26
188.983	707
189.052	778
189.121	-119
189.191	58
189.260	786
189.329	319
189.399	175
189.468	113
189.537	-179
189.606	-132
189.676	-496
189.745	622
189.814	746
189.883	-616
189.953	431
190.022	887
190.091	2123
190.161	2728
190.230	853
190.299	-277
190.368	222
190.437	-228
190.507	-330
190.576	1208
190.645	537
190.714	-690
190.783	248
190.853	437
190.922	515
190.991	-224
191.060	302
191.129	0
191.198	411
191.268	-196
191.337	154
191.406	443
191.475	3
191.544	-1244
191.613	-105
191.682	176
191.752	668
191.821	-765
191.890	174
191.959	162
192.028	-907
192.097	237
192.166	919
192.235	-217
192.304	222
192.373	153
192.442	-93
192.511	-121
192.580	-63
192.650	438
192.719	487
192.788	-123
192.857	144
192.926	241
192.995	267
193.064	89
193.133	338
193.202	-480
193.271	1156
193.340	511
193.409	730
193.478	43
193.547	896
193.615	1366
193.684	1817
193.753	927
193.822	1051
193.891	-55
193.960	1166
194.029	-54
194.098	68
194.167	-598
194.236	896
194.305	731
194.374	-400
194.443	997
194.512	260
194.580	146
194.649	649
194.718	192
194.787	1105
194.856	132
194.925	176
194.994	-2
195.062	121
195.131	489
195.200	384
195.269	168
195.338	751
195.407	141
195.475	357
195.544	230
195.613	175
195.682	139
195.751	268
195.819	-46
195.888	872
195.957	1472
196.026	-55
196.094	979
196.163	218
196.232	85
196.301	339
196.369	282
196.438	220
196.507	-54
196.576	-55
196.644	-270
196.713	158
196.782	-190
196.850	390
196.919	238
196.988	431
197.056	-346
197.125	532
197.194	1043
197.262	452
197.331	-40
197.400	533
197.468	827
197.537	-167
197.606	-28
197.674	622
197.743	2575
197.812	498
197.880	2663
197.949	1089
198.017	1746
198.086	1581
198.155	47
198.223	890
198.292	3106
198.360	720
198.429	-213
198.497	735
198.566	1799
198.635	2978
198.703	559
198.772	1404
198.840	3363
198.909	3396
198.977	482
199.046	277
199.114	-122
199.183	711
199.251	99
199.320	-314
199.388	16
199.457	218
199.525	889
199.594	10
199.662	427
199.731	162
199.799	732
199.867	533
199.936	106
200.004	949
200.073	680
200.141	661
200.210	443
200.278	275
200.346	502
200.415	317
200.483	593
200.552	206
200.620	181
200.688	511
200.757	193
200.825	708
200.893	1000
200.962	427
201.030	352
201.098	514
201.167	838
201.235	429
201.303	377
201.372	526
201.440	519
201.508	-47
201.577	112
201.645	405
201.713	475
201.781	-63
201.850	710
201.918	1488
201.986	153
202.055	1524
202.123	-295
202.191	252
202.259	430
202.327	801
202.396	258
202.464	714
202.532	399
202.600	1342
202.669	748
202.737	843
202.805	424
202.873	750
202.941	-569
203.009	396
203.078	345
203.146	1184
203.214	69
203.282	715
203.350	836
203.418	-41
203.487	-265
203.555	544
203.623	642
203.691	-101
203.759	399
203.827	402
203.895	177
203.963	782
204.031	681
204.099	-66
204.168	261
204.236	244
204.304	1057
204.372	396
204.440	325
204.508	464
204.576	190
204.644	383
204.712	388
204.780	882
204.848	699
204.916	24
204.984	1015
205.052	1232
205.120	360
205.188	626
205.256	-86
205.324	612
205.392	369
205.460	1167
205.528	1052
205.596	539
205.664	32
205.732	613
205.799	3422
205.867	5147
205.935	108
206.003	1545
206.071	95
206.139	460
206.207	645
206.275	766
206.343	793
206.411	702
206.478	668
206.546	1171
206.614	803
206.682	451
206.750	-595
206.818	970
206.885	902
206.953	609
207.021	1455
207.089	1096
207.157	108
207.225	617
207.292	1180
207.360	833
207.428	578
207.496	923
207.563	703
207.631	1066
207.699	-213
207.767	789
207.834	406
207.902	917
207.970	539
208.038	768
208.105	608
208.173	1163
208.241	1079
208.309	985
208.376	1454
208.444	2024
208.512	866
208.579	110
208.647	972
208.715	506
208.782	229
208.850	601
208.918	712
208.985	1287
209.053	847
209.120	782
209.188	505
209.256	414
209.323	853
209.391	1490
209.459	1983
209.526	780
209.594	790
209.661	854
209.729	1226
209.796	1141
209.864	256
209.932	-493
209.999	1170
210.067	432
210.134	1611
210.202	324
210.269	2116
210.337	1319
210.404	859
210.472	1048
210.539	1633
210.607	1290
210.674	705
210.742	1103
210.809	848
210.877	567
210.944	1520
211.012	205
211.079	1951
211.146	1025
211.214	1075
211.281	1111
211.349	1449
211.416	2211
211.484	1462
211.551	1020
211.618	875
211.686	1316
211.753	951
211.821	1152
211.888	1550
211.955	862
212.023	1431
212.090	699
212.157	1556
212.225	930
212.292	3419
212.359	7018
212.427	19674
212.494	7227
212.561	1837
212.629	1679
212.696	1373
212.763	1344
212.831	997
212.898	1850
212.965	444
213.032	1201
213.100	1733
213.167	1408
213.234	1116
213.301	1981
213.369	699
213.436	1261
213.503	860
213.570	1569
213.638	1487
213.705	703
213.772	475
213.839	1732
213.906	1887
213.973	1194
214.041	348
214.108	1551
214.175	903
214.242	767
214.309	763
214.376	1937
214.444	741
214.511	1686
214.578	1232
214.645	1464
214.712	1398
214.779	936
214.846	936
214.913	2003
214.980	1938
215.048	1810
215.115	2357
215.182	1783
215.249	883
215.316	575
215.383	1895
215.450	1215
215.517	783
215.584	744
215.651	1114
215.718	1215
215.785	1263
215.852	1036
215.919	793
215.986	1895
216.053	670
216.120	1299
216.187	1701
216.254	1690
216.321	1175
216.388	1277
216.455	1575
216.522	1728
216.589	1039
216.656	3159
216.722	3700
216.789	1314
216.856	2685
216.923	1690
216.990	1797
217.057	2289
217.124	2148
217.191	1184
217.258	2400
217.324	3464
217.391	4283
217.458	2472
217.525	1863
217.592	2410
217.659	1149
217.725	2554
217.792	2793
217.859	2592
217.926	1128
217.993	1333
218.059	1085
218.126	1366
218.193	1331
218.260	1443
218.327	763
218.393	1140
218.460	1068
218.527	1148
218.594	1355
218.660	2299
218.727	2880
218.794	620
218.860	2350
218.927	1290
218.994	1406
219.061	515
219.127	1540
219.194	3005
219.261	904
219.327	501
219.394	1141
219.461	616
219.527	1776
219.594	2998
219.661	1521
219.727	714
219.794	1082
219.860	273
219.927	1216
219.994	2477
220.060	2928
220.127	1765
220.193	1627
220.260	1417
220.326	2694
220.393	3986
220.460	5961
220.526	3711
220.593	1735
220.659	3817
220.726	2990
220.792	8457
220.859	5849
220.925	6180
220.992	10774
221.058	11597
221.125	11528
221.191	8906
221.258	2373
221.324	2846
221.391	1601
221.457	1613
221.524	1514
221.590	2309
221.657	11037
221.723	7155
221.789	7806
221.856	6375
221.922	2953
221.989	2059
222.055	1058
222.121	770
222.188	2590
222.254	1554
222.321	1747
222.387	830
222.453	1232
222.520	1750
222.586	1047
222.652	1630
222.719	671
222.785	1448
222.851	658
222.918	1468
222.984	1033
223.050	1176
223.116	239
223.183	2175
223.249	832
223.315	846
223.382	631
223.448	619
223.514	4
223.580	1173
223.647	412
223.713	134
223.779	1442
223.845	668
223.911	863
223.978	139
224.044	754
224.110	1226
224.176	814
224.242	1873
224.309	-75
224.375	435
224.441	326
224.507	1320
224.573	12
224.639	860
224.705	99
224.772	1371
224.838	211
224.904	1831
224.970	953
225.036	876
225.102	564
225.168	1918
225.234	500
225.300	1698
225.366	786
225.432	1747
225.499	531
225.565	983
225.631	606
225.697	1183
225.763	2146
225.829	1097
225.895	2348
225.961	3569
226.027	2462
226.093	1794
226.159	2922
226.225	3315
226.291	8246
226.357	16330
226.423	7017
226.489	3961
226.554	2498
226.620	2545
226.686	2877
226.752	4330
226.818	7247
226.884	20947
226.950	17968
227.016	5961
227.082	3110
227.148	2128
227.214	2102
227.279	1925
227.345	2652
227.411	2447
227.477	1764
227.543	1602
227.609	1762
227.674	2469
227.740	1415
227.806	1806
227.872	1935
227.938	2425
228.003	2199
228.069	1164
228.135	447
228.201	950
228.267	931
228.332	1494
228.398	77
228.464	1318
228.530	754
228.595	748
228.661	218
228.727	1985
228.792	1435
228.858	381
228.924	216
228.990	2260
229.055	206
229.121	1953
229.187	1324
229.252	604
229.318	-83
229.384	1052
229.449	1474
229.515	265
229.581	453
229.646	2655
229.712	1180
229.777	2985
229.843	3338
229.909	2499
229.974	2195
230.040	2415
230.105	2065
230.171	1259
230.236	3726
230.302	6065
230.368	3440
230.433	2355
230.499	2286
230.564	3187
230.630	1219
230.695	1548
230.761	1849
230.826	744
230.892	1999
230.957	1324
231.023	930
231.088	1229
231.154	1444
231.219	1558
231.284	1282
231.350	1805
231.415	119
231.481	1021
231.546	825
231.612	1368
231.677	1060
231.742	522
231.808	1236
231.873	611
231.939	-568
232.004	2619
232.069	2931
232.135	126
232.200	557
232.265	1373
232.331	200
232.396	1179
232.461	395
232.527	298
232.592	1045
232.657	1364
232.723	2028
232.788	1301
232.853	1286
232.918	973
232.984	-141
233.049	703
233.114	938
233.179	1059
233.245	3835
233.310	3323
233.375	503
233.440	1687
233.506	1061
233.571	482
233.636	1239
233.701	1200
233.766	1919
233.832	2428
233.897	473
233.962	12
234.027	1179
234.092	1177
234.157	313
234.222	794
234.288	1807
234.353	7847
234.418	5545
234.483	3231
234.548	2778
234.613	1568
234.678	2541
234.743	1463
234.808	7061
234.873	4334
234.938	3559
235.004	1889
235.069	1929
235.134	1191
235.199	1586
235.264	1723
235.329	112
235.394	1629
235.459	2804
235.524	812
235.589	2382
235.654	1477
235.719	-129
235.784	2338
235.849	2424
235.913	4102
235.978	3614
236.043	4409
236.108	1713
236.173	1631
236.238	1898
236.303	647
236.368	1313
236.433	3164
236.498	4600
236.563	3094
236.627	6858
236.692	27306
236.757	18468
236.822	7087
236.887	3712
236.952	4356
237.017	2432
237.081	4617
237.146	4182
237.211	9268
237.276	26210
237.341	44475
237.405	16101
237.470	6155
237.535	4436
237.600	3315
237.664	3108
237.729	1230
237.794	2385
237.859	7668
237.923	3842
237.988	2957
238.053	3921
238.118	2964
238.182	10971
238.247	10659
238.312	3461
238.376	3054
238.441	1208
238.506	3277
238.570	-55
238.635	2512
238.700	1146
238.764	1829
238.829	4540
238.893	4785
238.958	2462
239.023	1688
239.087	1102
239.152	1882
239.216	809
239.281	2286
239.346	1681
239.410	1770
239.475	1260
239.539	9704
239.604	6961
239.668	2426
239.733	1408
239.797	1769
239.862	2246
239.926	6206
239.991	3558
240.055	2262
240.120	1232
240.184	1468
240.249	1491
240.313	1485
240.378	1878
240.442	5238
240.507	9336
240.571	3150
240.635	4170
240.700	4714
240.764	1116
240.829	1739
240.893	579
240.957	1747
241.022	5150
241.086	9354
241.151	3095
241.215	640
241.279	2333
241.344	3504
241.408	2610
241.472	2008
241.537	2201
241.601	2586
241.665	1294
241.730	605
241.794	2817
241.858	1967
241.922	1496
241.987	2666
242.051	1893
242.115	1734
242.179	2133
242.244	1259
242.308	1866
242.372	2453
242.436	2232
242.501	2399
242.565	1763
242.629	1430
242.693	1238
242.757	939
242.822	3009
242.886	2015
242.950	2928
243.014	1290
243.078	1931
243.142	2626
243.206	1694
243.271	1989
243.335	2480
243.399	4849
243.463	19463
243.527	52366
243.591	13678
243.655	6118
243.719	1855
243.783	3860
243.847	5792
243.911	7787
243.975	4981
244.040	2426
244.104	3492
244.168	2624
244.232	1896
244.296	4763
244.360	6540
244.424	2807
244.488	3217
244.552	2048
244.615	-207
244.679	1792
244.743	1949
244.807	1483
244.871	1743
244.935	2268
244.999	654
245.063	1739
245.127	2292
245.191	4662
245.255	3931
245.319	2514
245.383	734
245.446	2854
245.510	498
245.574	1593
245.638	1773
245.702	475
245.766	4331
245.829	2795
245.893	1317
245.957	1196
246.021	3165
246.085	1195
246.149	2122
246.212	6606
246.276	9938
246.340	3409
246.404	1852
246.467	3104
246.531	2753
246.595	3354
246.659	3071
246.722	1492
246.786	2449
246.850	3037
246.913	2989
246.977	577
247.041	1512
247.104	2205
247.168	2739
247.232	5562
247.295	14501
247.359	5907
247.423	2423
247.486	3914
247.550	3437
247.614	2275
247.677	2258
247.741	2871
247.804	1571
247.868	1808
247.932	5509
247.995	13376
248.059	3752
248.122	1161
248.186	4018
248.249	4342
248.313	22170
248.376	20620
248.440	13142
248.503	3686
248.567	4571
248.630	3926
248.694	6023
248.757	10098
248.821	24244
248.884	11757
248.948	10839
249.011	17322
249.075	28461
249.138	22756
249.202	7653
249.265	4734
249.328	7025
249.392	3559
249.455	3537
249.519	3988
249.582	3501
249.645	5638
249.709	4448
249.772	3822
249.835	3843
249.899	4126
249.962	4000
250.025	3368
250.089	9362
250.152	12157
250.215	5247
250.279	4208
250.342	4834
250.405	5616
250.468	3901
250.532	6049
250.595	10246
250.658	50029
250.721	77954
250.785	21400
250.848	10988
250.911	7077
250.974	7243
251.038	7931
251.101	16761
251.164	8801
251.227	8768
251.290	8604
251.354	15023
251.417	72461
251.480	62557
251.543	40267
251.606	132942
251.669	84686
251.732	28152
251.795	25177
251.859	28142
251.922	79585
251.985	38303
252.048	14736
252.111	9444
252.174	7700
252.237	14290
252.300	30665
252.363	39160
252.426	97871
252.489	33809
252.552	16578
252.615	10424
252.678	10359
252.741	25219
252.804	40291
252.867	101462
252.930	44646
252.993	20690
253.056	11581
253.119	9502
253.182	8209
253.245	15751
253.308	10321
253.371	6459
253.434	6552
253.497	7830
253.559	13429
253.622	7213
253.685	7503
253.748	6155
253.811	4271
253.874	5453
253.937	4686
254.000	3734
254.062	7832
254.125	12026
254.188	11125
254.251	7300
254.314	3091
254.376	5822
254.439	6603
254.502	5399
254.565	8049
254.628	14535
254.690	5841
254.753	3313
254.816	2519
254.878	2086
254.941	8976
255.004	8730
255.067	4115
255.129	2319
255.192	1772
255.255	597
255.317	2169
255.380	860
255.443	1481
255.505	735
255.568	1137
255.631	1347
255.693	1023
255.756	910
255.819	2167
255.881	687
255.944	1961
256.006	1109
256.069	1170
256.132	1239
256.194	2554
256.257	6866
256.319	4423
256.382	4288
256.444	2855
256.507	2348
256.569	2452
256.632	2437
256.694	3782
256.757	13629
256.819	37860
256.882	12035
256.944	4819
257.007	4199
257.069	4342
257.132	3810
257.194	2882
257.257	2919
257.319	1943
257.381	2981
257.444	9377
257.506	47855
257.569	45145
257.631	25269
257.693	9926
257.756	4797
257.818	3159
257.880	3112
257.943	3004
258.005	2207
258.067	2516
258.130	1948
258.192	3471
258.254	4030
258.317	2544
258.379	2696
258.441	7871
258.503	7492
258.566	9095
258.628	11922
258.690	2297
258.753	2520
258.815	4102
258.877	2207
258.939	3218
259.001	2473
259.064	2511
259.126	2521
259.188	3548
259.250	2825
259.312	4461
259.375	15175
259.437	6766
259.499	3153
259.561	2882
259.623	3059
259.685	2872
259.747	3366
259.809	9543
259.872	16647
259.934	28999
259.996	24294
260.058	5819
260.120	2104
260.182	2620
260.244	2645
260.306	1994
260.368	2230
260.430	2214
260.492	5876
260.554	14667
260.616	9583
260.678	12294
260.740	17380
260.802	3625
260.864	3513
260.926	1085
260.988	3218
261.050	2959
261.112	8723
261.174	22074
261.236	14726
261.298	3633
261.359	7144
261.421	10450
261.483	1734
261.545	2344
261.607	401
261.669	1258
261.731	4503
261.793	9813
261.854	2365
261.916	3161
261.978	3194
262.040	3206
262.102	2890
262.164	3528
262.225	2526
262.287	2101
262.349	3886
262.411	3436
262.472	2575
262.534	4978
262.596	9096
262.658	3194
262.719	1429
262.781	4230
262.843	8700
262.904	4122
262.966	3418
263.028	5016
263.090	27120
263.151	74128
263.213	18926
263.275	7920
263.336	2954
263.398	3107
263.459	1602
263.521	1404
263.583	4351
263.644	2341
263.706	1611
263.767	382
263.829	953
263.891	800
263.952	451
264.014	325
264.075	3512
264.137	9982
264.198	2969
264.260	823
264.321	1393
264.383	3738
264.444	13413
264.506	3920
264.567	2569
264.629	6118
264.690	12547
264.752	3355
264.813	1309
264.875	1036
264.936	2859
264.998	945
265.059	748
265.120	1625
265.182	2183
265.243	18625
265.305	14798
265.366	3214
265.427	2109
265.489	1989
265.550	-181
265.611	885
265.673	476
265.734	1737
265.795	809
265.857	261
265.918	1092
265.979	5083
266.040	32386
266.102	20658
266.163	5710
266.224	4093
266.286	2205
266.347	408
266.408	731
266.469	1672
266.530	591
266.592	-185
266.653	2188
266.714	2891
266.775	947
266.836	509
266.898	400
266.959	1570
267.020	1210
267.081	1854
267.142	909
267.203	535
267.264	-538
267.326	2182
267.387	64
267.448	606
267.509	458
267.570	821
267.631	526
267.692	446
267.753	437
267.814	283
267.875	1846
267.936	4720
267.997	3799
268.058	1818
268.119	617
268.180	455
268.241	394
268.302	619
268.363	250
268.424	796
268.485	616
268.546	675
268.607	401
268.668	441
268.729	-46
268.790	568
268.851	1277
268.912	2545
268.972	3085
269.033	1334
269.094	165
269.155	1069
269.216	-517
269.277	843
269.338	69
269.398	510
269.459	216
269.520	1222
269.581	1035
269.642	2066
269.702	556
269.763	1296
269.824	656
269.885	1277
269.945	2118
270.006	857
270.067	442
270.128	53
270.188	299
270.249	653
270.310	44
270.370	1163
270.431	633
270.492	796
270.553	292
270.613	2034
270.674	4381
270.734	1865
270.795	476
270.856	1793
270.916	410
270.977	800
271.038	1751
271.098	1943
271.159	1881
271.219	1197
271.280	1289
271.340	1559
271.401	732
271.462	4151
271.522	1895
271.583	1345
271.643	1536
271.704	1610
271.764	1325
271.825	3988
271.885	19078
271.946	26321
272.006	6546
272.066	12243
272.127	22603
272.187	4754
272.248	2804
272.308	3074
272.369	15167
272.429	6727
272.489	3676
272.550	4266
272.610	3721
272.671	2302
272.731	3204
272.791	5322
272.852	1463
272.912	1687
272.972	732
273.033	655
273.093	2355
273.153	2266
273.214	2355
273.274	2110
273.334	10697
273.394	19723
273.455	5045
273.515	6126
273.575	13504
273.635	5177
273.696	7328
273.756	19881
273.816	5593
273.876	3013
273.936	9151
273.997	17058
274.057	3097
274.117	3041
274.177	3580
274.237	24883
274.297	20157
274.358	11770
274.418	14131
274.478	8864
274.538	3241
274.598	2499
274.658	12638
274.718	17048
274.778	4904
274.838	2997
274.898	7062
274.958	23848
275.018	22059
275.078	12411
275.138	3899
275.198	2109
275.258	1511
275.318	1599
275.378	3817
275.438	2530
275.498	2675
275.558	10768
275.618	21809
275.678	10724
275.738	5363
275.798	4819
275.858	3250
275.918	462
275.978	1083
276.038	1567
276.098	950
276.157	2185
276.217	8323
276.277	2822
276.337	1905
276.397	1129
276.457	1380
276.517	1344
276.576	1427
276.636	94
276.696	1417
276.756	4547
276.815	2717
276.875	1289
276.935	2028
276.995	1765
277.055	712
277.114	1024
277.174	1495
277.234	7047
277.293	2277
277.353	1511
277.413	681
277.472	490
277.532	977
277.592	380
277.651	4667
277.711	8216
277.771	2831
277.830	10929
277.890	7777
277.950	7454
278.009	24708
278.069	7696
278.128	6298
278.188	8670
278.248	4370
278.307	8178
278.367	5586
278.426	1816
278.486	1325
278.545	543
278.605	610
278.664	1142
278.724	1327
278.783	6813
278.843	20477
278.902	5079
278.962	2132
279.021	2457
279.081	3454
279.140	3214
279.199	2218
279.259	3289
279.318	3108
279.378	3961
279.437	9109
279.496	45910
279.556	108921
279.615	76404
279.675	16707
279.734	9832
279.793	15946
279.853	37557
279.912	12083
279.971	6377
280.031	5645
280.090	15989
280.149	28510
280.208	13844
280.268	76870
280.327	74002
280.386	14178
280.445	9670
280.505	8124
280.564	4425
280.623	3377
280.682	5027
280.742	6549
280.801	2668
280.860	1437
280.919	2505
280.978	1298
281.037	1689
281.097	1369
281.156	1598
281.215	842
281.274	2349
281.333	12229
281.392	7792
281.451	1730
281.510	1483
281.569	1360
281.628	396
281.688	637
281.747	1982
281.806	1355
281.865	781
281.924	328
281.983	793
282.042	-181
282.101	-267
282.160	259
282.219	462
282.278	1115
282.337	4164
282.396	1975
282.454	1676
282.513	1482
282.572	6678
282.631	3270
282.690	834
282.749	352
282.808	1568
282.867	753
282.926	2118
282.985	957
283.043	528
283.102	240
283.161	1458
283.220	5107
283.279	9384
283.338	2943
283.396	697
283.455	647
283.514	467
283.573	1597
283.631	965
283.690	826
283.749	339
283.808	2045
283.866	2717
283.925	459
283.984	848
284.043	1437
284.101	974
284.160	1140
284.219	4734
284.277	2206
284.336	1641
284.395	9361
284.453	7673
284.512	1448
284.570	2142
284.629	1832
284.688	2268
284.746	1310
284.805	2186
284.863	3023
284.922	3828
284.981	2846
285.039	6046
285.098	10121
285.156	30767
285.215	133671
285.273	115189
285.332	33155
285.390	15141
285.449	9097
285.507	5839
285.566	4231
285.624	2791
285.683	2210
285.741	1665
285.799	1366
285.858	1285
285.916	848
285.975	1012
286.033	1371
286.091	892
286.150	1008
286.208	1262
286.267	2337
286.325	1807
286.383	680
286.442	1793
286.500	424
286.558	1172
286.616	-51
286.675	1174
286.733	1291
286.791	954
286.850	851
286.908	2036
286.966	2352
287.024	1056
287.083	584
287.141	717
287.199	936
287.257	2308
287.315	1615
287.374	1688
287.432	3093
287.490	2935
287.548	1716
287.606	1439
287.664	1407
287.723	3390
287.781	4948
287.839	3348
287.897	3875
287.955	5624
288.013	10700
288.071	22991
288.129	102604
288.187	289217
288.245	112619
288.303	34733
288.361	19347
288.419	14587
288.477	9001
288.535	5828
288.593	4589
288.651	3958
288.709	2394
288.767	2292
288.825	1567
288.883	1816
288.941	1899
288.999	1632
289.057	1464
289.115	1821
289.173	1218
289.231	910
289.289	1207
289.346	1136
289.404	1057
289.462	2575
289.520	1101
289.578	1655
289.636	619
289.694	512
289.751	259
289.809	-325
289.867	327
289.925	845
289.983	467
290.040	-73
290.098	142
290.156	652
290.214	806
290.271	-175
290.329	305
290.387	-724
290.444	-401
290.502	-468
290.560	23
290.617	394
290.675	348
290.733	136
290.790	1182
290.848	364
290.906	987
290.963	721
291.021	519
291.078	796
291.136	196
291.194	5730
291.251	12847
291.309	2618
291.366	514
291.424	-73
291.481	956
291.539	873
291.596	356
291.654	254
291.711	293
291.769	473
291.826	1800
291.884	831
291.941	-241
291.999	653
292.056	339
292.114	288
292.171	-82
292.228	-309
292.286	326
292.343	1969
292.401	1876
292.458	1389
292.515	598
292.573	2080
292.630	967
292.687	910
292.745	679
292.802	2193
292.859	7114
292.917	10208
292.974	5405
293.031	1741
293.089	771
293.146	256
293.203	613
293.260	1141
293.318	5095
293.375	6885
293.432	1388
293.489	744
293.546	433
293.604	2005
293.661	8014
293.718	25741
293.775	10664
293.832	4224
293.889	3863
293.947	9728
294.004	6854
294.061	4058
294.118	5467
294.175	13189
294.232	20717
294.289	6687
294.346	2708
294.403	2511
294.460	1533
294.517	2374
294.574	730
294.631	1088
294.688	1872
294.745	7303
294.802	32713
294.859	35053
294.916	17173
294.973	13442
295.030	5088
295.087	3258
295.144	1789
295.201	1924
295.258	1025
295.315	2845
295.372	9552
295.429	19447
295.486	7866
295.542	3864
295.599	16642
295.656	27012
295.713	14167
295.770	16218
295.827	5972
295.883	3549
295.940	2495
295.997	3889
296.054	3416
296.111	993
296.167	1205
296.224	585
296.281	756
296.338	849
296.394	420
296.451	1608
296.508	6152
296.564	12894
296.621	9163
296.678	23776
296.734	34520
296.791	11514
296.848	5018
296.904	4076
296.961	7114
297.018	18680
297.074	13995
297.131	5418
297.187	3048
297.244	4893
297.301	23566
297.357	43082
297.414	13335
297.470	4389
297.527	3042
297.583	1966
297.640	1662
297.696	1538
297.753	1450
297.809	602
297.866	152
297.922	852
297.979	887
298.035	1369
298.092	1491
298.148	9518
298.204	8959
298.261	4366
298.317	10526
298.374	31494
298.430	16513
298.486	6416
298.543	4703
298.599	3770
298.656	4003
298.712	8267
298.768	29587
298.824	22857
298.881	5494
298.937	3260
298.993	1663
299.050	2160
299.106	1383
299.162	2008
299.218	1362
299.275	501
299.331	1674
299.387	5591
299.443	26081
299.500	23767
299.556	7607
299.612	3919
299.668	2616
299.724	1438
299.780	1910
299.837	1533
299.893	3072
299.949	13756
300.005	14654
300.061	16150
300.117	34796
300.173	15751
300.229	5817
300.285	5078
300.341	5226
300.397	2455
300.453	1975
300.510	1442
300.566	707
300.622	1581
300.678	3537
300.734	9901
300.790	14295
300.845	21958
300.901	10110
300.957	11463
301.013	8592
301.069	3127
301.125	2119
301.181	2022
301.237	1964
301.293	1106
301.349	741
301.405	1343
301.461	892
301.516	1706
301.572	2000
301.628	2638
301.684	2856
301.740	6686
301.796	8515
301.851	6122
301.907	9204
301.963	10872
302.019	24435
302.074	76051
302.130	70816
302.186	29512
302.242	10633
302.297	7017
302.353	5607
302.409	10398
302.464	8430
302.520	7989
302.576	21414
302.631	23239
302.687	10865
302.743	5497
302.798	2544
302.854	1786
302.910	2087
302.965	2816
303.021	4584
303.076	4798
303.132	4269
303.187	4843
303.243	2242
303.299	1779
303.354	1245
303.410	1357
303.465	833
303.521	2703
303.576	1492
303.632	2233
303.687	5554
303.743	24224
303.798	18437
303.853	6605
303.909	3205
303.964	2343
304.020	3386
304.075	4377
304.130	4043
304.186	6946
304.241	8057
304.297	5797
304.352	2736
304.358	2715
304.407	2546
304.449	3621
304.463	3988
304.518	3738
304.539	3433
304.573	2940
304.629	3778
304.630	3820
304.684	5999
304.720	14412
304.739	18548
304.794	27526
304.811	23179
304.850	12934
304.902	5923
304.905	5477
304.960	3704
304.992	3444
305.015	3234
305.071	2503
305.083	2419
305.126	2101
305.173	1089
305.181	935
305.236	728
305.264	1078
305.292	1393
305.347	2218
305.354	2174
305.402	2061
305.445	3007
305.457	3224
305.512	3744
305.535	3429
305.567	3137
305.622	3546
305.626	3724
305.678	8009
305.716	17961
305.733	21395
305.788	23388
305.807	20435
305.843	16251
305.897	23562
305.898	23627
305.953	23312
305.988	15065
306.008	10658
306.063	5158
306.078	4547
306.118	3540
306.168	2654
306.173	2556
306.228	1709
306.259	1870
306.283	2173
306.338	1771
306.349	1959
306.393	2483
306.440	2614
306.448	2706
306.503	3586
306.530	4601
306.558	6895
306.613	18568
306.620	19498
306.668	22443
306.711	21219
306.723	20439
306.778	13439
306.801	10275
306.833	7122
306.888	3884
306.892	3761
306.943	2638
306.982	2292
306.997	2313
307.052	3210
307.072	3598
307.107	4750
307.162	7860
307.163	7913
307.217	14019
307.253	18018
307.272	18707
307.327	19215
307.343	16775
307.381	12016
307.434	8843
307.436	8992
307.491	20189
307.524	29690
307.546	31413
307.600	20362
307.614	17127
307.655	10387
307.704	6079
307.710	6112
307.765	9867
307.795	14265
307.819	17693
307.874	31343
307.885	30873
307.929	22103
307.975	12664
307.984	12193
308.038	13453
308.065	16539
308.093	31949
308.148	71910
308.156	82087
308.202	127399
308.246	147960
308.257	143231
308.312	69403
308.336	43369
308.366	29861
308.421	16986
308.426	16039
308.475	10722
308.517	8397
308.530	7817
308.585	6618
308.607	6107
308.639	6774
308.694	9234
308.697	9560
308.748	24269
308.787	40121
308.803	40163
308.857	26855
308.877	20346
308.912	14544
308.967	11103
308.967	11077
309.021	13157
309.058	15571
309.076	20123
309.130	36217
309.148	43472
309.185	97924
309.238	199103
309.239	199443
309.293	206673
309.328	169105
309.348	140312
309.402	57778
309.418	38857
309.457	24928
309.508	14688
309.511	14324
309.566	11644
309.598	10832
309.620	11251
309.674	13832
309.688	14572
309.729	13534
309.778	10363
309.783	10102
309.837	7550
309.868	6329
309.892	8237
309.946	13996
309.959	15760
310.001	19232
310.049	21865
310.055	21177
310.109	12778
310.139	7798
310.163	6247
310.218	4002
310.229	3680
310.272	3538
310.319	3768
310.326	3768
310.381	4112
310.409	3953
310.435	4088
310.489	4653
310.499	4767
310.543	5302
310.589	5851
310.598	5749
310.652	5340
310.679	4683
310.706	3875
310.760	2693
310.769	2491
310.814	2476
310.859	2585
310.868	2451
310.923	1788
310.948	1461
310.977	2087
311.031	3225
311.038	3408
311.085	3045
311.128	2396
311.139	2480
311.193	3092
311.218	3299
311.247	3029
311.301	2650
311.308	2595
311.356	2601
311.398	2586
311.410	2480
311.464	1962
311.488	1693
311.518	2048
311.572	2737
311.578	2816
311.626	3136
311.668	3365
311.680	3681
311.734	5109
311.758	5727
311.788	5204
311.842	4225
311.847	4116
311.896	6322
311.937	8320
311.950	7905
312.004	5969
312.027	5103
312.058	4252
312.112	2761
312.117	2615
312.165	2533
312.207	2467
312.297	5203
312.386	3843
312.476	4153
312.566	4752
312.656	2973
312.745	2073
312.835	3758
312.925	3323
313.015	4150
313.104	5088
313.194	2600
313.284	1406
313.374	2751
313.463	2767
313.553	2786
313.643	1418
313.732	2525
313.822	1188
313.912	2594
314.001	2349
314.091	3808
314.180	4858
314.270	4517
314.360	5526
314.449	4004
314.539	1348
314.628	2500
314.718	3775
314.808	5320
314.897	2049
314.987	2039
315.076	2239
315.166	4955
315.255	4615
315.345	4391
315.434	4326
315.524	5208
315.613	4480
315.703	3974
315.792	3849
315.881	4526
315.971	3221
316.060	10054
316.150	22141
316.239	23446
316.328	6759
316.418	2788
316.507	1522
316.597	3182
316.686	3640
316.775	11438
316.865	24152
316.954	3686
317.043	2080
317.133	2986
317.222	1733
317.311	2802
317.400	786
317.490	4185
317.579	2086
317.668	1830
317.757	2692
317.847	4424
317.936	6000
318.025	5981
318.114	2388
318.203	3541
318.293	4894
318.382	7611
318.471	5887
318.560	15917
318.649	40989
318.738	5772
318.828	3047
318.917	5236
319.006	8607
319.095	26904
319.184	52994
319.273	18562
319.362	5455
319.451	2972
319.540	3425
319.629	6144
319.718	8122
319.807	6412
319.896	18163
319.985	63613
320.074	14145
320.163	6261
320.252	13798
320.341	9351
320.430	4757
320.519	5665
320.608	3303
320.697	3609
320.786	2249
320.875	3783
320.964	3136
321.053	6447
321.142	7981
321.230	8345
321.319	7520
321.408	19876
321.497	8104
321.586	8445
321.675	21513
321.764	14845
321.852	8740
321.941	10137
322.030	5516
322.119	9522
322.207	22934
322.296	30166
322.385	11359
322.474	9297
322.562	19865
322.651	11308
322.740	10519
322.829	20956
322.917	31688
323.006	10214
323.095	6781
323.183	9325
323.272	10578
323.361	30117
323.449	94880
323.538	26005
323.626	72970
323.715	34857
323.804	16598
323.892	63936
323.981	22472
324.069	9072
324.158	41970
324.246	28380
324.335	5496
324.424	5977
324.512	3068
324.601	3419
324.689	3699
324.778	9947
324.866	20959
324.954	5045
325.043	3446
325.131	13723
325.220	28489
325.308	30142
325.397	20868
325.485	9481
325.574	1982
325.662	2281
325.750	2438
325.839	3512
325.927	2108
326.015	3304
326.104	13037
326.192	15610
326.280	2391
326.369	2853
326.457	2225
326.545	5431
326.634	1521
326.722	2507
326.810	1341
326.898	2172
326.987	1816
327.075	5356
327.163	10457
327.251	4852
327.340	2566
327.428	2558
327.516	1327
327.604	2139
327.692	3000
327.781	6594
327.869	10882
327.957	4692
328.045	2622
328.133	3230
328.221	5340
328.309	3048
328.397	2404
328.485	2418
328.574	2413
328.662	10802
328.750	10813
328.838	5623
328.926	1450
329.014	1337
329.102	2998
329.190	11108
329.278	3953
329.366	1729
329.454	1506
329.542	2087
329.630	365
329.718	1621
329.806	1620
329.893	2818
329.981	1531
330.069	2730
330.157	10767
330.245	30178
330.333	11771
330.421	2900
330.509	3422
330.597	12136
330.684	7476
330.772	4890
330.860	9999
330.948	11350
331.036	3120
331.123	1320
331.211	1339
331.299	3203
331.387	9573
331.475	14804
331.562	4583
331.650	2113
331.738	3608
331.825	6845
331.913	1479
332.001	2436
332.089	3264
332.176	11715
332.264	38400
332.352	19937
332.439	3107
332.527	3301
332.614	4357
332.702	6028
332.790	2304
332.877	15802
332.965	29195
333.052	4611
333.140	4788
333.228	9381
333.315	1972
333.403	4829
333.490	21383
333.578	11926
333.665	4543
333.753	3002
333.840	2045
333.928	4856
334.015	20844
334.103	29878
334.190	81857
334.278	13795
334.365	6439
334.452	3675
334.540	2143
334.627	6177
334.715	6492
334.802	19191
334.889	131856
334.977	95699
335.064	6331
335.151	3294
335.239	3632
335.326	6107
335.413	37933
335.501	41008
335.588	3501
335.675	2615
335.762	4122
335.850	8083
335.937	4913
336.024	25059
336.111	112448
336.199	29281
336.286	3122
336.373	2276
336.460	1203
336.547	2698
336.635	3184
336.722	3192
336.809	2196
336.896	4423
336.983	18507
337.070	49170
337.157	72018
337.245	78854
337.332	45810
337.419	5068
337.506	2567
337.593	3720
337.680	17621
337.767	45814
337.854	9731
337.941	14841
338.028	24584
338.115	5396
338.202	7084
338.289	21740
338.376	75731
338.463	17184
338.550	30497
338.637	26561
338.724	16407
338.811	24169
338.898	3698
338.984	2666
339.071	2686
339.158	3041
339.245	6095
339.332	4988
339.419	17336
339.506	13554
339.593	308
339.679	1067
339.766	1040
339.853	2366
339.940	3759
340.027	1975
340.113	970
340.200	3520
340.287	1746
340.374	1924
340.460	3518
340.547	1146
340.634	2952
340.720	12404
340.807	5360
340.894	1443
340.980	1778
341.067	1371
341.154	1294
341.240	2422
341.327	4262
341.414	2297
341.500	901
341.587	1505
341.674	1491
341.760	3286
341.847	3165
341.933	1483
342.020	-259
342.106	1483
342.193	1068
342.279	3446
342.366	1559
342.452	3064
342.539	1373
342.625	4818
342.712	10737
342.798	4671
342.885	1491
342.971	769
343.058	344
343.144	576
343.230	354
343.317	1915
343.403	370
343.490	733
343.576	341
343.662	385
343.749	1013
343.835	2520
343.921	4630
344.008	44466
344.094	85282
344.180	14423
344.267	4805
344.353	21090
344.439	23274
344.525	6009
344.612	3176
344.698	2508
344.784	1270
344.870	710
344.957	1334
345.043	2361
345.129	1214
345.215	3763
345.301	825
345.387	1357
345.474	795
345.560	1627
345.646	2301
345.732	1711
345.818	1314
345.904	1623
345.990	1875
346.076	4345
346.162	9394
346.249	2362
346.335	226
346.421	1164
346.507	8461
346.593	26034
346.679	3498
346.765	1480
346.851	481
346.937	1087
347.023	1501
347.108	1183
347.194	795
347.280	1413
347.366	1303
347.452	8690
347.538	34359
347.624	24096
347.710	19624
347.796	3578
347.882	1449
347.967	2581
348.053	2776
348.139	2073
348.225	306
348.311	812
348.397	574
348.482	2576
348.568	1739
348.654	559
348.740	-364
348.825	-317
348.911	3474
348.997	18368
349.083	34249
349.168	5128
349.254	1695
349.340	1831
349.425	583
349.511	1399
349.597	1521
349.682	3707
349.768	14850
349.854	7165
349.939	669
350.025	1646
350.110	1436
350.196	1502
350.282	-264
350.367	2116
350.453	5658
350.538	5819
350.624	989
350.709	2966
350.795	894
350.880	588
350.966	1561
351.051	6026
351.137	3542
351.222	1218
351.308	3810
351.393	11304
351.479	1489
351.564	-146
351.649	418
351.735	1054
351.820	-403
351.906	1114
351.991	1772
352.076	8887
352.162	9275
352.247	1420
352.332	1235
352.418	1961
352.503	3180
352.588	16880
352.673	10812
352.759	2541
352.844	540
352.929	1754
353.014	835
353.100	3275
353.185	5749
353.270	4974
353.355	3882
353.441	1688
353.526	2709
353.611	4221
353.696	3288
353.781	2082
353.866	-37
353.952	1430
354.037	2340
354.122	8338
354.207	5979
354.292	2232
354.377	337
354.462	813
354.547	1156
354.632	2969
354.717	4777
354.802	6964
354.887	1495
354.972	1431
355.057	-158
355.142	299
355.227	430
355.312	2111
355.397	4288
355.482	11257
355.567	4707
355.652	5351
355.737	4857
355.822	18462
355.907	11945
355.991	2613
356.076	134
356.161	976
356.246	238
356.331	2048
356.416	4709
356.501	41426
356.585	35129
356.670	2626
356.755	2595
356.840	5122
356.924	32631
357.009	96744
357.094	28644
357.179	4347
357.263	2386
357.348	4485
357.433	3201
357.517	2501
357.602	1193
357.687	1793
357.771	3631
357.856	9442
357.941	5791
358.025	24365
358.110	101468
358.195	39580
358.279	2996
358.364	2760
358.448	11264
358.533	30349
358.617	20464
358.702	21339
358.787	7168
358.871	3547
358.956	2205
359.040	1038
359.125	111
359.209	1633
359.294	3013
359.378	5905
359.462	2285
359.547	3982
359.631	2877
359.716	1225
359.800	695
359.885	3858
359.969	887
360.053	1267
360.138	880
360.222	2174
360.306	3111
360.391	2809
360.475	4841
360.559	10873
360.644	9636
360.728	7907
360.812	23531
360.896	56948
360.981	20377
361.065	9580
361.149	2416
361.233	1992
361.318	311
361.402	2329
361.486	1849
361.570	1584
361.654	1186
361.739	6355
361.823	37849
361.907	56010
361.991	6473
362.075	3785
362.159	5905
362.243	5363
362.327	1724
362.411	4786
362.495	3106
362.580	2504
362.664	297
362.748	-262
362.832	713
362.916	1205
363.000	6257
363.084	34973
363.168	61438
363.252	11365
363.336	3908
363.420	8169
363.503	45916
363.587	50234
363.671	4782
363.755	2610
363.839	3583
363.923	1284
364.007	3148
364.091	6378
364.175	17130
364.258	70769
364.342	28008
364.426	7348
364.510	2412
364.594	6302
364.677	11424
364.761	50172
364.845	31860
364.929	6596
365.013	4764
365.096	4510
365.180	4956
365.264	21587
365.347	74824
365.431	29140
365.515	4496
365.598	416
365.682	2006
365.766	6086
365.849	6663
365.933	2837
366.017	5587
366.100	3551
366.184	473
366.267	2948
366.351	574
366.435	200
366.518	-331
366.602	1172
366.685	729
366.769	1898
366.852	4047
366.936	7186
367.019	1643
367.103	3585
367.186	8645
367.270	2274
367.353	-600
367.436	1706
367.520	-1265
367.603	1314
367.687	1182
367.770	3885
367.853	2574
367.937	13380
368.020	18811
368.104	3491
368.187	2982
368.270	4403
368.353	3118
368.437	18148
368.520	50424
368.603	20355
368.687	13268
368.770	21915
368.853	4328
368.936	6512
369.020	6684
369.103	1641
369.186	328
369.269	811
369.352	2980
369.436	4362
369.519	2773
369.602	-264
369.685	1983
369.768	1380
369.851	1779
369.934	303
370.018	1779
370.101	2510
370.184	4220
370.267	3328
370.350	3106
370.433	7131
370.516	22589
370.599	25379
370.682	3996
370.765	10832
370.848	15844
370.931	30037
371.014	12647
371.097	1341
371.180	1058
371.263	1226
371.346	-1209
371.429	1974
371.511	360
371.594	2143
371.677	5868
371.760	8442
371.843	4784
371.926	38407
372.009	80698
372.091	22557
372.174	15363
372.257	35795
372.340	12676
372.423	10595
372.505	12894
372.588	4681
372.671	9736
372.754	28775
372.836	13898
372.919	20315
373.002	37884
373.085	7815
373.167	4563
373.250	12818
373.332	29707
373.415	54346
373.498	106273
373.580	35242
373.663	47090
373.746	64329
373.828	10861
373.911	5145
373.993	7657
374.076	41145
374.159	37414
374.241	11800
374.324	22660
374.406	16401
374.489	32026
374.571	83541
374.654	28760
374.736	16873
374.819	51288
374.901	79013
374.983	75633
375.066	10722
375.148	4953
375.231	35929
375.313	61786
375.395	18303
375.478	2567
375.560	3028
375.643	2412
375.725	19037
375.807	67585
375.890	71096
375.972	40518
376.054	20177
376.136	40882
376.219	15149
376.301	19699
376.383	49031
376.465	17042
376.548	7057
376.630	12458
376.712	38271
376.794	15507
376.877	2168
376.959	129
377.041	2824
377.123	7855
377.205	8836
377.287	-27
377.369	1192
377.452	578
377.534	820
377.616	486
377.698	746
377.780	-604
377.862	522
377.944	1449
378.026	-147
378.108	153
378.190	793
378.272	572
378.354	298
378.436	-662
378.518	3599
378.600	13153
378.682	9102
378.764	14433
378.846	12163
378.928	2392
379.010	3903
379.091	1648
379.173	1189
379.255	237
379.337	1147
379.419	7627
379.501	22972
379.583	8051
379.664	3008
379.746	4238
379.828	15279
379.910	20184
379.991	17374
380.073	2022
380.155	1815
380.237	658
380.318	501
380.400	458
380.482	3284
380.564	4031
380.645	6494
380.727	4753
380.809	3356
380.890	998
380.972	607
381.053	57
381.135	2169
381.217	4521
381.298	15599
381.380	6665
381.461	9157
381.543	41023
381.624	46554
381.706	6943
381.787	3616
381.869	4738
381.951	24499
382.032	81471
382.113	48303
382.195	4674
382.276	6196
382.358	13421
382.439	36300
382.521	46996
382.602	71853
382.684	29073
382.765	42440
382.846	36050
382.928	31903
383.009	15469
383.090	12848
383.172	50921
383.253	76204
383.334	33969
383.416	54071
383.497	25357
383.578	6771
383.659	12669
383.741	49402
383.822	120296
383.903	59361
383.984	28048
384.066	57635
384.147	31639
384.228	5862
384.309	2933
384.390	2106
384.471	1234
384.553	2054
384.634	3380
384.715	4006
384.796	940
384.877	3100
384.958	13013
385.039	15345
385.120	3700
385.201	3608
385.282	4022
385.363	5382
385.444	2127
385.525	7585
385.606	27258
385.687	24770
385.768	5719
385.849	7885
385.930	39049
386.011	66760
386.092	14529
386.173	3213
386.254	2213
386.335	3803
386.416	1869
386.496	9084
386.577	14933
386.658	7328
386.739	3206
386.820	5563
386.901	3385
386.981	2879
387.062	756
387.143	3192
387.224	13412
387.304	14829
387.385	4667
387.466	2835
387.547	4953
387.627	1635
387.708	6406
387.789	29321
387.869	34963
387.950	9832
388.031	332
388.111	902
388.192	10209
388.273	15547
388.353	5745
388.434	3007
388.514	7817
388.595	37808
388.676	41974
388.756	16523
388.837	12442
388.917	7695
388.998	-442
389.078	2221
389.159	1528
389.239	385
389.320	2441
389.400	1162
389.480	7548
389.561	17848
389.641	8237
389.722	2600
389.802	3320
389.883	9379
389.963	23566
390.043	19209
390.124	6958
390.204	6414
390.284	14795
390.365	12863
390.445	34642
390.525	92374
390.605	68671
390.686	11355
390.766	3236
390.846	2355
390.927	326
391.007	879
391.087	1865
391.167	1862
391.247	1118
391.328	8355
391.408	9732
391.488	6276
391.568	-275
391.648	2006
391.728	2027
391.808	2665
391.888	2466
391.969	9634
392.049	12811
392.129	8621
392.209	8635
392.289	20555
392.369	12345
392.449	14977
392.529	6179
392.609	4668
392.689	5624
392.769	19085
392.849	15615
392.929	15638
393.009	30894
393.089	17380
393.169	8399
393.248	33424
393.328	145089
393.408	145824
393.488	23530
393.568	5274
393.648	2819
393.728	1973
393.807	1727
393.887	3085
393.967	1652
394.047	3910
394.127	4955
394.206	11456
394.286	60657
394.366	247325
394.446	253098
394.525	49380
394.605	9862
394.685	10344
394.764	24286
394.844	39667
394.924	24644
395.003	4946
395.083	2852
395.163	3171
395.242	1571
395.322	3689
395.402	-220
395.481	5159
395.561	16982
395.640	40350
395.720	27988
395.799	48651
395.879	38769
395.958	19618
396.038	88668
396.117	326024
396.197	338809
396.276	88101
396.356	22486
396.435	16882
396.515	7769
396.594	5567
396.673	9363
396.753	41374
396.832	126004
396.912	90719
396.991	17128
397.070	5389
397.150	718
397.229	2500
397.308	1822
397.388	1656
397.467	1372
397.546	1287
397.625	-1242
397.705	3364
397.784	1380
397.863	1089
397.942	386
398.022	2373
398.101	16013
398.180	45519
398.259	21457
398.338	4735
398.417	650
398.497	1495
398.576	1358
398.655	456
398.734	191
398.813	1839
398.892	15982
398.971	50680
399.050	22990
399.129	1698
399.208	-169
399.287	1445
399.366	-1099
399.445	918
399.524	546
399.603	-543
399.682	1645
399.761	14249
399.840	53079
399.919	42195
399.998	3815
400.077	-246
400.156	-700
400.235	3204
400.313	666
400.392	1320
400.471	8309
400.550	12087
400.629	1899
400.708	1761
400.786	2118
400.865	9976
400.944	8498
401.023	4089
401.102	-1314
401.180	691
401.259	592
401.338	1886
401.416	1266
401.495	1597
401.574	1539
401.652	336
401.731	2585
401.810	1309
401.888	128
401.967	475
402.046	47
402.124	2930
402.203	1716
402.281	2165
402.360	2620
402.438	12148
402.517	6468
402.596	3297
402.674	2524
402.753	1015
402.831	851
402.910	3373
402.988	12742
403.066	40318
403.145	22676
403.223	14647
403.302	32160
403.380	26996
403.459	23467
403.537	9552
403.615	2557
403.694	-774
403.772	701
403.850	620
403.929	-454
404.007	28
404.085	4631
404.164	4912
404.242	1212
404.320	5701
404.398	15625
404.477	21977
404.555	52613
404.633	47341
404.711	12790
404.789	6941
404.868	1530
404.946	511
405.024	-141
405.102	-214
405.180	-131
405.258	-806
405.336	264
405.415	597
405.493	2860
405.571	4447
405.649	47
405.727	217
405.805	1796
405.883	2450
405.961	1363
406.039	3364
406.117	-50
406.195	1741
406.273	10919
406.351	39396
406.429	24378
406.507	3740
406.585	458
406.663	993
406.740	-141
406.818	352
406.896	-811
406.974	961
407.052	2353
407.130	22562
407.208	28647
407.285	6793
407.363	-1177
407.441	413
407.519	-650
407.596	1131
407.674	2787
407.752	9476
407.830	12103
407.907	8038
407.985	1230
408.063	714
408.141	-14
408.218	3545
408.296	1961
408.373	1335
408.451	570
408.529	716
408.606	-785
408.684	370
408.762	-228
408.839	-977
408.917	-1067
408.994	-110
409.072	-1178
409.149	-874
409.227	-200
409.304	634
409.382	-823
409.459	-64
409.537	501
409.614	17
409.692	-785
409.769	-297
409.846	-359
409.924	1749
410.001	-1522
410.079	-85
410.156	670
410.233	603
410.311	-617
410.388	396
410.465	-313
410.543	320
410.620	-450
410.697	1182
410.775	-262
410.852	-717
410.929	369
411.006	928
411.083	-558
411.161	934
411.238	2096
411.315	2180
411.392	-712
411.469	1178
411.547	375
411.624	-930
411.701	-1392
411.778	624
411.855	1194
411.932	-113
412.009	179
412.086	-160
412.163	157
412.240	1295
412.317	1039
412.394	809
412.471	155
412.548	-895
412.625	-460
412.702	1102
412.779	1632
412.856	1629
412.933	-857
413.010	826
413.087	1061
413.164	7112
413.241	8382
413.318	1660
413.395	653
413.471	1777
413.548	-555
413.625	1169
413.702	-92
413.779	1026
413.855	-551
413.932	-878
414.009	-1250
414.086	-108
414.162	-325
414.239	1646
414.316	6496
414.393	15443
414.469	3348
414.546	103
414.623	-1188
414.699	312
414.776	-105
414.853	-127
414.929	-339
415.006	557
415.082	950
415.159	945
415.236	-170
415.312	1048
415.389	692
415.465	1097
415.542	-105
415.618	-226
415.695	1099
415.771	345
415.848	-494
415.924	1644
416.000	-25
416.077	574
416.153	-1981
416.230	-1063
416.306	-1344
416.383	-12
416.459	127
416.535	-327
416.612	-992
416.688	120
416.764	-1010
416.841	-1240
416.917	-598
416.993	888
417.069	-40
417.146	1571
417.222	1042
417.298	1244
417.374	-81
417.451	454
417.527	-849
417.603	155
417.679	-199
417.755	486
417.831	-996
417.908	92
417.984	-741
418.060	-1213
418.136	1031
418.212	1029
418.288	5
418.364	633
418.440	-1344
418.516	1428
418.592	2253
418.668	4340
418.744	2517
418.820	2535
418.896	621
418.972	-730
419.048	-209
419.124	2336
419.200	-530
419.276	136
419.352	-1190
419.428	115
419.504	-1108
419.579	-87
419.655	-1102
419.731	767
419.807	1634
419.883	4036
419.959	2553
420.034	968
420.110	1512
420.186	9327
420.262	6755
420.337	1222
420.413	-406
420.489	52
420.565	-138
420.640	-925
420.716	-327
420.792	-935
420.867	137
420.943	-399
421.019	251
421.094	813
421.170	-439
421.245	-521
421.321	-434
421.397	-307
421.472	1180
421.548	3762
421.623	1633
421.699	792
421.774	87
421.850	-464
421.925	454
422.001	876
422.076	-562
422.152	-369
422.227	367
422.302	1771
422.378	1334
422.453	3519
422.529	11253
422.604	52958
422.679	108339
422.755	53640
422.830	8625
422.905	2612
422.981	168
423.056	812
423.131	-24
423.207	-580
423.282	191
423.357	2168
423.432	584
423.508	2329
423.583	3157
423.658	1807
423.733	263
423.808	1599
423.883	684
423.959	675
424.034	-392
424.109	676
424.184	-959
424.259	174
424.334	-1289
424.409	-399
424.484	-626
424.559	-369
424.634	-431
424.709	1083
424.784	435
424.859	250
424.934	106
425.009	6672
425.084	9249
425.159	3734
425.234	602
425.309	-623
425.384	957
425.459	2176
425.534	948
425.609	366
425.683	82
425.758	-272
425.833	239
425.908	1846
425.983	2998
426.058	11018
426.132	4525
426.207	904
426.282	3687
426.357	2327
426.431	37
426.506	1309
426.581	-904
426.655	671
426.730	-774
426.805	-322
426.879	43
426.954	934
427.029	1844
427.103	14188
427.178	32196
427.253	15117
427.327	979
427.402	3438
427.476	7060
427.551	2472
427.625	551
427.700	2143
427.774	-654
427.849	966
427.923	-246
427.998	-36
428.072	-756
428.147	2796
428.221	6252
428.296	12066
428.370	5024
428.444	1624
428.519	3821
428.593	9922
428.667	8231
428.742	10805
428.816	7827
428.890	15897
428.965	17402
429.039	10940
429.113	11160
429.188	3501
429.262	172
429.336	1629
429.410	5281
429.485	4673
429.559	8764
429.633	6588
429.707	365
429.781	4508
429.855	21447
429.930	27606
430.004	28607
430.078	49962
430.152	36210
430.226	18386
430.300	15952
430.374	2612
430.448	3210
430.522	17638
430.596	45942
430.670	25745
430.744	24572
430.818	38723
430.892	9259
430.966	1043
431.040	-431
431.114	-253
431.188	32
431.262	639
431.336	747
431.410	5740
431.484	11176
431.557	7397
431.631	-604
431.705	561
431.779	1689
431.853	10135
431.927	6817
432.000	788
432.074	355
432.148	1684
432.222	1141
432.295	447
432.369	-823
432.443	2133
432.516	15339
432.590	37117
432.664	14143
432.737	1332
432.811	-590
432.885	278
432.958	37
433.032	402
433.106	-1146
433.179	90
433.253	-1387
433.326	71
433.400	-1015
433.473	35
433.547	-789
433.620	37
433.694	457
433.767	1885
433.841	24
433.914	432
433.988	-952
434.061	8
434.134	-681
434.208	-950
434.281	-1065
434.355	-365
434.428	20
434.501	-115
434.575	-1050
434.648	-258
434.721	-765
434.795	-343
434.868	-1392
434.941	-277
435.014	-1372
435.088	-110
435.161	-607
435.234	936
435.307	-177
435.381	-344
435.454	-986
435.527	-267
435.600	-1482
435.673	-154
435.746	-996
435.819	-136
435.892	-504
435.966	-84
436.039	-317
436.112	736
436.185	-684
436.258	-500
436.331	-1671
436.404	-399
436.477	-1207
436.550	200
436.623	-670
436.696	452
436.769	-319
436.842	52
436.915	-854
436.987	521
437.060	7
437.133	-418
437.206	-1273
437.279	726
437.352	-764
437.425	-922
437.498	-669
437.570	836
437.643	54
437.716	-608
437.789	-961
437.861	629
437.934	1124
438.007	345
438.080	-1318
438.152	19
438.225	2194
438.298	23111
438.370	60092
438.443	26332
438.516	2807
438.588	316
438.661	-668
438.734	624
438.806	-431
438.879	265
438.951	-63
439.024	1019
439.096	-530
439.169	728
439.241	-921
439.314	-743
439.386	1020
439.459	4095
439.531	5017
439.604	1628
439.676	176
439.749	-919
439.821	-538
439.893	-779
439.966	-386
440.038	474
440.110	-195
440.183	100
440.255	-721
440.327	567
440.400	8928
440.472	34677
440.544	22702
440.617	2744
440.689	212
440.761	1021
440.833	1241
440.905	1221
440.978	-353
441.050	-246
441.122	-401
441.194	-926
441.266	-900
441.338	-382
441.411	567
441.483	8681
441.555	13022
441.627	3158
441.699	2607
441.771	2988
441.843	1006
441.915	-218
441.987	-965
442.059	-298
442.131	646
442.203	2222
442.275	1246
442.347	1263
442.419	772
442.491	3891
442.563	12427
442.635	12409
442.706	12851
442.778	10035
442.850	469
442.922	189
442.994	338
443.066	1845
443.137	1203
443.209	65
443.281	13
443.353	3464
443.425	8419
443.496	24429
443.568	28218
443.640	12986
443.711	3199
443.783	719
443.855	33
443.926	623
443.998	817
444.070	1799
444.141	851
444.213	1297
444.285	1243
444.356	3110
444.428	2723
444.499	412
444.571	-620
444.642	84
444.714	-739
444.785	1275
444.857	4121
444.928	10549
445.000	7421
445.071	6854
445.143	9643
445.214	5435
445.285	5587
445.357	17987
445.428	26300
445.500	55200
445.571	47961
445.642	20786
445.714	14957
445.785	20314
445.856	5917
445.928	1853
445.999	1021
446.070	915
446.141	1539
446.213	3413
446.284	2092
446.355	2747
446.426	1232
446.497	1774
446.569	3167
446.640	4611
446.711	1487
446.782	774
446.853	3040
446.924	3216
446.995	200
447.066	2123
447.138	3943
447.209	2796
447.280	-420
447.351	-385
447.422	-812
447.493	574
447.564	488
447.635	1706
447.706	-903
447.777	210
447.847	-798
447.918	14
447.989	1490
448.060	3688
448.131	7403
448.202	6919
448.273	2540
448.344	1883
448.414	-124
448.485	765
448.556	-417
448.627	-227
448.698	-30
448.768	348
448.839	-200
448.910	3234
448.981	3373
449.051	546
449.122	-688
449.193	452
449.263	36
449.334	264
449.405	-45
449.475	2163
449.546	1587
449.616	3864
449.687	4090
449.758	569
449.828	-193
449.899	1126
449.969	-492
450.040	465
450.110	1639
450.181	3489
450.251	768
450.322	993
450.392	472
450.463	862
450.533	-656
450.604	854
450.674	-533
450.744	349
450.815	-701
450.885	1112
450.955	-242
451.026	231
451.096	-636
451.166	545
451.237	4962
451.307	15172
451.377	6594
451.447	1002
451.518	512
451.588	706
451.658	482
451.728	3415
451.799	15084
451.869	18626
451.939	4010
452.009	690
452.079	-284
452.149	484
452.219	3474
452.289	18091
452.360	14938
452.430	3377
452.500	984
452.570	1244
452.640	2029
452.710	9323
452.780	16578
452.850	9332
452.920	5586
452.990	3446
453.060	1713
453.129	1888
453.199	3235
453.269	21925
453.339	50649
453.409	79420
453.479	70580
453.549	107686
453.619	112675
453.688	51012
453.758	5783
453.828	2387
453.898	1123
453.968	1495
454.037	-390
454.087	520
454.107	886
454.168	-88
454.177	-237
454.247	984
454.249	970
454.316	298
454.330	729
454.386	2305
454.411	4396
454.456	7803
454.492	11300
454.525	14481
454.574	7755
454.595	4856
454.655	1092
454.665	489
454.734	1775
454.736	1884
454.804	4789
454.817	7272
454.873	17211
454.898	19688
454.943	24238
454.979	16677
455.013	9943
455.060	5526
455.082	3594
455.141	3625
455.152	3656
455.221	13203
455.222	13430
455.291	26705
455.303	26913
455.360	27396
455.384	35299
455.430	48241
455.465	38638
455.499	30378
455.546	21341
455.569	16918
455.627	12744
455.638	12077
455.707	1761
455.708	1765
455.777	1139
455.789	1078
455.846	822
455.869	1018
455.916	1367
455.950	1171
455.985	866
456.031	1055
456.054	1218
456.112	707
456.124	629
456.193	761
456.193	749
456.262	797
456.274	1212
456.332	3029
456.355	3186
456.401	3231
456.436	2496
456.470	1825
456.516	749
456.540	217
456.597	275
456.609	320
456.678	70
456.678	64
456.747	565
456.759	379
456.817	-731
456.840	-362
456.886	396
456.920	471
456.955	705
457.001	1123
457.024	1376
457.082	1472
457.093	1496
457.162	4405
457.163	4425
457.232	5141
457.243	4710
457.301	3023
457.324	1855
457.370	-191
457.405	-38
457.439	219
457.485	474
457.508	609
457.566	975
457.577	1028
457.646	760
457.647	769
457.715	1390
457.727	1505
457.784	2255
457.808	2634
457.853	2706
457.889	3070
457.922	3388
457.969	3544
457.991	3921
458.050	3032
458.060	2871
458.129	5163
458.130	5218
458.198	4873
458.211	4552
458.267	3986
458.292	2944
458.336	1642
458.372	1723
458.405	2322
458.453	2864
458.474	3017
458.533	5312
458.543	5490
458.611	7378
458.614	7473
458.680	7573
458.694	6456
458.749	3839
458.775	3080
458.818	1832
458.855	1286
458.887	978
458.936	1486
458.955	1552
459.016	948
459.024	927
459.093	1808
459.097	1802
459.162	1216
459.177	1219
459.230	1468
459.257	1613
459.299	1817
459.338	2017
459.368	1924
459.418	1312
459.437	1170
459.499	835
459.505	797
459.574	1115
459.579	1113
459.643	1318
459.659	1452
459.711	1786
459.740	1871
459.780	1728
459.820	1543
459.849	1642
459.900	1785
459.917	1763
459.981	1789
459.986	1779
460.054	1914
460.061	1843
460.123	1294
460.141	1379
460.191	1922
460.222	2038
460.260	1785
460.302	2134
460.328	2383
460.382	1897
460.397	1918
460.462	2469
460.465	2525
460.534	3802
460.543	3985
460.602	6358
460.623	7382
460.671	11499
460.703	16518
460.739	15590
460.783	12056
460.808	11418
460.864	4488
460.876	3618
460.944	1503
460.945	1477
461.013	2172
461.024	2126
461.081	1528
461.104	1626
461.150	1853
461.184	1659
461.218	1526
461.264	1752
461.286	2096
461.345	1988
461.355	1779
461.423	1483
461.425	1464
461.491	2236
461.505	2539
461.559	5910
461.585	7343
461.628	10603
461.665	14939
461.696	15821
461.745	19968
461.764	19370
461.825	9013
461.832	8698
461.901	2316
461.905	2308
461.969	1882
461.985	1683
462.037	2033
462.065	2493
462.105	3309
462.145	3950
462.173	4839
462.225	6848
462.241	7662
462.305	12802
462.310	12516
462.378	7733
462.385	6602
462.446	3107
462.465	2579
462.514	2125
462.545	2285
462.582	2175
462.625	2250
462.650	2169
462.705	1898
462.718	2105
462.785	3415
462.786	3433
462.854	4118
462.865	4365
462.922	5762
462.945	6383
462.990	5268
463.025	3356
463.058	2956
463.104	2546
463.126	2009
463.184	1469
463.194	1577
463.262	1607
463.264	1637
463.330	1876
463.344	1813
463.398	2786
463.424	3365
463.466	2768
463.504	2246
463.533	2648
463.583	3216
463.601	3255
463.663	2962
463.669	3037
463.737	4762
463.743	4876
463.805	8985
463.823	10332
463.873	15263
463.903	18543
463.940	17860
463.982	18337
464.008	15885
464.062	6620
464.076	6153
464.142	3160
464.144	3077
464.211	1969
464.221	1924
464.279	2122
464.301	2137
464.347	2784
464.381	3396
464.414	3673
464.461	4040
464.482	4042
464.540	4380
464.550	4290
464.617	3031
464.620	2976
464.685	3596
464.699	3789
464.753	3447
464.779	3426
464.820	4179
464.859	4777
464.888	4772
464.938	4745
464.956	5016
465.018	5870
465.023	5776
465.091	4730
465.098	4561
465.158	3027
465.177	2691
465.226	3402
465.257	3724
465.293	3799
465.336	3972
465.361	4436
465.416	5393
465.428	6148
465.495	10408
465.496	10459
465.563	16010
465.575	17124
465.631	19373
465.654	20480
465.698	13184
465.734	5886
465.765	5082
465.813	3558
465.833	3307
465.893	3833
465.900	3795
465.968	3423
465.972	3391
466.035	2835
466.052	2679
466.102	3103
466.131	3345
466.170	3109
466.210	2892
466.237	3074
466.290	3382
466.304	3395
466.369	3359
466.372	3377
466.439	3899
466.449	3959
466.506	4295
466.528	4431
466.573	9328
466.607	12970
466.641	16727
466.687	22062
466.708	23780
466.766	28820
466.775	26465
466.842	8339
466.845	7462
466.909	4847
466.925	4385
466.977	4371
467.004	4443
467.044	4392
467.083	4387
467.111	5062
467.163	6282
467.178	6061
467.242	5135
467.245	5164
467.312	5725
467.321	5798
467.379	5769
467.400	5745
467.446	6759
467.480	7482
467.559	5444
467.638	4849
467.717	5717
467.796	5805
467.875	6190
467.955	6672
468.034	14884
468.113	27442
468.192	36730
468.271	7034
468.350	4850
468.429	5335
468.508	5295
468.588	5041
468.667	4762
468.746	4217
468.825	4511
468.904	5147
468.983	6654
469.062	10468
469.141	11255
469.220	4900
469.299	5804
469.378	4157
469.456	6102
469.535	5569
469.614	4912
469.693	6339
469.772	7616
469.851	11160
469.930	6021
470.009	5122
470.088	5023
470.166	4837
470.245	5774
470.324	6211
470.403	5820
470.482	4440
470.560	3317
470.639	3823
470.718	4760
470.797	5471
470.875	8095
470.954	11966
471.033	8631
471.111	3730
471.190	3733
471.269	3783
471.347	4144
471.426	3273
471.505	6030
471.583	4440
471.662	4797
471.740	3358
471.819	4160
471.898	4214
471.976	4253
472.055	4376
472.133	6090
472.212	7780
472.290	7369
472.369	3229
472.447	4527
472.526	3332
472.604	6059
472.683	5782
472.761	5455
472.839	5097
472.918	3058
472.996	3344
473.075	5299
473.153	5128
473.231	4570
473.310	5870
473.388	4085
473.466	4486
473.545	5105
473.623	6115
473.701	5656
473.780	4650
473.858	4663
473.936	5815
474.014	3950
474.093	5449
474.171	9700
474.249	12021
474.327	6007
474.405	3247
474.484	2700
474.562	2850
474.640	3805
474.718	4421
474.796	3019
474.874	3930
474.952	3601
475.030	3519
475.108	4730
475.187	4790
475.265	11340
475.343	23728
475.421	20155
475.499	4475
475.577	5549
475.655	8521
475.733	17317
475.811	28734
475.889	24926
475.966	12883
476.044	9295
476.122	17579
476.200	22776
476.278	10163
476.356	5291
476.434	7445
476.512	13414
476.590	20761
476.667	10541
476.745	3258
476.823	4653
476.901	3509
476.979	5456
477.056	4794
477.134	3570
477.212	3661
477.290	3920
477.367	3892
477.445	3679
477.523	3327
477.601	3850
477.678	4536
477.756	5976
477.834	6469
477.911	4908
477.989	4642
478.066	4511
478.144	7763
478.222	17582
478.299	33876
478.377	17117
478.454	3956
478.532	2945
478.609	3116
478.687	4817
478.764	2563
478.842	3982
478.919	3821
478.997	4439
479.074	4148
479.152	4825
479.229	6683
479.307	3369
479.384	2289
479.461	2858
479.539	3455
479.616	4879
479.694	4022
479.771	4385
479.848	4691
479.926	7217
480.003	7323
480.080	3541
480.157	3678
480.235	3094
480.312	4349
480.389	5600
480.467	9348
480.544	10849
480.621	4324
480.698	4687
480.775	4702
480.853	5549
480.930	3962
481.007	4308
481.084	5286
481.161	5130
481.238	4930
481.315	4079
481.392	2882
481.470	4091
481.547	4312
481.624	3810
481.701	4880
481.778	4265
481.855	4623
481.932	10060
482.009	15652
482.086	8339
482.163	8412
482.240	23079
482.317	45008
482.393	16414
482.470	4905
482.547	4404
482.624	3239
482.701	4457
482.778	3145
482.855	3569
482.932	2672
483.009	3832
483.085	3350
483.162	3954
483.239	3493
483.316	3341
483.393	3069
483.469	3648
483.546	5043
483.623	5411
483.699	3843
483.776	3377
483.853	4224
483.930	11028
484.006	24071
484.083	38009
484.160	12860
484.236	17343
484.313	12171
484.389	10243
484.466	9819
484.543	8243
484.619	8697
484.696	10264
484.772	10477
484.849	10771
484.925	7857
485.002	8602
485.078	9695
485.155	9442
485.231	7480
485.308	7865
485.384	8537
485.461	14451
485.537	23091
485.614	24882
485.690	8286
485.766	7882
485.843	8230
485.919	10587
485.995	9918
486.072	6450
486.148	6704
486.224	7621
486.301	8126
486.377	9094
486.453	7888
486.530	8531
486.606	11781
486.682	13608
486.758	18696
486.835	21994
486.911	17302
486.987	29881
487.063	20675
487.139	19986
487.215	13128
487.292	8712
487.368	8497
487.444	8538
487.520	9214
487.596	8008
487.672	13588
487.748	23819
487.824	24909
487.900	9474
487.976	8240
488.052	9045
488.128	10395
488.204	8430
488.280	7637
488.356	14675
488.432	29313
488.508	38570
488.584	8860
488.660	7266
488.736	6757
488.812	6901
488.888	9205
488.964	12348
489.039	23295
489.115	28599
489.191	13276
489.267	6826
489.343	7670
489.418	6868
489.494	6211
489.570	4221
489.646	6673
489.722	6597
489.797	7931
489.873	17365
489.949	33774
490.024	21037
490.100	5829
490.176	6314
490.251	7217
490.327	7994
490.403	4653
490.478	5884
490.554	4929
490.629	4594
490.705	4454
490.781	6013
490.856	5582
490.932	6228
491.007	5577
491.083	6017
491.158	6515
491.234	11772
491.309	25959
491.385	20441
491.460	5094
491.536	7685
491.611	5901
491.686	6335
491.762	7532
491.837	15805
491.913	24700
491.988	35554
492.063	32505
492.139	15456
492.214	8865
492.289	4708
492.365	4154
492.440	5631
492.515	5146
492.590	5857
492.666	4500
492.741	8520
492.816	12917
492.891	5362
492.967	5176
493.042	4167
493.117	4004
493.192	8391
493.267	22832
493.342	63258
493.418	68717
493.493	6961
493.568	3893
493.643	4193
493.718	7012
493.793	11353
493.868	7801
493.943	3800
494.018	4650
494.093	4107
494.168	3570
494.243	3320
494.318	2651
494.393	3649
494.468	3218
494.543	4301
494.618	3896
494.693	3217
494.768	3668
494.842	3710
494.917	3087
494.992	3911
495.067	2440
495.142	3628
495.217	3071
495.292	3889
495.366	4657
495.441	6037
495.516	7362
495.591	12089
495.665	34053
495.740	58569
495.815	15344
495.890	6199
495.964	3364
496.039	6926
496.114	5056
496.188	5845
496.263	5269
496.338	5816
496.412	6455
496.487	8247
496.561	7538
496.636	6648
496.710	5384
496.785	7022
496.860	7830
496.934	5618
497.009	5597
497.083	5189
497.158	5793
497.232	7577
497.307	8806
497.381	7856
497.455	9927
497.530	11725
497.604	7429
497.679	9277
497.753	16025
497.827	16536
497.902	12669
497.976	24519
498.050	86672
498.125	254213
498.199	175104
498.273	16946
498.348	11673
498.422	9795
498.496	8986
498.570	8721
498.645	6787
498.719	8032
498.793	12341
498.867	21587
498.941	36537
499.016	121920
499.090	245152
499.164	49822
499.238	7323
499.312	7175
499.386	7622
499.460	8428
499.534	7616
499.609	10971
499.683	15522
499.757	19471
499.831	60209
499.905	179715
499.979	115400
500.053	19818
500.127	15824
500.201	8931
500.275	7776
500.349	7673
500.422	8804
500.496	13729
500.570	34351
500.644	101790
500.718	152437
500.792	20392
500.866	9331
500.940	10868
501.013	9236
501.087	7898
501.161	13371
501.235	23158
501.309	69974
501.382	158824
501.456	96220
501.530	27692
501.603	44409
501.677	12430
501.751	5635
501.825	11142
501.898	25942
501.972	59918
502.046	25621
502.119	9858
502.193	30010
502.266	61661
502.340	23060
502.413	32888
502.487	51273
502.561	24228
502.634	6792
502.708	5252
502.781	4219
502.855	4951
502.928	3970
503.002	5222
503.075	4668
503.149	4901
503.222	4793
503.295	6093
503.369	7801
503.442	14910
503.516	56666
503.589	110092
503.662	53795
503.736	22115
503.809	51928
503.882	36599
503.956	60452
504.029	37307
504.102	15344
504.175	14273
504.249	5286
504.322	6894
504.395	6135
504.468	4510
504.542	4576
504.615	3176
504.688	3111
504.761	3138
504.834	5001
504.907	4544
504.980	6456
505.053	3880
505.127	2357
505.200	8698
505.273	7643
505.346	3988
505.419	3060
505.492	3947
505.565	2627
505.638	2640
505.711	2443
505.784	2640
505.857	2337
505.930	4021
506.003	1770
506.076	4975
506.149	5168
506.221	6092
506.294	9659
506.367	29081
506.440	77551
506.513	26296
506.586	7368
506.659	4054
506.731	3061
506.804	4149
506.877	5015
506.950	5070
507.022	3250
507.095	4971
507.168	5719
507.241	3941
507.313	1690
507.386	2422
507.459	4687
507.531	2261
507.604	1716
507.677	3923
507.749	1649
507.822	5089
507.894	6330
507.967	7164
508.040	2989
508.112	4112
508.185	3637
508.257	2448
508.330	5625
508.402	3188
508.475	3577
508.547	4050
508.620	4875
508.692	8283
508.765	3979
508.837	2826
508.909	3841
508.982	2902
509.054	3520
509.127	2212
509.199	3052
509.271	2381
509.344	2552
509.416	3582
509.488	2499
509.560	2782
509.633	2572
509.705	2631
509.777	3171
509.849	5352
509.922	2181
509.994	3036
510.066	3955
510.138	2920
510.210	8151
510.283	5373
510.355	4229
510.427	4366
510.499	4272
510.571	3218
510.643	3224
510.715	6382
510.787	3250
510.859	5568
510.931	4798
511.003	5399
511.076	4972
511.148	3127
511.219	3690
511.291	10185
511.363	8373
511.435	3873
511.507	2802
511.579	3286
511.651	4423
511.723	3000
511.795	3633
511.867	3449
511.939	7159
512.010	13190
512.082	7261
512.154	2396
512.226	2912
512.298	6047
512.369	7320
512.441	4875
512.513	5226
512.585	3266
512.656	5160
512.728	5432
512.800	3437
512.871	4432
512.943	4028
513.015	3104
513.086	3433
513.158	4984
513.230	4216
513.301	5233
513.373	5819
513.444	4049
513.516	3553
513.588	3852
513.659	3642
513.731	4560
513.802	3424
513.874	10077
513.945	11094
514.016	2756
514.088	4241
514.159	2445
514.231	6195
514.302	6285
514.374	4739
514.445	5679
514.516	16682
514.588	7966
514.659	7159
514.730	12123
514.802	6808
514.873	2853
514.944	5993
515.016	3798
515.087	5030
515.158	9670
515.229	10215
515.301	3526
515.372	4776
515.443	2788
515.514	2586
515.585	2027
515.656	4146
515.728	3884
515.799	2307
515.870	3383
515.941	3590
516.012	2303
516.083	4767
516.154	4488
516.225	6166
516.296	6284
516.367	3730
516.438	4777
516.509	5488
516.580	9897
516.651	33251
516.722	73844
516.793	22109
516.864	9145
516.935	9502
517.006	10098
517.077	14636
517.148	33502
517.219	103240
517.289	107733
517.360	72240
517.431	19364
517.502	4708
517.573	6231
517.643	6624
517.714	6903
517.785	6849
517.856	5710
517.926	8636
517.997	8162
518.068	7848
518.138	12074
518.209	21334
518.280	84599
518.350	194172
518.421	39781
518.492	7706
518.562	8076
518.633	7529
518.703	5449
518.774	12688
518.845	22012
518.915	14010
518.986	7869
519.056	9105
519.127	15598
519.197	31932
519.268	81592
519.338	36360
519.408	9299
519.479	7901
519.549	5644
519.620	6488
519.690	3961
519.760	4118
519.831	4372
519.901	3936
519.971	4418
520.042	4849
520.112	6025
520.182	5904
520.253	5366
520.323	3068
520.393	4688
520.463	7645
520.534	4804
520.604	11611
520.674	7073
520.744	7567
520.814	10852
520.885	13860
520.955	38092
521.025	98023
521.095	22281
521.165	6559
521.235	4441
521.305	2976
521.375	3625
521.445	4855
521.515	3749
521.585	5737
521.655	3464
521.725	5102
521.795	4290
521.865	2091
521.935	10305
522.005	5269
522.075	3245
522.145	4153
522.215	5407
522.285	7881
522.355	15156
522.424	27037
522.494	15282
522.564	6745
522.634	15278
522.704	26649
522.774	6817
522.843	4477
522.913	3429
522.983	4102
523.053	2724
523.122	3652
523.192	6226
523.262	16711
523.331	8698
523.401	3561
523.471	2820
523.540	3231
523.610	1641
523.680	3018
523.749	3673
523.819	5106
523.888	2800
523.958	2756
524.027	4084
524.097	2957
524.166	2950
524.236	2029
524.305	4925
524.375	1751
524.444	1613
524.514	4557
524.583	3784
524.653	4055
524.722	5583
524.791	2043
524.861	4793
524.930	2069
524.999	3020
525.069	4731
525.138	4079
525.207	5848
525.277	3625
525.346	2139
525.415	3875
525.484	4977
525.554	4683
525.623	4071
525.692	3537
525.761	3025
525.830	3213
525.900	3071
525.969	6219
526.038	7938
526.107	14418
526.176	29396
526.245	15039
526.314	11185
526.383	21523
526.452	18278
526.522	45944
526.591	29390
526.660	12343
526.729	5712
526.797	10529
526.867	26900
526.935	89688
527.004	97172
527.073	23519
527.142	3866
527.211	2741
527.280	4306
527.349	3633
527.418	2088
527.487	3355
527.555	483
527.624	1518
527.693	1167
527.762	2862
527.831	1009
527.899	2222
527.968	2967
528.037	726
528.106	4631
528.174	5666
528.243	5524
528.312	10076
528.380	6833
528.449	1453
528.518	2891
528.586	936
528.655	3036
528.723	1566
528.792	1647
528.861	1796
528.929	1033
528.998	2750
529.066	1928
529.135	1545
529.203	876
529.272	274
529.340	2413
529.409	3174
529.477	1657
529.545	3746
529.614	5749
529.682	3996
529.751	4534
529.819	7004
529.887	2903
529.956	1934
530.024	3101
530.092	1462
530.161	2655
530.229	3260
530.297	1901
530.365	2069
530.434	651
530.502	1214
530.570	1716
530.638	491
530.707	3320
530.775	3861
530.843	2250
530.911	2171
530.979	1537
531.047	1264
531.115	1947
531.183	1560
531.252	2376
531.320	1702
531.388	277
531.456	2229
531.524	11
531.592	2414
531.660	3379
531.728	648
531.796	1965
531.864	951
531.932	1729
532.000	1186
532.067	2313
532.135	2099
532.203	2892
532.271	2514
532.339	6377
532.407	12570
532.475	4834
532.542	4011
532.610	4070
532.678	5406
532.746	29270
532.814	41634
532.881	7349
532.949	3222
533.017	1833
533.084	2534
533.152	1740
533.220	1732
533.287	1999
533.355	2077
533.423	2233
533.490	1468
533.558	2098
533.625	2557
533.693	2386
533.761	2974
533.828	3160
533.896	2271
533.963	6992
534.031	7461
534.098	9592
534.166	3551
534.233	1925
534.300	3379
534.368	3379
534.435	2289
534.503	2113
534.570	2988
534.637	1360
534.705	1952
534.772	2381
534.840	4540
534.907	17659
534.974	10500
535.041	2595
535.109	4511
535.176	1194
535.243	2129
535.310	2977
535.378	1990
535.445	1984
535.512	1770
535.579	2555
535.646	1038
535.714	1942
535.781	3680
535.848	2682
535.915	4035
535.982	2240
536.049	2958
536.116	3633
536.183	2384
536.250	1637
536.317	2863
536.384	3805
536.451	4712
536.518	4019
536.585	2397
536.652	4922
536.719	5359
536.786	2860
536.853	2603
536.920	7119
536.987	8442
537.053	6931
537.120	28835
537.187	12732
537.254	1672
537.321	1282
537.388	3736
537.454	1320
537.521	2135
537.588	1848
537.654	3831
537.721	3363
537.788	4339
537.855	1251
537.921	2202
537.988	2068
538.055	3019
538.121	1470
538.188	3519
538.254	4133
538.321	8268
538.388	3996
538.454	2601
538.521	2652
538.587	1559
538.654	2140
538.720	1020
538.787	2241
538.853	3803
538.920	3120
538.986	3922
539.053	2428
539.119	3102
539.185	2186
539.252	4094
539.318	4300
539.385	4014
539.451	3149
539.517	4223
539.583	4796
539.650	10920
539.716	16032
539.782	3825
539.849	2311
539.915	3849
539.981	2608
540.047	2848
540.114	1991
540.180	4389
540.246	1914
540.312	4576
540.378	8700
540.444	7584
540.510	10021
540.576	17671
540.643	4808
540.709	2453
540.775	1916
540.841	3469
540.907	6001
540.973	7788
541.039	4840
541.105	4274
541.171	2087
541.237	1992
541.303	3133
541.369	5330
541.435	4431
541.500	7612
541.566	1174
541.632	2678
541.698	2126
541.764	2600
541.830	2501
541.896	2131
541.961	3441
542.027	3796
542.093	2958
542.159	2637
542.224	1803
542.290	6462
542.356	7840
542.421	8255
542.487	4345
542.553	2748
542.618	4205
542.684	2507
542.750	2501
542.815	4450
542.881	7719
542.947	19986
543.012	8238
543.078	2324
543.143	2178
543.209	3499
543.274	2217
543.340	4278
543.405	8643
543.471	7608
543.536	2841
543.602	3059
543.667	949
543.732	3419
543.798	2029
543.863	2939
543.928	1545
543.994	971
544.059	2412
544.124	2581
544.190	2163
544.255	2388
544.320	3184
544.386	2602
544.451	3744
544.516	4676
544.581	4348
544.646	14790
544.712	13977
544.777	4811
544.842	4930
544.907	5040
544.972	3789
545.037	3555
545.102	4305
545.168	4565
545.233	3890
545.298	5427
545.363	5182
545.428	6025
545.493	10575
545.558	13167
545.623	5236
545.688	3753
545.753	3765
545.818	3380
545.883	3984
545.947	3797
546.012	4854
546.077	4085
546.142	4177
546.207	3820
546.272	5350
546.337	4158
546.401	5086
546.466	4202
546.531	3559
546.596	5135
546.661	3483
546.725	5351
546.790	3181
546.855	4452
546.919	2966
546.984	4608
547.049	5805
547.113	6227
547.178	4526
547.243	6531
547.307	6561
547.372	9007
547.436	7500
547.501	5168
547.565	5458
547.630	5935
547.695	6345
547.759	9010
547.823	5902
547.888	6077
547.952	4751
548.017	5790
548.081	7837
548.146	10349
548.210	7536
548.274	5592
548.339	5567
548.403	5600
548.468	3753
548.532	5272
548.596	4926
548.660	5195
548.725	6876
548.789	7780
548.853	7419
548.917	6230
548.982	9407
549.046	8196
549.110	4853
549.174	5203
549.238	4895
549.303	4401
549.367	6525
549.431	3919
549.495	4852
549.559	5123
549.623	6204
549.687	7114
549.751	7484
549.815	6291
549.879	7063
549.943	5280
550.007	6128
550.071	6925
550.135	6978
550.199	5749
550.263	6928
550.327	9089
550.391	9567
550.455	6156
550.519	6547
550.582	8203
550.646	8289
550.710	7539
550.774	7000
550.838	6945
550.901	7523
550.965	8269
551.029	8253
551.093	10435
551.156	14323
551.220	30526
551.284	23769
551.347	15445
551.411	36547
551.475	26305
551.538	9028
551.602	7314
551.666	7451
551.729	4888
551.793	5884
551.856	6103
551.920	6066
551.983	7251
552.047	5973
552.110	7029
552.174	5971
552.237	6233
552.301	5542
552.364	5858
552.428	4822
552.491	5779
552.554	5270
552.618	5814
552.681	6672
552.745	5481
552.808	9057
552.871	9013
552.934	6975
552.998	6984
553.061	6842
553.124	6373
553.187	6388
553.251	6683
553.314	8034
553.377	8342
553.440	15136
553.503	45556
553.567	44720
553.630	9151
553.693	6067
553.756	6928
553.819	6481
553.882	7244
553.945	6066
554.008	5899
554.071	5117
554.134	6190
554.197	5307
554.260	5734
554.323	6322
554.386	6308
554.449	5399
554.512	5907
554.575	4972
554.638	6058
554.701	4645
554.764	4711
554.827	4883
554.889	4279
554.952	3716
555.015	4242
555.078	4619
555.141	5647
555.203	4066
555.266	5200
555.329	5408
555.391	4455
555.454	4163
555.517	4889
555.580	4734
555.642	4994
555.705	4256
555.768	4100
555.830	5081
555.893	3814
555.955	3952
556.018	4274
556.080	4100
556.143	4436
556.206	4153
556.268	5123
556.330	4881
556.393	4806
556.455	5624
556.518	9898
556.580	6678
556.643	3952
556.705	4683
556.767	2922
556.830	5177
556.892	5264
556.955	6467
557.017	4856
557.079	4343
557.142	4223
557.204	4905
557.266	8427
557.328	4784
557.391	4166
557.453	3272
557.515	3795
557.577	5425
557.639	4556
557.701	3363
557.764	2888
557.826	4451
557.888	5152
557.950	3672
558.012	4319
558.074	6165
558.136	13287
558.198	16903
558.260	6216
558.322	4727
558.384	5158
558.446	6899
558.508	6415
558.570	8767
558.632	13139
558.694	16013
558.756	21998
558.818	70561
558.880	87214
558.942	18911
559.003	19707
559.065	6802
559.127	5396
559.189	6043
559.251	8038
559.312	11766
559.374	31977
559.436	61017
559.498	14646
559.559	4862
559.621	6598
559.683	8170
559.744	17548
559.806	42761
559.868	31189
559.929	7757
559.991	8919
560.052	12578
560.114	21646
560.176	10770
560.237	17452
560.299	15631
560.360	5163
560.422	5028
560.483	5644
560.545	5100
560.606	5321
560.667	5070
560.729	5099
560.790	4527
560.852	5229
560.913	4959
560.974	3672
561.036	4874
561.097	4511
561.158	5299
561.220	4838
561.281	4643
561.342	5213
561.403	6513
561.465	7774
561.526	14037
561.587	13111
561.648	4837
561.709	5220
561.771	4664
561.832	5238
561.893	4513
561.954	4474
562.015	4578
562.076	5386
562.137	4610
562.198	5118
562.259	4922
562.320	5308
562.381	4897
562.442	5959
562.503	4871
562.564	4163
562.625	3892
562.686	4393
562.747	5305
562.808	5148
562.869	5394
562.930	7041
562.991	6013
563.051	6360
563.112	4667
563.173	4610
563.234	4587
563.294	5349
563.355	5274
563.416	5332
563.477	5062
563.537	5271
563.598	5584
563.659	5211
563.720	4743
563.780	5812
563.841	6027
563.901	5299
563.962	5783
564.023	5841
564.083	6192
564.144	6225
564.204	5781
564.265	5363
564.325	8621
564.386	17813
564.446	10494
564.507	4738
564.567	4973
564.628	4515
564.688	5226
564.749	5430
564.809	7479
564.869	7112
564.930	4274
564.990	5162
565.050	4562
565.111	5307
565.171	4772
565.231	4799
565.292	5421
565.352	4133
565.412	5463
565.472	5077
565.532	5370
565.593	5348
565.653	4064
565.713	4727
565.773	5375
565.833	5982
565.893	6610
565.953	5830
566.013	4268
566.074	5942
566.134	10578
566.194	15873
566.254	12710
566.314	8294
566.374	4392
566.434	6804
566.494	6002
566.554	5410
566.614	6132
566.673	5252
566.733	6962
566.793	6437
566.853	6393
566.913	6516
566.973	6271
567.033	7188
567.092	5651
567.152	6105
567.212	6543
567.272	6656
567.331	6928
567.391	6465
567.451	8778
567.511	12584
567.570	9272
567.630	5747
567.690	6079
567.749	6483
567.809	6548
567.868	7689
567.928	7388
567.988	8549
568.047	8302
568.107	8486
568.166	11535
568.226	15577
568.285	19180
568.345	16406
568.404	14155
568.464	12147
568.523	10493
568.582	12982
568.642	11895
568.701	16591
568.761	24650
568.820	32891
568.879	29087
568.939	23360
568.998	17231
569.057	13270
569.116	10695
569.176	9961
569.235	8541
569.294	7426
569.353	6715
569.413	7379
569.472	7826
569.531	5696
569.590	5788
569.649	5906
569.708	6614
569.767	7388
569.827	6737
569.886	4726
569.945	5350
570.004	6155
570.063	5872
570.122	6001
570.181	6258
570.240	7955
570.299	6818
570.358	6118
570.417	5197
570.475	5667
570.534	6039
570.593	5406
570.652	5416
570.711	5389
570.770	6476
570.829	7008
570.887	5873
570.946	6477
571.005	4576
571.064	5269
571.122	6565
571.181	6149
571.240	4916
571.299	5221
571.357	7128
571.416	7312
571.475	8403
571.533	7670
571.592	5903
571.650	6377
571.709	5416
571.768	5340
571.826	4383
571.885	4434
571.943	5813
572.002	5145
572.060	5186
572.119	5333
572.177	4654
572.236	4396
572.294	4002
572.352	4757
572.411	4134
572.469	4378
572.528	3779
572.586	4065
572.644	5019
572.703	5833
572.761	5184
572.819	4487
572.877	4193
572.936	4465
572.994	5066
573.052	4870
573.110	3628
573.169	4895
573.227	4837
573.285	3517
573.343	3928
573.401	4959
573.459	4423
573.517	4013
573.576	4631
573.634	4578
573.692	4750
573.750	4675
573.808	4276
573.866	6426
573.924	7915
573.982	7177
574.040	4731
574.098	5355
574.155	4104
574.213	4510
574.271	4309
574.329	3896
574.387	3223
574.445	5072
574.503	3843
574.560	3996
574.618	4471
574.676	3603
574.734	3794
574.792	4682
574.849	4028
574.907	4048
574.965	3883
575.022	3193
575.080	3792
575.138	4077
575.195	4614
575.253	4478
575.311	4473
575.368	3867
575.426	3681
575.483	3988
575.541	4546
575.598	3747
575.656	5129
575.713	4830
575.771	3943
575.828	3986
575.886	4625
575.943	5763
576.001	4958
576.058	5332
576.115	5079
576.173	7517
576.230	8101
576.287	6692
576.345	5970
576.402	6011
576.459	6563
576.517	5503
576.574	7320
576.631	8048
576.688	5795
576.746	5158
576.803	5243
576.860	5667
576.917	4941
576.974	4901
577.031	4720
577.089	5352
577.146	5567
577.203	5801
577.260	6628
577.317	6906
577.374	7750
577.431	5960
577.488	6133
577.545	5658
577.602	5241
577.659	5739
577.716	6153
577.773	7470
577.830	5819
577.886	5402
577.943	5140
578.000	6239
578.057	6533
578.114	6359
578.171	7371
578.227	8499
578.284	7727
578.341	7298
578.398	6668
578.454	7192
578.511	8786
578.568	9462
578.625	6223
578.681	5879
578.738	4885
578.794	4869
578.851	4999
578.908	5195
578.964	5109
579.021	5230
579.077	5090
579.134	4826
579.190	4726
579.247	5373
579.303	5165
579.360	4408
579.416	5074
579.473	5079
579.529	4754
579.586	4472
579.642	5015
579.698	5676
579.755	5842
579.811	6307
579.867	6295
579.924	5680
579.980	6353
580.036	7899
580.093	9472
580.149	12687
580.205	12544
580.261	11250
580.317	8841
580.374	9250
580.430	10328
580.486	8092
580.542	6231
580.598	5799
580.619	6077
580.654	6563
580.692	6221
580.710	6062
580.765	5672
580.767	5665
580.823	4896
580.838	5065
580.879	5525
580.911	5442
580.935	5379
580.984	4965
580.991	4919
581.047	6205
581.057	6283
581.103	6607
581.130	6842
581.159	7130
581.203	7030
581.215	6990
581.270	7140
581.276	7124
581.326	7061
581.349	6770
581.382	6323
581.422	6189
581.438	6146
581.494	6719
581.494	6711
581.550	6257
581.567	6108
581.606	5793
581.640	5799
581.661	5802
581.713	5958
581.717	5979
581.773	5811
581.786	5849
581.829	5914
581.859	5995
581.885	6139
581.932	5843
581.940	5760
581.996	6298
582.004	6250
582.052	6092
582.077	6065
582.107	5974
582.150	6521
582.163	6717
582.219	5317
582.223	5376
582.274	6065
582.296	6292
582.330	6667
582.368	6873
582.386	6987
582.441	6349
582.441	6349
582.497	6560
582.514	6610
582.552	6903
582.587	7435
582.608	7669
582.659	5643
582.663	5489
582.719	6072
582.732	6261
582.774	6832
582.805	6435
582.830	6131
582.877	6603
582.885	6701
582.941	6704
582.950	6741
582.996	6687
583.023	7004
583.052	7568
583.095	8120
583.107	8287
583.162	9933
583.168	9970
583.218	9855
583.240	9390
583.273	8641
583.313	7665
583.328	7418
583.384	8235
583.385	8181
583.439	6146
583.458	6252
583.494	6653
583.531	6108
583.549	5796
583.603	6555
583.605	6588
583.660	6451
583.676	6575
583.715	6668
583.748	6885
583.770	7084
583.820	6959
583.825	6924
583.881	6787
583.893	6559
583.936	6040
583.965	6450
583.991	6662
584.038	6509
584.046	6546
584.101	6620
584.110	6670
584.156	6584
584.183	6285
584.211	5946
584.255	6188
584.266	6364
584.321	6254
584.328	6399
584.376	6964
584.400	6577
584.431	6273
584.472	6359
584.486	6364
584.541	6269
584.545	6278
584.596	6379
584.617	6597
584.651	7310
584.689	7684
584.706	7597
584.761	7180
584.762	7179
584.816	7566
584.834	7727
584.871	7895
584.906	7637
584.926	7488
584.978	7401
584.980	7407
585.035	7779
585.051	7928
585.090	8257
585.123	8645
585.145	8987
585.195	9662
585.200	9752
585.254	10316
585.267	10949
585.309	13395
585.340	14512
585.364	14555
585.412	11985
585.419	11600
585.473	10966
585.484	10896
585.528	11258
585.556	12230
585.583	13748
585.628	18302
585.637	19313
585.692	30358
585.700	31057
585.747	33347
585.772	26672
585.801	17635
585.845	12014
585.856	11004
585.910	9666
585.917	9579
585.965	9584
585.989	9650
586.019	9800
586.061	9746
586.074	9769
586.128	9975
586.133	10034
586.183	10668
586.205	10744
586.237	10965
586.277	11247
586.292	11262
586.346	11357
586.349	11357
586.401	11461
586.421	11870
586.455	12718
586.493	13872
586.509	15106
586.564	20258
586.565	20485
586.618	32402
586.637	31413
586.672	22665
586.709	15980
586.727	13786
586.781	11573
586.781	11579
586.835	12196
586.853	12461
586.889	12081
586.925	11322
586.944	11347
586.996	11815
586.998	11843
587.052	13357
587.068	13663
587.106	13715
587.140	13314
587.161	13229
587.212	13893
587.215	13952
587.269	14363
587.284	14570
587.323	14557
587.356	14766
587.377	15234
587.427	16131
587.431	16180
587.485	15900
587.499	16139
587.539	17215
587.571	17518
587.593	17559
587.643	18657
587.648	18853
587.702	20320
587.715	20703
587.755	21257
587.786	21555
587.810	21903
587.858	22917
587.864	23116
587.917	24888
587.930	25515
587.971	28397
588.001	29900
588.025	31065
588.073	33417
588.079	33826
588.133	38617
588.145	39580
588.187	43816
588.217	46603
588.241	49578
588.288	56823
588.295	57970
588.348	66556
588.360	68670
588.402	78221
588.431	85272
588.456	92527
588.503	106952
588.510	109272
588.564	129793
588.575	134483
588.617	159219
588.646	178954
588.671	203384
588.718	257168
588.725	271998
588.778	401921
588.789	432796
588.832	671604
588.861	850846
588.886	1077156
588.932	1506455
588.939	1529374
588.993	1569602
589.004	1559088
589.047	1174668
589.075	912501
589.100	717995
589.147	396908
589.154	381150
589.207	276450
589.218	256639
589.261	238783
589.290	230764
589.314	242649
589.361	274022
589.368	289332
589.421	429700
589.433	464136
589.475	759840
589.504	983515
589.528	1170880
589.576	1468319
589.582	1433810
589.635	995315
589.647	901092
589.689	534528
589.718	298720
589.742	243447
589.790	143537
589.795	139652
589.849	106603
589.861	99541
589.902	89151
589.932	79636
589.955	71545
590.004	55790
590.009	55091
590.062	47664
590.075	45851
590.115	41951
590.146	38919
590.168	37663
590.218	35014
590.222	34895
590.275	32706
590.289	32108
590.328	30489
590.360	29057
590.381	28522
590.431	27153
590.435	27085
590.488	25329
590.503	24858
590.541	24429
590.574	24023
590.594	23730
590.645	22824
590.647	22818
590.700	21922
590.716	21577
590.753	20456
590.787	19404
590.806	19564
590.859	19974
590.859	19990
590.912	19155
590.930	18895
590.965	18390
591.001	17785
591.018	17584
591.071	17099
591.072	17076
591.124	17154
591.143	17261
591.177	17416
591.214	17520
591.230	17587
591.283	17649
591.285	17629
591.336	17189
591.356	17026
591.389	17233
591.427	17323
591.442	16976
591.495	15705
591.498	15590
591.547	15399
591.569	15348
591.600	15402
591.640	15312
591.653	15419
591.706	15930
591.711	15969
591.759	16207
591.782	16355
591.811	17361
591.853	18661
591.864	18216
591.917	15747
591.924	15394
591.969	15549
591.995	15628
592.022	15495
592.066	15197
592.075	15543
592.127	17682
592.137	18074
592.180	19453
592.208	20204
592.233	18484
592.279	15165
592.285	15117
592.338	14703
592.350	14587
592.390	14549
592.421	14522
592.443	14508
592.491	14418
592.495	14450
592.548	14706
592.562	14764
592.600	13975
592.633	13281
592.653	13403
592.704	13638
592.705	13717
592.775	13789
592.846	13253
592.916	13128
592.987	14044
593.058	14493
593.128	13122
593.199	12883
593.270	12231
593.341	12869
593.411	12671
593.482	12244
593.553	12946
593.623	12045
593.694	12267
593.764	13447
593.835	12793
593.906	12334
593.976	13125
594.047	12378
594.117	16127
594.188	16267
594.258	11863
594.329	11627
594.399	11776
594.470	12434
594.540	11713
594.611	10732
594.681	12606
594.751	12743
594.822	13820
594.892	14163
594.963	13400
595.033	13601
595.103	12731
595.174	14338
595.244	21837
595.314	26161
595.384	13616
595.455	12275
595.525	13196
595.595	11721
595.665	12993
595.736	13106
595.806	12189
595.876	12184
595.946	11641
596.016	12561
596.087	12260
596.157	12048
596.227	12632
596.297	13158
596.367	13868
596.437	14889
596.507	19997
596.577	25479
596.647	14720
596.717	12142
596.787	13002
596.857	12534
596.927	13158
596.997	12600
597.067	12303
597.137	15231
597.207	14286
597.277	12166
597.347	11980
597.417	12357
597.487	13641
597.557	13146
597.626	14286
597.696	14987
597.766	18243
597.836	23416
597.906	16280
597.975	12777
598.045	12457
598.115	11971
598.185	12015
598.254	13547
598.324	13387
598.394	12676
598.464	13476
598.533	13078
598.603	12369
598.672	12565
598.742	12322
598.812	12993
598.881	12767
598.951	11791
599.020	12067
599.090	12102
599.159	12501
599.229	12638
599.299	11487
599.368	12048
599.437	12111
599.507	11770
599.576	12459
599.646	13617
599.715	14294
599.785	11612
599.854	12842
599.924	14337
599.993	13505
600.062	11495
600.132	11971
600.201	11395
600.270	13424
600.340	12428
600.409	12594
600.478	12233
600.547	12630
600.617	13017
600.686	11954
600.755	10985
600.824	12567
600.894	11665
600.963	10355
601.032	11157
601.101	11071
601.170	11334
601.239	11236
601.308	12661
601.378	11661
601.447	10809
601.516	10605
601.585	11967
601.654	13324
601.723	12072
601.792	10937
601.861	12383
601.930	14699
601.999	13821
602.068	11492
602.137	14237
602.206	12913
602.275	10613
602.343	12880
602.412	12675
602.481	10378
602.550	10226
602.619	10296
602.688	11473
602.756	10893
602.825	10706
602.894	10501
602.963	10427
603.032	10826
603.100	10928
603.169	10457
603.238	10931
603.307	11274
603.375	10605
603.444	11109
603.513	10474
603.581	11279
603.650	10258
603.719	10472
603.787	10291
603.856	10381
603.924	10260
603.993	11519
604.061	9958
604.130	11473
604.198	10565
604.267	11517
604.335	10464
604.404	10726
604.472	10802
604.541	10842
604.609	11065
604.678	10276
604.746	11553
604.815	11142
604.883	10826
604.951	12192
605.020	11112
605.088	11710
605.156	11395
605.225	11234
605.293	11228
605.361	11557
605.429	11582
605.498	11558
605.566	11677
605.634	13229
605.702	11582
605.771	13005
605.839	11251
605.907	11769
605.975	12215
606.043	11470
606.111	11915
606.180	12926
606.248	14633
606.316	16769
606.384	12624
606.452	15463
606.520	13852
606.588	12320
606.656	11249
606.724	10588
606.792	11252
606.860	10640
606.928	10130
606.996	9812
607.064	9426
607.132	9523
607.200	10370
607.267	10138
607.335	9538
607.403	10743
607.471	9702
607.539	9971
607.607	10390
607.674	8815
607.742	9473
607.810	10274
607.878	8996
607.946	9212
608.013	9187
608.081	9726
608.149	9470
608.216	9328
608.284	10354
608.352	9131
608.419	9928
608.487	15712
608.555	11912
608.622	9731
608.690	9410
608.757	10006
608.825	10341
608.893	10563
608.960	11150
609.028	12157
609.095	16093
609.163	12445
609.230	9832
609.298	9776
609.365	8635
609.432	9723
609.500	8887
609.567	10656
609.635	11780
609.702	11925
609.769	11244
609.837	12373
609.904	10510
609.971	9324
610.039	12317
610.106	13059
610.173	20402
610.241	39934
610.308	49466
610.375	34665
610.442	12262
610.509	9702
610.577	10086
610.644	9547
610.711	8581
610.778	11059
610.845	9616
610.912	10681
610.980	12873
611.047	19567
611.114	13561
611.181	9998
611.248	8984
611.315	10675
611.382	9709
611.449	9994
611.516	10068
611.583	10689
611.650	10030
611.717	10437
611.784	11475
611.851	11055
611.918	12236
611.984	12650
612.051	17907
612.118	29529
612.185	59915
612.252	40655
612.319	14031
612.386	12604
612.452	11842
612.519	13299
612.586	17642
612.653	14289
612.719	11551
612.786	10098
612.853	9771
612.919	10570
612.986	10367
613.053	9472
613.120	8610
613.186	8931
613.253	11166
613.319	9409
613.386	9821
613.453	9919
613.519	11112
613.586	10763
613.652	16473
613.719	13868
613.785	12346
613.852	10821
613.918	10541
613.985	15344
614.051	26646
614.118	64761
614.184	64286
614.250	14462
614.317	9920
614.383	10437
614.449	9377
614.516	10555
614.582	10172
614.648	9760
614.715	9372
614.781	9461
614.847	10904
614.914	9959
614.980	10333
615.046	9942
615.112	9782
615.179	10048
615.245	10465
615.311	12382
615.377	18077
615.443	20042
615.509	12349
615.575	11534
615.642	10680
615.708	12680
615.774	11961
615.840	14563
615.906	16423
615.972	22003
616.038	38873
616.104	53497
616.170	84573
616.236	71859
616.302	22052
616.368	15361
616.434	12452
616.500	13890
616.565	13703
616.631	14181
616.697	13067
616.763	14250
616.829	14587
616.895	22181
616.961	20787
617.026	13845
617.092	11440
617.158	12315
617.224	11497
617.289	11639
617.355	10753
617.421	11580
617.487	12876
617.552	10930
617.618	10314
617.684	10438
617.749	11825
617.815	9956
617.880	10025
617.946	9838
618.012	10412
618.077	10303
618.143	10547
618.208	11451
618.274	11084
618.339	12194
618.405	9727
618.470	11858
618.536	11025
618.601	13138
618.667	10848
618.732	11097
618.798	11326
618.863	10179
618.928	9949
618.994	11851
619.059	12632
619.124	15366
619.190	12029
619.255	10704
619.320	10807
619.386	10879
619.451	10038
619.516	9968
619.581	10847
619.647	10631
619.712	10819
619.777	11433
619.842	11124
619.907	10884
619.972	9683
620.038	11343
620.103	10790
620.168	10292
620.233	11260
620.298	10433
620.363	10546
620.428	9977
620.493	10381
620.558	10219
620.623	10490
620.688	10482
620.753	10893
620.818	9424
620.883	9820
620.948	10887
621.013	9694
621.078	10731
621.143	10331
621.207	12898
621.272	11913
621.337	12201
621.402	13486
621.467	17639
621.532	18332
621.596	14005
621.661	12597
621.726	11567
621.791	11936
621.855	12583
621.920	13400
621.985	13919
622.049	16691
622.114	15229
622.179	14530
622.243	13826
622.308	13486
622.373	14692
622.437	13788
622.502	12415
622.566	12914
622.631	12280
622.695	14174
622.760	13780
622.824	13312
622.889	13556
622.953	13379
623.018	18035
623.082	17474
623.147	13309
623.211	13151
623.276	13260
623.340	11339
623.404	13175
623.469	11944
623.533	12447
623.597	11283
623.662	11269
623.726	11685
623.790	11206
623.854	11950
623.919	12009
623.983	12204
624.047	13490
624.111	10893
624.176	11410
624.240	11820
624.304	13126
624.368	12005
624.432	12469
624.496	12764
624.560	13524
624.625	12810
624.689	12138
624.753	11784
624.817	11884
624.881	10288
624.945	11038
625.009	10538
625.073	10347
625.137	11480
625.201	13405
625.265	13423
625.329	12076
625.393	12034
625.456	11998
625.520	11798
625.584	14410
625.648	16616
625.712	26763
625.776	60579
625.839	71521
625.903	27910
625.967	14251
626.031	25649
626.095	38814
626.158	14904
626.222	9436
626.286	9952
626.349	8714
626.413	7802
626.477	11015
626.540	9124
626.604	9171
626.668	9378
626.731	9500
626.795	9577
626.858	9631
626.922	8630
626.986	8772
627.049	7572
627.113	9937
627.176	9215
627.240	8263
627.303	9127
627.366	9338
627.430	8614
627.493	8802
627.557	8263
627.620	10013
627.684	8360
627.747	9402
627.810	7272
627.874	9277
627.937	6944
628.000	9973
628.064	8239
628.127	7220
628.190	9098
628.253	8843
628.317	7260
628.380	8431
628.443	6907
628.506	7295
628.569	7595
628.632	7017
628.696	7770
628.759	7593
628.822	6971
628.885	7113
628.948	7281
629.011	7145
629.074	7314
629.137	6495
629.200	6601
629.263	7769
629.326	5376
629.389	7199
629.452	7184
629.515	7316
629.578	6627
629.641	8216
629.704	6620
629.767	6279
629.830	6776
629.892	7077
629.955	6536
630.018	8058
630.081	7327
630.144	8922
630.207	6554
630.269	9153
630.332	7892
630.395	8114
630.458	7013
630.520	5272
630.583	7140
630.646	6039
630.708	5639
630.771	5968
630.834	6909
630.896	5370
630.959	6032
631.021	5390
631.084	5412
631.146	7084
631.209	8440
631.272	6279
631.334	6473
631.397	5968
631.459	4284
631.522	6096
631.584	5586
631.646	6050
631.709	6720
631.771	7508
631.834	6444
631.896	6150
631.958	5282
632.021	5716
632.083	4701
632.145	5252
632.208	5276
632.270	5635
632.332	5110
632.395	5141
632.457	6574
632.519	5838
632.581	6044
632.643	4971
632.706	6167
632.768	5180
632.830	6329
632.892	5019
632.954	5670
633.016	6574
633.078	4444
633.141	5308
633.203	4698
633.265	5818
633.327	5250
633.389	5458
633.451	6101
633.513	7046
633.575	7904
633.637	6020
633.698	5192
633.760	6781
633.822	5247
633.884	4698
633.946	5065
634.008	5523
634.070	5819
634.132	6754
634.193	5946
634.255	5682
634.317	4746
634.379	6251
634.441	4373
634.502	5072
634.564	5064
634.626	5738
634.687	5378
634.749	5282
634.811	5007
634.873	3890
634.934	4846
634.996	4969
635.057	4162
635.119	4385
635.181	4895
635.242	5340
635.304	1958
635.365	5760
635.427	4195
635.488	5133
635.550	4419
635.611	5325
635.673	2386
635.734	6389
635.796	4181
635.857	6298
635.918	3419
635.980	6207
636.041	3086
636.102	4880
636.164	4667
636.225	5674
636.286	3054
636.348	5098
636.409	4154
636.470	3511
636.531	4820
636.593	5202
636.654	5451
636.715	3913
636.776	3721
636.838	3539
636.899	4501
636.960	4394
637.021	4535
637.082	4264
637.143	4740
637.204	3400
637.265	3462
637.326	4046
637.387	4192
637.448	3121
637.509	3786
637.570	3780
637.631	5126
637.692	3259
637.753	3628
637.814	4101
637.875	3804
637.936	4560
637.997	2746
638.058	3711
638.119	4657
638.179	3618
638.240	4096
638.301	3777
638.362	2620
638.423	3569
638.483	4690
638.544	2267
638.605	3570
638.666	2834
638.726	3250
638.787	4203
638.848	3274
638.908	3482
638.969	4185
639.030	3759
639.090	2648
639.151	3109
639.211	4353
639.272	3720
639.332	6465
639.393	5193
639.453	3073
639.514	3916
639.574	3837
639.635	2866
639.695	4576
639.756	2981
639.816	4289
639.877	4385
639.937	6413
639.997	8058
640.058	3327
640.118	2953
640.178	3802
640.239	3174
640.299	3298
640.359	3025
640.420	2702
640.480	2936
640.540	2840
640.600	3252
640.661	3624
640.721	2044
640.781	4631
640.841	2575
640.901	3378
640.961	4111
641.021	3522
641.082	3638
641.142	4731
641.202	4861
641.262	1130
641.322	4361
641.382	2204
641.442	3706
641.502	3002
641.562	3929
641.622	3013
641.682	3911
641.742	2638
641.802	3896
641.861	3491
641.921	3060
641.981	4644
642.041	4208
642.101	4703
642.161	2953
642.221	2294
642.280	2378
642.340	2563
642.400	2104
642.460	3266
642.519	3753
642.579	2528
642.639	3528
642.698	621
642.758	4878
642.818	2457
642.877	2505
642.937	3203
642.997	4359
643.056	4633
643.116	2119
643.175	3286
643.235	2556
643.294	2402
643.354	3009
643.414	2943
643.473	3847
643.532	2130
643.592	2703
643.651	5324
643.711	7736
643.770	11660
643.830	24088
643.889	50070
643.948	14342
644.008	4404
644.067	3396
644.126	2043
644.186	2252
644.245	2743
644.304	1610
644.363	3636
644.423	1774
644.482	2235
644.541	3151
644.600	485
644.659	3921
644.719	2113
644.778	3619
644.837	3417
644.896	6234
644.955	10563
645.014	6114
645.073	4451
645.132	3030
645.191	3182
645.250	2642
645.309	4040
645.368	2386
645.427	2791
645.486	1934
645.545	4043
645.604	1917
645.663	2670
645.722	1949
645.781	3163
645.840	3193
645.898	3047
645.957	3812
646.016	2452
646.075	6116
646.134	8900
646.192	21769
646.251	33600
646.310	5735
646.369	3043
646.427	3285
646.486	1340
646.545	2041
646.603	3062
646.662	2844
646.721	2257
646.779	1594
646.838	217
646.896	2428
646.955	1672
647.014	2704
647.072	3378
647.131	7377
647.189	2996
647.248	2645
647.306	2797
647.365	2499
647.423	674
647.481	3539
647.540	476
647.598	2547
647.657	1516
647.715	2649
647.773	841
647.832	3034
647.890	845
647.948	2544
648.007	2440
648.065	808
648.123	1207
648.181	4053
648.240	4314
648.298	2991
648.356	1398
648.414	3119
648.472	2214
648.531	2663
648.589	1410
648.647	1977
648.705	1789
648.763	2200
648.821	1335
648.879	1771
648.937	2001
648.995	1819
649.053	2670
649.111	2386
649.169	3624
649.227	4973
649.285	6672
649.343	18561
649.401	11869
649.459	10321
649.516	9678
649.574	8390
649.632	26289
649.690	33391
649.748	8589
649.806	6171
649.863	12559
649.921	6957
649.979	3830
650.037	2298
650.094	710
650.152	3764
650.210	1087
650.268	2736
650.325	2095
650.383	1469
650.440	479
650.498	2489
650.556	1522
650.613	1913
650.671	1606
650.728	2143
650.786	1069
650.843	1475
650.901	-48
650.958	2291
651.016	1699
651.073	1102
651.131	1272
651.188	938
651.246	1951
651.303	927
651.360	2059
651.418	1026
651.475	1937
651.532	672
651.590	1921
651.647	1606
651.704	969
651.762	1550
651.819	2483
651.876	1962
651.933	903
651.990	2067
652.048	590
652.105	1199
652.162	2287
652.219	1682
652.276	1722
652.333	1980
652.390	473
652.448	1881
652.505	2189
652.562	1933
652.619	2179
652.676	4721
652.733	6296
652.790	1495
652.847	661
652.904	1021
652.961	257
653.017	1319
653.074	935
653.131	1891
653.188	1
653.245	1580
653.302	1592
653.359	1276
653.415	1088
653.472	1632
653.529	1809
653.586	801
653.642	1005
653.699	2557
653.756	337
653.813	1238
653.869	2140
653.926	884
653.983	655
654.039	1410
654.096	652
654.152	2675
654.209	230
654.266	2404
654.322	778
654.379	1932
654.435	1892
654.492	2395
654.548	2767
654.605	4645
654.661	2092
654.717	1776
654.774	2561
654.830	1933
654.887	1329
654.943	1704
655.000	1396
655.056	1559
655.112	1985
655.168	991
655.225	1309
655.281	2924
655.337	2154
655.394	5076
655.450	3858
655.506	3348
655.562	4835
655.618	5790
655.675	1502
655.731	2351
655.787	407
655.843	1529
655.899	931
655.955	2579
656.011	1838
656.067	1113
656.123	1831
656.179	2487
656.235	3341
656.291	614
656.347	2427
656.403	1467
656.459	830
656.515	2001
656.571	2029
656.627	1885
656.683	1674
656.739	1860
656.795	1469
656.850	1600
656.906	1226
656.962	2540
657.018	393
657.074	2049
657.129	1572
657.185	2058
657.241	1783
657.297	1806
657.352	1144
657.408	531
657.464	2356
657.519	1811
657.575	436
657.630	1620
657.686	832
657.742	420
657.797	422
657.853	1059
657.908	1779
657.964	715
658.019	802
658.075	2194
658.130	1020
658.186	-1
658.241	1549
658.297	407
658.352	962
658.407	1317
658.463	58
658.518	1648
658.573	994
658.629	1116
658.684	1164
658.739	1567
658.795	625
658.850	1464
658.905	231
658.960	1972
659.016	1000
659.071	1659
659.126	1691
659.181	1443
659.236	3213
659.291	3055
659.346	1721
659.401	1795
659.457	3525
659.512	3947
659.567	2829
659.622	1498
659.677	569
659.732	1272
659.787	1439
659.842	1732
659.897	2464
659.952	1589
660.007	1031
660.061	1714
660.116	192
660.171	1127
660.226	1620
660.281	1850
660.336	363
660.391	1869
660.445	192
660.500	1338
660.555	1632
660.610	686
660.664	682
660.719	982
660.774	1360
660.828	1455
660.883	956
660.938	1329
660.992	33
661.047	2277
661.101	1038
661.156	1000
661.211	587
661.265	1210
661.320	413
661.374	1058
661.429	646
661.483	1580
661.538	728
661.592	469
661.647	1328
661.701	1979
661.755	1075
661.810	1148
661.864	222
661.919	558
661.973	1526
662.027	1249
662.081	646
662.136	1487
662.190	1336
662.244	1461
662.299	1007
662.353	1949
662.407	732
662.461	804
662.515	1753
662.569	1011
662.624	2018
662.678	1357
662.732	548
662.786	1485
662.840	1218
662.894	1491
662.948	674
663.002	1240
663.056	715
663.110	263
663.164	964
663.218	1725
663.272	1092
663.326	2253
663.380	927
663.434	1387
663.488	300
663.542	713
663.595	759
663.649	1241
663.703	1604
663.757	989
663.811	722
663.864	790
663.918	645
663.972	827
664.026	1453
664.079	709
664.133	1535
664.187	1044
664.240	1068
664.294	705
664.348	1144
664.401	846
664.455	619
664.508	1029
664.562	1068
664.615	1445
664.669	1101
664.722	1826
664.776	766
664.829	1189
664.883	461
664.936	886
664.990	841
665.043	2408
665.097	1104
665.150	2625
665.203	667
665.257	1452
665.310	792
665.363	943
665.417	1237
665.470	1358
665.523	1100
665.576	1482
665.630	1896
665.683	1171
665.736	1608
665.789	1046
665.842	618
665.895	2138
665.949	1721
666.002	1400
666.055	1501
666.108	1848
666.161	1470
666.214	815
666.267	1324
666.320	1620
666.373	1569
666.426	1448
666.479	721
666.532	1938
666.585	2405
666.638	1978
666.691	1321
666.744	3295
666.796	1550
666.849	1401
666.902	950
666.955	1320
667.008	307
667.060	998
667.113	53
667.166	1094
667.219	1383
667.271	1475
667.324	366
667.377	1576
667.430	1422
667.482	2270
667.535	1582
667.587	1050
667.640	1729
667.693	703
667.745	2419
667.798	2811
667.850	1517
667.903	1684
667.955	1684
668.008	1444
668.060	1085
668.113	2038
668.165	1204
668.218	1894
668.270	1269
668.322	1371
668.375	1039
668.427	2246
668.479	1220
668.532	919
668.584	1577
668.636	966
668.689	1230
668.741	1552
668.793	1627
668.845	1235
668.898	1593
668.950	1064
669.002	1554
669.054	1709
669.106	727
669.158	1653
669.211	1659
669.263	1120
669.315	2396
669.367	3715
669.419	2131
669.471	2907
669.523	2687
669.575	3835
669.627	3657
669.679	1644
669.731	2049
669.783	2084
669.835	2851
669.886	2489
669.938	1645
669.990	2145
670.042	1311
670.094	2319
670.146	2753
670.197	2162
670.249	3147
670.301	3385
670.353	4720
670.404	7713
670.456	11533
670.508	17992
670.560	30545
670.611	57035
670.663	99662
670.715	236430
670.766	393602
670.818	108197
670.869	16264
670.921	8669
670.972	5755
671.024	5298
671.075	4215
671.127	3262
671.178	2698
671.230	2750
671.281	2608
671.333	2961
671.384	1644
671.436	2306
671.487	2114
671.538	2244
671.590	1786
671.641	4032
671.692	3194
671.744	4244
671.795	3734
671.846	2443
671.897	1707
671.949	1465
672.000	1586
672.051	2373
672.102	1662
672.153	1624
672.204	1170
672.256	2071
672.307	1822
672.358	2487
672.409	1152
672.460	1721
672.511	1570
672.562	1346
672.613	1047
672.664	1412
672.715	1656
672.766	1700
672.817	1992
672.868	1052
672.919	2094
672.970	2077
673.021	1015
673.071	1227
673.122	1905
673.173	1412
673.224	1457
673.275	1692
673.326	929
673.376	1917
673.427	1122
673.478	2055
673.528	1583
673.579	1599
673.630	851
673.680	1634
673.731	1570
673.782	1326
673.832	862
673.883	1363
673.934	384
673.984	1236
674.035	1252
674.085	2029
674.136	729
674.186	2139
674.237	1720
674.287	3695
674.338	1360
674.388	1281
674.438	1171
674.489	1862
674.539	1734
674.589	910
674.640	1638
674.690	1013
674.740	1266
674.791	2357
674.841	1419
674.891	1541
674.942	1488
674.992	351
675.042	358
675.092	672
675.142	653
675.193	1351
675.243	967
675.293	1377
675.343	637
675.393	850
675.443	873
675.493	1501
675.543	864
675.593	1720
675.643	1119
675.693	1909
675.743	1050
675.793	1885
675.843	692
675.893	1733
675.943	660
675.993	1639
676.043	1053
676.093	1334
676.142	217
676.192	950
676.242	834
676.292	701
676.341	355
676.391	934
676.441	554
676.491	727
676.540	1346
676.590	1100
676.640	1222
676.689	609
676.739	482
676.789	453
676.838	1176
676.888	1352
676.937	395
676.987	-15
677.037	731
677.086	-57
677.136	622
677.185	690
677.235	98
677.284	317
677.333	302
677.383	72
677.432	-131
677.482	1230
677.531	389
677.580	812
677.630	866
677.679	224
677.728	853
677.778	221
677.827	354
677.876	743
677.925	197
677.975	694
678.024	126
678.073	395
678.122	733
678.171	126
678.220	541
678.269	1439
678.319	235
678.368	75
678.417	640
678.466	1486
678.515	762
678.564	1266
678.613	303
678.662	575
678.711	1014
678.760	573
678.809	637
678.857	929
678.906	76
678.955	296
679.004	1354
679.053	504
679.102	-93
679.151	964
679.199	117
679.248	1156
679.297	802
679.346	938
679.394	285
679.443	784
679.492	577
679.540	1033
679.589	1101
679.638	836
679.686	763
679.735	867
679.784	798
679.832	1178
679.881	542
679.929	689
679.978	97
680.026	1033
680.075	909
680.123	728
680.172	405
680.220	216
680.268	301
680.317	-337
680.365	226
680.414	195
680.462	791
680.510	1238
680.559	271
680.607	618
680.655	525
680.703	-119
680.752	-138
680.800	-94
680.848	-572
680.896	-27
680.945	463
680.993	859
681.041	745
681.089	385
681.137	-200
681.185	577
681.233	-254
681.258	374
681.281	924
681.329	-375
681.377	1030
681.380	1079
681.425	1129
681.473	1034
681.502	1044
681.521	959
681.569	1993
681.617	1011
681.624	1098
681.665	1285
681.713	1562
681.745	1168
681.761	920
681.809	848
681.857	2457
681.867	2102
681.904	663
681.952	1419
681.989	1575
682.000	1566
682.048	1733
682.096	1674
682.111	1910
682.143	2274
682.191	1850
682.233	2829
682.239	2935
682.286	1843
682.334	2521
682.354	2959
682.382	3442
682.430	2236
682.476	2337
682.477	2297
682.525	3257
682.572	2911
682.598	2557
682.620	2191
682.667	2932
682.715	3497
682.720	3550
682.763	3669
682.810	3312
682.841	3068
682.857	2881
682.905	3488
682.952	3397
682.963	3612
683.000	4197
683.047	3516
683.085	4308
683.095	4478
683.142	3316
683.190	3767
683.206	3824
683.237	3868
683.284	4281
683.328	3965
683.332	3893
683.379	5383
683.426	4805
683.449	4432
683.473	4064
683.521	4550
683.568	4588
683.571	4613
683.615	4403
683.662	5078
683.693	4798
683.709	4617
683.757	4786
683.804	4846
683.814	4950
683.851	5158
683.898	4938
683.936	5564
683.945	5684
683.992	5543
684.039	6229
684.057	5886
684.086	5319
684.133	6061
684.179	5508
684.180	5459
684.227	6690
684.274	5644
684.300	6012
684.321	6300
684.368	5770
684.415	6231
684.422	6265
684.462	6159
684.509	6378
684.543	6313
684.556	6306
684.603	5875
684.649	6049
684.665	6327
684.696	6878
684.743	6770
684.786	7339
684.790	7378
684.837	7563
684.883	8008
684.908	7999
684.930	7878
684.977	8983
685.023	8913
685.029	8895
685.070	8134
685.117	7852
685.150	7810
685.164	7977
685.210	8426
685.257	9146
685.272	9182
685.303	8800
685.350	8808
685.393	8696
685.396	8696
685.443	9338
685.490	9362
685.514	9551
685.536	9604
685.583	9235
685.629	9301
685.636	9331
685.675	9307
685.722	9786
685.757	9337
685.768	9249
685.815	9364
685.861	9970
685.878	10001
685.908	10013
685.954	9943
686.000	10945
686.000	10959
686.047	11528
686.093	12532
686.121	13119
686.139	12921
686.185	12381
686.232	11118
686.242	11221
686.278	11617
686.324	10311
686.363	9934
686.370	9938
686.416	9851
686.463	10886
686.484	10575
686.509	10228
686.555	10552
686.601	9899
686.606	10037
686.647	11103
686.693	10582
686.727	10569
686.739	10599
686.785	10477
686.831	10812
686.848	10646
686.877	10179
686.923	10625
686.969	10252
686.969	10250
687.015	10599
687.061	10892
687.090	11475
687.107	11712
687.153	11198
687.199	11035
687.211	11023
687.245	11004
687.291	11556
687.332	11671
687.336	11720
687.382	12219
687.428	11968
687.453	12504
687.474	12468
687.520	11856
687.565	11124
687.574	10963
687.611	10971
687.657	10665
687.695	11379
687.702	11548
687.748	12031
687.794	12190
687.816	12555
687.839	12524
687.885	11759
687.931	11394
687.937	11364
687.976	11706
688.022	11598
688.058	11594
688.067	11586
688.113	12019
688.158	11981
688.179	11977
688.204	11961
688.249	12242
688.295	12429
688.300	12424
688.340	12776
688.386	13405
688.421	13180
688.431	13005
688.477	12836
688.522	13364
688.542	13080
688.567	12891
688.613	12915
688.658	12827
688.663	12905
688.703	13515
688.749	13415
688.784	12861
688.794	12758
688.839	13456
688.884	13501
688.905	13462
688.930	13324
688.975	12726
689.020	12807
689.026	12823
689.065	13279
689.110	13221
689.146	13434
689.155	13453
689.201	13155
689.246	13367
689.267	13434
689.291	13627
689.336	13991
689.381	13543
689.388	13528
689.426	13646
689.471	14431
689.509	14376
689.516	14302
689.561	14152
689.606	12939
689.630	13219
689.651	13680
689.696	13424
689.741	13679
689.750	13806
689.785	14455
689.830	13935
689.871	13901
689.875	13883
689.920	14014
689.965	13840
689.992	13835
690.010	13959
690.054	13742
690.099	13970
690.112	13886
690.144	13820
690.189	14512
690.233	13938
690.233	13956
690.278	14365
690.323	14819
690.354	14957
690.367	15050
690.412	14940
690.457	15372
690.474	15384
690.501	15488
690.546	15707
690.590	15851
690.595	15880
690.635	16728
690.680	17098
690.716	17399
690.724	17764
690.769	19854
690.813	22344
690.836	23062
690.857	24918
690.902	29777
690.946	34476
690.957	35601
690.991	48287
691.035	64951
691.077	81218
691.080	81477
691.124	81476
691.168	81941
691.198	82590
691.213	77281
691.257	60975
691.301	44845
691.318	38468
691.346	35007
691.390	29024
691.434	23153
691.439	22435
691.478	21215
691.522	20179
691.559	18932
691.567	18871
691.611	18856
691.655	18261
691.680	18126
691.699	18189
691.743	17977
691.787	17845
691.800	17817
691.831	17900
691.875	17913
691.919	17777
691.921	17742
691.964	18081
692.008	18449
692.041	18707
692.052	18697
692.096	18515
692.139	18112
692.162	17955
692.183	18016
692.227	17901
692.271	17906
692.282	17906
692.315	18001
692.359	17843
692.402	17948
692.403	17985
692.447	17728
692.490	18212
692.523	17914
692.534	18015
692.578	18674
692.622	18845
692.643	19198
692.666	19076
692.709	18623
692.753	17803
692.763	17633
692.797	17693
692.840	18014
692.884	17845
692.884	17886
692.928	18238
692.971	19277
693.004	19391
693.015	19331
693.059	19431
693.102	19788
693.124	19450
693.146	19479
693.189	20273
693.233	20591
693.245	20774
693.276	22051
693.320	23371
693.363	24746
693.365	24737
693.407	25735
693.450	27309
693.485	28054
693.493	28915
693.537	33385
693.580	37977
693.605	40399
693.624	45134
693.667	56210
693.710	67700
693.725	71544
693.753	96218
693.797	134955
693.840	173820
693.845	178092
693.883	178742
693.926	178381
693.966	178978
693.970	175496
694.013	135354
694.056	94785
694.086	66624
694.099	63452
694.142	53057
694.185	42549
694.206	37516
694.229	35901
694.272	32425
694.315	29203
694.326	28316
694.358	27302
694.401	25731
694.444	24018
694.446	23890
694.487	23413
694.530	22553
694.566	21909
694.573	21823
694.616	20712
694.659	20032
694.686	19415
694.702	19265
694.745	18872
694.787	18401
694.806	18082
694.830	18146
694.873	18063
694.916	18329
694.926	18350
694.959	18511
695.002	18494
695.044	18339
695.046	18298
695.087	18392
695.130	18322
695.166	18244
695.172	18313
695.215	18459
695.258	18823
695.286	18762
695.301	18744
695.343	18762
695.386	18529
695.406	18569
695.428	18507
695.471	17992
695.514	17685
695.526	17475
695.556	17565
695.599	17853
695.641	18053
695.646	18036
695.684	18086
695.726	17988
695.766	17864
695.769	17916
695.811	18062
695.854	18183
695.886	18243
695.896	18176
695.938	17619
695.981	17083
696.005	16748
696.023	16977
696.065	17516
696.108	17901
696.125	18001
696.150	18324
696.192	18935
696.235	19339
696.245	19459
696.277	19386
696.319	18992
696.361	18711
696.365	18629
696.404	18767
696.446	19074
696.485	19116
696.488	19180
696.530	19474
696.572	19694
696.604	19805
696.614	19678
696.656	18929
696.698	18139
696.724	17616
696.740	17631
696.783	17579
696.825	17562
696.844	17504
696.867	17712
696.909	17880
696.951	18222
696.964	18250
696.992	18255
697.034	18110
697.076	18123
697.083	18064
697.118	17946
697.160	17753
697.202	17638
697.203	17584
697.244	17376
697.286	17286
697.323	17062
697.327	17093
697.369	16946
697.411	16857
697.442	16742
697.453	16971
697.494	17693
697.536	18502
697.562	18905
697.578	18740
697.620	18193
697.661	17607
697.682	17252
697.703	17390
697.744	17637
697.786	17942
697.801	17970
697.828	18394
697.869	18986
697.911	19587
697.921	19682
697.952	19331
697.994	18766
698.035	18299
698.040	18184
698.077	17962
698.118	17619
698.160	17285
698.160	17234
698.201	17273
698.243	17203
698.279	17152
698.284	17226
698.325	17447
698.367	17655
698.399	17771
698.408	17798
698.449	17679
698.491	17600
698.518	17452
698.532	17423
698.573	17243
698.614	17042
698.638	16867
698.656	17128
698.697	17652
698.738	18164
698.757	18363
698.779	18549
698.820	18784
698.862	19032
698.877	19070
698.903	19399
698.944	19845
698.985	20283
698.996	20352
699.026	20050
699.067	19553
699.116	18909
699.235	18054
699.354	18127
699.474	18381
699.593	21327
699.713	22290
699.832	18539
699.951	18958
700.070	18477
700.190	17647
700.309	19001
700.428	20656
700.547	18971
700.667	18294
700.786	20335
700.905	17923
701.024	19019
701.143	18039
701.262	16212
701.381	16839
701.500	16442
701.619	17115
701.738	15831
701.857	15994
701.976	15771
702.095	15766
702.214	17288
702.333	17187
702.452	14673
702.571	15351
702.690	14926
702.809	15112
702.928	15420
703.047	15219
703.165	15981
703.284	15173
703.403	14156
703.522	17502
703.640	17526
703.759	19898
703.878	28636
703.997	17002
704.115	15976
704.234	14631
704.353	14049
704.471	14102
704.590	13369
704.708	13765
704.827	13925
704.946	15136
705.064	17252
705.183	14299
705.301	17880
705.420	27949
705.538	25668
705.656	22105
705.775	22564
705.893	42141
706.012	63374
706.130	22335
706.249	22164
706.367	21048
706.485	22987
706.604	21032
706.722	20955
706.840	23743
706.958	25466
707.077	20224
707.195	18815
707.313	19396
707.431	18968
707.549	18533
707.668	18928
707.786	20088
707.904	17877
708.022	18031
708.140	17650
708.258	17611
708.376	18826
708.494	18465
708.612	19942
708.730	29337
708.848	28668
708.966	25276
709.084	22855
709.202	23350
709.320	24482
709.438	23992
709.556	23705
709.674	23681
709.791	23605
709.909	22548
710.027	23163
710.145	22244
710.263	22743
710.380	22452
710.498	21841
710.616	22617
710.733	21051
710.851	23074
710.969	24292
711.086	21965
711.204	21676
711.322	22913
711.439	20840
711.557	23994
711.674	22075
711.792	21796
711.909	23171
712.027	26213
712.144	20286
712.262	20543
712.379	22564
712.497	33915
712.614	35395
712.732	28769
712.849	25690
712.966	26265
713.084	31304
713.201	28248
713.318	27642
713.436	25647
713.553	27732
713.670	27022
713.787	29583
713.905	30965
714.022	26494
714.139	24662
714.256	26111
714.373	27898
714.490	30984
714.608	41980
714.725	120057
714.842	156422
714.959	29962
715.076	24525
715.193	23847
715.310	23697
715.427	23070
715.544	21372
715.661	22984
715.778	21514
715.895	24972
716.011	25221
716.128	22539
716.245	22290
716.362	23381
716.479	24129
716.596	21325
716.713	21357
716.829	21551
716.946	21172
717.063	19313
717.180	20397
717.296	19858
717.413	20390
717.530	19179
717.646	19812
717.763	19258
717.880	18307
717.996	19526
718.113	20079
718.229	18066
718.346	18792
718.462	18673
718.579	20333
718.695	24478
718.812	26870
718.928	26025
719.045	21366
719.161	16794
719.277	17080
719.394	17863
719.510	18459
719.626	18401
719.743	22072
719.859	19043
719.975	22167
720.092	36859
720.208	82664
720.324	26419
720.440	18784
720.557	20131
720.673	24105
720.789	37054
720.905	86970
721.021	36145
721.137	17597
721.253	17727
721.369	17219
721.486	20335
721.602	29614
721.718	17933
721.834	14575
721.950	15956
722.066	14269
722.181	15258
722.297	16045
722.413	14573
722.529	15652
722.645	14880
722.761	14295
722.877	14795
722.993	13711
723.108	14738
723.224	14182
723.340	15475
723.456	14395
723.571	14033
723.687	13967
723.803	13434
723.918	12900
724.034	13863
724.150	14279
724.265	16185
724.381	30052
724.497	46637
724.612	14452
724.728	13714
724.843	13057
724.959	15175
725.074	29308
725.190	40108
725.305	14722
725.421	13914
725.536	11797
725.651	12174
725.767	12137
725.882	10985
725.997	11865
726.113	11918
726.228	10632
726.343	11656
726.459	10413
726.574	12675
726.689	11093
726.804	10800
726.920	11713
727.035	11343
727.150	12039
727.265	10685
727.380	13008
727.495	10582
727.610	9876
727.725	11426
727.841	13291
727.956	26249
728.071	25907
728.186	11765
728.301	9357
728.416	11711
728.531	11017
728.645	9082
728.760	11383
728.875	12344
728.990	12063
729.105	11240
729.220	10845
729.335	10676
729.449	10002
729.564	9079
729.679	9259
729.794	9289
729.908	11055
730.023	9956
730.138	8441
730.253	9229
730.367	8669
730.482	8902
730.596	8257
730.711	9909
730.826	9794
730.940	9171
731.055	9236
731.169	9400
731.284	8320
731.398	8254
731.513	10519
731.627	10100
731.742	10235
731.856	13352
731.970	8390
732.085	8671
732.199	9333
732.313	10784
732.428	15364
732.542	33610
732.656	26970
732.771	9509
732.885	9163
732.999	8520
733.113	9604
733.227	9469
733.342	8474
733.456	7351
733.570	8203
733.684	7453
733.798	8311
733.912	7403
734.026	6965
734.140	7357
734.254	9055
734.368	15684
734.482	25040
734.596	8863
734.710	7589
734.824	7633
734.938	6249
735.052	8114
735.166	9028
735.280	8638
735.393	7177
735.507	6933
735.621	11035
735.735	21119
735.849	11222
735.962	7916
736.076	8418
736.190	8704
736.303	11552
736.417	18213
736.531	7406
736.644	7825
736.758	6850
736.872	6412
736.985	7373
737.099	6411
737.212	7055
737.326	6580
737.439	7180
737.553	6684
737.666	6431
737.780	5968
737.893	6157
738.007	5984
738.120	5899
738.233	6409
738.347	7205
738.460	5854
738.573	6663
738.687	6829
738.800	6902
738.913	6438
739.026	7530
739.140	7270
739.253	7357
739.366	6701
739.479	6184
739.592	5406
739.705	6151
739.818	6304
739.932	7015
740.045	5374
740.158	6305
740.271	6195
740.384	6483
740.497	7052
740.610	7707
740.723	7163
740.836	7637
740.949	7944
741.062	8096
741.174	7725
741.287	6814
741.400	5946
741.513	6713
741.626	9023
741.739	6343
741.851	5664
741.964	5684
742.077	5776
742.189	6386
742.302	8029
742.415	7179
742.527	6194
742.640	6255
742.753	6683
742.865	5129
742.978	5524
743.090	5754
743.203	5963
743.316	5037
743.428	5876
743.541	5453
743.653	5953
743.766	5434
743.878	6085
743.990	7698
744.103	6818
744.215	5541
744.327	5896
744.440	6329
744.552	8196
744.664	4974
744.777	4848
744.889	5259
745.001	5861
745.113	6130
745.226	5029
745.338	5453
745.450	4964
745.562	5101
745.674	4193
745.786	5195
745.898	5711
746.010	6130
746.122	4641
746.234	5222
746.347	5563
746.459	4139
746.570	4883
746.682	4846
746.794	5267
746.906	5553
747.018	4596
747.130	4508
747.242	5400
747.354	4891
747.466	5154
747.577	4732
747.689	5697
747.801	4700
747.913	5437
748.024	5270
748.136	4145
748.248	3923
748.359	4189
748.471	5059
748.583	4977
748.694	5803
748.806	8652
748.918	7714
749.029	6278
749.141	6319
749.252	5539
749.364	5284
749.475	8279
749.587	7671
749.698	5090
749.809	4941
749.921	4605
750.032	5526
750.144	4521
750.255	4940
750.366	4078
750.478	5231
750.589	5748
750.700	4666
750.811	5100
750.923	5692
751.034	8557
751.145	8786
751.256	4950
751.367	5239
751.479	4752
751.590	4411
751.701	5514
751.812	3870
751.923	4423
752.034	4500
752.145	4891
752.256	5106
752.367	4493
752.478	4654
752.589	4263
752.700	4627
752.811	3851
752.922	4786
753.032	3833
753.143	6022
753.254	4622
753.365	4812
753.476	4558
753.586	4542
753.697	5091
753.808	4556
753.919	4287
754.029	4547
754.140	4262
754.251	4966
754.361	4815
754.472	5056
754.582	4516
754.693	3641
754.804	5632
754.914	4623
755.025	5284
755.135	4008
755.246	4996
755.356	4021
755.466	5513
755.577	4523
755.687	5867
755.798	4901
755.908	4985
756.018	4082
756.129	5980
756.239	4442
756.349	4820
756.460	4390
756.570	4861
756.680	4765
756.790	5503
756.900	5216
757.011	4471
757.121	5266
757.231	4181
757.341	5703
757.451	4454
757.561	4438
757.671	5352
757.781	4161
757.891	5592
758.001	5597
758.111	6367
758.221	6060
758.331	6201
758.441	6931
758.551	6710
758.661	7293
758.771	6015
758.880	6240
758.990	6318
759.100	7005
759.210	6680
759.320	6803
759.429	6625
759.539	7199
759.649	8294
759.758	7418
759.868	7607
759.978	6961
760.087	7718
760.197	6845
760.307	7159
760.416	8569
760.526	8069
760.635	8334
760.745	8679
760.854	8010
760.964	8597
761.073	9278
761.182	9247
761.292	8818
761.401	9664
761.511	10098
761.620	9845
761.729	9935
761.839	10057
761.948	10501
762.057	10834
762.166	10721
762.276	9855
762.385	12313
762.494	11041
762.603	12002
762.712	12753
762.822	13147
762.931	13937
763.040	13741
763.149	13613
763.258	15185
763.367	16036
763.476	16713
763.585	17502
763.694	17783
763.803	19063
763.912	21153
764.021	20836
764.130	22469
764.238	23632
764.347	25392
764.456	25940
764.565	29346
764.674	32405
764.783	35203
764.891	38557
765.000	42245
765.109	47021
765.217	54364
765.326	65726
765.435	78076
765.543	92105
765.652	114064
765.761	145880
765.869	195802
765.978	275970
766.086	404855
766.195	634607
766.303	1016453
766.412	1250680
766.520	1108072
766.629	1061348
766.737	638886
766.846	403600
766.954	274614
767.062	200192
767.171	154141
767.279	115760
767.387	92052
767.496	76863
767.604	65973
767.712	57594
767.820	51317
767.928	46440
768.037	43352
768.145	41079
768.253	40335
768.361	38435
768.469	37505
768.577	39240
768.685	41323
768.793	42578
768.901	47615
769.009	55608
769.117	65346
769.225	83683
769.333	113222
769.441	168787
769.549	273031
769.657	494619
769.765	906374
769.873	1059667
769.981	949247
770.088	514731
770.196	280898
770.304	179618
770.412	127716
770.519	94961
770.627	74951
770.735	61446
770.842	50274
770.950	44842
771.058	39006
771.165	33938
771.273	30717
771.380	28542
771.488	26160
771.595	22045
771.703	21128
771.810	21026
771.918	18866
772.025	17926
772.133	16751
772.240	15801
772.348	15656
772.455	15108
772.562	13811
772.670	13270
772.777	13401
772.884	12742
772.991	11821
773.099	12123
773.206	11913
773.313	10886
773.420	10942
773.528	9667
773.635	9991
773.742	10401
773.849	9112
773.956	8747
774.063	9166
774.170	7939
774.277	9603
774.384	8671
774.491	8885
774.598	8336
774.705	8518
774.812	9406
774.919	8804
775.026	8631
775.133	8639
775.239	7208
775.346	7551
775.453	7073
775.560	7167
775.667	7156
775.773	6851
775.880	8001
775.987	7205
776.093	6806
776.200	6523
776.307	6373
776.413	7019
776.520	6022
776.627	6432
776.733	6538
776.840	5588
776.946	7122
777.053	5859
777.159	7414
777.266	6330
777.372	8286
777.478	6111
777.585	6139
777.691	5728
777.798	5411
777.904	7337
778.010	8188
778.117	7478
778.223	6075
778.329	5921
778.435	6054
778.542	5658
778.648	4345
778.754	4577
778.860	5918
778.966	4679
779.072	5588
779.178	5608
779.284	5207
779.391	5559
779.497	5329
779.603	8240
779.708	11398
779.815	21711
779.920	71818
780.026	190376
780.132	38085
780.238	7566
780.344	7023
780.450	6347
780.556	5369
780.661	4507
780.767	4937
780.873	4571
780.979	5001
781.085	4967
781.190	5195
781.296	4346
781.402	3548
781.507	3932
781.613	3985
781.719	3507
781.824	3948
781.930	4619
782.035	3656
782.141	4360
782.246	3369
782.352	3348
782.457	3507
782.563	3446
782.668	3664
782.773	3580
782.879	3840
782.984	4978
783.090	4581
783.195	5904
783.300	4899
783.405	4596
783.511	3797
783.616	4717
783.721	4760
783.826	3793
783.932	4482
784.037	4127
784.142	3851
784.247	3636
784.352	4494
784.457	3368
784.562	4467
784.667	4174
784.772	3466
784.877	3079
784.982	4083
785.087	3707
785.192	4715
785.297	3662
785.402	3050
785.507	3086
785.611	3384
785.716	3773
785.821	2304
785.926	3070
786.031	2961
786.135	3108
786.240	2672
786.345	2061
786.450	3503
786.554	3148
786.659	2120
786.763	2623
786.868	3976
786.973	4060
787.077	2291
787.182	3434
787.286	2800
787.391	3425
787.495	2553
787.600	2751
787.704	1756
787.809	3025
787.913	2263
788.017	3271
788.122	2709
788.226	3086
788.330	2383
788.435	2178
788.539	2207
788.643	2066
788.747	2598
788.852	2114
788.956	2040
789.060	2532
789.164	3009
789.268	2244
789.372	1719
789.476	3170
789.580	2661
789.684	1828
789.788	2234
789.892	2463
789.996	3096
790.100	2728
790.204	1555
790.308	3255
790.412	3379
790.516	2829
790.620	3057
790.724	2955
790.828	2522
790.931	2357
791.035	3575
791.139	3029
791.242	2045
791.346	3248
791.450	1988
791.554	2588
791.657	1696
791.761	3311
791.864	3228
791.968	2413
792.072	2935
792.175	2178
792.279	2171
792.382	3020
792.486	2861
792.589	2197
792.693	3056
792.796	1632
792.899	3203
793.003	2164
793.106	1292
793.209	2882
793.313	3113
793.416	1315
793.519	3005
793.623	2907
793.726	3800
793.829	2477
793.932	3087
794.035	1971
794.138	3781
794.242	3229
794.345	4711
794.448	6450
794.551	11583
794.654	38661
794.757	104622
794.860	24518
794.963	6059
795.066	1999
795.169	3669
795.272	2216
795.375	2465
795.477	1287
795.580	2524
795.683	1191
795.786	1868
795.889	954
795.991	2002
796.094	3296
796.197	2449
796.300	3161
796.402	1117
796.505	1276
796.608	1365
796.710	1547
796.813	1881
796.915	1640
797.018	2081
797.120	1537
797.223	603
797.326	2735
797.428	990
797.530	1777
797.633	2043
797.735	3030
797.838	4925
797.940	6268
798.042	1806
798.145	1574
798.247	2364
798.349	828
798.452	1874
798.554	981
798.656	280
798.758	1855
798.860	1589
798.962	1112
799.065	2116
799.167	427
799.269	1981
799.371	1872
799.473	2730
799.575	2052
799.677	3908
799.779	3402
799.881	2085
799.983	2958
800.085	1935
800.187	1607
800.289	1209
800.390	1985
800.492	2321
800.594	2976
800.696	1803
800.798	1771
800.899	1385
801.001	1383
801.103	1311
801.205	1196
801.306	1046
801.408	1376
801.509	1074
801.611	1566
801.713	916
801.814	919
801.916	1675
802.017	578
802.119	722
802.220	1374
802.322	64
802.423	4000
802.525	1808
802.626	1240
802.727	1035
802.829	2369
802.930	17
803.031	2502
803.133	1032
803.234	978
803.335	1189
803.436	1713
803.538	1438
803.639	-295
803.740	1493
803.841	958
803.942	1143
804.043	1387
804.144	1156
804.245	950
804.346	646
804.447	219
804.548	1365
804.649	2842
804.750	911
804.851	1064
804.952	1316
805.053	715
805.154	248
805.255	1969
805.355	1114
805.456	615
805.557	104
805.658	561
805.758	1413
805.859	1314
805.960	1181
806.061	510
806.161	573
806.262	764
806.362	1509
806.463	1595
806.564	1496
806.664	1151
806.765	1946
806.865	2518
806.966	1801
807.066	1563
807.166	1431
807.267	1180
807.367	-37
807.468	1771
807.568	250
807.668	1377
807.769	2058
807.869	1139
807.969	619
808.069	1228
808.170	833
808.270	661
808.370	1200
808.470	1247
808.570	604
808.670	768
808.770	497
808.870	996
808.970	1302
809.070	790
809.170	-71
809.271	1277
809.370	1232
809.470	1319
809.570	379
809.670	654
809.770	-203
809.870	648
809.970	904
810.070	-61
810.169	1003
810.269	190
810.369	1967
810.469	186
810.568	277
810.668	690
810.768	-18
810.867	556
810.967	349
811.066	682
811.166	909
811.265	1155
811.365	68
811.464	25
811.564	923
811.663	1624
811.763	-709
811.862	1318
811.962	1389
812.061	723
812.160	-517
812.260	814
812.359	2040
812.458	700
812.557	3231
812.657	5213
812.756	2264
812.855	1063
812.954	221
813.053	1049
813.153	1008
813.252	676
813.351	282
813.450	1124
813.549	285
813.648	1374
813.747	-41
813.846	1150
813.945	637
814.044	833
814.143	1192
814.242	762
814.341	498
814.439	1529
814.538	1214
814.637	1029
814.736	330
814.835	1361
814.933	739
815.032	744
815.131	453
815.229	1103
815.328	550
815.427	819
815.525	1654
815.624	1024
815.722	758
815.821	1066
815.919	384
816.018	405
816.116	1782
816.215	1030
816.313	1033
816.412	1487
816.510	1056
816.609	2103
816.707	2065
816.805	1341
816.904	710
817.002	1961
817.100	1773
817.198	2724
817.296	2107
817.395	2206
817.493	2965
817.591	2982
817.689	5050
817.787	6062
817.885	9938
817.983	19410
818.081	40425
818.179	96859
818.277	255235
818.375	285184
818.473	82287
818.571	28793
818.669	17203
818.767	13562
818.865	13721
818.963	16439
819.061	22264
819.158	38700
819.256	82787
819.354	192274
819.452	457447
819.549	382079
819.647	110112
819.745	39843
819.842	22095
819.940	14843
820.038	10053
820.135	8864
820.233	7436
820.330	4331
820.428	4218
820.525	4737
820.623	3263
820.720	2578
820.818	2604
820.915	2151
821.012	2179
821.110	1356
821.207	2423
821.304	1065
821.402	1367
821.499	2546
821.596	2500
821.693	1702
821.791	2493
821.888	2112
821.985	3557
822.082	2461
822.179	1359
822.276	1497
822.373	1782
822.470	236
822.567	1027
822.664	379
822.761	505
822.858	338
822.955	346
823.052	876
823.149	606
823.246	830
823.343	-203
823.440	762
823.536	-192
823.633	509
823.730	178
823.827	477
823.923	204
824.020	1482
824.117	616
824.213	-156
824.310	748
824.407	-278
824.503	728
824.600	653
824.696	591
824.793	885
824.889	82
824.986	211
825.082	330
825.179	495
825.275	183
825.371	-56
825.468	420
825.564	-376
825.660	869
825.757	306
825.853	1399
825.949	-691
826.045	90
826.142	-8
826.238	-80
826.334	604
826.430	-435
826.526	470
826.622	-95
826.718	393
826.814	-202
826.910	757
827.006	460
827.102	1072
827.198	350
827.294	-711
827.390	47
827.486	1058
827.582	-744
827.678	-15
827.774	136
827.869	-210
827.965	1170
828.061	-560
828.157	303
828.252	489
828.348	-414
828.444	1142
828.539	-700
828.635	720
828.731	680
828.826	58
828.922	815
829.017	-140
829.113	1224
829.208	-392
829.304	-512
829.399	1419
829.495	366
829.590	1426
829.685	-1382
829.781	472
829.876	-475
829.971	-108
830.066	-88
830.162	938
830.257	112
830.352	-769
830.447	443
830.543	345
830.638	-692
830.733	1126
830.828	-441
830.923	952
831.018	282
831.113	14
831.208	-429
831.303	455
831.398	831
831.493	-607
831.588	-73
831.683	-100
831.778	246
831.873	176
831.967	1132
832.062	106
832.157	-871
832.252	229
832.346	-17
832.441	-589
832.536	186
832.631	2145
832.725	2516
832.820	89
832.914	-231
833.009	-728
833.104	381
833.198	1233
833.293	-920
833.387	487
833.482	244
833.576	-488
833.670	-175
833.765	247
833.859	224
833.954	153
834.048	-193
834.142	670
834.237	-448
834.331	289
834.425	-170
834.519	92
834.613	910
834.708	88
834.802	422
834.896	-635
834.990	-345
835.084	278
835.178	211
835.272	-80
835.366	-177
835.460	-362
835.554	-520
835.648	-78
835.742	-335
835.836	59
835.930	-1351
836.024	374
836.117	61
836.211	2
836.305	2040
836.399	3288
836.493	-1063
836.586	580
836.680	-1074
836.774	-536
836.867	423
836.961	-289
837.055	-904
837.148	-494
837.242	119
837.335	-9
837.429	-106
837.522	-235
837.616	953
837.709	3479
837.803	2946
837.896	521
837.989	830
838.083	1411
838.176	3921
838.269	5019
838.363	687
838.456	-303
838.549	584
838.642	1070
838.735	3027
838.829	875
838.922	-428
839.015	229
839.108	-719
839.201	-765
839.294	-235
839.387	365
839.480	-263
839.573	1182
839.666	2293
839.759	551
839.852	-1394
839.945	-194
840.038	-322
840.131	407
840.223	-123
840.316	513
840.409	-733
840.502	-918
840.594	376
840.687	-1507
840.780	-139
840.873	-503
840.965	1267
841.058	1246
841.150	3703
841.243	3033
841.336	347
841.428	634
841.521	-195
841.613	623
841.706	1065
841.798	-62
841.890	-307
841.983	-661
842.075	718
842.167	531
842.260	46
842.352	2693
842.444	1833
842.537	4535
842.629	9170
842.721	1848
842.813	410
842.905	-929
842.997	361
843.090	461
843.182	1081
843.274	4896
843.366	11524
843.458	27491
843.550	19989
843.642	2358
843.734	334
843.826	993
843.918	1771
844.009	532
844.101	-595
844.193	1480
844.285	-18
844.377	519
844.469	361
844.560	171
844.652	378
844.744	627
844.835	28
844.927	-21
845.019	942
845.110	1365
845.202	455
845.293	-505
845.385	-1114
845.476	-428
845.568	640
845.659	-700
845.751	-464
845.842	-134
845.934	-1122
846.025	-690
846.116	-77
846.208	-305
846.299	-223
846.390	550
846.482	-50
846.573	1201
846.664	864
846.755	1342
846.846	1950
846.937	-1001
847.029	-554
847.120	-33
847.211	265
847.302	519
847.393	-1340
847.484	1107
847.575	-444
847.666	-782
847.757	-25
847.847	-148
847.938	367
848.029	-46
848.120	-496
848.211	-251
848.302	-318
848.392	347
848.483	-228
848.574	-290
848.664	-1257
848.755	-622
848.846	-280
848.936	-413
849.027	-469
849.118	-161
849.208	-589
849.299	55
849.389	1192
849.480	706
849.570	1656
849.661	3902
849.751	6029
849.841	3304
849.932	336
850.022	-823
850.112	169
850.203	-578
850.293	-253
850.383	-409
850.474	-438
850.564	-270
850.654	-163
850.744	-404
850.834	585
850.924	312
851.014	34
851.104	-271
851.194	-93
851.284	726
851.374	-336
851.464	-121
851.554	1240
851.644	464
851.734	1178
851.824	1940
851.914	339
852.004	1436
852.094	1462
852.183	-30
852.273	429
852.363	-504
852.452	-353
852.542	-735
852.632	-135
852.721	-22
852.811	46
852.901	293
852.990	-673
853.080	50
853.169	24
853.259	104
853.348	-766
853.438	852
853.527	-597
853.617	20
853.706	1904
853.795	1596
853.885	6902
853.974	13508
854.063	23859
854.152	44863
854.242	20068
854.331	1730
854.420	524
854.509	-72
854.598	604
854.687	563
854.777	1066
854.866	-652
854.955	380
855.044	-206
855.133	-608
855.222	-287
855.311	-433
855.400	458
855.488	584
855.577	126
855.666	35
855.755	1037
855.844	1349
855.933	1768
856.021	156
856.110	185
856.199	-943
856.288	-893
856.376	-538
856.465	-492
856.554	-475
856.642	-29
856.731	11
856.819	166
856.908	-688
856.996	226
857.085	-1013
857.173	581
857.262	-462
857.350	48
857.438	-976
857.527	-57
857.615	-632
857.703	551
857.792	-254
857.880	-253
857.968	-806
858.056	-342
858.145	-564
858.233	-259
858.321	-108
858.409	-69
858.497	-187
858.585	-483
858.673	-504
858.761	-645
858.849	-1040
858.937	-31
859.025	-198
859.113	21
859.201	-867
859.289	617
859.377	-174
859.465	21
859.552	-137
859.640	203
859.728	-302
859.816	-687
859.903	78
859.991	-546
860.079	-166
860.166	-733
860.254	-815
860.342	-949
860.429	-529
860.517	-585
860.604	-454
860.692	-534
860.779	-600
860.867	-425
860.954	160
861.042	-497
861.129	-231
861.216	211
861.304	-560
861.391	-414
861.478	-249
861.565	-369
861.653	168
861.740	-1138
861.827	-554
861.914	-972
862.001	-176
862.089	-309
862.176	-256
862.263	-1505
862.350	-651
862.437	-272
862.524	-920
862.611	-581
862.698	8
862.785	-673
862.871	-101
862.958	-993
863.045	-239
863.132	-231
863.219	-1136
863.306	-1137
863.392	-235
863.479	-563
863.566	-1019
863.652	-105
863.739	-1140
863.826	-880
863.912	-1003
863.999	-569
864.086	-235
864.172	-195
864.259	-299
864.345	-266
864.432	-482
864.518	-780
864.604	-943
864.691	-1227
864.777	-93
864.863	241
864.950	-337
865.036	-752
865.122	-754
865.209	-176
865.295	-1057
865.381	-437
865.467	225
865.553	262
865.639	-912
865.726	739
865.812	2209
865.898	5361
865.984	9798
866.070	16744
866.156	23537
866.242	6369
866.328	794
866.414	-1073
866.499	-798
866.585	-373
866.671	-1080
866.757	-192
866.843	-227
866.928	-1235
867.014	-382
867.100	-857
867.186	250
867.271	299
867.357	624
867.442	1669
867.528	712
867.614	-774
867.699	-950
867.785	21
867.870	-370
867.956	-359
868.041	183
868.127	163
868.212	1121
868.297	542
868.383	280
868.468	365
868.553	698
868.639	948
868.724	2329
868.809	4179
868.894	-507
868.979	258
869.065	-126
869.150	-555
869.235	-248
869.320	-925
869.405	-506
869.490	-1810
869.575	-762
869.660	-811
869.745	-217
869.830	-671
869.915	-1029
870.000	-661
870.085	-1143
870.169	9
870.254	-444
870.339	-1122
870.424	-977
870.509	-12
870.593	-507
870.678	391
870.763	-608
870.847	-19
870.932	-1064
871.016	-500
871.101	-497
871.186	-1247
871.270	-180
871.355	-1140
871.439	-868
871.523	-835
871.608	-278
871.692	-771
871.777	-507
871.861	-778
871.945	-673
872.030	-622
872.114	72
872.198	-1087
872.282	-701
872.367	-518
872.451	-1030
872.535	42
872.619	137
872.703	-832
872.787	-300
872.871	166
872.955	-685
873.039	-511
873.123	-557
873.207	115
873.291	-84
873.375	1
873.459	-1157
873.543	-1573
873.627	-815
873.711	-642
873.794	-1117
873.878	-575
873.962	-881
874.045	112
874.129	-814
874.137	-813
874.213	-808
874.245	-640
874.296	-364
874.352	-409
874.380	-435
874.460	-874
874.464	-893
874.547	-409
874.568	-461
874.631	-605
874.676	-211
874.714	122
874.784	286
874.798	313
874.881	323
874.892	175
874.965	-813
874.999	-734
875.048	-634
875.107	-493
875.131	-443
875.215	-671
875.215	-671
875.298	-520
875.323	-445
875.381	-273
875.430	-297
875.465	-305
875.538	-695
875.548	-745
875.631	-575
875.646	-559
875.714	-612
875.753	-885
875.798	-1092
875.861	-162
875.881	98
875.964	94
875.968	76
876.047	-166
876.076	-327
876.130	-693
876.183	-653
876.213	-578
876.291	-309
876.296	-299
876.379	-759
876.398	-761
876.462	-725
876.506	-312
876.545	59
876.613	-52
876.628	-100
876.711	-734
876.721	-727
876.794	-477
876.828	-554
876.877	-720
876.935	-113
876.960	144
877.043	-541
877.043	-540
877.125	-195
877.150	-92
877.208	133
877.258	287
877.291	414
877.365	-43
877.374	-121
877.456	131
877.472	52
877.539	73
877.579	361
877.622	423
877.687	162
877.704	158
877.787	-120
877.794	-119
877.869	-232
877.901	-97
877.952	177
878.008	-28
878.034	-167
878.115	-167
878.117	-162
878.199	-549
878.222	-450
878.282	-306
878.329	107
878.364	455
878.437	-69
878.447	-166
878.529	-606
878.544	-651
878.611	-619
878.651	-359
878.694	-224
878.758	-187
878.776	-111
878.858	75
878.865	71
878.941	39
878.972	186
879.023	98
879.078	-597
879.105	-721
879.185	282
879.187	296
879.269	-762
879.292	-717
879.351	-543
879.399	-512
879.433	-430
879.506	-65
879.516	-43
879.598	-369
879.613	-420
879.680	-396
879.720	-362
879.762	-502
879.827	-646
879.844	-656
879.926	-453
879.933	-485
880.007	-554
880.040	-574
880.089	-707
880.147	-580
880.171	-541
880.253	408
880.254	406
880.335	397
880.360	529
880.417	704
880.467	1387
880.499	1973
880.574	2923
880.580	2931
880.662	1118
880.680	700
880.744	-364
880.787	-195
880.825	-84
880.893	-116
880.907	-119
880.989	-62
881.000	-89
881.070	-261
881.106	-77
881.152	275
881.213	-131
881.233	-339
881.315	-364
881.319	-365
881.396	-33
881.426	-207
881.478	-715
881.532	-332
881.559	-113
881.639	-530
881.641	-535
881.722	-114
881.745	-22
881.803	336
881.852	282
881.885	45
881.958	-81
881.966	-65
882.047	34
882.064	37
882.129	10
882.171	-47
882.210	-88
882.277	181
882.291	241
882.372	52
882.383	-35
882.454	-560
882.489	-484
882.535	-440
882.596	-324
882.616	-222
882.697	10
882.702	17
882.778	-43
882.808	39
882.859	263
882.914	362
882.940	314
883.020	-430
883.021	-429
883.102	211
883.127	120
883.183	-301
883.233	-93
883.264	73
883.339	-103
883.345	-126
883.426	-502
883.445	-625
883.507	-461
883.551	-30
883.587	-29
883.657	-638
883.668	-641
883.749	427
883.763	423
883.830	87
883.869	167
883.910	56
883.975	-360
883.991	-298
884.072	311
884.081	313
884.152	-41
884.187	-65
884.233	-168
884.292	-380
884.314	-374
884.394	-61
884.398	-67
884.475	-333
884.504	-361
884.555	18
884.610	341
884.636	376
884.716	678
884.716	684
884.797	713
884.821	672
884.877	303
884.927	-131
884.958	-284
885.033	-315
885.038	-305
885.118	-392
885.139	-437
885.199	-198
885.244	232
885.279	281
885.350	-56
885.359	-76
885.439	-132
885.456	-185
885.520	-66
885.561	187
885.600	253
885.667	251
885.680	222
885.760	36
885.773	10
885.840	106
885.878	93
885.920	-78
885.984	-549
886.000	-579
886.080	-210
886.089	-210
886.160	-278
886.195	-213
886.240	-159
886.300	-151
886.320	29
886.400	756
886.406	786
886.480	74
886.511	-106
886.560	-51
886.616	-175
886.640	-51
886.720	470
886.722	477
886.800	179
886.827	84
886.879	260
886.932	445
886.959	570
887.038	993
887.039	996
887.119	710
887.143	641
887.198	577
887.248	641
887.278	640
887.354	180
887.358	153
887.437	-154
887.459	-281
887.517	63
887.564	411
887.596	297
887.669	-124
887.676	-88
887.755	461
887.774	539
887.835	449
887.880	577
887.914	527
887.985	166
887.994	196
888.073	450
888.090	521
888.153	710
888.195	774
888.232	675
888.300	604
888.311	557
888.391	127
888.405	36
888.470	145
888.510	208
888.549	385
888.615	781
888.628	809
888.708	884
888.720	889
888.787	93
888.825	-372
888.866	-256
888.930	-83
888.945	-33
889.024	277
889.035	310
889.103	828
889.140	1091
889.182	1006
889.245	918
889.261	875
889.340	612
889.349	583
889.419	1073
889.454	1316
889.498	797
889.559	59
889.577	153
889.656	584
889.664	627
889.735	971
889.768	1128
889.814	1007
889.873	845
889.978	1046
890.083	740
890.187	1137
890.292	1332
890.397	447
890.501	1214
890.606	68
890.710	947
890.815	949
890.919	137
891.024	412
891.128	1210
891.233	781
891.337	398
891.442	415
891.546	-205
891.650	232
891.755	735
891.859	1207
891.963	702
892.068	810
892.172	668
892.276	203
892.380	704
892.484	344
892.589	628
892.693	721
892.797	855
892.901	558
893.005	736
893.109	677
893.213	731
893.317	61
893.421	-173
893.525	708
893.629	568
893.733	-111
893.837	388
893.941	702
894.045	1298
894.148	412
894.252	810
894.356	925
894.460	703
894.564	129
894.667	216
894.771	936
894.875	495
894.978	421
895.082	203
895.186	194
895.289	677
895.393	210
895.496	831
895.600	585
895.703	1362
895.807	583
895.910	813
896.014	-176
896.117	678
896.221	890
896.324	-3
896.427	524
896.531	1396
896.634	1439
896.737	1151
896.840	427
896.944	545
897.047	407
897.150	464
897.253	569
897.356	965
897.460	-245
897.563	970
897.666	595
897.769	415
897.872	706
897.975	622
898.078	-594
898.181	324
898.284	82
898.387	461
898.490	1011
898.593	703
898.695	-88
898.798	376
898.901	152
899.004	1151
899.107	281
899.209	1104
899.312	456
899.415	355
899.518	-16
899.620	182
899.723	-105
899.826	397
899.928	744
900.031	904
900.133	120
900.236	367
900.338	521
900.441	70
900.543	1312
900.646	71
900.748	977
900.851	809
900.953	-605
901.055	863
901.158	419
901.260	1407
901.362	233
901.465	-166
901.567	709
901.669	884
901.771	420
901.873	568
901.976	500
902.078	661
902.180	384
902.282	529
902.384	599
902.486	1377
902.588	829
902.690	898
902.792	-797
902.894	884
902.996	99
903.098	711
903.200	264
903.302	772
903.404	414
903.505	18
903.607	454
903.709	763
903.811	122
903.913	-203
904.014	252
904.116	1249
904.218	-240
904.319	563
904.421	504
904.523	957
904.624	360
904.726	523
904.827	238
904.929	897
905.030	452
905.132	735
905.233	335
905.335	250
905.436	414
905.537	-113
905.639	171
905.740	606
905.841	804
905.943	253
906.044	-634
906.145	119
906.247	81
906.348	1249
906.449	175
906.550	397
906.651	171
906.752	403
906.854	145
906.955	-259
907.056	295
907.157	225
907.258	145
907.359	-175
907.460	90
907.561	692
907.662	-417
907.762	512
907.863	-565
907.964	-714
908.065	577
908.166	250
908.267	-20
908.367	225
908.468	104
908.569	175
908.670	680
908.770	476
908.871	-40
908.971	254
909.072	294
909.173	914
909.273	504
909.374	922
909.474	328
909.575	612
909.675	21
909.776	-217
909.876	4
909.977	278
910.077	305
910.177	417
910.278	-93
910.378	455
910.478	250
910.579	404
910.679	-80
910.779	535
910.879	1009
910.980	-14
911.080	-47
911.180	-388
911.280	264
911.380	308
911.480	-2
911.580	130
911.680	-22
911.780	-224
911.880	167
911.980	451
912.080	258
912.180	217
912.280	-356
912.380	203
912.480	659
912.580	114
912.679	515
912.779	781
912.879	-115
912.979	195
913.078	245
913.178	874
913.278	-6
913.377	433
913.477	1292
913.577	125
913.676	626
913.776	642
913.875	-82
913.975	546
914.074	-287
914.174	193
914.273	60
914.373	718
914.472	145
914.572	313
914.671	26
914.770	478
914.870	-396
914.969	42
915.068	-765
915.167	-104
915.267	-6
915.366	131
915.465	105
915.564	-102
915.663	-284
915.763	199
915.862	269
915.961	460
916.060	287
916.159	484
916.258	-139
916.357	97
916.456	1062
916.555	147
916.654	-192
916.752	-249
916.851	-296
916.950	441
917.049	91
917.148	298
917.247	-581
917.345	-196
917.444	-280
917.543	-116
917.642	731
917.740	298
917.839	119
917.937	456
918.036	-837
918.135	158
918.233	-24
918.332	323
918.430	-413
918.529	-420
918.627	574
918.726	346
918.824	715
918.923	-83
919.021	591
919.119	289
919.218	-16
919.316	230
919.414	778
919.512	257
919.611	-482
919.709	13
919.807	-57
919.905	-148
920.003	191
920.102	53
920.200	-305
920.298	231
920.396	-64
920.494	766
920.592	-405
920.690	470
920.788	-121
920.886	37
920.984	177
921.082	133
921.180	-111
921.277	154
921.375	225
921.473	405
921.571	57
921.669	1067
921.766	228
921.864	627
921.962	312
922.060	750
922.157	350
922.255	1036
922.352	-209
922.450	1122
922.548	19
922.645	277
922.743	342
922.840	660
922.938	-51
923.035	922
923.133	71
923.230	422
923.327	-444
923.425	153
923.522	-232
923.619	120
923.717	175
923.814	-226
923.911	417
924.008	280
924.106	-287
924.203	1120
924.300	-543
924.397	240
924.494	631
924.591	196
924.688	477
924.786	-110
924.883	622
924.979	429
925.077	-218
925.173	260
925.270	139
925.367	453
925.464	1182
925.561	662
925.658	382
925.755	30
925.852	218
925.948	-636
926.045	521
926.142	735
926.239	519
926.335	1077
926.432	737
926.529	507
926.625	-303
926.722	429
926.818	-69
926.915	623
927.011	-316
927.108	278
927.204	-410
927.301	380
927.397	-62
927.494	-413
927.590	212
927.687	215
927.783	-7
927.879	208
927.976	-264
928.072	788
928.168	505
928.264	611
928.361	299
928.457	250
928.553	-200
928.649	190
928.745	432
928.841	266
928.937	396
929.033	18
929.129	-593
929.225	401
929.321	401
929.417	-70
929.513	-52
929.609	-707
929.705	-238
929.801	805
929.897	216
929.993	1112
930.089	441
930.184	957
930.280	-401
930.376	481
930.471	-291
930.567	451
930.663	35
930.758	611
930.854	140
930.950	94
931.045	-50
931.141	748
931.236	375
931.332	-217
931.427	-399
931.523	-501
931.618	527
931.714	-146
931.809	280
931.905	167
932.000	351
932.095	222
932.191	532
932.286	25
932.381	-389
932.476	-128
932.572	394
932.667	-6
932.762	250
932.857	330
932.952	-121
933.047	-81
933.142	-211
933.237	182
933.332	-45
933.427	-439
933.522	433
933.617	-68
933.712	134
933.807	-273
933.902	-517
933.997	640
934.092	-113
934.187	424
934.282	-137
934.376	-270
934.471	-431
934.566	110
934.661	291
934.755	-599
934.850	854
934.945	1088
935.039	-465
935.134	139
935.228	-329
935.323	735
935.417	338
935.512	508
935.606	519
935.701	-97
935.795	93
935.890	-290
935.984	347
936.079	392
936.173	84
936.267	-343
936.362	545
936.456	665
936.550	109
936.644	55
936.738	361
936.833	-132
936.927	426
937.021	713
937.115	-504
937.209	-221
937.303	575
937.397	-490
937.491	-305
937.585	905
937.679	66
937.773	921
937.867	-339
937.961	-145
938.055	-484
938.149	89
938.243	256
938.337	-160
938.430	-379
938.524	369
938.618	-314
938.712	228
938.805	-216
938.899	-481
938.993	-129
939.086	-76
939.180	-408
939.274	471
939.367	686
939.461	-22
939.554	698
939.648	592
939.741	-76
939.835	-66
939.928	-178
940.022	803
940.115	-447
940.208	-284
940.302	-315
940.395	850
940.488	-26
940.582	1049
940.675	-704
940.768	393
940.861	-221
940.954	-269
941.048	759
941.141	510
941.234	45
941.327	1128
941.420	1384
941.513	-20
941.606	-105
941.699	922
941.792	-86
941.885	148
941.978	-22
942.071	347
942.164	-183
942.257	-142
942.349	266
942.442	1
942.535	-138
942.628	876
942.721	348
942.813	-691
942.906	-50
942.999	-355
943.091	-300
943.184	135
943.277	-440
943.369	971
943.462	-86
943.554	831
943.647	-1007
943.739	282
943.832	-1230
943.924	-75
944.017	256
944.109	-729
944.201	-633
944.294	-56
944.386	-139
944.478	-292
944.571	-380
944.663	394
944.755	819
944.847	-75
944.940	192
945.032	-877
945.124	105
945.216	587
945.308	-739
945.400	307
945.492	-237
945.584	-787
945.676	-136
945.768	-504
945.860	419
945.952	38
946.044	34
946.136	-41
946.228	434
946.320	-242
946.412	-74
946.503	-279
946.595	290
946.687	-415
946.779	485
946.870	449
946.962	62
947.054	1030
947.145	-406
947.237	43
947.329	-350
947.420	-960
947.512	-344
947.603	-228
947.695	-109
947.786	-311
947.878	-972
947.969	518
948.061	-52
948.152	-238
948.243	148
948.335	-486
948.426	-479
948.517	-655
948.609	-872
948.700	-681
948.791	-594
948.882	-965
948.973	-1241
949.065	-301
949.156	-73
949.247	63
949.338	-746
949.429	-242
949.520	-839
949.611	-1042
949.702	-445
949.793	-413
949.884	516
949.975	587
950.066	-187
950.157	42
950.247	356
950.338	-266
950.429	-145
950.520	-239
950.611	-356
950.701	-118
950.792	-547
950.883	81
950.973	-356
951.064	133
951.155	-494
951.245	458
951.336	-677
951.427	277
951.517	68
951.608	-452
951.698	-797
951.788	992
951.879	-854
951.969	-652
952.060	48
952.150	22
952.240	-487
952.331	-1463
952.421	825
952.511	-243
952.602	18
952.692	103
952.782	-130
952.872	-403
952.962	-978
953.052	-730
953.143	-79
953.233	-274
953.323	166
953.413	-619
953.503	-722
953.593	-259
953.683	-126
953.773	-756
953.863	-428
953.953	-443
954.042	370
954.132	-360
954.222	-183
954.312	-543
954.402	-1055
954.492	-152
954.581	155
954.671	-490
954.761	-475
954.850	753
954.940	185
955.030	394
955.119	-258
955.209	-336
955.298	-962
955.388	-108
955.477	174
955.567	-649
955.656	161
955.746	608
955.835	-735
955.925	-45
956.014	-332
956.103	-734
956.193	-124
956.282	5
956.371	-669
956.461	-537
956.550	-866
956.639	-659
956.728	-479
956.817	958
956.906	-221
956.995	-25
957.085	-505
957.174	-83
957.263	-828
957.352	110
957.441	-714
957.530	-581
957.619	167
957.708	-652
957.796	-278
957.885	-476
957.974	-1156
958.063	-437
958.152	-899
958.241	81
958.329	-393
958.418	-651
958.507	-587
958.596	562
958.684	-800
958.773	-62
958.861	-596
958.950	-464
959.039	-227
959.127	128
959.216	-521
959.304	-563
959.393	-629
959.481	305
959.570	-249
959.658	98
959.746	771
959.835	229
959.923	-122
960.011	367
960.100	107
960.188	-241
960.276	-264
960.365	294
960.453	-1060
960.541	21
960.629	-649
960.717	-213
960.805	-974
960.893	-10
960.981	-695
961.069	598
961.158	-1493
961.245	10
961.333	75
961.421	-430
961.509	408
961.597	-139
961.685	-424
961.773	-900
961.861	-820
961.949	-410
962.036	-790
962.124	113
962.212	-197
962.299	-459
962.387	-99
962.475	651
962.562	-1667
962.650	-77
962.738	-919
962.825	-979
962.913	656
963.000	-854
963.088	-245
963.175	-437
963.263	-325
963.350	-351
963.438	-708
963.525	-840
963.612	-328
963.700	1386
963.787	1883
963.874	168
963.962	-332
964.049	-145
964.136	-273
964.223	-815
964.310	-474
964.398	-46
964.485	-792
964.572	-140
964.659	-34
964.746	478
964.833	-397
964.920	-9
965.007	-100
965.094	721
965.181	-1203
965.268	-434
965.355	-839
965.441	-21
965.528	-867
965.615	-348
965.702	-389
965.789	-334
965.875	-832
965.962	336
966.049	-1097
966.136	179
966.222	-597
966.309	341
966.395	-1603
966.482	-340
966.569	-964
966.655	-214
966.742	-323
966.828	-515
966.915	-342
967.001	-180
967.087	-1198
967.174	332
967.260	632
967.347	-194
967.433	319
967.519	1987
967.605	54
967.692	-47
967.778	-306
967.864	-723
967.950	-231
968.036	-489
968.123	-589
968.209	-808
968.295	-954
968.381	513
968.467	-321
968.553	-1605
968.639	-207
968.725	-1547
968.811	368
968.897	289
968.983	-305
969.069	-834
969.154	142
969.240	-116
969.326	-993
969.412	9
969.497	-1038
969.583	-614
969.669	81
969.755	85
969.840	-1100
969.926	-511
970.012	-1580
970.097	-801
970.183	-153
970.268	-1084
970.354	-313
970.439	25
970.525	1530
970.610	-1162
970.696	787
970.781	18
970.866	-1218
970.952	288
971.037	-987
971.122	-305
971.208	-589
971.293	-639
971.378	-920
971.463	-427
971.549	-428
971.634	-131
971.719	-30
971.804	-822
971.889	695
971.974	-909
972.059	-584
972.144	-52
972.229	-616
972.314	-378
972.399	-612
972.484	-487
972.569	194
972.654	-462
972.739	480
972.824	515
972.908	103
972.993	-399
973.078	-1041
973.163	-148
973.247	115
973.332	-964
973.417	725
973.501	-1009
973.586	257
973.671	-1372
973.755	-514
973.840	445
973.924	-296
974.009	141
974.093	-1141
974.178	484
974.262	348
974.346	-489
974.431	-52
974.515	-1258
974.600	-585
974.684	-203
974.768	-595
974.852	943
974.937	-922
975.021	191
975.105	82
975.189	-367
975.273	-511
975.358	-674
975.442	-1073
975.526	-13
975.610	-105
975.694	-790
975.778	-280
975.862	77
975.946	-1994
976.030	932
976.114	-1083
976.198	-648
976.281	-702
976.365	-456
976.449	-1264
976.533	213
976.617	-513
976.700	-640
976.784	-689
976.868	-674
976.951	251
977.035	-85
977.119	46
977.202	-308
977.286	-644
977.369	-774
977.453	-773
977.536	-1191
977.620	-871
977.703	320
977.787	-1362
977.870	96
977.953	240
978.037	-800
978.120	130
978.203	-391
978.287	-1054
978.370	-5
978.453	-869
978.536	-260
978.620	222
978.703	-277
978.786	-1117
978.869	-1270
978.952	-1662
979.035	737
979.118	27
979.201	-806
979.284	-797
979.367	-139
979.450	-275
979.533	-1773
979.616	-765
979.699	101
979.782	-452
979.865	540
979.948	-1572
980.030	-901
980.113	-1136
980.196	-911
980.279	-1070
980.361	-646
980.444	-691
980.526	-238
980.609	-633
980.692	-436
980.774	-275
980.857	-1476
980.939	37
981.022	-1020
981.104	-330
981.187	-1446
981.269	-169
981.352	-884
981.434	-746
981.516	-1660
981.599	-119
981.681	-365
981.763	-1073
981.846	-587
981.928	-842
982.010	-881
982.092	-775
982.174	-190
982.256	-806
982.339	-202
982.421	-1069
982.503	151
982.585	-1391
982.667	-375
982.749	-235
982.831	-825
982.913	-1396
982.995	-337
983.077	-1285
983.158	-302
983.240	-1590
983.322	-421
983.404	-241
983.486	-819
983.568	-571
983.649	-948
983.731	-443
983.813	-848
983.894	-1094
983.976	-1446
984.058	-1315
984.139	-325
984.221	-1145
984.302	-243
984.384	-619
984.465	-982
984.547	-1370
984.628	-1130
984.710	-373
984.791	-1360
984.872	-1484
984.954	-302
985.035	-943
985.116	-1324
985.198	-1389
985.279	-57
985.360	-996
985.441	-933
985.522	-1374
985.604	-505
985.685	-2480
985.766	-377
985.847	-241
985.928	-973
986.009	-2049
986.090	-1312
986.171	-736
986.252	-1365
986.333	-583
986.414	-1181
986.495	-1401
986.576	-1002
986.656	-1104
986.737	-897
986.818	-631
986.899	-1406
986.980	-1101
987.060	-258
987.141	-1832
987.222	-802
987.302	-1153
987.383	-1103
987.464	-1517
987.544	-1343
987.625	-1272
987.705	-395
987.786	-1074
987.866	-1403
987.947	-1357
988.027	-1006
988.108	-2191
988.188	-1467
988.268	-1132
988.349	-971
988.429	-1299
988.509	-152
988.589	-1883
988.670	-2308
988.750	18
988.830	-995
988.910	-310
988.990	115
989.070	-1685
989.151	-1527
989.231	-1603
989.311	-694
989.391	-873
989.471	-1110
989.551	-1769
989.631	-1025
989.711	-686
989.791	-1616
989.870	-2052
989.950	298
990.030	-2114
990.110	-186
990.190	-2006
990.269	-794
990.349	-2140
990.429	-1029
990.509	-1196
990.588	-1484
990.668	-1500
990.747	-1857
990.827	-1278
990.907	-613
990.986	-1966
991.066	-913
991.145	-1816
991.225	-1195
991.304	-1499
991.383	-640
991.463	-1906
991.542	-1197
991.622	-1599
991.701	-1730
991.780	-1266
991.859	-746
991.939	-1848
992.018	-1362
992.097	-578
992.176	-1075
992.256	-1212
992.335	-1686
992.414	-895
992.493	-2311
992.572	-2034
992.651	-577
992.730	-1093
992.809	-999
992.888	-1871
992.967	-1395
993.046	-978
993.125	-1768
993.203	-1705
993.282	-1338
993.361	-1045
993.440	-846
993.519	-1853
993.597	-1299
993.676	-1436
993.755	-1238
993.834	-1688
993.912	-2007
993.991	-110
994.069	-2154
994.148	-1220
994.226	-889
994.305	-1276
994.384	-1494
994.462	-154
994.540	-1205
994.619	-2038
994.697	-1268
994.776	-1245
994.854	-989
994.932	-1704
995.011	-1144
995.089	-2047
995.167	-1801
995.245	-1513
995.324	-1658
995.402	-1500
995.480	-1197
995.558	-1215
995.636	-1595
995.714	-1840
995.792	-616
995.870	-1371
995.948	-1585
996.026	-1612
996.104	-2116
996.182	-695
996.260	-1479
996.338	-1298
996.416	-1576
996.494	-2066
996.572	-765
996.649	-714
996.727	-2273
996.805	-1264
996.883	-1853
996.960	-2189
997.038	-353
997.116	-1667
997.193	-1500
997.271	-1973
997.348	-1715
997.426	-1353
997.504	-1645
997.581	-1492
997.658	-1313
997.736	-2382
997.813	-1987
997.891	-1304
997.968	-1861
998.046	-2060
998.123	-1311
998.200	-1247
998.277	-2217
998.355	-1440
998.432	-2269
998.509	-1783
998.586	-633
998.663	-1124
998.741	-1037
998.818	-1534
998.895	-1727
998.972	-1378
999.049	-1632
999.126	-2189
999.203	-1602
999.280	-1529
999.357	-1766
999.434	-1575
999.511	-809
999.587	-727
999.664	-1365
999.741	-1189
999.818	-571
999.895	-1628
999.971	-2005
1000.048	-2025
1000.125	-494
1000.202	-2334
1000.278	-1127
1000.355	-1749
1000.431	-1384
1000.508	-2097
1000.584	-1411
1000.661	-1709
1000.738	-2066
1000.814	-1774
1000.890	-932
1000.967	-1953
1001.043	-1795
1001.120	-2369
1001.196	-1430
1001.272	-2281
1001.349	-1040
1001.425	-996
1001.501	-1432
1001.577	-2227
1001.654	-1222
1001.730	-2474
1001.806	-1128
1001.882	-2033
1001.958	-698
1002.034	-1663
1002.110	-1700
1002.186	-1704
1002.262	-1734
1002.338	-1941
1002.414	-1879
1002.490	-1789
1002.566	-1509
1002.642	-1711
1002.718	-785
1002.794	-1863
1002.870	-1833
1002.945	-1970
1003.021	-1173
1003.097	-1214
1003.173	-1115
1003.248	-2279
1003.324	-1662
1003.400	-1614
1003.475	-2037
1003.551	-2033
1003.626	-1692
1003.702	-1547
1003.777	-1501
1003.853	-2164
1003.928	-2463
1004.004	-1791
1004.079	-1099
1004.155	-929
1004.230	-1922
1004.305	-876
1004.381	-1450
1004.456	-1800
1004.531	-1248
1004.607	-2041
1004.682	-1732
1004.757	-1739
1004.832	-1417
1004.907	-1654
1004.982	-736
1005.057	-939
1005.133	-1474
1005.208	-1301
1005.283	-1552
1005.358	-942
1005.433	-2330
1005.508	-1232
1005.583	-2192
1005.657	-1464
1005.732	-1139
1005.807	-1974
1005.882	-867
1005.957	-1537
1006.032	-1233
1006.106	-1730
1006.181	-1860
1006.256	-1889
1006.331	-1876
1006.405	-2613
1006.480	-1358
1006.554	-1502
1006.629	-1027
1006.704	-1924
1006.778	-1864
1006.853	-1933
1006.927	-1351
1007.002	-2292
1007.076	-719
1007.150	-1880
1007.225	-1908
1007.299	-1324
1007.373	-1567
1007.448	-1378
1007.522	-1635
1007.596	-1632
1007.671	-1459
1007.745	-1713
1007.819	-2147
1007.893	-1494
1007.967	-1400
1008.041	-2453
1008.115	-961
1008.190	-1548
1008.264	-1016
1008.338	-3102
1008.412	-1746
1008.486	-1392
1008.560	-1409
1008.633	-1872
1008.707	-2118
1008.781	-661
1008.855	-1314
1008.929	-1191
1009.003	-1447
1009.076	-2608
1009.150	-1067
1009.224	-1707
1009.298	-1353
1009.371	-2552
1009.445	-1265
1009.519	-2297
1009.592	-1853
1009.666	-1880
1009.739	-1585
1009.813	-2530
1009.886	-1241
1009.960	-2393
1010.033	-460
1010.107	-1520
1010.180	-2447
1010.253	-1170
1010.327	-2246
1010.400	-2144
1010.473	-1796
1010.547	-475
1010.620	-1620
1010.693	-1616
1010.766	-1262
1010.840	-1202
1010.913	-1489
1010.986	-2167
1011.059	-1346
1011.132	-1538
1011.205	-1567
1011.278	-1743
1011.351	-778
1011.424	-1891
1011.497	-1845
1011.570	-800
1011.643	-1618
1011.716	-1963
1011.789	-894
1011.862	-1244
1011.934	-1106
1012.007	-2501
1012.080	-1642
1012.153	-1697
1012.225	-1096
1012.298	-1684
1012.371	-1319
1012.443	-700
1012.516	-2449
1012.588	-1583
1012.661	-1666
1012.733	-2567
1012.806	-1098
1012.879	-2147
1012.951	-1388
1013.023	-1760
1013.096	-1258
1013.168	-1974
1013.241	-1443
1013.313	-2076
1013.385	-1422
1013.458	-1560
1013.530	-1269
1013.602	-1697
1013.674	-1086
1013.746	-2377
1013.819	-1317
1013.891	-1266
1013.963	-1484
1014.035	-1732
1014.107	-1283
1014.179	-1440
1014.251	-1898
1014.323	-1050
1014.395	-1649
1014.467	-1435
1014.539	-1257
1014.611	-1230
1014.683	-1179
1014.754	-1522
1014.826	-1707
1014.898	-486
1014.970	-1846
1015.042	-497
1015.113	-1403
1015.185	-1185
1015.257	-1800
1015.328	-1650
1015.400	-1946
1015.471	-1440
1015.543	-2045
1015.615	-1359
1015.686	-1263
1015.757	-2060
1015.829	-1804
1015.901	-1119
1015.972	-1535
1016.043	-1991
1016.115	-2191
1016.186	-1517
1016.257	-1454
1016.328	-1213
1016.400	-1341
1016.471	-1497
1016.542	-998
1016.613	-1154
1016.685	-1721
1016.756	-1019
1016.827	-1889
1016.898	-1521
1016.969	-411
1017.040	-1594
1017.111	-1869
1017.182	-1323
1017.253	-1591
1017.324	-2343
1017.395	-1841
1017.466	-1634
1017.537	-1471
1017.608	-1855
1017.678	-1938
1017.749	-1618
1017.820	-1861
1017.891	-1560
1017.961	-2268
1018.032	-1543
1018.103	-811
1018.173	-1977
1018.244	-1138
1018.315	-2001
1018.385	-485
1018.456	-1588
1018.526	-2050
1018.597	-1553
1018.667	-1406
1018.738	-2408
1018.808	-1481
1018.878	-1864
1018.949	-1538
1019.019	-1491
1019.089	-1702
1019.160	-2044
1019.230	-2102
1019.300	-1667
1019.371	-1636
1019.441	-1832
1019.511	-1010
1019.581	-1496
1019.651	-1245
1019.721	-1459
1019.791	-2219
1019.861	-2196
1019.931	-1356
1020.001	-1510
1020.071	-2123
1020.141	-1714
1020.211	-1174
1020.281	-2202
1020.351	-1614
1020.421	-1682
1020.491	-1214
1020.560	-1672
1020.630	-1744
1020.700	-1582
1020.770	-1745
1020.839	-1785
1020.909	-738
1020.979	-1790
1021.048	-2083
1021.118	-2088
1021.187	-1615
1021.257	-1517
1021.326	-1287
1021.396	-1695
1021.465	-2083
1021.535	-1475
1021.604	-2455
1021.674	-1718
1021.743	-1916
1021.812	-1473
1021.882	-1928
1021.951	-1400
1022.020	-1974
1022.089	-1294
1022.159	-1362
1022.228	-1418
1022.297	-1545
1022.366	-1963
1022.435	-1704
1022.504	-995
1022.573	-1934
1022.642	-1436
1022.711	-1941
1022.781	-1038
1022.849	-1273
1022.918	-1954
1022.987	-1140
1023.056	-2198
1023.125	-1156
1023.194	-1537
1023.263	-1181
1023.331	-770
1023.400	-2226
1023.469	-2220
1023.538	-771
1023.606	-2918
1023.675	-1028
1023.744	-1886
1023.812	-2195
1023.881	-2101
1023.949	-1290
1024.018	-2520
1024.086	-2275
1024.155	-1412
1024.223	-2170
1024.292	-1604
1024.360	-1481
1024.429	-1679
1024.497	-1638
1024.565	-2131
1024.634	-1878
1024.702	-1729
1024.770	-1903
1024.838	-1982
1024.907	-1895
1024.975	-1713
1025.043	-1701
1025.111	-2576
1025.179	-1394
1025.247	-1475
1025.315	-1991
1025.383	-2441
1025.451	-1896
1025.519	-2813
1025.587	-2066
1025.655	-1972
1025.723	-1754
1025.791	-1587
1025.859	-1811
1025.927	-1863
1025.995	-1834
1026.062	-1422
1026.130	-2329
1026.198	-2979
1026.266	-1018
1026.333	-1566
1026.401	-1726
1026.469	-1844
1026.536	-2153
1026.604	-1957
1026.671	-2217
1026.739	-1890
1026.806	-1709
1026.874	-2065
1026.941	-1679
1027.009	-1630
1027.076	-1877
1027.144	-586
1027.211	-2591
1027.278	-2909
1027.345	-1725
1027.413	-1841
1027.480	-2353
1027.547	-2705
1027.614	-1844
1027.682	-2017
1027.749	-2130
1027.816	-2285
1027.883	-1777
1027.950	-2050
1028.017	-2123
1028.084	-1257
1028.151	-2547
1028.218	-1437
1028.285	-1988
1028.352	-2188
1028.419	-2259
1028.486	-1937
1028.553	-1818
1028.619	-2209
1028.686	-2025
1028.753	-2690
1028.820	-2811
1028.886	-2058
1028.953	-1176
1029.020	-1922
1029.086	-2143
1029.153	-1676
1029.220	-2157
1029.286	-1683
1029.353	-1900
1029.419	-2610
1029.486	-1592
1029.552	-1802
1029.619	-2415
1029.685	-2080
1029.751	-1907
1029.818	-1559
1029.884	-2176
1029.951	-1529
1030.017	-1978
1030.083	-2458
1030.149	-1424
1030.216	-1806
1030.282	-1544
1030.348	-2319
1030.414	-2010
1030.480	-2109
1030.546	-1853
1030.612	-2122
1030.678	-1761
1030.744	-1562
1030.810	-1948
1030.876	-1735
1030.942	-1917
1031.008	-2362
1031.074	-2073
1031.140	-1688
1031.206	-1509
1031.272	-2020
1031.337	-1902
1031.403	-1750
1031.469	-1707
1031.534	-2398
1031.600	-1571
1031.666	-1866
1031.731	-2260
1031.797	-2039
1031.863	-2298
1031.928	-1837
1031.994	-2024
1032.059	-2296
1032.125	-2268
1032.190	-2093
1032.256	-2266
1032.321	-1862
1032.386	-2129
1032.452	-2126
1032.517	-1342
1032.582	-1985
1032.647	-1507
1032.713	-2119
1032.778	-1790
1032.843	-1833
1032.908	-1893
1032.974	-1808
1033.039	-2343
1033.104	-1675
1033.169	-2102
1033.234	-3088
1033.299	-1590
1033.364	-1941
1033.429	-2403
1033.494	-1974
1033.559	-1979
1033.624	-1983
1033.688	-2508
1033.753	-2246
1033.818	-1674
1033.883	-2900
1033.948	-1388
1034.013	-2022
1034.077	-1413
1034.142	-2329
1034.207	-2161
1034.271	-1720
1034.336	-1924
1034.400	-2602
1034.465	-1998
1034.530	-2764
1034.594	-1824
1034.658	-2793
1034.723	-2273
1034.787	-1625
1034.852	-1735
1034.916	-2258
1034.981	-2956
1035.045	-2530
1035.109	-1804
1035.173	-1179
1035.238	-1923
1035.302	-1554
1035.366	-2998
1035.430	-2292
1035.495	-1929
1035.559	-2195
1035.623	-2449
1035.687	-1787
1035.751	-1685
1035.815	-2199
1035.879	-2230
1035.943	-2952
1036.007	-2730
1036.071	-2457
1036.135	-1943
1036.198	-2655
1036.262	-2702
1036.326	-2089
1036.390	-1425
1036.454	-2053
1036.517	-2208
1036.581	-2207
1036.645	-2609
1036.709	-2134
1036.772	-2259
1036.836	-2103
1036.900	-1321
1036.963	-2505
1037.026	-2061
1037.090	-2024
1037.154	-2146
1037.217	-2566
1037.280	-2073
1037.344	-2401
1037.407	-1967
1037.471	-2877
1037.534	-2427
1037.597	-2419
1037.661	-2379
1037.724	-2446
1037.787	-2624
1037.850	-2623
1037.913	-2403
1037.977	-2508
1038.040	-2314
1038.103	-1988
1038.166	-1998
1038.229	-1944
1038.292	-2221
1038.355	-1890
1038.418	-1986
1038.481	-1743
1038.544	-1835
1038.607	-1813
1038.670	-1869
1038.732	-2829
1038.795	-2055
1038.858	-2396
1038.921	-1976
1038.984	-2244
1039.046	-1126
1039.109	-2745
1039.172	-1717
1039.234	-2434
1039.297	-1419
1039.360	-2826
1039.422	-2401
1039.485	-1917
1039.547	-2434
1039.610	-2290
1039.672	-843
1039.734	-1420
1039.797	-1592
1039.859	-2624
1039.922	-1749
1039.984	-2399
1040.046	-1900
1040.109	-2438
1040.171	-1958
1040.233	-1261
1040.295	-2085
1040.358	-1979
1040.420	-1966
1040.482	-2535
1040.544	-2267
1040.606	-2302
1040.668	-2294
1040.730	-2117
1040.792	-2369
1040.854	-2440
1040.916	-2950
1040.978	-1877
1041.040	-1580
1041.102	-2140
1041.164	-2040
1041.225	-2605
1041.287	-2057
1041.349	-2929
1041.411	-2030
1041.472	-2115
1041.534	-1907
1041.596	-2619
1041.657	-1931
1041.719	-2397
1041.781	-2111
1041.842	-2666
1041.904	-1766
1041.965	-2202
1042.027	-1985
1042.088	-2330
1042.150	-2441
1042.211	-2296
1042.272	-2609
1042.334	-2114
1042.395	-1710
1042.456	-2148
1042.518	-2053
1042.579	-1741
1042.640	-1271
1042.701	-2141
1042.763	-2335
1042.824	-2612
1042.885	-2176
1042.946	-2287
1043.007	-2084
1043.068	-1922
1043.129	-2582
1043.190	-2261
1043.251	-1801
1043.312	-2331
1043.373	-2509
1043.434	-1610
1043.495	-2655
1043.556	-1897
1043.616	-2461
1043.677	-1675
1043.738	-1958
1043.799	-2223
1043.859	-1733
1043.920	-2415
1043.981	-2445
1044.041	-1994
1044.102	-1810
1044.162	-2229
1044.223	-1819
1044.284	-2814
1044.344	-1878
1044.405	-2738
1044.465	-1795
1044.525	-1575
1044.586	-1453
1044.646	-2245
1044.707	-946
1044.767	-2295
1044.827	-1832
1044.887	-1536
1044.948	-1957
1045.008	-1900
1045.068	-1799
1045.128	-1624
1045.188	-1204
1045.249	-2103
1045.309	-1726
1045.369	-2107
1045.429	-1769
1045.489	-2284
1045.549	-1471
1045.609	-1776
1045.669	-1825
1045.729	-1673
1045.789	-1883
1045.848	-2211
1045.908	-1347
1045.968	-2360
1046.028	-1463
1046.088	-1254
1046.147	-1565
1046.207	-1808
1046.267	-1708
1046.326	-1802
1046.386	-1267
1046.446	-1473
1046.505	-1148
1046.565	-1564
1046.624	-586
1046.684	-811
1046.743	106
1046.803	-662
1046.862	-782
1046.922	0
