'Start Wavelength	183.907
'End Wavelength	1046.922
'Gate Delay	5.000
'Gate Width (ms)	1.050
'Laser Output Level	0.000
'X Position	0.000
'Y Position	0.000
'Z Position	0.000
'Grid Point Number	1.000
'Shot Number	100.000
183.907	807.000
183.977	-942.000
184.047	-126
184.116	-253
184.186	571
184.256	-486
184.325	422
184.395	-372
184.465	955
184.534	409
184.604	-598
184.674	496
184.743	-1322
184.813	825
184.883	-195
184.952	166
185.022	-71
185.092	411
185.161	-49
185.231	-491
185.301	-262
185.370	-28
185.440	-463
185.509	125
185.579	337
185.649	151
185.718	670
185.788	519
185.857	-378
185.927	356
185.996	162
186.066	-646
186.136	-77
186.205	-6
186.275	522
186.344	-232
186.414	-250
186.483	-417
186.553	587
186.622	417
186.692	-164
186.761	-175
186.831	734
186.900	-870
186.970	21
187.039	602
187.109	1374
187.178	-303
187.248	50
187.317	335
187.387	28
187.456	253
187.526	-116
187.595	919
187.664	-146
187.734	-151
187.803	537
187.873	1454
187.942	475
188.012	906
188.081	376
188.150	-242
188.220	546
188.289	65
188.358	-384
188.428	59
188.497	321
188.567	723
188.636	575
188.705	-117
188.775	-305
188.844	-668
188.913	540
188.983	-14
189.052	456
189.121	-4
189.191	480
189.260	848
189.329	555
189.399	227
189.468	649
189.537	112
189.606	401
189.676	466
189.745	427
189.814	270
189.883	-95
189.953	378
190.022	823
190.091	2836
190.161	2375
190.230	1223
190.299	221
190.368	424
190.437	182
190.507	42
190.576	15
190.645	-131
190.714	233
190.783	-701
190.853	888
190.922	516
190.991	244
191.060	608
191.129	-441
191.198	108
191.268	-80
191.337	60
191.406	680
191.475	546
191.544	550
191.613	110
191.682	-376
191.752	379
191.821	532
191.890	386
191.959	714
192.028	516
192.097	994
192.166	814
192.235	-112
192.304	581
192.373	278
192.442	98
192.511	348
192.580	-119
192.650	144
192.719	-305
192.788	331
192.857	332
192.926	271
192.995	-337
193.064	641
193.133	637
193.202	1381
193.271	1290
193.340	725
193.409	861
193.478	1414
193.547	1197
193.615	2555
193.684	2993
193.753	1341
193.822	966
193.891	475
193.960	21
194.029	1016
194.098	226
194.167	373
194.236	978
194.305	225
194.374	127
194.443	93
194.512	-53
194.580	1138
194.649	441
194.718	39
194.787	680
194.856	-577
194.925	1307
194.994	497
195.062	1075
195.131	1011
195.200	1222
195.269	505
195.338	1104
195.407	1167
195.475	331
195.544	857
195.613	864
195.682	771
195.751	793
195.819	1058
195.888	837
195.957	1310
196.026	1805
196.094	608
196.163	757
196.232	783
196.301	921
196.369	1127
196.438	993
196.507	1214
196.576	523
196.644	755
196.713	668
196.782	527
196.850	966
196.919	944
196.988	795
197.056	204
197.125	1254
197.194	1603
197.262	449
197.331	699
197.400	427
197.468	150
197.537	-172
197.606	1302
197.674	1392
197.743	3747
197.812	1210
197.880	2961
197.949	1475
198.017	2640
198.086	1177
198.155	771
198.223	1393
198.292	2885
198.360	1716
198.429	645
198.497	1533
198.566	2135
198.635	3033
198.703	1929
198.772	1282
198.840	3976
198.909	3729
198.977	874
199.046	502
199.114	1624
199.183	1341
199.251	1344
199.320	911
199.388	730
199.457	677
199.525	13
199.594	573
199.662	323
199.731	1058
199.799	1123
199.867	174
199.936	417
200.004	887
200.073	1182
200.141	-505
200.210	45
200.278	168
200.346	1486
200.415	763
200.483	435
200.552	885
200.620	794
200.688	662
200.757	535
200.825	966
200.893	720
200.962	852
201.030	297
201.098	898
201.167	1241
201.235	480
201.303	899
201.372	950
201.440	964
201.508	399
201.577	1169
201.645	1535
201.713	823
201.781	671
201.850	1438
201.918	1007
201.986	810
202.055	1650
202.123	408
202.191	1306
202.259	1641
202.327	939
202.396	1429
202.464	1220
202.532	856
202.600	3625
202.669	2122
202.737	828
202.805	1400
202.873	852
202.941	1229
203.009	1569
203.078	1408
203.146	1162
203.214	1117
203.282	491
203.350	2050
203.418	869
203.487	1288
203.555	841
203.623	1068
203.691	1505
203.759	786
203.827	1312
203.895	1162
203.963	900
204.031	1188
204.099	1345
204.168	1195
204.236	1277
204.304	1370
204.372	309
204.440	1248
204.508	1022
204.576	1103
204.644	754
204.712	489
204.780	1140
204.848	1299
204.916	397
204.984	1392
205.052	2008
205.120	998
205.188	1588
205.256	890
205.324	1221
205.392	978
205.460	2013
205.528	1053
205.596	2062
205.664	1268
205.732	866
205.799	4076
205.867	6535
205.935	2162
206.003	2629
206.071	1611
206.139	1117
206.207	2082
206.275	1684
206.343	1830
206.411	2201
206.478	2479
206.546	1960
206.614	542
206.682	1463
206.750	1245
206.818	1320
206.885	1413
206.953	276
207.021	2337
207.089	1639
207.157	1290
207.225	1620
207.292	1089
207.360	2220
207.428	2153
207.496	1066
207.563	2089
207.631	1740
207.699	1230
207.767	1630
207.834	1042
207.902	1204
207.970	1996
208.038	1283
208.105	1630
208.173	1221
208.241	2336
208.309	2905
208.376	2535
208.444	3914
208.512	3284
208.579	1519
208.647	1839
208.715	2346
208.782	1733
208.850	1253
208.918	2618
208.985	2086
209.053	1906
209.120	2178
209.188	1379
209.256	1736
209.323	1417
209.391	2887
209.459	2541
209.526	1394
209.594	1897
209.661	2714
209.729	2036
209.796	2402
209.864	3245
209.932	1101
209.999	3528
210.067	2671
210.134	2410
210.202	1921
210.269	3777
210.337	3445
210.404	2247
210.472	1548
210.539	2530
210.607	2327
210.674	3180
210.742	2549
210.809	2668
210.877	2559
210.944	3146
211.012	1802
211.079	3151
211.146	2446
211.214	2901
211.281	2458
211.349	1734
211.416	2494
211.484	2677
211.551	1787
211.618	2338
211.686	3176
211.753	2239
211.821	2670
211.888	2661
211.955	2496
212.023	2852
212.090	2645
212.157	2569
212.225	3120
212.292	4864
212.359	9206
212.427	20064
212.494	9387
212.561	4753
212.629	3963
212.696	3466
212.763	2724
212.831	2199
212.898	3344
212.965	3386
213.032	2550
213.100	2981
213.167	3198
213.234	4501
213.301	3193
213.369	2598
213.436	2712
213.503	2151
213.570	2779
213.638	2630
213.705	1697
213.772	2908
213.839	3268
213.906	4105
213.973	2718
214.041	2842
214.108	3722
214.175	2878
214.242	3298
214.309	2469
214.376	3197
214.444	2705
214.511	4382
214.578	2550
214.645	3863
214.712	4064
214.779	3343
214.846	3723
214.913	3762
214.980	3965
215.048	3420
215.115	4515
215.182	3525
215.249	3566
215.316	2923
215.383	3117
215.450	3159
215.517	3073
215.584	2700
215.651	3011
215.718	2173
215.785	3916
215.852	2886
215.919	3454
215.986	3594
216.053	3452
216.120	2809
216.187	3193
216.254	3830
216.321	3475
216.388	3863
216.455	3255
216.522	3958
216.589	4014
216.656	5483
216.722	6117
216.789	5135
216.856	4327
216.923	4204
216.990	4637
217.057	4010
217.124	5377
217.191	4665
217.258	5335
217.324	6340
217.391	6532
217.458	5241
217.525	4421
217.592	3970
217.659	3370
217.725	4953
217.792	5895
217.859	5655
217.926	3694
217.993	3654
218.059	3488
218.126	3277
218.193	2886
218.260	3422
218.327	2847
218.393	3740
218.460	3969
218.527	2980
218.594	3238
218.660	5353
218.727	5982
218.794	3048
218.860	3774
218.927	2159
218.994	3054
219.061	3221
219.127	4258
219.194	4901
219.261	3308
219.327	1860
219.394	3092
219.461	1446
219.527	3502
219.594	4088
219.661	3967
219.727	2057
219.794	3931
219.860	3135
219.927	3846
219.994	4090
220.060	6543
220.127	5181
220.193	4385
220.260	4767
220.326	6086
220.393	8868
220.460	10615
220.526	7636
220.593	5692
220.659	6952
220.726	5992
220.792	12871
220.859	11178
220.925	12645
220.992	15869
221.058	16355
221.125	15488
221.191	11898
221.258	6256
221.324	4863
221.391	4764
221.457	3648
221.524	4217
221.590	5766
221.657	14872
221.723	10561
221.789	10162
221.856	9396
221.922	6389
221.989	6169
222.055	4169
222.121	3472
222.188	4933
222.254	4052
222.321	3889
222.387	3338
222.453	4593
222.520	2506
222.586	2922
222.652	3422
222.719	3460
222.785	3310
222.851	2943
222.918	3167
222.984	3715
223.050	2387
223.116	1381
223.183	3897
223.249	2949
223.315	2601
223.382	2519
223.448	2886
223.514	1708
223.580	2738
223.647	2671
223.713	2592
223.779	3372
223.845	3044
223.911	3356
223.978	3092
224.044	3181
224.110	2658
224.176	3245
224.242	3579
224.309	2524
224.375	3496
224.441	2572
224.507	2531
224.573	2353
224.639	3033
224.705	2485
224.772	2575
224.838	2107
224.904	3840
224.970	3168
225.036	2948
225.102	2700
225.168	2565
225.234	2785
225.300	2526
225.366	3023
225.432	3373
225.499	3262
225.565	3205
225.631	4468
225.697	3781
225.763	5119
225.829	5156
225.895	5616
225.961	7624
226.027	5736
226.093	5302
226.159	6719
226.225	9789
226.291	17013
226.357	24662
226.423	14578
226.489	9184
226.554	6903
226.620	7206
226.686	8700
226.752	10611
226.818	15927
226.884	32769
226.950	28373
227.016	12399
227.082	8300
227.148	6744
227.214	7267
227.279	5361
227.345	5234
227.411	4746
227.477	4343
227.543	4999
227.609	5520
227.674	4762
227.740	4398
227.806	4776
227.872	4636
227.938	4502
228.003	5680
228.069	3661
228.135	3499
228.201	3433
228.267	3086
228.332	4176
228.398	4617
228.464	4023
228.530	3108
228.595	3414
228.661	2785
228.727	5022
228.792	3949
228.858	3584
228.924	2413
228.990	5584
229.055	3367
229.121	4942
229.187	2920
229.252	3413
229.318	2633
229.384	3957
229.449	4245
229.515	2200
229.581	1996
229.646	5398
229.712	3844
229.777	5976
229.843	8053
229.909	5980
229.974	6529
230.040	6542
230.105	5779
230.171	6095
230.236	7386
230.302	9998
230.368	8012
230.433	6240
230.499	5546
230.564	6398
230.630	4355
230.695	5141
230.761	5314
230.826	4484
230.892	6761
230.957	3942
231.023	4028
231.088	5288
231.154	4491
231.219	4619
231.284	5902
231.350	6045
231.415	3670
231.481	4096
231.546	4352
231.612	3753
231.677	3721
231.742	2960
231.808	4916
231.873	2767
231.939	1993
232.004	5963
232.069	6004
232.135	3722
232.200	3731
232.265	4276
232.331	3569
232.396	3397
232.461	3845
232.527	2814
232.592	3880
232.657	4302
232.723	4205
232.788	3977
232.853	4002
232.918	4005
232.984	2544
233.049	2654
233.114	3388
233.179	4155
233.245	5414
233.310	6011
233.375	2998
233.440	4148
233.506	2950
233.571	3280
233.636	3301
233.701	2875
233.766	3776
233.832	5041
233.897	3652
233.962	2604
234.027	4762
234.092	2556
234.157	3644
234.222	3054
234.288	4543
234.353	9563
234.418	9596
234.483	7727
234.548	6630
234.613	5618
234.678	6659
234.743	6178
234.808	11840
234.873	8193
234.938	6514
235.004	6007
235.069	5190
235.134	4890
235.199	5449
235.264	5165
235.329	3714
235.394	4633
235.459	6264
235.524	4745
235.589	5153
235.654	3245
235.719	4280
235.784	4742
235.849	4165
235.913	5855
235.978	7398
236.043	7671
236.108	4765
236.173	4209
236.238	4737
236.303	4409
236.368	5061
236.433	6642
236.498	8638
236.563	8631
236.627	15013
236.692	40846
236.757	36261
236.822	15589
236.887	10920
236.952	10558
237.017	8571
237.081	10444
237.146	11834
237.211	20730
237.276	42923
237.341	65202
237.405	32227
237.470	14653
237.535	10165
237.600	9578
237.664	7837
237.729	6223
237.794	8059
237.859	13858
237.923	9346
237.988	6767
238.053	7652
238.118	6701
238.182	14515
238.247	14311
238.312	6695
238.376	6358
238.441	4831
238.506	5977
238.570	3105
238.635	6126
238.700	4566
238.764	3853
238.829	7836
238.893	7883
238.958	7588
239.023	6778
239.087	5177
239.152	4893
239.216	4498
239.281	4714
239.346	4900
239.410	4511
239.475	4679
239.539	13114
239.604	9967
239.668	6124
239.733	4875
239.797	3972
239.862	4561
239.926	9143
239.991	5802
240.055	4724
240.120	4250
240.184	3721
240.249	2977
240.313	3972
240.378	4204
240.442	7331
240.507	12179
240.571	4620
240.635	6919
240.700	6740
240.764	4198
240.829	4746
240.893	2490
240.957	4327
241.022	7803
241.086	11116
241.151	6088
241.215	2682
241.279	5434
241.344	6851
241.408	7121
241.472	6858
241.537	7876
241.601	7090
241.665	5814
241.730	5601
241.794	7494
241.858	5721
241.922	6234
241.987	7249
242.051	5765
242.115	4778
242.179	6033
242.244	5522
242.308	6033
242.372	5878
242.436	5996
242.501	6393
242.565	5122
242.629	4988
242.693	5539
242.757	4436
242.822	5440
242.886	5623
242.950	5610
243.014	5780
243.078	6059
243.142	5900
243.206	5145
243.271	6904
243.335	6024
243.399	9430
243.463	26699
243.527	63857
243.591	22167
243.655	9272
243.719	6950
243.783	8168
243.847	10557
243.911	13625
243.975	12063
244.040	8107
244.104	7249
244.168	4541
244.232	5919
244.296	8995
244.360	12325
244.424	6717
244.488	6005
244.552	5349
244.615	3662
244.679	4768
244.743	5275
244.807	5278
244.871	4780
244.935	4936
244.999	2894
245.063	4264
245.127	5950
245.191	7942
245.255	8130
245.319	6678
245.383	3994
245.446	5863
245.510	3945
245.574	4469
245.638	5323
245.702	4057
245.766	11451
245.829	6643
245.893	5905
245.957	5507
246.021	6246
246.085	5642
246.149	6817
246.212	14573
246.276	22035
246.340	9192
246.404	7563
246.467	7273
246.531	9839
246.595	7667
246.659	6585
246.722	5391
246.786	7711
246.850	7246
246.913	9700
246.977	4926
247.041	5359
247.104	6925
247.168	6755
247.232	13173
247.295	29449
247.359	14435
247.423	6704
247.486	10904
247.550	7901
247.614	6192
247.677	8096
247.741	6082
247.804	5561
247.868	5837
247.932	11074
247.995	26693
248.059	9725
248.122	5563
248.186	8335
248.249	12608
248.313	44750
248.376	44388
248.440	28250
248.503	11048
248.567	9676
248.630	13075
248.694	16431
248.757	23135
248.821	49270
248.884	28692
248.948	26017
249.011	34491
249.075	52937
249.138	45356
249.202	18648
249.265	12788
249.328	13477
249.392	11489
249.455	11181
249.519	10238
249.582	10409
249.645	14766
249.709	12490
249.772	9648
249.835	9925
249.899	8995
249.962	8825
250.025	8668
250.089	19078
250.152	24400
250.215	11852
250.279	9132
250.342	10677
250.405	11102
250.468	9794
250.532	12750
250.595	19162
250.658	63866
250.721	100980
250.785	37310
250.848	20078
250.911	12292
250.974	12351
251.038	16434
251.101	30937
251.164	17378
251.227	17798
251.290	17742
251.354	24994
251.417	88840
251.480	87222
251.543	61502
251.606	153279
251.669	118643
251.732	47530
251.795	43155
251.859	45461
251.922	99352
251.985	57875
252.048	24399
252.111	18035
252.174	15337
252.237	27327
252.300	57431
252.363	60796
252.426	123103
252.489	52004
252.552	24730
252.615	16905
252.678	19374
252.741	43841
252.804	61111
252.867	126765
252.930	72081
252.993	35672
253.056	20830
253.119	14489
253.182	12699
253.245	22209
253.308	15843
253.371	12605
253.434	11593
253.497	12060
253.559	23357
253.622	15707
253.685	15285
253.748	15814
253.811	8483
253.874	10832
253.937	9177
254.000	8191
254.062	15855
254.125	25146
254.188	19457
254.251	15378
254.314	8187
254.376	13212
254.439	14994
254.502	12849
254.565	15612
254.628	29048
254.690	13671
254.753	7561
254.816	7249
254.878	7750
254.941	17877
255.004	18423
255.067	8122
255.129	7248
255.192	5217
255.255	3806
255.317	5700
255.380	4153
255.443	3120
255.505	3356
255.568	3315
255.631	3926
255.693	4162
255.756	3794
255.819	5029
255.881	2987
255.944	4361
256.006	3161
256.069	3377
256.132	4068
256.194	4996
256.257	10372
256.319	8463
256.382	6971
256.444	7361
256.507	6178
256.569	6673
256.632	6855
256.694	9957
256.757	25347
256.819	69397
256.882	28615
256.944	12463
257.007	10581
257.069	9245
257.132	7920
257.194	8102
257.257	7058
257.319	7522
257.381	9747
257.444	19729
257.506	80132
257.569	81822
257.631	33702
257.693	19510
257.756	10678
257.818	8474
257.880	7384
257.943	6647
258.005	5785
258.067	5412
258.130	5551
258.192	6855
258.254	10467
258.317	7785
258.379	7083
258.441	14715
258.503	14274
258.566	14250
258.628	16122
258.690	7171
258.753	7958
258.815	10980
258.877	7721
258.939	6194
259.001	7170
259.064	6379
259.126	7093
259.188	8283
259.250	7915
259.312	8170
259.375	13976
259.437	9659
259.499	6613
259.561	5689
259.623	5906
259.685	6245
259.747	6593
259.809	12943
259.872	21062
259.934	32622
259.996	30344
260.058	10370
260.120	5893
260.182	6411
260.244	6323
260.306	4957
260.368	6161
260.430	5423
260.492	7992
260.554	13108
260.616	10113
260.678	20218
260.740	23206
260.802	7859
260.864	6900
260.926	4828
260.988	6366
261.050	5789
261.112	10921
261.174	24672
261.236	18584
261.298	7352
261.359	10862
261.421	14009
261.483	6176
261.545	6148
261.607	4304
261.669	4449
261.731	7751
261.793	16269
261.854	8570
261.916	5954
261.978	5441
262.040	6067
262.102	5345
262.164	7065
262.225	5721
262.287	4795
262.349	11706
262.411	8674
262.472	4926
262.534	7027
262.596	13714
262.658	5898
262.719	4101
262.781	5574
262.843	11801
262.904	7659
262.966	6856
263.028	7920
263.090	31900
263.151	82918
263.213	27048
263.275	13624
263.336	5889
263.398	5518
263.459	3926
263.521	3861
263.583	10017
263.644	7375
263.706	4692
263.767	2930
263.829	3360
263.891	2728
263.952	1713
264.014	2411
264.075	4329
264.137	10787
264.198	6038
264.260	2969
264.321	2645
264.383	8034
264.444	17604
264.506	6073
264.567	4823
264.629	7525
264.690	14022
264.752	6621
264.813	5341
264.875	3037
264.936	4416
264.998	2708
265.059	3318
265.120	4660
265.182	7464
265.243	36529
265.305	35622
265.366	9150
265.427	5778
265.489	4827
265.550	3404
265.611	4453
265.673	4059
265.734	3511
265.795	3812
265.857	2985
265.918	4716
265.979	10576
266.040	58306
266.102	47837
266.163	13843
266.224	9954
266.286	5352
266.347	3332
266.408	3528
266.469	4343
266.530	3269
266.592	3770
266.653	7389
266.714	10377
266.775	3474
266.836	3734
266.898	2675
266.959	4794
267.020	3273
267.081	5294
267.142	3580
267.203	2883
267.264	2972
267.326	4699
267.387	3424
267.448	2584
267.509	3416
267.570	3801
267.631	3692
267.692	2262
267.753	3519
267.814	2832
267.875	6504
267.936	13943
267.997	7841
268.058	6825
268.119	4609
268.180	4156
268.241	3977
268.302	3457
268.363	2866
268.424	3598
268.485	4199
268.546	2569
268.607	2351
268.668	2136
268.729	2148
268.790	3663
268.851	4186
268.912	8334
268.972	10535
269.033	5001
269.094	2749
269.155	3983
269.216	2967
269.277	3625
269.338	3840
269.398	3290
269.459	3901
269.520	5266
269.581	6331
269.642	7559
269.702	5183
269.763	5292
269.824	4361
269.885	5736
269.945	7488
270.006	4166
270.067	3380
270.128	3095
270.188	2903
270.249	3361
270.310	3045
270.370	3664
270.431	3770
270.492	3467
270.553	4047
270.613	6571
270.674	14536
270.734	6528
270.795	4303
270.856	6035
270.916	4424
270.977	4303
271.038	4522
271.098	3754
271.159	6801
271.219	6222
271.280	4487
271.340	4778
271.401	3583
271.462	7096
271.522	5458
271.583	4050
271.643	4003
271.704	3584
271.764	5236
271.825	10841
271.885	39632
271.946	54088
272.006	17236
272.066	23860
272.127	42715
272.187	12138
272.248	6521
272.308	8731
272.369	29366
272.429	15623
272.489	10119
272.550	9249
272.610	11114
272.671	7448
272.731	6078
272.791	9550
272.852	5903
272.912	6014
272.972	3816
273.033	3753
273.093	6457
273.153	5129
273.214	4675
273.274	5535
273.334	18550
273.394	37453
273.455	13624
273.515	12949
273.575	30980
273.635	12009
273.696	16067
273.756	36367
273.816	13857
273.876	7444
273.936	12972
273.997	20826
274.057	6648
274.117	5879
274.177	9202
274.237	45481
274.297	36903
274.358	20483
274.418	30090
274.478	21316
274.538	7933
274.598	5209
274.658	17248
274.718	21619
274.778	9400
274.838	5540
274.898	10272
274.958	28650
275.018	37179
275.078	23848
275.138	8565
275.198	5066
275.258	3930
275.318	5274
275.378	9617
275.438	10234
275.498	6989
275.558	13718
275.618	31711
275.678	24586
275.738	13798
275.798	9940
275.858	6391
275.918	3926
275.978	5189
276.038	5121
276.098	3900
276.157	7951
276.217	22698
276.277	10345
276.337	7630
276.397	4553
276.457	5914
276.517	4032
276.576	3737
276.636	2708
276.696	5902
276.756	13723
276.815	9954
276.875	4020
276.935	5076
276.995	4770
277.055	3043
277.114	3490
277.174	5126
277.234	20345
277.293	7894
277.353	4539
277.413	3195
277.472	3313
277.532	4202
277.592	4456
277.651	10246
277.711	17894
277.771	7978
277.830	25523
277.890	19305
277.950	13855
278.009	42223
278.069	15407
278.128	13563
278.188	17001
278.248	9854
278.307	19397
278.367	12558
278.426	4845
278.486	4413
278.545	3673
278.605	3729
278.664	3956
278.724	4537
278.783	13608
278.843	37710
278.902	10884
278.962	6578
279.021	4829
279.081	5541
279.140	5830
279.199	5696
279.259	7374
279.318	7413
279.378	9647
279.437	13551
279.496	50379
279.556	109752
279.615	78855
279.675	20422
279.734	12974
279.793	21029
279.853	42320
279.912	15337
279.971	9084
280.031	7911
280.090	17916
280.149	31629
280.208	15710
280.268	69835
280.327	69702
280.386	16250
280.445	15179
280.505	14958
280.564	6738
280.623	5356
280.682	10588
280.742	17064
280.801	5425
280.860	4770
280.919	3845
280.978	3616
281.037	2821
281.097	2737
281.156	3503
281.215	3468
281.274	4126
281.333	23568
281.392	18436
281.451	4572
281.510	3868
281.569	2650
281.628	3142
281.688	2715
281.747	2711
281.806	3291
281.865	2663
281.924	2314
281.983	2347
282.042	2705
282.101	2342
282.160	2803
282.219	2230
282.278	2512
282.337	12680
282.396	8123
282.454	3584
282.513	4212
282.572	18450
282.631	10292
282.690	3575
282.749	3313
282.808	4447
282.867	3673
282.926	3809
282.985	2858
283.043	2582
283.102	2758
283.161	3567
283.220	8718
283.279	21309
283.338	6983
283.396	3225
283.455	4015
283.514	4166
283.573	6289
283.631	4820
283.690	3908
283.749	3389
283.808	7525
283.866	8946
283.925	3591
283.984	3530
284.043	4636
284.101	5326
284.160	2885
284.219	4599
284.277	4716
284.336	6210
284.395	25468
284.453	19992
284.512	6899
284.570	8756
284.629	6745
284.688	6382
284.746	5937
284.805	5864
284.863	8361
284.922	10322
284.981	13003
285.039	17513
285.098	30798
285.156	78545
285.215	217747
285.273	206142
285.332	89315
285.390	42178
285.449	24702
285.507	16166
285.566	12435
285.624	9318
285.683	8502
285.741	6823
285.799	5802
285.858	5279
285.916	5564
285.975	4370
286.033	4324
286.091	3620
286.150	2858
286.208	3402
286.267	3628
286.325	4873
286.383	6659
286.442	5633
286.500	3067
286.558	2933
286.616	3019
286.675	4618
286.733	3673
286.791	2870
286.850	3988
286.908	5533
286.966	9477
287.024	3883
287.083	2761
287.141	2486
287.199	2724
287.257	5431
287.315	3098
287.374	4573
287.432	12567
287.490	8227
287.548	5155
287.606	3476
287.664	4942
287.723	5170
287.781	7065
287.839	5713
287.897	7999
287.955	10686
288.013	15477
288.071	31700
288.129	122279
288.187	307675
288.245	144618
288.303	48468
288.361	26329
288.419	17084
288.477	11344
288.535	8989
288.593	7185
288.651	5496
288.709	4361
288.767	3954
288.825	3725
288.883	3514
288.941	2622
288.999	2890
289.057	2438
289.115	2774
289.173	3020
289.231	2656
289.289	2485
289.346	2426
289.404	3272
289.462	4931
289.520	5897
289.578	2510
289.636	1761
289.694	1965
289.751	2837
289.809	1917
289.867	2698
289.925	2607
289.983	3999
290.040	2450
290.098	2132
290.156	2680
290.214	3281
290.271	2368
290.329	1585
290.387	1939
290.444	1859
290.502	609
290.560	1452
290.617	1803
290.675	1519
290.733	1083
290.790	2248
290.848	1373
290.906	2073
290.963	2883
291.021	1730
291.078	1965
291.136	2804
291.194	10053
291.251	21445
291.309	5435
291.366	2578
291.424	2354
291.481	2426
291.539	1999
291.596	2300
291.654	1159
291.711	1620
291.769	2087
291.826	4854
291.884	3193
291.941	2223
291.999	1816
292.056	1944
292.114	2563
292.171	1571
292.228	1664
292.286	2842
292.343	5007
292.401	6162
292.458	3376
292.515	1823
292.573	3820
292.630	3562
292.687	2714
292.745	2586
292.802	4234
292.859	10343
292.917	22134
292.974	12232
293.031	4214
293.089	3090
293.146	1506
293.203	2143
293.260	1731
293.318	3246
293.375	4545
293.432	2536
293.489	2139
293.546	2130
293.604	3713
293.661	14695
293.718	42197
293.775	19425
293.832	7499
293.889	5717
293.947	5128
294.004	3939
294.061	3835
294.118	10108
294.175	20405
294.232	20641
294.289	7982
294.346	4957
294.403	5815
294.460	4384
294.517	3052
294.574	2663
294.631	2413
294.688	4338
294.745	10814
294.802	45306
294.859	41520
294.916	14601
294.973	8124
295.030	6211
295.087	4433
295.144	4393
295.201	3576
295.258	3537
295.315	4839
295.372	16833
295.429	34721
295.486	14391
295.542	7691
295.599	16921
295.656	26589
295.713	20157
295.770	30722
295.827	11601
295.883	6006
295.940	4633
295.997	7980
296.054	7216
296.111	4407
296.167	3326
296.224	3061
296.281	3142
296.338	3355
296.394	3604
296.451	3856
296.508	14293
296.564	25631
296.621	15770
296.678	39759
296.734	55985
296.791	19287
296.848	9337
296.904	9261
296.961	19649
297.018	36908
297.074	27247
297.131	10024
297.187	7822
297.244	11140
297.301	39459
297.357	70817
297.414	23965
297.470	8910
297.527	6106
297.583	5306
297.640	4274
297.696	3779
297.753	3569
297.809	2826
297.866	2045
297.922	3131
297.979	3409
298.035	3416
298.092	6241
298.148	21663
298.204	20273
298.261	9352
298.317	16871
298.374	48540
298.430	26739
298.486	10168
298.543	7650
298.599	5578
298.656	8282
298.712	13674
298.768	38884
298.824	29610
298.881	10067
298.937	5458
298.993	5174
299.050	5027
299.106	4455
299.162	3843
299.218	4492
299.275	3288
299.331	4639
299.387	9473
299.443	41214
299.500	39456
299.556	12639
299.612	7002
299.668	5300
299.724	4296
299.780	3233
299.837	4158
299.893	8513
299.949	29303
300.005	31779
300.061	28657
300.117	52672
300.173	24117
300.229	9521
300.285	10961
300.341	12296
300.397	6528
300.453	4720
300.510	4688
300.566	3763
300.622	4070
300.678	7445
300.734	20788
300.790	28217
300.845	38455
300.901	19411
300.957	25262
301.013	20744
301.069	7563
301.125	5280
301.181	6201
301.237	4818
301.293	2793
301.349	2992
301.405	2185
301.461	2925
301.516	4046
301.572	3882
301.628	8300
301.684	7368
301.740	12935
301.796	21624
301.851	16031
301.907	22662
301.963	22740
302.019	41556
302.074	119943
302.130	114660
302.186	48582
302.242	21114
302.297	12923
302.353	11661
302.409	22804
302.464	19108
302.520	15668
302.576	38558
302.631	43782
302.687	23221
302.743	9397
302.798	6648
302.854	4750
302.910	5241
302.965	5936
303.021	9967
303.076	9338
303.132	12698
303.187	14365
303.243	7534
303.299	4900
303.354	4231
303.410	3963
303.465	3688
303.521	4092
303.576	3966
303.632	4699
303.687	10704
303.743	38228
303.798	30417
303.853	12317
303.909	6688
303.964	5254
304.020	7987
304.075	12120
304.130	9403
304.186	17939
304.241	19122
304.297	14648
304.352	7525
304.358	7311
304.407	5580
304.449	5656
304.463	5690
304.518	5516
304.539	5199
304.573	4708
304.629	4841
304.630	4902
304.684	8029
304.720	21426
304.739	28057
304.794	43020
304.811	35963
304.850	19368
304.902	9416
304.905	8779
304.960	5371
304.992	5413
305.015	5461
305.071	4987
305.083	4750
305.126	3870
305.173	2899
305.181	2746
305.236	1939
305.264	2384
305.292	2845
305.347	3652
305.354	3777
305.402	4591
305.445	5070
305.457	5176
305.512	5838
305.535	5959
305.567	6247
305.622	5782
305.626	6094
305.678	13030
305.716	28936
305.733	34614
305.788	38489
305.807	32455
305.843	22838
305.897	35123
305.898	35245
305.953	34669
305.988	21890
306.008	15164
306.063	8482
306.078	7511
306.118	5283
306.168	3959
306.173	3841
306.228	3394
306.259	2855
306.283	2490
306.338	2423
306.349	2613
306.393	3288
306.440	4076
306.448	4225
306.503	4101
306.530	4146
306.558	4785
306.613	10440
306.620	11252
306.668	17235
306.711	27328
306.723	28982
306.778	23039
306.801	17141
306.833	10513
306.888	5311
306.892	5121
306.943	3245
306.982	3329
306.997	3400
307.052	2614
307.072	2752
307.107	3203
307.162	4228
307.163	4242
307.217	5487
307.253	5838
307.272	5792
307.327	6935
307.343	6560
307.381	5759
307.434	5168
307.436	5297
307.491	10842
307.524	17422
307.546	19715
307.600	21845
307.614	19355
307.655	11743
307.704	6654
307.710	6365
307.765	6737
307.795	8026
307.819	9019
307.874	13406
307.885	13462
307.929	12519
307.975	12257
307.984	12846
308.038	19753
308.065	25035
308.093	44732
308.148	99720
308.156	113666
308.202	173290
308.246	198422
308.257	194560
308.312	102762
308.336	70160
308.366	49744
308.421	30176
308.426	28749
308.475	18725
308.517	13661
308.530	12285
308.585	9782
308.607	9191
308.639	8876
308.694	8912
308.697	8993
308.748	12031
308.787	16400
308.803	16775
308.857	13491
308.877	12200
308.912	11434
308.967	12107
308.967	12160
309.021	17051
309.058	21796
309.076	28510
309.130	53729
309.148	65214
309.185	131769
309.238	252202
309.239	252418
309.293	252307
309.328	208330
309.348	177885
309.402	80099
309.418	57753
309.457	37664
309.508	23628
309.511	22978
309.566	18020
309.598	16389
309.620	16016
309.674	17471
309.688	18101
309.729	17142
309.778	13642
309.783	13383
309.837	11253
309.868	10681
309.892	13583
309.946	22815
309.959	26054
310.001	32756
310.049	35989
310.055	34870
310.109	19783
310.139	11731
310.163	8868
310.218	5481
310.229	4984
310.272	4357
310.319	4128
310.326	3970
310.381	3057
310.409	2672
310.435	2582
310.489	2476
310.499	2485
310.543	2722
310.589	2941
310.598	2920
310.652	2711
310.679	2632
310.706	2374
310.760	2022
310.769	1948
310.814	1764
310.859	1610
310.868	1580
310.923	1499
310.948	1422
310.977	1677
311.031	2472
311.038	2545
311.085	2168
311.128	1868
311.139	1923
311.193	2236
311.218	2394
311.247	2239
311.301	1800
311.308	1775
311.356	1751
311.398	1661
311.410	1614
311.464	1309
311.488	1247
311.518	1395
311.572	1633
311.578	1671
311.626	2375
311.668	3012
311.680	2951
311.734	2578
311.758	2434
311.788	2405
311.842	2354
311.847	2356
311.896	2995
311.937	3581
311.950	3494
312.004	3129
312.027	2951
312.058	2332
312.112	1280
312.117	1190
312.165	1628
312.207	2035
312.297	2437
312.386	2062
312.476	2371
312.566	5195
312.656	2670
312.745	1772
312.835	2382
312.925	1587
313.015	2531
313.104	2186
313.194	1691
313.284	1665
313.374	2979
313.463	1707
313.553	1760
313.643	1388
313.732	1407
313.822	1508
313.912	1725
314.001	1904
314.091	2025
314.180	2361
314.270	2180
314.360	2959
314.449	2229
314.539	686
314.628	1623
314.718	1911
314.808	2344
314.897	1857
314.987	1854
315.076	2404
315.166	2573
315.255	2162
315.345	2564
315.434	2856
315.524	2248
315.613	2281
315.703	3445
315.792	2880
315.881	3216
315.971	2743
316.060	5208
316.150	5972
316.239	6083
316.328	1614
316.418	1967
316.507	1728
316.597	2621
316.686	1954
316.775	3893
316.865	5858
316.954	952
317.043	1252
317.133	1701
317.222	2230
317.311	1563
317.400	901
317.490	3413
317.579	2249
317.668	1596
317.757	1982
317.847	3822
317.936	5700
318.025	6489
318.114	3196
318.203	2431
318.293	4002
318.382	7186
318.471	6385
318.560	10118
318.649	15769
318.738	2090
318.828	3191
318.917	3123
319.006	3969
319.095	10126
319.184	22936
319.273	12854
319.362	5864
319.451	2052
319.540	2182
319.629	7520
319.718	9361
319.807	4272
319.896	10700
319.985	29446
320.074	7944
320.163	2764
320.252	3729
320.341	2121
320.430	2276
320.519	5603
320.608	1881
320.697	2126
320.786	1797
320.875	3331
320.964	4513
321.053	7524
321.142	10567
321.230	9552
321.319	8306
321.408	16647
321.497	4706
321.586	6663
321.675	6861
321.764	6259
321.852	4096
321.941	10446
322.030	5310
322.119	6999
322.207	18957
322.296	8800
322.385	4144
322.474	7689
322.562	23618
322.651	8451
322.740	8982
322.829	10363
322.917	7707
323.006	5202
323.095	5208
323.183	3304
323.272	6320
323.361	12347
323.449	29636
323.538	9242
323.626	20926
323.715	9540
323.804	4881
323.892	17782
323.981	8739
324.069	3358
324.158	10583
324.246	6633
324.335	4075
324.424	6491
324.512	2176
324.601	2716
324.689	3715
324.778	6910
324.866	5554
324.954	1401
325.043	2145
325.131	4008
325.220	7212
325.308	7082
325.397	6336
325.485	3135
325.574	1371
325.662	1843
325.750	1807
325.839	1937
325.927	569
326.015	2234
326.104	3423
326.192	3661
326.280	2009
326.369	1465
326.457	3237
326.545	5636
326.634	1476
326.722	1653
326.810	1438
326.898	2119
326.987	1019
327.075	4729
327.163	4191
327.251	1540
327.340	1702
327.428	1960
327.516	327
327.604	748
327.692	896
327.781	2029
327.869	2108
327.957	2216
328.045	2570
328.133	1795
328.221	1799
328.309	1781
328.397	1486
328.485	2526
328.574	3655
328.662	12419
328.750	4502
328.838	1456
328.926	2166
329.014	732
329.102	2210
329.190	5736
329.278	3211
329.366	1330
329.454	963
329.542	1327
329.630	1268
329.718	1723
329.806	2072
329.893	1255
329.981	1517
330.069	4304
330.157	26963
330.245	69286
330.333	25345
330.421	4334
330.509	4834
330.597	16046
330.684	7306
330.772	2836
330.860	2099
330.948	3591
331.036	1200
331.123	703
331.211	1071
331.299	1205
331.387	4079
331.475	5081
331.562	1706
331.650	1633
331.738	915
331.825	1258
331.913	1040
332.001	1369
332.089	1536
332.176	3354
332.264	8511
332.352	5492
332.439	1608
332.527	1324
332.614	860
332.702	1719
332.790	917
332.877	4776
332.965	6282
333.052	2199
333.140	2044
333.228	3898
333.315	1014
333.403	1689
333.490	5013
333.578	3419
333.665	4868
333.753	2359
333.840	803
333.928	2595
334.015	5210
334.103	11709
334.190	27840
334.278	4621
334.365	1956
334.452	1584
334.540	1712
334.627	1178
334.715	2121
334.802	7807
334.889	37755
334.977	26225
335.064	1764
335.151	1085
335.239	1243
335.326	3530
335.413	18107
335.501	16262
335.588	1967
335.675	1409
335.762	1518
335.850	2934
335.937	1865
336.024	9487
336.111	34155
336.199	7730
336.286	817
336.373	1009
336.460	271
336.547	1425
336.635	1645
336.722	1402
336.809	1099
336.896	1933
336.983	9955
337.070	23787
337.157	29514
337.245	22379
337.332	12008
337.419	1468
337.506	981
337.593	1907
337.680	7422
337.767	15164
337.854	4442
337.941	5688
338.028	6023
338.115	1532
338.202	3238
338.289	7379
338.376	21017
338.463	5605
338.550	10996
338.637	8164
338.724	4704
338.811	5137
338.898	1685
338.984	1467
339.071	803
339.158	1895
339.245	6781
339.332	3097
339.419	4220
339.506	3240
339.593	894
339.679	1774
339.766	1439
339.853	2335
339.940	4915
340.027	1767
340.113	2080
340.200	2253
340.287	2005
340.374	2226
340.460	4421
340.547	1108
340.634	4303
340.720	16980
340.807	6867
340.894	1114
340.980	1334
341.067	1015
341.154	2300
341.240	2991
341.327	6483
341.414	2506
341.500	1741
341.587	1645
341.674	1781
341.760	5216
341.847	4731
341.933	513
342.020	69
342.106	1763
342.193	2106
342.279	3381
342.366	2378
342.452	4458
342.539	2963
342.625	8906
342.712	15583
342.798	5792
342.885	1166
342.971	63
343.058	494
343.144	568
343.230	1446
343.317	1483
343.403	370
343.490	785
343.576	257
343.662	1476
343.749	1282
343.835	2215
343.921	7661
344.008	67115
344.094	112525
344.180	18271
344.267	6499
344.353	27627
344.439	20350
344.525	7265
344.612	4785
344.698	4226
344.784	1766
344.870	1013
344.957	1756
345.043	3523
345.129	1379
345.215	5354
345.301	1960
345.387	1458
345.474	94
345.560	-67
345.646	1013
345.732	1045
345.818	1277
345.904	1978
345.990	1174
346.076	1593
346.162	2090
346.249	1173
346.335	121
346.421	2361
346.507	14636
346.593	38135
346.679	4813
346.765	1657
346.851	1038
346.937	836
347.023	1412
347.108	2079
347.194	1153
347.280	1334
347.366	2904
347.452	14462
347.538	49615
347.624	31258
347.710	17876
347.796	1580
347.882	665
347.967	993
348.053	1342
348.139	900
348.225	1054
348.311	164
348.397	911
348.482	1847
348.568	1944
348.654	442
348.740	-353
348.825	-474
348.911	4705
348.997	27898
349.083	40935
349.168	4787
349.254	1143
349.340	1566
349.425	471
349.511	1545
349.597	1536
349.682	6640
349.768	23383
349.854	7830
349.939	1458
350.025	970
350.110	753
350.196	707
350.282	-431
350.367	660
350.453	2638
350.538	1270
350.624	928
350.709	1569
350.795	861
350.880	948
350.966	2401
351.051	1611
351.137	787
351.222	2330
351.308	7894
351.393	16123
351.479	1802
351.564	480
351.649	1428
351.735	969
351.820	-18
351.906	270
351.991	2045
352.076	13580
352.162	14677
352.247	2518
352.332	1795
352.418	3098
352.503	6092
352.588	27130
352.673	15657
352.759	3281
352.844	1150
352.929	2023
353.014	1059
353.100	1856
353.185	3375
353.270	5515
353.355	4354
353.441	1765
353.526	819
353.611	4752
353.696	4816
353.781	3553
353.866	40
353.952	1965
354.037	5241
354.122	11526
354.207	9567
354.292	2898
354.377	776
354.462	1918
354.547	2125
354.632	1084
354.717	2490
354.802	2027
354.887	1320
354.972	929
355.057	256
355.142	207
355.227	1518
355.312	2515
355.397	8062
355.482	17865
355.567	7107
355.652	7373
355.737	8148
355.822	29560
355.907	16592
355.991	2867
356.076	600
356.161	1888
356.246	734
356.331	1902
356.416	8249
356.501	60437
356.585	46872
356.670	3735
356.755	3924
356.840	6660
356.924	46137
357.009	130034
357.094	36597
357.179	5508
357.263	3631
357.348	4084
357.433	3532
357.517	3626
357.602	2119
357.687	1742
357.771	4521
357.856	11928
357.941	8164
358.025	38885
358.110	139711
358.195	49621
358.279	4349
358.364	4580
358.448	19174
358.533	46283
358.617	30167
358.702	31211
358.787	9940
358.871	5301
358.956	3775
359.040	1024
359.125	509
359.209	1182
359.294	6022
359.378	7632
359.462	4265
359.547	1585
359.631	1177
359.716	334
359.800	1388
359.885	3015
359.969	691
360.053	1690
360.138	276
360.222	2442
360.306	3869
360.391	3873
360.475	7707
360.559	15652
360.644	15099
360.728	11469
360.812	36026
360.896	77465
360.981	22206
361.065	7966
361.149	2456
361.233	1888
361.318	1109
361.402	2288
361.486	1997
361.570	1598
361.654	2049
361.739	10169
361.823	59941
361.907	75689
361.991	9617
362.075	4596
362.159	8739
362.243	6710
362.327	2249
362.411	3810
362.495	2300
362.580	1199
362.664	1260
362.748	331
362.832	819
362.916	129
363.000	8807
363.084	53627
363.168	84249
363.252	14415
363.336	4101
363.420	7104
363.503	23589
363.587	19867
363.671	3727
363.755	2105
363.839	4680
363.923	1426
364.007	5038
364.091	4898
364.175	9103
364.258	34620
364.342	11024
364.426	4699
364.510	2008
364.594	6062
364.677	17320
364.761	73658
364.845	42812
364.929	9531
365.013	6690
365.096	6783
365.180	5996
365.264	13684
365.347	35812
365.431	11087
365.515	1627
365.598	1851
365.682	1983
365.766	2004
365.849	2185
365.933	1959
366.017	3315
366.100	705
366.184	-624
366.267	1545
366.351	750
366.435	185
366.518	-59
366.602	309
366.685	1304
366.769	1970
366.852	2958
366.936	5106
367.019	2671
367.103	771
367.186	3907
367.270	1084
367.353	-115
367.436	906
367.520	1278
367.603	1446
367.687	2206
367.770	5269
367.853	4771
367.937	20555
368.020	26729
368.104	3899
368.187	5415
368.270	7194
368.353	5204
368.437	7514
368.520	12261
368.603	9692
368.687	21075
368.770	32811
368.853	6135
368.936	6082
369.020	4073
369.103	1404
369.186	492
369.269	818
369.352	4132
369.436	5166
369.519	2810
369.602	-406
369.685	2801
369.768	1182
369.851	1182
369.934	55
370.018	2134
370.101	4582
370.184	4283
370.267	2570
370.350	3981
370.433	9785
370.516	35831
370.599	32951
370.682	6703
370.765	16190
370.848	25328
370.931	43648
371.014	12744
371.097	1174
371.180	2224
371.263	1047
371.346	-858
371.429	1951
371.511	341
371.594	3173
371.677	5320
371.760	5219
371.843	8604
371.926	59501
372.009	107996
372.091	28149
372.174	21017
372.257	47355
372.340	14353
372.423	7427
372.505	6570
372.588	3544
372.671	16687
372.754	44576
372.836	18556
372.919	11403
373.002	15518
373.085	4456
373.167	6850
373.250	21128
373.332	46484
373.415	81812
373.498	144827
373.580	45517
373.663	71611
373.746	84556
373.828	13525
373.911	5104
373.993	5728
374.076	18622
374.159	13814
374.241	12965
374.324	35669
374.406	23396
374.489	53964
374.571	118767
374.654	38572
374.736	25347
374.819	76600
374.901	110353
374.983	100211
375.066	13115
375.148	4570
375.231	18145
375.313	27093
375.395	7982
375.478	1219
375.560	1390
375.643	3354
375.725	26270
375.807	93278
375.890	55554
375.972	11920
376.054	8510
376.136	10075
376.219	6251
376.301	30705
376.383	72425
376.465	23004
376.548	11536
376.630	21227
376.712	57480
376.794	20906
376.877	2684
376.959	-87
377.041	2009
377.123	2822
377.205	3015
377.287	6
377.369	1562
377.452	50
377.534	1322
377.616	800
377.698	199
377.780	-330
377.862	1453
377.944	2131
378.026	426
378.108	771
378.190	471
378.272	625
378.354	92
378.436	-68
378.518	2181
378.600	6962
378.682	9842
378.764	24943
378.846	15922
378.928	3220
379.010	5119
379.091	2867
379.173	1279
379.255	381
379.337	2795
379.419	13390
379.501	34536
379.583	9524
379.664	2976
379.746	6952
379.828	25019
379.910	31998
379.991	25041
380.073	2395
380.155	1844
380.237	1035
380.318	1173
380.400	1260
380.482	4931
380.564	6828
380.645	5529
380.727	4250
380.809	2559
380.890	1347
380.972	286
381.053	1026
381.135	1883
381.217	8153
381.298	22978
381.380	9073
381.461	13959
381.543	64074
381.624	64714
381.706	9600
381.787	3298
381.869	6088
381.951	37691
382.032	117186
382.113	60143
382.195	5934
382.276	6573
382.358	21085
382.439	55124
382.521	71517
382.602	98826
382.684	41524
382.765	62689
382.846	48203
382.928	38979
383.009	18825
383.090	18641
383.172	67540
383.253	88021
383.334	44410
383.416	74800
383.497	31295
383.578	7857
383.659	15216
383.741	67442
383.822	144152
383.903	66218
383.984	45795
384.066	85742
384.147	44410
384.228	6391
384.309	4670
384.390	3346
384.471	1440
384.553	2793
384.634	3265
384.715	4324
384.796	1236
384.877	4863
384.958	22691
385.039	22885
385.120	6041
385.201	3327
385.282	2998
385.363	2094
385.444	2274
385.525	12350
385.606	42221
385.687	32899
385.768	4999
385.849	10707
385.930	60668
386.011	89975
386.092	17502
386.173	2329
386.254	2099
386.335	3024
386.416	3669
386.496	14577
386.577	21153
386.658	4949
386.739	2061
386.820	2444
386.901	1232
386.981	1803
387.062	427
387.143	5998
387.224	22145
387.304	18117
387.385	4767
387.466	1078
387.547	2229
387.627	1297
387.708	11413
387.789	50075
387.869	53279
387.950	12624
388.031	-18
388.111	-715
388.192	4342
388.273	5943
388.353	1789
388.434	2815
388.514	13386
388.595	58718
388.676	60921
388.756	22897
388.837	19873
388.917	9979
388.998	70
389.078	1677
389.159	2215
389.239	518
389.320	4126
389.400	1623
389.480	10513
389.561	25273
389.641	11644
389.722	3498
389.802	4895
389.883	14169
389.963	33998
390.043	16428
390.124	2950
390.204	9268
390.284	24611
390.365	14696
390.445	27844
390.525	94082
390.605	78823
390.686	12857
390.766	4019
390.846	2055
390.927	828
391.007	247
391.087	1943
391.167	691
391.247	-383
391.328	2402
391.408	2937
391.488	1716
391.568	-162
391.648	1824
391.728	3690
391.808	2900
391.888	3957
391.969	15757
392.049	20741
392.129	7907
392.209	11822
392.289	30976
392.369	12743
392.449	6352
392.529	3417
392.609	4461
392.689	10153
392.769	30769
392.849	20810
392.929	15334
393.009	36690
393.089	21002
393.169	6330
393.248	23616
393.328	113530
393.408	109360
393.488	15628
393.568	4693
393.648	2261
393.728	1716
393.807	815
393.887	2083
393.967	2567
394.047	4332
394.127	5964
394.206	14895
394.286	83969
394.366	307459
394.446	282611
394.525	51101
394.605	10527
394.685	7888
394.764	14041
394.844	17439
394.924	10312
395.003	3903
395.083	3520
395.163	2589
395.242	2860
395.322	2920
395.402	1063
395.481	4685
395.561	10074
395.640	21221
395.720	16919
395.799	24028
395.879	19887
395.958	23479
396.038	120439
396.117	405554
396.197	376106
396.276	83255
396.356	19394
396.435	9876
396.515	7128
396.594	5677
396.673	8992
396.753	31043
396.832	97303
396.912	77760
396.991	18977
397.070	3795
397.150	776
397.229	2382
397.308	1540
397.388	707
397.467	1324
397.546	555
397.625	-1272
397.705	3037
397.784	2049
397.863	316
397.942	-189
398.022	1685
398.101	7396
398.180	18205
398.259	6789
398.338	2326
398.417	686
398.497	742
398.576	1408
398.655	365
398.734	562
398.813	1677
398.892	8484
398.971	20980
399.050	8447
399.129	90
399.208	264
399.287	1022
399.366	617
399.445	246
399.524	1174
399.603	-479
399.682	2658
399.761	9731
399.840	25482
399.919	15803
399.998	648
400.077	-471
400.156	-1671
400.235	2614
400.313	-416
400.392	1308
400.471	12962
400.550	17360
400.629	3031
400.708	1495
400.786	738
400.865	3071
400.944	2878
401.023	3222
401.102	-449
401.180	953
401.259	376
401.338	551
401.416	726
401.495	696
401.574	835
401.652	198
401.731	1699
401.810	-154
401.888	428
401.967	15
402.046	235
402.124	1390
402.203	1022
402.281	1331
402.360	1605
402.438	5090
402.517	1198
402.596	1625
402.674	857
402.753	55
402.831	394
402.910	2512
402.988	10208
403.066	26113
403.145	13449
403.223	10217
403.302	20788
403.380	15693
403.459	12661
403.537	3994
403.615	844
403.694	-803
403.772	1133
403.850	645
403.929	181
404.007	265
404.085	3373
404.164	1843
404.242	1565
404.320	11917
404.398	29687
404.477	35038
404.555	84051
404.633	65812
404.711	20655
404.789	8838
404.868	1541
404.946	246
405.024	363
405.102	141
405.180	666
405.258	-379
405.336	631
405.415	-713
405.493	1653
405.571	2620
405.649	-466
405.727	-227
405.805	2130
405.883	1229
405.961	1674
406.039	627
406.117	-752
406.195	3008
406.273	19372
406.351	59906
406.429	29827
406.507	2822
406.585	109
406.663	1318
406.740	1469
406.818	823
406.896	174
406.974	1231
407.052	5162
407.130	36542
407.208	42374
407.285	7856
407.363	383
407.441	169
407.519	-50
407.596	1222
407.674	2807
407.752	8298
407.830	6937
407.907	2309
407.985	331
408.063	229
408.141	755
408.218	2057
408.296	171
408.373	428
408.451	937
408.529	573
408.606	-110
408.684	-681
408.762	537
408.839	-209
408.917	-99
408.994	167
409.072	-379
409.149	-318
409.227	410
409.304	112
409.382	52
409.459	-1615
409.537	-241
409.614	535
409.692	-925
409.769	-61
409.846	282
409.924	1621
410.001	-1252
410.079	744
410.156	1274
410.233	433
410.311	274
410.388	-379
410.465	658
410.543	-384
410.620	214
410.697	1349
410.775	22
410.852	-1268
410.929	813
411.006	1644
411.083	-78
411.161	1456
411.238	1717
411.315	740
411.392	-322
411.469	1135
411.547	75
411.624	-1169
411.701	-761
411.778	1433
411.855	2035
411.932	880
412.009	-1006
412.086	458
412.163	21
412.240	291
412.317	719
412.394	-394
412.471	564
412.548	-521
412.625	-688
412.702	875
412.779	1536
412.856	282
412.933	-303
413.010	271
413.087	2030
413.164	10443
413.241	13089
413.318	2294
413.395	1292
413.471	2065
413.548	952
413.625	514
413.702	-961
413.779	728
413.855	-157
413.932	-486
414.009	-1431
414.086	-418
414.162	-257
414.239	2221
414.316	12002
414.393	23968
414.469	6163
414.546	-265
414.623	206
414.699	350
414.776	110
414.853	603
414.929	396
415.006	-437
415.082	-155
415.159	-31
415.236	222
415.312	535
415.389	2634
415.465	1333
415.542	861
415.618	-226
415.695	1409
415.771	542
415.848	-167
415.924	609
416.000	-264
416.077	656
416.153	-1050
416.230	-1618
416.306	-864
416.383	-908
416.459	-207
416.535	-646
416.612	-1248
416.688	118
416.764	-238
416.841	-1796
416.917	-711
416.993	37
417.069	455
417.146	1006
417.222	1876
417.298	897
417.374	-368
417.451	742
417.527	541
417.603	277
417.679	726
417.755	452
417.831	-925
417.908	-319
417.984	-266
418.060	-515
418.136	1893
418.212	2243
418.288	-768
418.364	506
418.440	-60
418.516	1487
418.592	355
418.668	3660
418.744	4585
418.820	3698
418.896	325
418.972	-601
419.048	538
419.124	3455
419.200	368
419.276	244
419.352	-390
419.428	-696
419.504	320
419.579	792
419.655	-662
419.731	1105
419.807	3456
419.883	6602
419.959	3837
420.034	1100
420.110	4163
420.186	14596
420.262	9933
420.337	1051
420.413	468
420.489	-488
420.565	143
420.640	-841
420.716	-126
420.792	-1329
420.867	1023
420.943	-45
421.019	695
421.094	39
421.170	-382
421.245	-1093
421.321	-906
421.397	-766
421.472	1270
421.548	2559
421.623	2396
421.699	275
421.774	-329
421.850	-532
421.925	897
422.001	715
422.076	-908
422.152	-412
422.227	492
422.302	1822
422.378	274
422.453	1347
422.529	7938
422.604	45132
422.679	92684
422.755	35447
422.830	3781
422.905	591
422.981	-943
423.056	-1061
423.131	45
423.207	114
423.282	390
423.357	2764
423.432	1212
423.508	2441
423.583	4946
423.658	3723
423.733	-332
423.808	852
423.883	1345
423.959	591
424.034	-2
424.109	-84
424.184	-1326
424.259	-1145
424.334	-121
424.409	-482
424.484	173
424.559	-252
424.634	58
424.709	627
424.784	1236
424.859	802
424.934	2399
425.009	10886
425.084	15362
425.159	3688
425.234	44
425.309	-434
425.384	2639
425.459	2245
425.534	746
425.609	-226
425.683	-784
425.758	-366
425.833	13
425.908	1128
425.983	6185
426.058	15427
426.132	5154
426.207	-406
426.282	1108
426.357	-671
426.431	-848
426.506	-615
426.581	-938
426.655	-95
426.730	-844
426.805	-1162
426.879	838
426.954	-245
427.029	3909
427.103	22898
427.178	47124
427.253	17902
427.327	1781
427.402	1511
427.476	4519
427.551	665
427.625	-241
427.700	287
427.774	-1570
427.849	-150
427.923	-1163
427.998	-638
428.072	-790
428.147	1162
428.221	4225
428.296	5094
428.370	-25
428.444	-595
428.519	761
428.593	2458
428.667	2003
428.742	2477
428.816	2847
428.890	5326
428.965	5849
429.039	3220
429.113	2137
429.188	605
429.262	-686
429.336	1789
429.410	6071
429.485	3392
429.559	2056
429.633	1203
429.707	84
429.781	2216
429.855	7731
429.930	11667
430.004	10655
430.078	16039
430.152	10927
430.226	6052
430.300	4596
430.374	-297
430.448	861
430.522	7426
430.596	15998
430.670	11886
430.744	30511
430.818	44205
430.892	8122
430.966	33
431.040	-688
431.114	-1193
431.188	-1047
431.262	-821
431.336	-1242
431.410	2093
431.484	3906
431.557	3264
431.631	-937
431.705	-411
431.779	-806
431.853	2756
431.927	737
432.000	-295
432.074	-511
432.148	-447
432.222	-657
432.295	-806
432.369	-341
432.443	2258
432.516	22298
432.590	48565
432.664	14491
432.737	-92
432.811	-842
432.885	-418
432.958	-583
433.032	-1875
433.106	-1145
433.179	-323
433.253	-838
433.326	-790
433.400	-962
433.473	-624
433.547	-1456
433.620	-194
433.694	-249
433.767	857
433.841	-1356
433.914	-432
433.988	-692
434.061	444
434.134	-1330
434.208	-119
434.281	-787
434.355	-1091
434.428	-599
434.501	-1208
434.575	-1071
434.648	-552
434.721	-1201
434.795	-1123
434.868	-1443
434.941	-620
435.014	-1661
435.088	-513
435.161	-724
435.234	681
435.307	533
435.381	112
435.454	-794
435.527	-1066
435.600	-643
435.673	-337
435.746	-1382
435.819	-876
435.892	-525
435.966	-1194
436.039	-1236
436.112	30
436.185	-1162
436.258	-1430
436.331	-1547
436.404	-805
436.477	-1511
436.550	-836
436.623	-834
436.696	-1181
436.769	-260
436.842	-255
436.915	-866
436.987	-779
437.060	-617
437.133	-1422
437.206	-1169
437.279	-418
437.352	-320
437.425	-1168
437.498	-16
437.570	1427
437.643	864
437.716	-146
437.789	-1032
437.861	667
437.934	1837
438.007	344
438.080	-415
438.152	-266
438.225	4593
438.298	35717
438.370	78842
438.443	26194
438.516	2551
438.588	-112
438.661	-450
438.734	-677
438.806	-566
438.879	-730
438.951	-250
439.024	612
439.096	-834
439.169	-928
439.241	-1310
439.314	-1939
439.386	-789
439.459	366
439.531	443
439.604	-349
439.676	-792
439.749	-458
439.821	-1589
439.893	253
439.966	-342
440.038	-514
440.110	-178
440.183	-715
440.255	-798
440.327	1519
440.400	13196
440.472	43039
440.544	24199
440.617	1391
440.689	836
440.761	1435
440.833	2334
440.905	1138
440.978	-667
441.050	-1165
441.122	-604
441.194	-989
441.266	-1050
441.338	-1196
441.411	1316
441.483	12480
441.555	14134
441.627	2178
441.699	461
441.771	-12
441.843	-512
441.915	-768
441.987	-1323
442.059	-244
442.131	-1240
442.203	492
442.275	-169
442.347	-327
442.419	-911
442.491	-531
442.563	1006
442.635	1668
442.706	4036
442.778	3651
442.850	-753
442.922	-111
442.994	-469
443.066	-237
443.137	-364
443.209	-633
443.281	-73
443.353	101
443.425	1572
443.496	3526
443.568	1897
443.640	257
443.711	-798
443.783	-848
443.855	-1163
443.926	-1452
443.998	-955
444.070	131
444.141	-235
444.213	852
444.285	1079
444.356	118
444.428	-535
444.499	-954
444.571	-752
444.642	-759
444.714	-987
444.785	497
444.857	454
444.928	2556
445.000	393
445.071	1442
445.143	1274
445.214	742
445.285	850
445.357	3778
445.428	4304
445.500	7973
445.571	5495
445.642	1849
445.714	1877
445.785	3778
445.856	354
445.928	952
445.999	-583
446.070	-420
446.141	466
446.213	895
446.284	-893
446.355	-580
446.426	-523
446.497	-338
446.569	1078
446.640	985
446.711	504
446.782	-670
446.853	-398
446.924	429
446.995	-638
447.066	196
447.138	15
447.209	-334
447.280	-240
447.351	-1238
447.422	-1519
447.493	-968
447.564	-95
447.635	507
447.706	-584
447.777	-461
447.847	-337
447.918	-903
447.989	-458
448.060	280
448.131	1160
448.202	1615
448.273	854
448.344	83
448.414	-313
448.485	-1044
448.556	-500
448.627	-529
448.698	388
448.768	-233
448.839	-1426
448.910	112
448.981	969
449.051	-459
449.122	-1199
449.193	-945
449.263	-370
449.334	-1083
449.405	416
449.475	2228
449.546	903
449.616	1352
449.687	361
449.758	-746
449.828	-570
449.899	-724
449.969	-1016
450.040	-1181
450.110	-429
450.181	335
450.251	-460
450.322	-830
450.392	-435
450.463	-919
450.533	-612
450.604	-714
450.674	-1023
450.744	-23
450.815	-1311
450.885	291
450.955	-1277
451.026	-1951
451.096	-972
451.166	-953
451.237	555
451.307	2204
451.377	582
451.447	-1138
451.518	-1316
451.588	-420
451.658	91
451.728	290
451.799	2929
451.869	3640
451.939	-182
452.009	-900
452.079	-1586
452.149	320
452.219	470
452.289	4066
452.360	1965
452.430	-307
452.500	-486
452.570	405
452.640	239
452.710	931
452.780	3452
452.850	3195
452.920	2771
452.990	644
453.060	700
453.129	-39
453.199	503
453.269	6853
453.339	12991
453.409	19168
453.479	18818
453.549	26580
453.619	25768
453.688	8943
453.758	958
453.828	-11
453.898	-605
453.968	608
454.037	-558
454.087	-396
454.107	-346
454.168	-660
454.177	-726
454.247	-1289
454.249	-1231
454.316	-291
454.330	-162
454.386	156
454.411	874
454.456	1811
454.492	2087
454.525	2351
454.574	1122
454.595	593
454.655	-386
454.665	-532
454.734	1006
454.736	1070
454.804	1197
454.817	1794
454.873	3425
454.898	3911
454.943	4707
454.979	2961
455.013	1618
455.060	949
455.082	796
455.141	2436
455.152	2946
455.221	8148
455.222	8411
455.291	14155
455.303	16765
455.360	25189
455.384	32160
455.430	38015
455.465	26708
455.499	18700
455.546	9635
455.569	5417
455.627	3014
455.638	2685
455.707	324
455.708	343
455.777	340
455.789	340
455.846	142
455.869	-28
455.916	-345
455.950	-87
455.985	166
456.031	442
456.054	514
456.112	294
456.124	262
456.193	921
456.193	907
456.262	249
456.274	509
456.332	1424
456.355	1268
456.401	679
456.436	659
456.470	773
456.516	494
456.540	322
456.597	222
456.609	234
456.678	-64
456.678	-80
456.747	370
456.759	345
456.817	389
456.840	344
456.886	192
456.920	397
456.955	609
457.001	441
457.024	323
457.082	811
457.093	928
457.162	1917
457.163	1935
457.232	1013
457.243	963
457.301	784
457.324	617
457.370	486
457.405	627
457.439	716
457.485	574
457.508	475
457.566	695
457.577	757
457.646	1249
457.647	1265
457.715	1383
457.727	1297
457.784	766
457.808	940
457.853	1523
457.889	2060
457.922	2329
457.969	1913
457.991	1658
458.050	1832
458.060	1836
458.129	1533
458.130	1538
458.198	1230
458.211	1291
458.267	1340
458.292	1015
458.336	641
458.372	782
458.405	1020
458.453	1189
458.474	1161
458.533	1655
458.543	1817
458.611	2616
458.614	2669
458.680	1869
458.694	1586
458.749	1232
458.775	1167
458.818	1069
458.855	875
458.887	750
458.936	834
458.955	840
459.016	650
459.024	641
459.093	1595
459.097	1627
459.162	2057
459.177	2093
459.230	2195
459.257	2486
459.299	2799
459.338	3017
459.368	3120
459.418	2769
459.437	2452
459.499	2153
459.505	2152
459.574	1123
459.579	1116
459.643	1052
459.659	1071
459.711	1722
459.740	2080
459.780	2389
459.820	2307
459.849	2102
459.900	2467
459.917	2563
459.981	2920
459.986	2919
460.054	2393
460.061	2363
460.123	3046
460.141	3353
460.191	4026
460.222	4442
460.260	4527
460.302	4738
460.328	4671
460.382	3471
460.397	3271
460.462	3485
460.465	3608
460.534	6578
460.543	6938
460.602	12627
460.623	14949
460.671	22405
460.703	28171
460.739	21751
460.783	11720
460.808	9280
460.864	2927
460.876	2589
460.944	2086
460.945	2079
461.013	2629
461.024	2578
461.081	2269
461.104	2482
461.150	2303
461.184	2170
461.218	2547
461.264	2651
461.286	2608
461.345	2377
461.355	2327
461.423	2992
461.425	2981
461.491	2964
461.505	3144
461.559	6731
461.585	8290
461.628	11514
461.665	14796
461.696	14864
461.745	14985
461.764	12743
461.825	4369
461.832	4313
461.901	3116
461.905	3122
461.969	2520
461.985	2301
462.037	3102
462.065	3693
462.105	4233
462.145	4632
462.173	5930
462.225	8484
462.241	9056
462.305	11716
462.310	11320
462.378	4629
462.385	3827
462.446	3624
462.465	3667
462.514	3628
462.545	3671
462.582	3777
462.625	3759
462.650	3515
462.705	2969
462.718	3073
462.785	4077
462.786	4103
462.854	5081
462.865	5297
462.922	5754
462.945	5950
462.990	4607
463.025	3221
463.058	2875
463.104	2500
463.126	2444
463.184	2628
463.194	2836
463.262	3848
463.264	3902
463.330	3973
463.344	3829
463.398	4039
463.424	4270
463.466	3602
463.504	3220
463.533	3828
463.583	4383
463.601	4365
463.663	4251
463.669	4384
463.737	6229
463.743	6384
463.805	9687
463.823	10674
463.873	15748
463.903	18740
463.940	17760
463.982	16919
464.008	13543
464.062	5733
464.076	5303
464.142	2974
464.144	2999
464.211	4230
464.221	4447
464.279	4854
464.301	4921
464.347	5425
464.381	5758
464.414	5786
464.461	6014
464.482	6144
464.540	6352
464.550	6295
464.617	5783
464.620	5751
464.685	7299
464.699	7695
464.753	9476
464.779	10306
464.820	10847
464.859	11268
464.888	10590
464.938	9461
464.956	9678
465.018	10126
465.023	10041
465.091	9007
465.098	8878
465.158	8569
465.177	8461
465.226	8695
465.257	8749
465.293	8799
465.336	8900
465.361	9837
465.416	11876
465.428	12360
465.495	15116
465.496	15182
465.563	21265
465.575	22335
465.631	23094
465.654	23404
465.698	15388
465.734	8537
465.765	8375
465.813	8010
465.833	7914
465.893	7847
465.900	7828
465.968	7423
465.972	7384
466.035	7911
466.052	8045
466.102	8475
466.131	8674
466.170	8727
466.210	8712
466.237	8855
466.290	9218
466.304	9341
466.369	9542
466.372	9577
466.439	10179
466.449	10232
466.506	10824
466.528	11050
466.573	15949
466.607	19549
466.641	24847
466.687	32144
466.708	33550
466.766	37296
466.775	34668
466.842	14321
466.845	13326
466.909	12129
466.925	11846
466.977	11304
467.004	10988
467.044	12054
467.083	13089
467.111	14854
467.163	18096
467.178	18219
467.242	18546
467.245	18452
467.312	15736
467.321	15344
467.379	15827
467.400	15956
467.446	16278
467.480	16451
467.559	13826
467.638	12934
467.717	13245
467.796	13494
467.875	14375
467.955	15172
468.034	22935
468.113	36313
468.192	46355
468.271	12873
468.350	11350
468.429	10595
468.508	9654
468.588	11017
468.667	11779
468.746	13409
468.825	12112
468.904	10561
468.983	13164
469.062	17681
469.141	19482
469.220	10124
469.299	11608
469.378	12283
469.456	15988
469.535	15037
469.614	13699
469.693	13724
469.772	16245
469.851	20167
469.930	14271
470.009	11891
470.088	11809
470.166	12651
470.245	14329
470.324	14830
470.403	12828
470.482	11742
470.560	12043
470.639	11935
470.718	13945
470.797	11904
470.875	13477
470.954	16343
471.033	16229
471.111	8588
471.190	10128
471.269	9430
471.347	9842
471.426	10033
471.505	12794
471.583	14249
471.662	13875
471.740	10887
471.819	11776
471.898	10753
471.976	9696
472.055	10760
472.133	10755
472.212	14234
472.290	13533
472.369	9816
472.447	10579
472.526	9464
472.604	11094
472.683	11077
472.761	10351
472.839	9780
472.918	9947
472.996	9820
473.075	11072
473.153	10478
473.231	8878
473.310	11012
473.388	10298
473.466	10778
473.545	12283
473.623	14499
473.701	14025
473.780	10447
473.858	9714
473.936	12663
474.014	10113
474.093	11640
474.171	14127
474.249	18274
474.327	10332
474.405	9061
474.484	9245
474.562	8973
474.640	9812
474.718	9256
474.796	10518
474.874	10352
474.952	8440
475.030	8669
475.108	8820
475.187	10793
475.265	11663
475.343	15198
475.421	15405
475.499	9225
475.577	10057
475.655	12527
475.733	21760
475.811	31879
475.889	27850
475.966	14928
476.044	9636
476.122	11369
476.200	14073
476.278	9438
476.356	8693
476.434	9374
476.512	11235
476.590	12945
476.667	11336
476.745	7768
476.823	8602
476.901	7430
476.979	8634
477.056	9213
477.134	9008
477.212	8953
477.290	8263
477.367	6905
477.445	7915
477.523	7417
477.601	7411
477.678	8335
477.756	9913
477.834	9242
477.911	7885
477.989	8373
478.066	7394
478.144	8542
478.222	10271
478.299	15353
478.377	11740
478.454	6274
478.532	7353
478.609	7631
478.687	8306
478.764	6864
478.842	8400
478.919	8054
478.997	6802
479.074	6220
479.152	8192
479.229	10003
479.307	5872
479.384	6117
479.461	6652
479.539	7174
479.616	6342
479.694	6691
479.771	6892
479.848	8316
479.926	9718
480.003	10072
480.080	7174
480.157	7524
480.235	6224
480.312	6612
480.389	8278
480.467	12242
480.544	12485
480.621	6999
480.698	7338
480.775	7457
480.853	8176
480.930	7320
481.007	7094
481.084	8010
481.161	8307
481.238	7463
481.315	5507
481.392	6610
481.470	7194
481.547	6949
481.624	6093
481.701	6543
481.778	6314
481.855	8177
481.932	11422
482.009	17797
482.086	9434
482.163	7423
482.240	11153
482.317	18728
482.393	11796
482.470	6363
482.547	6445
482.624	5569
482.701	5803
482.778	5605
482.855	5857
482.932	5586
483.009	5637
483.085	6514
483.162	7085
483.239	6583
483.316	4087
483.393	6530
483.469	5535
483.546	6807
483.623	7915
483.699	5728
483.776	6651
483.853	7968
483.930	14276
484.006	29229
484.083	45127
484.160	35391
484.236	55215
484.313	38016
484.389	28574
484.466	26651
484.543	24674
484.619	24296
484.696	25664
484.772	26748
484.849	26873
484.925	23007
485.002	24905
485.078	24902
485.155	23598
485.231	22539
485.308	21847
485.384	22872
485.461	27894
485.537	35934
485.614	36634
485.690	20901
485.766	20793
485.843	23482
485.919	27192
485.995	26460
486.072	20385
486.148	19993
486.224	19948
486.301	19617
486.377	22201
486.453	21923
486.530	24441
486.606	33322
486.682	35059
486.758	34412
486.835	35619
486.911	32363
486.987	47175
487.063	47423
487.139	54431
487.215	38092
487.292	23722
487.368	21490
487.444	22831
487.520	25619
487.596	21447
487.672	22472
487.748	28431
487.824	28306
487.900	21120
487.976	21779
488.052	20798
488.128	23904
488.204	20450
488.280	19872
488.356	26220
488.432	39612
488.508	48563
488.584	20137
488.660	19269
488.736	18131
488.812	21212
488.888	24198
488.964	33391
489.039	59100
489.115	73513
489.191	38838
489.267	18337
489.343	17606
489.418	16180
489.494	16922
489.570	14758
489.646	16353
489.722	16764
489.797	17899
489.873	26623
489.949	42139
490.024	29636
490.100	13359
490.176	16335
490.251	18358
490.327	22085
490.403	14097
490.478	14625
490.554	13042
490.629	13064
490.705	12287
490.781	14973
490.856	12976
490.932	16351
491.007	14744
491.083	13996
491.158	13580
491.234	20054
491.309	30784
491.385	25662
491.460	12688
491.536	15446
491.611	12626
491.686	14715
491.762	20295
491.837	37128
491.913	56819
491.988	75842
492.063	78367
492.139	23311
492.214	16654
492.289	11479
492.365	11391
492.440	13709
492.515	11601
492.590	13502
492.666	11214
492.741	16604
492.816	18666
492.891	12100
492.967	12883
493.042	12434
493.117	15255
493.192	20566
493.267	65109
493.342	191087
493.418	191284
493.493	18366
493.568	10413
493.643	10935
493.718	13472
493.793	18074
493.868	17459
493.943	11520
494.018	10247
494.093	8741
494.168	10023
494.243	8585
494.318	8820
494.393	8059
494.468	8047
494.543	8506
494.618	9662
494.693	7722
494.768	8692
494.842	9875
494.917	8396
494.992	9048
495.067	7619
495.142	8293
495.217	9071
495.292	8525
495.366	10909
495.441	11485
495.516	15289
495.591	26512
495.665	79802
495.740	147092
495.815	41688
495.890	12398
495.964	7710
496.039	12112
496.114	9401
496.188	10928
496.263	10872
496.338	8885
496.412	11801
496.487	13005
496.561	13595
496.636	13350
496.710	11873
496.785	12541
496.860	13086
496.934	10690
497.009	10649
497.083	11466
497.158	11683
497.232	13101
497.307	15906
497.381	13347
497.455	16377
497.530	20436
497.604	15397
497.679	17310
497.753	25810
497.827	28554
497.902	26655
497.976	37960
498.050	102546
498.125	285121
498.199	194517
498.273	36973
498.348	32093
498.422	27342
498.496	25629
498.570	22177
498.645	17701
498.719	16224
498.793	20192
498.867	29100
498.941	43431
499.016	133698
499.090	260091
499.164	53042
499.238	12125
499.312	12109
499.386	14455
499.460	12035
499.534	11376
499.609	14048
499.683	18445
499.757	20880
499.831	65788
499.905	193639
499.979	116877
500.053	23099
500.127	21831
500.201	16106
500.275	10966
500.349	10957
500.422	11986
500.496	21893
500.570	49188
500.644	116644
500.718	158030
500.792	22267
500.866	12450
500.940	14948
501.013	11488
501.087	12838
501.161	22404
501.235	28011
501.309	72139
501.382	166134
501.456	96023
501.530	30618
501.603	45282
501.677	12805
501.751	8151
501.825	12553
501.898	27464
501.972	61620
502.046	23697
502.119	13187
502.193	33988
502.266	63504
502.340	22872
502.413	33579
502.487	51919
502.561	24720
502.634	8970
502.708	8438
502.781	7657
502.855	7311
502.928	5788
503.002	6556
503.075	5573
503.149	7359
503.222	7027
503.295	7088
503.369	9766
503.442	16331
503.516	56930
503.589	107445
503.662	51057
503.736	23303
503.809	53043
503.882	36813
503.956	64182
504.029	37445
504.102	15866
504.175	14028
504.249	6510
504.322	8673
504.395	7266
504.468	6061
504.542	6073
504.615	5027
504.688	4959
504.761	3889
504.834	7660
504.907	10651
504.980	13974
505.053	7272
505.127	9783
505.200	12617
505.273	8917
505.346	5691
505.419	5317
505.492	6180
505.565	4276
505.638	4426
505.711	4886
505.784	3384
505.857	4580
505.930	6461
506.003	4187
506.076	6983
506.149	6353
506.221	7213
506.294	10901
506.367	32440
506.440	84854
506.513	27396
506.586	8814
506.659	5376
506.731	5263
506.804	7723
506.877	9306
506.950	6860
507.022	5885
507.095	5835
507.168	7416
507.241	6151
507.313	5165
507.386	5958
507.459	8925
507.531	5969
507.604	3936
507.677	5357
507.749	3351
507.822	9872
507.894	19865
507.967	22123
508.040	12016
508.112	11133
508.185	10005
508.257	8824
508.330	13898
508.402	8553
508.475	9371
508.547	9633
508.620	9459
508.692	12963
508.765	8455
508.837	7184
508.909	7401
508.982	7330
509.054	9879
509.127	7700
509.199	7309
509.271	6160
509.344	6607
509.416	6930
509.488	6421
509.560	8006
509.633	8731
509.705	9446
509.777	10335
509.849	13468
509.922	8684
509.994	8404
510.066	9646
510.138	11139
510.210	23091
510.283	17994
510.355	14771
510.427	13185
510.499	11761
510.571	11093
510.643	11338
510.715	17671
510.787	11994
510.859	11751
510.931	13792
511.003	15783
511.076	13994
511.148	9587
511.219	10784
511.291	16323
511.363	15930
511.435	10345
511.507	8865
511.579	10681
511.651	10659
511.723	9641
511.795	9108
511.867	9000
511.939	12603
512.010	18270
512.082	13910
512.154	9454
512.226	10938
512.298	19228
512.369	21818
512.441	16523
512.513	16234
512.585	12221
512.656	14374
512.728	12723
512.800	10344
512.871	11771
512.943	11632
513.015	9445
513.086	11261
513.158	11637
513.230	11099
513.301	16088
513.373	16076
513.444	10795
513.516	10357
513.588	10172
513.659	10797
513.731	12613
513.802	11539
513.874	24666
513.945	31527
514.016	10857
514.088	10369
514.159	11371
514.231	16318
514.302	20433
514.374	14900
514.445	13855
514.516	23662
514.588	14015
514.659	13343
514.730	19675
514.802	14975
514.873	12585
514.944	15468
515.016	13254
515.087	13770
515.158	17482
515.229	19277
515.301	14364
515.372	18438
515.443	12425
515.514	11291
515.585	8374
515.656	10198
515.728	9816
515.799	8066
515.870	10546
515.941	10826
516.012	10859
516.083	16612
516.154	15785
516.225	17291
516.296	15229
516.367	13469
516.438	14078
516.509	16334
516.580	26565
516.651	77064
516.722	185314
516.793	61432
516.864	21040
516.935	19481
517.006	21250
517.077	30894
517.148	77912
517.219	222382
517.289	233199
517.360	88831
517.431	25332
517.502	12715
517.573	13201
517.643	13579
517.714	15945
517.785	15013
517.856	14441
517.926	16761
517.997	16717
518.068	18338
518.138	25820
518.209	45055
518.280	183540
518.350	436260
518.421	103676
518.492	18596
518.562	14132
518.633	12475
518.703	10343
518.774	13605
518.845	14095
518.915	13552
518.986	12136
519.056	16763
519.127	31648
519.197	50768
519.268	96052
519.338	37391
519.408	16616
519.479	19885
519.549	12830
519.620	11020
519.690	8257
519.760	9945
519.831	9494
519.901	8697
519.971	8821
520.042	9133
520.112	10288
520.182	12952
520.253	12935
520.323	9776
520.393	14604
520.463	18926
520.534	14783
520.604	25033
520.674	12280
520.744	13655
520.814	30321
520.885	23664
520.955	44658
521.025	102456
521.095	22991
521.165	10459
521.235	7564
521.305	7166
521.375	8726
521.445	9291
521.515	11378
521.585	14046
521.655	9715
521.725	11010
521.795	9744
521.865	6827
521.935	12874
522.005	8762
522.075	6281
522.145	8872
522.215	8282
522.285	12133
522.355	16396
522.424	28369
522.494	19317
522.564	13912
522.634	35201
522.704	70800
522.774	19462
522.843	8282
522.913	7723
522.983	9150
523.053	7038
523.122	8899
523.192	13610
523.262	44117
523.331	26876
523.401	7599
523.471	6332
523.540	8919
523.610	5734
523.680	4707
523.749	5938
523.819	8367
523.888	6762
523.958	5076
524.027	6650
524.097	6501
524.166	6440
524.236	5370
524.305	8452
524.375	5378
524.444	4921
524.514	7427
524.583	6496
524.653	7249
524.722	7666
524.791	4692
524.861	7493
524.930	4926
524.999	5467
525.069	8318
525.138	6977
525.207	7594
525.277	6217
525.346	5900
525.415	6169
525.484	6159
525.554	6717
525.623	5052
525.692	5940
525.761	6079
525.830	5629
525.900	4677
525.969	6341
526.038	6522
526.107	5612
526.176	12191
526.245	9551
526.314	13501
526.383	13440
526.452	9923
526.522	20867
526.591	28558
526.660	27177
526.729	12168
526.797	17983
526.867	61696
526.935	202173
527.004	103747
527.073	27413
527.142	6198
527.211	5977
527.280	9091
527.349	7761
527.418	3634
527.487	5972
527.555	4168
527.624	3937
527.693	3279
527.762	5073
527.831	4312
527.899	5007
527.968	5271
528.037	3746
528.106	7719
528.174	12128
528.243	9346
528.312	16077
528.380	14702
528.449	4527
528.518	5587
528.586	2401
528.655	4224
528.723	3766
528.792	3821
528.861	2937
528.929	2916
528.998	4889
529.066	3464
529.135	3801
529.203	3136
529.272	3285
529.340	4052
529.409	5700
529.477	3051
529.545	4984
529.614	6583
529.682	6371
529.751	6031
529.819	9094
529.887	4033
529.956	3837
530.024	4333
530.092	3021
530.161	5854
530.229	8151
530.297	3001
530.365	4049
530.434	3117
530.502	2896
530.570	3718
530.638	2589
530.707	5432
530.775	5659
530.843	2892
530.911	3110
530.979	3569
531.047	3136
531.115	3736
531.183	3036
531.252	4056
531.320	2971
531.388	2701
531.456	4094
531.524	1994
531.592	4338
531.660	5028
531.728	1620
531.796	2491
531.864	3521
531.932	3939
532.000	3643
532.067	4028
532.135	5228
532.203	6427
532.271	5497
532.339	15566
532.407	31746
532.475	13411
532.542	7854
532.610	9047
532.678	17317
532.746	83795
532.814	127041
532.881	20974
532.949	5710
533.017	4678
533.084	4759
533.152	4899
533.220	5002
533.287	3774
533.355	4367
533.423	4220
533.490	2394
533.558	4588
533.625	4141
533.693	5025
533.761	4675
533.828	6527
533.896	6301
533.963	15487
534.031	17390
534.098	20096
534.166	7540
534.233	5774
534.300	7158
534.368	7164
534.435	4443
534.503	5562
534.570	5189
534.637	3522
534.705	5226
534.772	4930
534.840	4174
534.907	7759
534.974	6294
535.041	4798
535.109	5499
535.176	3256
535.243	4133
535.310	5325
535.378	3454
535.445	3921
535.512	3811
535.579	4838
535.646	3721
535.714	5191
535.781	7076
535.848	6769
535.915	8731
535.982	7913
536.049	7741
536.116	8456
536.183	5792
536.250	6130
536.317	5716
536.384	7506
536.451	10480
536.518	9497
536.585	6022
536.652	9697
536.719	13129
536.786	7639
536.853	6586
536.920	12525
536.987	18036
537.053	23453
537.120	85480
537.187	42053
537.254	5464
537.321	4563
537.388	5996
537.454	3606
537.521	4048
537.588	4222
537.654	7235
537.721	6994
537.788	7116
537.855	4617
537.921	6042
537.988	5304
538.055	6192
538.121	5306
538.188	5958
538.254	11914
538.321	18171
538.388	8699
538.454	5245
538.521	4028
538.587	5275
538.654	4160
538.720	4443
538.787	4478
538.853	4979
538.920	6885
538.986	5813
539.053	4991
539.119	5941
539.185	5227
539.252	9162
539.318	10171
539.385	8468
539.451	7033
539.517	7839
539.583	10299
539.650	27566
539.716	47311
539.782	9825
539.849	5230
539.915	6955
539.981	6496
540.047	7852
540.114	6526
540.180	7953
540.246	6872
540.312	9723
540.378	18635
540.444	17259
540.510	29811
540.576	55058
540.643	11381
540.709	4761
540.775	5063
540.841	5215
540.907	10490
540.973	12860
541.039	12248
541.105	11275
541.171	6185
541.237	6352
541.303	6607
541.369	9310
541.435	11206
541.500	16570
541.566	7750
541.632	6145
541.698	3215
541.764	6425
541.830	4557
541.896	4005
541.961	5097
542.027	5927
542.093	5343
542.159	6516
542.224	7376
542.290	13584
542.356	17922
542.421	17787
542.487	10106
542.553	6291
542.618	6492
542.684	6246
542.750	6197
542.815	8567
542.881	18617
542.947	56863
543.012	25359
543.078	6023
543.143	5256
543.209	6685
543.274	5711
543.340	9994
543.405	24433
543.471	24368
543.536	6689
543.602	6789
543.667	4308
543.732	5873
543.798	4917
543.863	5875
543.928	4851
543.994	4421
544.059	5598
544.124	5582
544.190	5285
544.255	5833
544.320	6690
544.386	6010
544.451	9639
544.516	9942
544.581	12704
544.646	41426
544.712	39881
544.777	8812
544.842	7629
544.907	7567
544.972	6742
545.037	6592
545.102	7523
545.168	7578
545.233	7967
545.298	8101
545.363	9311
545.428	10786
545.493	24360
545.558	38853
545.623	12679
545.688	7397
545.753	7181
545.818	6311
545.883	7745
545.947	6586
546.012	7819
546.077	7263
546.142	8842
546.207	7296
546.272	10146
546.337	9218
546.401	8289
546.466	8065
546.531	5967
546.596	8334
546.661	7058
546.725	7274
546.790	5148
546.855	6653
546.919	4872
546.984	5872
547.049	6212
547.113	7169
547.178	5167
547.243	6708
547.307	7129
547.372	8223
547.436	8445
547.501	5936
547.565	7013
547.630	9643
547.695	9216
547.759	9618
547.823	6006
547.888	5381
547.952	4890
548.017	7247
548.081	8628
548.146	9819
548.210	6997
548.274	5579
548.339	5849
548.403	5646
548.468	5390
548.532	5333
548.596	6110
548.660	6058
548.725	7153
548.789	7450
548.853	8136
548.917	6437
548.982	10403
549.046	8094
549.110	5627
549.174	6535
549.238	5514
549.303	4943
549.367	6885
549.431	5135
549.495	6160
549.559	5523
549.623	5957
549.687	8329
549.751	10913
549.815	6467
549.879	6448
549.943	4634
550.007	5983
550.071	7308
550.135	10069
550.199	6992
550.263	6841
550.327	8662
550.391	8060
550.455	5944
550.519	6253
550.582	7314
550.646	10371
550.710	9122
550.774	6433
550.838	6335
550.901	6886
550.965	6396
551.029	6851
551.093	8277
551.156	11477
551.220	22940
551.284	15136
551.347	11423
551.411	31661
551.475	20638
551.538	7304
551.602	6231
551.666	6590
551.729	4689
551.793	6003
551.856	7523
551.920	8524
551.983	6178
552.047	6336
552.110	5795
552.174	5328
552.237	5120
552.301	5875
552.364	4839
552.428	5681
552.491	5225
552.554	6094
552.618	5877
552.681	6608
552.745	6854
552.808	12108
552.871	12764
552.934	8550
552.998	7710
553.061	8353
553.124	8341
553.187	8399
553.251	9735
553.314	11972
553.377	15155
553.440	37990
553.503	152649
553.567	140029
553.630	15152
553.693	6951
553.756	7243
553.819	5292
553.882	5750
553.945	6182
554.008	5328
554.071	4720
554.134	4642
554.197	4978
554.260	5556
554.323	6589
554.386	6074
554.449	4934
554.512	5433
554.575	4976
554.638	5788
554.701	4496
554.764	5544
554.827	4848
554.889	4817
554.952	4547
555.015	4316
555.078	4757
555.141	4902
555.203	5261
555.266	4281
555.329	5696
555.391	4380
555.454	5219
555.517	5248
555.580	5133
555.642	4828
555.705	5320
555.768	5406
555.830	5579
555.893	4506
555.955	5015
556.018	5822
556.080	4776
556.143	4466
556.206	4101
556.268	5101
556.330	5680
556.393	5456
556.455	5699
556.518	8661
556.580	7290
556.643	4520
556.705	5113
556.767	4159
556.830	5377
556.892	6818
556.955	10110
557.017	6453
557.079	4795
557.142	5405
557.204	7764
557.266	15558
557.328	9672
557.391	3507
557.453	4303
557.515	4781
557.577	6512
557.639	5587
557.701	4787
557.764	3277
557.826	5249
557.888	5575
557.950	3581
558.012	3439
558.074	4763
558.136	6679
558.198	8232
558.260	5763
558.322	4646
558.384	5324
558.446	6256
558.508	5763
558.570	9122
558.632	18563
558.694	20384
558.756	8993
558.818	19108
558.880	28383
558.942	8316
559.003	7022
559.065	5015
559.127	5085
559.189	4185
559.251	4166
559.312	5665
559.374	9952
559.436	20015
559.498	7876
559.559	3906
559.621	5216
559.683	6406
559.744	10000
559.806	16380
559.868	12801
559.929	6549
559.991	6605
560.052	6156
560.114	8429
560.176	6474
560.237	9537
560.299	9552
560.360	5166
560.422	5473
560.483	6173
560.545	5700
560.606	5813
560.667	4669
560.729	4763
560.790	4952
560.852	5765
560.913	5595
560.974	4477
561.036	5207
561.097	5266
561.158	5581
561.220	5287
561.281	4846
561.342	5937
561.403	8250
561.465	10920
561.526	29290
561.587	24745
561.648	6888
561.709	5266
561.771	6287
561.832	5077
561.893	5547
561.954	5730
562.015	5127
562.076	5639
562.137	5550
562.198	5276
562.259	5779
562.320	5661
562.381	6461
562.442	9291
562.503	6379
562.564	6306
562.625	4839
562.686	6354
562.747	5724
562.808	5006
562.869	5148
562.930	7607
562.991	6631
563.051	6554
563.112	6161
563.173	5035
563.234	4902
563.294	5481
563.355	5325
563.416	6268
563.477	6071
563.537	5645
563.598	6105
563.659	6995
563.720	5874
563.780	6498
563.841	6025
563.901	6737
563.962	5751
564.023	6391
564.083	6415
564.144	5365
564.204	5485
564.265	6419
564.325	7922
564.386	14160
564.446	8449
564.507	5642
564.567	6053
564.628	5900
564.688	5341
564.749	6740
564.809	7547
564.869	7280
564.930	5100
564.990	6584
565.050	5410
565.111	5871
565.171	5583
565.231	5647
565.292	6218
565.352	4934
565.412	6143
565.472	6142
565.532	7183
565.593	5828
565.653	5070
565.713	5755
565.773	5819
565.833	8714
565.893	9652
565.953	5905
566.013	6636
566.074	7055
566.134	9686
566.194	12657
566.254	12219
566.314	9035
566.374	6179
566.434	6871
566.494	7026
566.554	6731
566.614	7190
566.673	6735
566.733	8447
566.793	8372
566.853	8296
566.913	8663
566.973	8655
567.033	8234
567.092	9024
567.152	9122
567.212	8278
567.272	9680
567.331	9391
567.391	9439
567.451	11306
567.511	14273
567.570	11807
567.630	9599
567.690	9329
567.749	10110
567.809	11336
567.868	11440
567.928	12668
567.988	14831
568.047	17361
568.107	22334
568.166	32648
568.226	53700
568.285	70302
568.345	56348
568.404	42648
568.464	34781
568.523	31787
568.582	32396
568.642	37908
568.701	50991
568.761	81345
568.820	121838
568.879	110917
568.939	78165
568.998	53201
569.057	38669
569.116	30236
569.176	24273
569.235	19483
569.294	17339
569.353	14430
569.413	13460
569.472	11702
569.531	10259
569.590	9541
569.649	9036
569.708	8015
569.767	9285
569.827	9262
569.886	7414
569.945	6900
570.004	6234
570.063	6830
570.122	7486
570.181	7987
570.240	7738
570.299	7280
570.358	7322
570.417	4632
570.475	5246
570.534	6843
570.593	6481
570.652	6158
570.711	5199
570.770	6644
570.829	6797
570.887	6154
570.946	6410
571.005	5443
571.064	4852
571.122	5371
571.181	6191
571.240	4646
571.299	5960
571.357	5943
571.416	5748
571.475	6340
571.533	6542
571.592	6091
571.650	4383
571.709	4955
571.768	4530
571.826	4266
571.885	4725
571.943	4565
572.002	4864
572.060	4978
572.119	3953
572.177	3748
572.236	3850
572.294	4541
572.352	5664
572.411	4862
572.469	4152
572.528	4289
572.586	4449
572.644	5053
572.703	5624
572.761	4509
572.819	4079
572.877	3654
572.936	3849
572.994	4158
573.052	3287
573.110	3600
573.169	4212
573.227	3216
573.285	4482
573.343	3502
573.401	3076
573.459	3893
573.517	3324
573.576	4241
573.634	4444
573.692	3561
573.750	3795
573.808	3992
573.866	4731
573.924	5478
573.982	5199
574.040	3859
574.098	4052
574.155	2715
574.213	3602
574.271	3188
574.329	3711
574.387	3198
574.445	3230
574.503	3394
574.560	2960
574.618	2707
574.676	3580
574.734	2912
574.792	3414
574.849	2570
574.907	3219
574.965	3368
575.022	3864
575.080	2497
575.138	4438
575.195	3550
575.253	4173
575.311	3307
575.368	3228
575.426	2685
575.483	4521
575.541	3017
575.598	3882
575.656	2683
575.713	3546
575.771	2860
575.828	3554
575.886	2958
575.943	3638
576.001	3695
576.058	2533
576.115	3617
576.173	4103
576.230	5649
576.287	5784
576.345	4835
576.402	3604
576.459	4077
576.517	3798
576.574	4724
576.631	4192
576.688	3649
576.746	3918
576.803	3522
576.860	3279
576.917	3837
576.974	3743
577.031	3871
577.089	4635
577.146	4025
577.203	4156
577.260	4076
577.317	5157
577.374	5194
577.431	4864
577.488	4021
577.545	4643
577.602	4659
577.659	5181
577.716	7036
577.773	7829
577.830	5225
577.886	3765
577.943	3992
578.000	4464
578.057	4479
578.114	5986
578.171	6478
578.227	9159
578.284	8153
578.341	6508
578.398	4855
578.454	5687
578.511	5316
578.568	5724
578.625	3533
578.681	3590
578.738	3097
578.794	3931
578.851	3942
578.908	3938
578.964	3870
579.021	5196
579.077	3967
579.134	3579
579.190	2884
579.247	3763
579.303	3919
579.360	3598
579.416	3967
579.473	3542
579.529	3664
579.586	3142
579.642	4133
579.698	3332
579.755	4205
579.811	5075
579.867	4791
579.924	4212
579.980	5794
580.036	6668
580.093	9993
580.149	14007
580.205	14304
580.261	10058
580.317	7218
580.374	6441
580.430	5973
580.486	5848
580.542	4193
580.598	3442
580.619	3884
580.654	4658
580.692	4377
580.710	4243
580.765	3753
580.767	3744
580.823	4437
580.838	4266
580.879	3786
580.911	3767
580.935	3777
580.984	3638
580.991	3627
581.047	5321
581.057	5169
581.103	4501
581.130	5157
581.159	5836
581.203	5896
581.215	5925
581.270	5808
581.276	5708
581.326	4768
581.349	4671
581.382	4592
581.422	4436
581.438	4352
581.494	4481
581.494	4473
581.550	4051
581.567	4110
581.606	4221
581.640	4421
581.661	4547
581.713	4964
581.717	5000
581.773	4171
581.786	4276
581.829	4683
581.859	4492
581.885	4289
581.932	3853
581.940	3792
581.996	4183
582.004	4244
582.052	4545
582.077	4159
582.107	3710
582.150	4138
582.163	4253
582.219	3520
582.223	3567
582.274	4308
582.296	4210
582.330	3966
582.368	4164
582.386	4295
582.441	4143
582.441	4144
582.497	4209
582.514	4243
582.552	4444
582.587	5586
582.608	6250
582.659	4588
582.663	4455
582.719	4456
582.732	4484
582.774	4642
582.805	4652
582.830	4636
582.877	4804
582.885	4831
582.941	4135
582.950	4258
582.996	5091
583.023	5333
583.052	5515
583.095	5954
583.107	6100
583.162	7991
583.168	8078
583.218	8645
583.240	8110
583.273	7286
583.313	6039
583.328	5624
583.384	5497
583.385	5469
583.439	4617
583.458	4667
583.494	4626
583.531	4163
583.549	4114
583.603	4737
583.605	4738
583.660	4026
583.676	4188
583.715	4801
583.748	4482
583.770	4211
583.820	4620
583.825	4670
583.881	4121
583.893	4200
583.936	4503
583.965	4337
583.991	4141
584.038	4762
584.046	4893
584.101	4400
584.110	4398
584.156	4331
584.183	4329
584.211	4270
584.255	4784
584.266	4933
584.321	4716
584.328	4683
584.376	4270
584.400	4600
584.431	5270
584.472	5224
584.486	5083
584.541	4686
584.545	4697
584.596	5033
584.617	4835
584.651	4750
584.689	5389
584.706	5536
584.761	5471
584.762	5470
584.816	5184
584.834	5270
584.871	5601
584.906	5470
584.926	5343
584.978	5404
584.980	5400
585.035	5239
585.051	5430
585.090	6278
585.123	6396
585.145	6249
585.195	6435
585.200	6516
585.254	7411
585.267	8129
585.309	10365
585.340	11021
585.364	11056
585.412	7671
585.419	7207
585.473	7065
585.484	6870
585.528	6281
585.556	6563
585.583	6882
585.628	7404
585.637	7632
585.692	9700
585.700	9928
585.747	10385
585.772	9723
585.801	8733
585.845	7374
585.856	7082
585.910	6933
585.917	6906
585.965	6802
585.989	6985
586.019	7303
586.061	7235
586.074	7242
586.128	7926
586.133	7955
586.183	7901
586.205	7948
586.237	7941
586.277	7378
586.292	7304
586.346	7766
586.349	7834
586.401	8558
586.421	8383
586.455	8318
586.493	9486
586.509	10041
586.564	11175
586.565	11265
586.618	15271
586.637	14615
586.672	11909
586.709	10246
586.727	9602
586.781	9325
586.781	9317
586.835	9401
586.853	9615
586.889	10178
586.925	10148
586.944	10041
586.996	10481
586.998	10488
587.052	10859
587.068	11036
587.106	11369
587.140	11304
587.161	11220
587.212	11749
587.215	11767
587.269	12174
587.284	12305
587.323	12747
587.356	13195
587.377	13408
587.427	14023
587.431	14079
587.485	15530
587.499	15723
587.539	16282
587.571	17130
587.593	17503
587.643	17991
587.648	18060
587.702	20039
587.715	20360
587.755	21249
587.786	21945
587.810	22555
587.858	24716
587.864	24951
587.917	28098
587.930	28712
587.971	30719
588.001	32765
588.025	34555
588.073	38034
588.079	38528
588.133	43157
588.145	44653
588.187	49651
588.217	53295
588.241	56815
588.288	64835
588.295	65934
588.348	76375
588.360	79059
588.402	90332
588.431	99119
588.456	106142
588.503	122180
588.510	124855
588.564	151954
588.575	158876
588.617	188081
588.646	213879
588.671	241540
588.718	310524
588.725	324408
588.778	463130
588.789	500173
588.832	715849
588.861	886036
588.886	1074055
588.932	1354850
588.939	1364786
588.993	1350549
589.004	1348634
589.047	1085574
589.075	853189
589.100	686913
589.147	428616
589.154	408161
589.207	304121
589.218	287852
589.261	266433
589.290	262586
589.314	272038
589.361	309895
589.368	321893
589.421	455877
589.433	493624
589.475	737516
589.504	918185
589.528	1060364
589.576	1235174
589.582	1203675
589.635	865145
589.647	782436
589.689	480748
589.718	302024
589.742	241436
589.790	151089
589.795	145333
589.849	105575
589.861	97959
589.902	82142
589.932	71171
589.955	64782
590.004	53921
590.009	52989
590.062	45687
590.075	44030
590.115	39307
590.146	36337
590.168	34862
590.218	31724
590.222	31374
590.275	28294
590.289	27486
590.328	25572
590.360	24363
590.381	23831
590.431	22601
590.435	22427
590.488	20387
590.503	19938
590.541	19147
590.574	18532
590.594	17995
590.645	17024
590.647	16975
590.700	16243
590.716	16115
590.753	15457
590.787	15062
590.806	14791
590.859	14008
590.859	13973
590.912	13454
590.930	13274
590.965	12643
591.001	12299
591.018	12167
591.071	11582
591.072	11600
591.124	11273
591.143	11192
591.177	11386
591.214	11669
591.230	11629
591.283	11666
591.285	11673
591.336	11060
591.356	10971
591.389	11396
591.427	11817
591.442	11258
591.495	9129
591.498	8996
591.547	9137
591.569	9260
591.600	9082
591.640	8757
591.653	8854
591.706	9522
591.711	9593
591.759	8898
591.782	8573
591.811	8898
591.853	9432
591.864	9345
591.917	8894
591.924	8851
591.969	8325
591.995	8029
592.022	7705
592.066	7204
592.075	7363
592.127	8498
592.137	8727
592.180	8317
592.208	8025
592.233	7933
592.279	7810
592.285	7789
592.338	7773
592.350	7765
592.390	7114
592.421	6683
592.443	6968
592.491	7631
592.495	7600
592.548	7368
592.562	7313
592.600	7036
592.633	6847
592.653	6857
592.704	6890
592.705	6915
592.775	6167
592.846	6686
592.916	6748
592.987	6836
593.058	5911
593.128	5915
593.199	5642
593.270	5897
593.341	5352
593.411	5958
593.482	5207
593.553	6142
593.623	6236
593.694	6121
593.764	5777
593.835	5312
593.906	5219
593.976	5474
594.047	4777
594.117	6637
594.188	5608
594.258	4988
594.329	5299
594.399	5218
594.470	4607
594.540	5191
594.611	4475
594.681	4907
594.751	5546
594.822	6270
594.892	6443
594.963	5286
595.033	4862
595.103	5298
595.174	5630
595.244	7050
595.314	7963
595.384	4946
595.455	4848
595.525	4793
595.595	5103
595.665	4850
595.736	4370
595.806	5041
595.876	4162
595.946	4142
596.016	4773
596.087	4720
596.157	4721
596.227	4032
596.297	4815
596.367	3955
596.437	5474
596.507	5870
596.577	7014
596.647	5159
596.717	4580
596.787	4816
596.857	4569
596.927	4424
596.997	4690
597.067	4792
597.137	5101
597.207	5168
597.277	4857
597.347	4504
597.417	4124
597.487	4926
597.557	5172
597.626	5260
597.696	4101
597.766	5407
597.836	6375
597.906	4602
597.975	4408
598.045	4285
598.115	4251
598.185	4385
598.254	3944
598.324	4590
598.394	4852
598.464	4590
598.533	3626
598.603	4761
598.672	5031
598.742	4326
598.812	3553
598.881	3503
598.951	4116
599.020	3235
599.090	4020
599.159	4208
599.229	3885
599.299	4149
599.368	4461
599.437	4385
599.507	4701
599.576	4582
599.646	4297
599.715	4363
599.785	3905
599.854	3307
599.924	3607
599.993	3688
600.062	4080
600.132	4075
600.201	4263
600.270	4040
600.340	4052
600.409	3906
600.478	4106
600.547	3266
600.617	3793
600.686	3308
600.755	3310
600.824	3495
600.894	4051
600.963	3268
601.032	3968
601.101	4493
601.170	3582
601.239	3082
601.308	3835
601.378	3198
601.447	3646
601.516	4019
601.585	4681
601.654	4454
601.723	4341
601.792	3558
601.861	4089
601.930	5599
601.999	4742
602.068	3954
602.137	5119
602.206	4546
602.275	3462
602.343	4988
602.412	4357
602.481	3950
602.550	2807
602.619	3086
602.688	3722
602.756	3182
602.825	3888
602.894	3200
602.963	3642
603.032	3872
603.100	3643
603.169	3412
603.238	2862
603.307	3453
603.375	3609
603.444	2988
603.513	3760
603.581	3551
603.650	3262
603.719	2594
603.787	2492
603.856	3959
603.924	3393
603.993	3338
604.061	2521
604.130	3871
604.198	3680
604.267	4045
604.335	4164
604.404	2744
604.472	3356
604.541	3664
604.609	3463
604.678	3102
604.746	2710
604.815	3182
604.883	3423
604.951	3274
605.020	3699
605.088	3452
605.156	2818
605.225	3140
605.293	2919
605.361	2311
605.429	3525
605.498	4122
605.566	4294
605.634	4064
605.702	3348
605.771	3018
605.839	3231
605.907	2990
605.975	3021
606.043	3166
606.111	3131
606.180	4080
606.248	4736
606.316	4855
606.384	2931
606.452	3902
606.520	4713
606.588	3323
606.656	3174
606.724	2089
606.792	2501
606.860	3073
606.928	2783
606.996	2163
607.064	2769
607.132	2519
607.200	2780
607.267	3450
607.335	2223
607.403	2736
607.471	2157
607.539	3573
607.607	3627
607.674	3061
607.742	3158
607.810	3062
607.878	3523
607.946	2656
608.013	2392
608.081	3740
608.149	3336
608.216	2702
608.284	3752
608.352	2757
608.419	1702
608.487	4812
608.555	3022
608.622	3448
608.690	2355
608.757	3001
608.825	2630
608.893	3210
608.960	4329
609.028	3060
609.095	4501
609.163	2802
609.230	2811
609.298	4027
609.365	3130
609.432	2798
609.500	3890
609.567	3219
609.635	3144
609.702	2678
609.769	3692
609.837	3427
609.904	3862
609.971	3010
610.039	5909
610.106	6618
610.173	8695
610.241	19199
610.308	30686
610.375	22639
610.442	4962
610.509	3314
610.577	4109
610.644	3467
610.711	2555
610.778	3748
610.845	3084
610.912	3525
610.980	4395
611.047	6609
611.114	4872
611.181	2938
611.248	1725
611.315	3981
611.382	2594
611.449	2820
611.516	2852
611.583	3346
611.650	3043
611.717	2804
611.784	3080
611.851	3188
611.918	3443
611.984	3438
612.051	4932
612.118	7113
612.185	14293
612.252	9173
612.319	3209
612.386	3190
612.452	2785
612.519	3375
612.586	3353
612.653	3407
612.719	3046
612.786	2697
612.853	2838
612.919	2605
612.986	3525
613.053	2232
613.120	2145
613.186	1674
613.253	4624
613.319	2223
613.386	2673
613.453	2712
613.519	3686
613.586	4042
613.652	6927
613.719	5665
613.785	4364
613.852	3543
613.918	3146
613.985	5222
614.051	7663
614.118	21616
614.184	19619
614.250	3894
614.317	4303
614.383	2537
614.449	2668
614.516	2848
614.582	3370
614.648	2511
614.715	3294
614.781	2566
614.847	3157
614.914	2134
614.980	2347
615.046	3637
615.112	2613
615.179	2517
615.245	3440
615.311	4744
615.377	9047
615.443	7532
615.509	5002
615.575	3892
615.642	3303
615.708	3973
615.774	4239
615.840	4398
615.906	6060
615.972	8979
616.038	17893
616.104	19969
616.170	21914
616.236	15716
616.302	6776
616.368	4352
616.434	3287
616.500	4218
616.565	4297
616.631	3468
616.697	3133
616.763	3373
616.829	4164
616.895	5806
616.961	4050
617.026	3383
617.092	2645
617.158	3661
617.224	2665
617.289	2669
617.355	2753
617.421	2184
617.487	3601
617.552	2575
617.618	1681
617.684	2257
617.749	5183
617.815	2436
617.880	2379
617.946	3000
618.012	3505
618.077	2255
618.143	3011
618.208	3688
618.274	3274
618.339	2939
618.405	2093
618.470	3589
618.536	2931
618.601	3503
618.667	2578
618.732	2918
618.798	3688
618.863	2781
618.928	3546
618.994	3756
619.059	3933
619.124	5398
619.190	4422
619.255	2479
619.320	2678
619.386	3215
619.451	1901
619.516	3444
619.581	2927
619.647	2631
619.712	2805
619.777	2442
619.842	3797
619.907	2261
619.972	2108
620.038	2572
620.103	3869
620.168	1841
620.233	3851
620.298	2481
620.363	2002
620.428	3882
620.493	3108
620.558	2826
620.623	2114
620.688	2614
620.753	2314
620.818	2489
620.883	2190
620.948	2542
621.013	2480
621.078	2638
621.143	1265
621.207	4919
621.272	2592
621.337	3530
621.402	4146
621.467	4703
621.532	4626
621.596	4009
621.661	3343
621.726	2922
621.791	2867
621.855	3315
621.920	3457
621.985	3374
622.049	4432
622.114	3132
622.179	4302
622.243	3101
622.308	3366
622.373	4762
622.437	4117
622.502	2452
622.566	4185
622.631	2551
622.695	4052
622.760	3531
622.824	4161
622.889	3309
622.953	3020
623.018	7405
623.082	5636
623.147	3394
623.211	3436
623.276	3652
623.340	3221
623.404	3177
623.469	3899
623.533	3581
623.597	2804
623.662	3395
623.726	3468
623.790	3906
623.854	2912
623.919	3104
623.983	2711
624.047	3464
624.111	2680
624.176	3772
624.240	2500
624.304	4435
624.368	3349
624.432	3404
624.496	3565
624.560	3740
624.625	4155
624.689	4036
624.753	2997
624.817	3419
624.881	2863
624.945	2658
625.009	3001
625.073	2982
625.137	2361
625.201	4222
625.265	4789
625.329	3626
625.393	3557
625.456	3346
625.520	3296
625.584	3441
625.648	3988
625.712	5619
625.776	11261
625.839	12546
625.903	4536
625.967	3669
626.031	6941
626.095	7143
626.158	3359
626.222	2264
626.286	3143
626.349	2161
626.413	2130
626.477	3487
626.540	2041
626.604	2327
626.668	4109
626.731	2309
626.795	2341
626.858	2497
626.922	1502
626.986	2856
627.049	1380
627.113	2509
627.176	2166
627.240	2404
627.303	2965
627.366	2174
627.430	2933
627.493	2343
627.557	1160
627.620	3773
627.684	2164
627.747	1806
627.810	776
627.874	2518
627.937	1556
628.000	3905
628.064	2458
628.127	760
628.190	3046
628.253	3284
628.317	1969
628.380	2149
628.443	1643
628.506	1255
628.569	3280
628.632	1442
628.696	3146
628.759	1194
628.822	1831
628.885	1552
628.948	2518
629.011	2136
629.074	2355
629.137	2230
629.200	1229
629.263	2620
629.326	784
629.389	2317
629.452	1674
629.515	2186
629.578	1713
629.641	2668
629.704	1461
629.767	1565
629.830	2555
629.892	2228
629.955	1195
630.018	3343
630.081	2311
630.144	3296
630.207	1423
630.269	3606
630.332	2294
630.395	2069
630.458	1409
630.520	1810
630.583	2927
630.646	2067
630.708	1872
630.771	1320
630.834	2678
630.896	1454
630.959	2018
631.021	914
631.084	1517
631.146	1884
631.209	2755
631.272	1331
631.334	1894
631.397	1224
631.459	803
631.522	1497
631.584	2214
631.646	2363
631.709	2448
631.771	1998
631.834	2755
631.896	1872
631.958	650
632.021	2284
632.083	18
632.145	967
632.208	1469
632.270	2174
632.332	790
632.395	1400
632.457	2299
632.519	1166
632.581	2939
632.643	988
632.706	1534
632.768	829
632.830	2528
632.892	1165
632.954	1182
633.016	2138
633.078	1141
633.141	1370
633.203	1636
633.265	1528
633.327	2288
633.389	1171
633.451	1910
633.513	2269
633.575	2037
633.637	1574
633.698	2039
633.760	2301
633.822	2137
633.884	1842
633.946	999
634.008	1895
634.070	1960
634.132	2390
634.193	1620
634.255	2445
634.317	1637
634.379	2670
634.441	800
634.502	1106
634.564	2876
634.626	1861
634.687	3060
634.749	859
634.811	2256
634.873	1109
634.934	1328
634.996	2142
635.057	1294
635.119	1246
635.181	1839
635.242	2081
635.304	-226
635.365	3564
635.427	344
635.488	1561
635.550	923
635.611	1321
635.673	-521
635.734	2774
635.796	865
635.857	2949
635.918	702
635.980	2093
636.041	516
636.102	1519
636.164	735
636.225	2005
636.286	111
636.348	1816
636.409	1573
636.470	1008
636.531	1083
636.593	1169
636.654	1828
636.715	1773
636.776	1293
636.838	593
636.899	975
636.960	293
637.021	1338
637.082	1229
637.143	1938
637.204	348
637.265	876
637.326	1562
637.387	293
637.448	27
637.509	1710
637.570	975
637.631	2354
637.692	543
637.753	764
637.814	1529
637.875	439
637.936	1430
637.997	526
638.058	1304
638.119	1558
638.179	1377
638.240	758
638.301	754
638.362	553
638.423	608
638.483	1749
638.544	-340
638.605	2001
638.666	840
638.726	1251
638.787	1891
638.848	1408
638.908	866
638.969	1471
639.030	1069
639.090	757
639.151	71
639.211	1812
639.272	2580
639.332	3635
639.393	2125
639.453	422
639.514	-195
639.574	1088
639.635	246
639.695	1840
639.756	488
639.816	1881
639.877	1739
639.937	4255
639.997	4299
640.058	1061
640.118	290
640.178	1218
640.239	911
640.299	656
640.359	461
640.420	1335
640.480	1528
640.540	411
640.600	-45
640.661	910
640.721	223
640.781	2144
640.841	-444
640.901	2343
640.961	1522
641.021	1409
641.082	766
641.142	2079
641.202	2931
641.262	-943
641.322	2092
641.382	-262
641.442	1371
641.502	1181
641.562	2038
641.622	942
641.682	1007
641.742	722
641.802	1016
641.861	998
641.921	1256
641.981	1698
642.041	1682
642.101	1529
642.161	98
642.221	-48
642.280	980
642.340	973
642.400	-1003
642.460	1365
642.519	298
642.579	525
642.639	1833
642.698	-1517
642.758	3122
642.818	1611
642.877	484
642.937	759
642.997	1816
643.056	2228
643.116	-674
643.175	2509
643.235	362
643.294	326
643.354	740
643.414	1029
643.473	1136
643.532	424
643.592	459
643.651	1583
643.711	3135
643.770	3523
643.830	5667
643.889	12746
643.948	3326
644.008	1449
644.067	907
644.126	270
644.186	945
644.245	1449
644.304	-495
644.363	2518
644.423	-725
644.482	517
644.541	1552
644.600	-1200
644.659	1157
644.719	-301
644.778	1150
644.837	894
644.896	1146
644.955	1695
645.014	1489
645.073	1162
645.132	42
645.191	1581
645.250	-379
645.309	2148
645.368	357
645.427	1664
645.486	-916
645.545	1604
645.604	117
645.663	821
645.722	-210
645.781	1368
645.840	712
645.898	477
645.957	1764
646.016	-627
646.075	2136
646.134	2053
646.192	5285
646.251	8833
646.310	891
646.369	414
646.427	253
646.486	-626
646.545	-143
646.603	1322
646.662	792
646.721	439
646.779	116
646.838	-603
646.896	1023
646.955	575
647.014	1584
647.072	213
647.131	1527
647.189	95
647.248	-462
647.306	709
647.365	1063
647.423	-553
647.481	2114
647.540	-663
647.598	1092
647.657	557
647.715	1098
647.773	-239
647.832	695
647.890	1
647.948	-26
648.007	974
648.065	-1014
648.123	219
648.181	2290
648.240	1515
648.298	561
648.356	216
648.414	720
648.472	795
648.531	751
648.589	190
648.647	1084
648.705	-285
648.763	257
648.821	592
648.879	501
648.937	185
648.995	487
649.053	-201
649.111	568
649.169	843
649.227	1287
649.285	1125
649.343	4523
649.401	3857
649.459	5630
649.516	4481
649.574	2146
649.632	8716
649.690	11025
649.748	3608
649.806	835
649.863	4100
649.921	2683
649.979	-20
650.037	285
650.094	-872
650.152	1148
650.210	-764
650.268	1155
650.325	374
650.383	347
650.440	-66
650.498	270
650.556	317
650.613	-654
650.671	1366
650.728	53
650.786	78
650.843	345
650.901	-1506
650.958	696
651.016	-196
651.073	-319
651.131	-245
651.188	-833
651.246	-7
651.303	-329
651.360	-195
651.418	382
651.475	501
651.532	427
651.590	550
651.647	-329
651.704	-147
651.762	446
651.819	428
651.876	46
651.933	850
651.990	544
652.048	-622
652.105	-809
652.162	1119
652.219	-68
652.276	231
652.333	657
652.390	-687
652.448	1201
652.505	474
652.562	628
652.619	620
652.676	1403
652.733	2192
652.790	256
652.847	-530
652.904	1130
652.961	-442
653.017	-1000
653.074	755
653.131	259
653.188	-544
653.245	218
653.302	806
653.359	31
653.415	883
653.472	-90
653.529	884
653.586	-728
653.642	-775
653.699	708
653.756	-61
653.813	-183
653.869	487
653.926	305
653.983	-862
654.039	698
654.096	-533
654.152	638
654.209	-66
654.266	416
654.322	-1089
654.379	553
654.435	1338
654.492	-797
654.548	89
654.605	107
654.661	807
654.717	26
654.774	861
654.830	594
654.887	337
654.943	-204
655.000	487
655.056	556
655.112	945
655.168	-828
655.225	-251
655.281	667
655.337	54
655.394	142
655.450	742
655.506	865
655.562	449
655.618	2229
655.675	-452
655.731	228
655.787	-192
655.843	-79
655.899	-726
655.955	591
656.011	746
656.067	-78
656.123	635
656.179	723
656.235	2756
656.291	339
656.347	1627
656.403	347
656.459	-143
656.515	170
656.571	492
656.627	317
656.683	-249
656.739	543
656.795	385
656.850	-579
656.906	389
656.962	793
657.018	-645
657.074	113
657.129	66
657.185	415
657.241	-107
657.297	-646
657.352	438
657.408	-733
657.464	276
657.519	46
657.575	-642
657.630	-15
657.686	-200
657.742	-1057
657.797	-529
657.853	-620
657.908	375
657.964	-1153
658.019	230
658.075	-556
658.130	130
658.186	-694
658.241	866
658.297	-712
658.352	-681
658.407	124
658.463	-686
658.518	162
658.573	-539
658.629	-1028
658.684	12
658.739	732
658.795	-29
658.850	5
658.905	-1022
658.960	473
659.016	-630
659.071	-882
659.126	78
659.181	-38
659.236	1310
659.291	1455
659.346	-157
659.401	258
659.457	970
659.512	848
659.567	2261
659.622	-348
659.677	-646
659.732	-1321
659.787	-535
659.842	-992
659.897	686
659.952	661
660.007	15
660.061	343
660.116	-852
660.171	78
660.226	171
660.281	962
660.336	-679
660.391	322
660.445	-650
660.500	397
660.555	-143
660.610	-1102
660.664	395
660.719	-241
660.774	135
660.828	618
660.883	-10
660.938	436
660.992	-645
661.047	484
661.101	225
661.156	-422
661.211	-785
661.265	-101
661.320	-673
661.374	-361
661.429	-360
661.483	-62
661.538	-1051
661.592	-775
661.647	172
661.701	-52
661.755	-461
661.810	-656
661.864	-486
661.919	-312
661.973	-95
662.027	-183
662.081	-1079
662.136	-865
662.190	-287
662.244	-124
662.299	-187
662.353	-325
662.407	-195
662.461	-1006
662.515	-277
662.569	-630
662.624	907
662.678	-351
662.732	396
662.786	-871
662.840	-170
662.894	-29
662.948	-428
663.002	-982
663.056	458
663.110	-77
663.164	-371
663.218	-253
663.272	-177
663.326	-174
663.380	58
663.434	421
663.488	-782
663.542	-620
663.595	-285
663.649	-797
663.703	504
663.757	-31
663.811	-681
663.864	-438
663.918	-1004
663.972	-930
664.026	-599
664.079	-527
664.133	-639
664.187	44
664.240	-269
664.294	-579
664.348	199
664.401	719
664.455	-318
664.508	-785
664.562	77
664.615	126
664.669	-32
664.722	364
664.776	-460
664.829	-511
664.883	-710
664.936	-1540
664.990	-60
665.043	-544
665.097	-309
665.150	207
665.203	-1117
665.257	-349
665.310	23
665.363	-447
665.417	-902
665.470	-154
665.523	-439
665.576	-528
665.630	-757
665.683	-1118
665.736	-824
665.789	-674
665.842	-697
665.895	-771
665.949	-398
666.002	-437
666.055	218
666.108	-350
666.161	29
666.214	704
666.267	433
666.320	-47
666.373	251
666.426	-634
666.479	-994
666.532	-296
666.585	-425
666.638	-653
666.691	-382
666.744	-730
666.796	-1001
666.849	-1
666.902	330
666.955	-89
667.008	-651
667.060	-423
667.113	250
667.166	-288
667.219	533
667.271	-706
667.324	136
667.377	-576
667.430	-845
667.482	126
667.535	891
667.587	199
667.640	121
667.693	-153
667.745	521
667.798	1489
667.850	-450
667.903	901
667.955	-830
668.008	-685
668.060	-66
668.113	-372
668.165	-50
668.218	637
668.270	387
668.322	-235
668.375	-304
668.427	-240
668.479	-208
668.532	199
668.584	-459
668.636	-76
668.689	365
668.741	-740
668.793	349
668.845	-476
668.898	-312
668.950	-590
669.002	193
669.054	-382
669.106	-457
669.158	-399
669.211	-599
669.263	-934
669.315	251
669.367	713
669.419	381
669.471	709
669.523	601
669.575	1399
669.627	551
669.679	-93
669.731	-309
669.783	474
669.835	246
669.886	819
669.938	631
669.990	55
670.042	-536
670.094	31
670.146	181
670.197	1842
670.249	2473
670.301	3678
670.353	5047
670.404	9203
670.456	13804
670.508	20732
670.560	31563
670.611	49684
670.663	82850
670.715	190856
670.766	339598
670.818	138680
670.869	21574
670.921	9049
670.972	5443
671.024	4048
671.075	2537
671.127	1681
671.178	961
671.230	1824
671.281	1108
671.333	478
671.384	398
671.436	355
671.487	1285
671.538	798
671.590	708
671.641	179
671.692	522
671.744	460
671.795	378
671.846	-211
671.897	-14
671.949	410
672.000	0
672.051	-371
672.102	509
672.153	-596
672.204	322
672.256	250
672.307	507
672.358	511
672.409	-31
672.460	-137
672.511	-160
672.562	7
672.613	-709
672.664	38
672.715	373
672.766	-128
672.817	-378
672.868	-1056
672.919	-883
672.970	-535
673.021	-746
673.071	-482
673.122	-543
673.173	-87
673.224	923
673.275	-492
673.326	-687
673.376	-609
673.427	255
673.478	-1061
673.528	-51
673.579	-502
673.630	-665
673.680	-928
673.731	440
673.782	-590
673.832	-1192
673.883	-955
673.934	-444
673.984	-809
674.035	-433
674.085	247
674.136	-294
674.186	107
674.237	-726
674.287	405
674.338	-197
674.388	-313
674.438	-658
674.489	-578
674.539	-783
674.589	-116
674.640	18
674.690	-513
674.740	-874
674.791	723
674.841	-636
674.891	-165
674.942	-340
674.992	-633
675.042	-456
675.092	-151
675.142	-926
675.193	-119
675.243	-769
675.293	-322
675.343	-905
675.393	-563
675.443	-980
675.493	-657
675.543	-25
675.593	-253
675.643	-688
675.693	-322
675.743	-850
675.793	200
675.843	-26
675.893	-847
675.943	-129
675.993	-1193
676.043	-775
676.093	-29
676.142	-1507
676.192	-643
676.242	-629
676.292	-455
676.341	-864
676.391	-626
676.441	-456
676.491	-724
676.540	-432
676.590	-668
676.640	-708
676.689	-1157
676.739	-1019
676.789	-547
676.838	-737
676.888	-586
676.937	-234
676.987	-237
677.037	-469
677.086	-1019
677.136	-750
677.185	-894
677.235	-944
677.284	-810
677.333	-674
677.383	-1318
677.432	-1015
677.482	-465
677.531	-933
677.580	-982
677.630	-556
677.679	-1282
677.728	-988
677.778	391
677.827	-785
677.876	-557
677.925	-798
677.975	-703
678.024	-1053
678.073	-1092
678.122	-767
678.171	-1223
678.220	-877
678.269	-19
678.319	225
678.368	-918
678.417	-420
678.466	-400
678.515	-269
678.564	-1461
678.613	-1519
678.662	-1711
678.711	-347
678.760	-207
678.809	-1676
678.857	-1415
678.906	-883
678.955	-933
679.004	-865
679.053	-418
679.102	-1328
679.151	-1412
679.199	-840
679.248	-806
679.297	-705
679.346	-570
679.394	-608
679.443	-1181
679.492	-735
679.540	-651
679.589	-307
679.638	-455
679.686	-923
679.735	-690
679.784	-748
679.832	-996
679.881	-723
679.929	-1324
679.978	-1088
680.026	-631
680.075	-794
680.123	-767
680.172	-733
680.220	-657
680.268	-932
680.317	-584
680.365	-319
680.414	-1058
680.462	-144
680.510	-808
680.559	-1201
680.607	-843
680.655	-1154
680.703	-740
680.752	-822
680.800	-953
680.848	-865
680.896	-1191
680.945	-947
680.993	-960
681.041	-744
681.089	-1632
681.137	-252
681.185	-821
681.233	-1060
681.258	-789
681.281	-538
681.329	-1104
681.377	-1200
681.380	-1197
681.425	-1289
681.473	-667
681.502	-888
681.521	-1057
681.569	-570
681.617	-468
681.624	-589
681.665	-1384
681.713	-307
681.745	-936
681.761	-1248
681.809	-1062
681.857	-397
681.867	-572
681.904	-1194
681.952	-635
681.989	-623
682.000	-627
682.048	-1903
682.096	-1359
682.111	-1195
682.143	-856
682.191	-1067
682.233	-1243
682.239	-1280
682.286	-819
682.334	-545
682.354	-516
682.382	-452
682.430	-615
682.476	-261
682.477	-258
682.525	-900
682.572	-796
682.598	-934
682.620	-1044
682.667	-1921
682.715	-371
682.720	-385
682.763	-597
682.810	-962
682.841	-930
682.857	-912
682.905	-408
682.952	-607
682.963	-621
683.000	-728
683.047	-684
683.085	98
683.095	326
683.142	-849
683.190	-817
683.206	-869
683.237	-1038
683.284	-114
683.328	-548
683.332	-586
683.379	-790
683.426	-384
683.449	-382
683.473	-387
683.521	-776
683.568	-67
683.571	-113
683.615	-742
683.662	-51
683.693	-594
683.709	-902
683.757	-789
683.804	-157
683.814	-221
683.851	-494
683.898	-507
683.936	-643
683.945	-669
683.992	-698
684.039	-625
684.057	-486
684.086	-269
684.133	394
684.179	15
684.180	-4
684.227	-66
684.274	-333
684.300	-770
684.321	-1082
684.368	-1096
684.415	-222
684.422	-287
684.462	-756
684.509	-527
684.543	-400
684.556	-355
684.603	-121
684.649	-784
684.665	-687
684.696	-480
684.743	-549
684.786	-227
684.790	-202
684.837	-833
684.883	192
684.908	-18
684.930	-248
684.977	-7
685.023	-776
685.029	-746
685.070	-485
685.117	-456
685.150	-154
685.164	-61
685.210	-414
685.257	-287
685.272	-236
685.303	-141
685.350	8
685.393	-167
685.396	-165
685.443	-496
685.490	989
685.514	422
685.536	-210
685.583	581
685.629	-527
685.636	-486
685.675	-170
685.722	217
685.757	-110
685.768	-210
685.815	31
685.861	-56
685.878	143
685.908	415
685.954	-207
686.000	-44
686.000	-41
686.047	-297
686.093	26
686.121	133
686.139	215
686.185	-41
686.232	642
686.242	582
686.278	305
686.324	-189
686.363	-430
686.370	-467
686.416	67
686.463	-5
686.484	69
686.509	165
686.555	199
686.601	518
686.606	488
686.647	137
686.693	766
686.727	191
686.739	-9
686.785	231
686.831	236
686.848	144
686.877	-55
686.923	167
686.969	-417
686.969	-420
687.015	125
687.061	710
687.090	420
687.107	180
687.153	54
687.199	-124
687.211	-196
687.245	-196
687.291	613
687.332	539
687.336	515
687.382	273
687.428	175
687.453	60
687.474	6
687.520	-108
687.565	675
687.574	503
687.611	-272
687.657	128
687.695	-275
687.702	-306
687.748	124
687.794	292
687.816	504
687.839	588
687.885	-142
687.931	-332
687.937	-320
687.976	-102
688.022	318
688.058	329
688.067	308
688.113	488
688.158	66
688.179	128
688.204	271
688.249	445
688.295	-241
688.300	-181
688.340	148
688.386	887
688.421	328
688.431	186
688.477	425
688.522	594
688.542	476
688.567	364
688.613	528
688.658	293
688.663	357
688.703	826
688.749	699
688.784	341
688.794	242
688.839	431
688.884	293
688.905	286
688.930	208
688.975	161
689.020	185
689.026	174
689.065	253
689.110	415
689.146	296
689.155	282
689.201	-53
689.246	180
689.267	252
689.291	277
689.336	694
689.381	-44
689.388	-18
689.426	303
689.471	693
689.509	877
689.516	865
689.561	524
689.606	433
689.630	379
689.651	425
689.696	378
689.741	369
689.750	387
689.785	440
689.830	813
689.871	404
689.875	363
689.920	486
689.965	749
689.992	461
690.010	232
690.054	505
690.099	266
690.112	241
690.144	352
690.189	211
690.233	371
690.233	374
690.278	633
690.323	534
690.354	542
690.367	647
690.412	778
690.457	1416
690.474	1477
690.501	1297
690.546	1297
690.590	958
690.595	916
690.635	828
690.680	1275
690.716	1151
690.724	1144
690.769	1350
690.813	2050
690.836	1990
690.857	2209
690.902	3094
690.946	4062
690.957	4322
690.991	6035
691.035	8376
691.077	10913
691.080	10927
691.124	9927
691.168	8099
691.198	7264
691.213	6541
691.257	4619
691.301	2663
691.318	2068
691.346	2106
691.390	1759
691.434	1142
691.439	1106
691.478	1039
691.522	1176
691.559	1041
691.567	1074
691.611	1671
691.655	1561
691.680	1776
691.699	1702
691.743	1804
691.787	1237
691.800	1026
691.831	734
691.875	795
691.919	1458
691.921	1446
691.964	1306
692.008	1216
692.041	1155
692.052	1150
692.096	1271
692.139	1383
692.162	1476
692.183	1414
692.227	1347
692.271	1067
692.282	975
692.315	1095
692.359	1479
692.402	1648
692.403	1653
692.447	1923
692.490	1303
692.523	1170
692.534	1197
692.578	1511
692.622	1718
692.643	1831
692.666	1789
692.709	1493
692.753	1115
692.763	1105
692.797	1365
692.840	1024
692.884	1649
692.884	1659
692.928	1584
692.971	1240
693.004	1406
693.015	1461
693.059	1384
693.102	1268
693.124	1196
693.146	1179
693.189	1284
693.233	1324
693.245	1338
693.276	1717
693.320	2321
693.363	2828
693.365	2823
693.407	2271
693.450	2319
693.485	2083
693.493	2226
693.537	3226
693.580	3963
693.605	4483
693.624	5216
693.667	6730
693.710	8607
693.725	9225
693.753	12541
693.797	18167
693.840	23990
693.845	24551
693.883	22190
693.926	18367
693.966	15352
693.970	14961
694.013	11040
694.056	6926
694.086	4408
694.099	4302
694.142	3351
694.185	2909
694.206	2574
694.229	2482
694.272	2445
694.315	2567
694.326	2505
694.358	2343
694.401	2178
694.444	1935
694.446	1936
694.487	2328
694.530	2190
694.566	2368
694.573	2354
694.616	1935
694.659	1677
694.686	1462
694.702	1507
694.745	1718
694.787	1780
694.806	1931
694.830	1932
694.873	1519
694.916	1269
694.926	1205
694.959	1319
695.002	1415
695.044	1374
695.046	1377
695.087	1414
695.130	1305
695.166	1121
695.172	1194
695.215	1750
695.258	2249
695.286	2497
695.301	2397
695.343	2326
695.386	1962
695.406	1922
695.428	1961
695.471	1786
695.514	1619
695.526	1595
695.556	1601
695.599	1760
695.641	1492
695.646	1487
695.684	1617
695.726	1584
695.766	1589
695.769	1595
695.811	1685
695.854	1678
695.886	1551
695.896	1527
695.938	1627
695.981	1601
696.005	1605
696.023	1712
696.065	1968
696.108	2225
696.125	2300
696.150	2295
696.192	2400
696.235	2186
696.245	2188
696.277	2192
696.319	2113
696.361	2080
696.365	2053
696.404	2050
696.446	2304
696.485	2402
696.488	2410
696.530	2331
696.572	2351
696.604	2292
696.614	2267
696.656	2072
696.698	2025
696.724	1934
696.740	1915
696.783	1824
696.825	1681
696.844	1681
696.867	1717
696.909	1627
696.951	1569
696.964	1600
696.992	1730
697.034	1627
697.076	1581
697.083	1586
697.118	1804
697.160	1974
697.202	2113
697.203	2106
697.244	1730
697.286	1380
697.323	1089
697.327	1160
697.369	1621
697.411	2229
697.442	2617
697.453	2474
697.494	1835
697.536	1161
697.562	776
697.578	1035
697.620	1695
697.661	2287
697.682	2597
697.703	2597
697.744	2589
697.786	2605
697.801	2570
697.828	2517
697.869	2401
697.911	2367
697.921	2333
697.952	2218
697.994	2080
698.035	1927
698.040	1899
698.077	2001
698.118	2109
698.160	2239
698.160	2229
698.201	2167
698.243	2115
698.279	2056
698.284	2091
698.325	2323
698.367	2568
698.399	2731
698.408	2675
698.449	2345
698.491	2055
698.518	1845
698.532	1869
698.573	1895
698.614	1946
698.638	1958
698.656	1966
698.697	1962
698.738	1958
698.757	1943
698.779	2099
698.820	2387
698.862	2681
698.877	2779
698.903	2782
698.944	2768
698.985	2761
698.996	2748
699.026	2685
699.067	2586
699.116	2459
699.235	2309
699.354	2395
699.474	2741
699.593	2126
699.713	2779
699.832	2971
699.951	2895
700.070	2997
700.190	2386
700.309	2586
700.428	2606
700.547	2582
700.667	2372
700.786	2561
700.905	2589
701.024	2595
701.143	2353
701.262	2449
701.381	2778
701.500	2672
701.619	2899
701.738	2294
701.857	2765
701.976	2782
702.095	1613
702.214	3679
702.333	2745
702.452	2160
702.571	2516
702.690	2016
702.809	1560
702.928	2613
703.047	2770
703.165	2966
703.284	2145
703.403	3087
703.522	1950
703.640	2899
703.759	2833
703.878	2096
703.997	1890
704.115	1791
704.234	2375
704.353	2022
704.471	2742
704.590	1835
704.708	2246
704.827	1798
704.946	2372
705.064	2395
705.183	2174
705.301	1905
705.420	1841
705.538	2581
705.656	2273
705.775	3468
705.893	7263
706.012	9135
706.130	2979
706.249	2674
706.367	1901
706.485	2624
706.604	2566
706.722	2742
706.840	2032
706.958	3510
707.077	2176
707.195	2516
707.313	2145
707.431	2470
707.549	1432
707.668	2051
707.786	3499
707.904	1915
708.022	1821
708.140	2051
708.258	1569
708.376	2965
708.494	1169
708.612	2168
708.730	2702
708.848	2999
708.966	2871
709.084	2019
709.202	2353
709.320	2605
709.438	2045
709.556	2074
709.674	1945
709.791	3020
709.909	1772
710.027	2486
710.145	2955
710.263	2740
710.380	2544
710.498	2517
710.616	3053
710.733	2162
710.851	2057
710.969	2188
711.086	2053
711.204	2947
711.322	2106
711.439	1778
711.557	2466
711.674	2695
711.792	2021
711.909	2686
712.027	2529
712.144	2349
712.262	2731
712.379	2697
712.497	2935
712.614	2691
712.732	2588
712.849	3200
712.966	2355
713.084	3724
713.201	2404
713.318	2760
713.436	2713
713.553	2931
713.670	2502
713.787	3450
713.905	2013
714.022	1883
714.139	2192
714.256	2553
714.373	1914
714.490	2478
714.608	3221
714.725	6970
714.842	5904
714.959	2332
715.076	1619
715.193	2520
715.310	2020
715.427	2429
715.544	2121
715.661	2660
715.778	2771
715.895	2441
716.011	1646
716.128	2367
716.245	1645
716.362	3001
716.479	3851
716.596	3303
716.713	2091
716.829	3106
716.946	2312
717.063	2712
717.180	2017
717.296	2490
717.413	1977
717.530	2659
717.646	1672
717.763	2198
717.880	1239
717.996	1494
718.113	2118
718.229	1724
718.346	1507
718.462	1662
718.579	2041
718.695	5120
718.812	3163
718.928	2909
719.045	1967
719.161	1466
719.277	1745
719.394	2645
719.510	2726
719.626	2447
719.743	2540
719.859	2456
719.975	2152
720.092	2418
720.208	3437
720.324	1949
720.440	1505
720.557	2214
720.673	3937
720.789	4017
720.905	5898
721.021	2558
721.137	2058
721.253	2391
721.369	1788
721.486	1576
721.602	2022
721.718	1717
721.834	1283
721.950	1854
722.066	909
722.181	1126
722.297	1790
722.413	2736
722.529	1132
722.645	2806
722.761	1030
722.877	1951
722.993	1540
723.108	1473
723.224	1081
723.340	1340
723.456	1485
723.571	1237
723.687	1218
723.803	1705
723.918	815
724.034	2120
724.150	820
724.265	1889
724.381	2728
724.497	3264
724.612	907
724.728	1707
724.843	235
724.959	1229
725.074	1673
725.190	2842
725.305	1707
725.421	1113
725.536	801
725.651	1297
725.767	1643
725.882	2282
725.997	813
726.113	1686
726.228	1369
726.343	2014
726.459	1201
726.574	1112
726.689	496
726.804	1326
726.920	959
727.035	844
727.150	1535
727.265	1447
727.380	1368
727.495	1890
727.610	1107
727.725	2117
727.841	1389
727.956	5342
728.071	3718
728.186	882
728.301	715
728.416	2059
728.531	2003
728.645	681
728.760	1198
728.875	2173
728.990	2072
729.105	1571
729.220	1827
729.335	1065
729.449	1354
729.564	1538
729.679	1196
729.794	1136
729.908	1131
730.023	1767
730.138	1349
730.253	1461
730.367	1834
730.482	1415
730.596	672
730.711	1187
730.826	1814
730.940	917
731.055	870
731.169	738
731.284	228
731.398	544
731.513	950
731.627	553
731.742	711
731.856	1193
731.970	1150
732.085	261
732.199	1148
732.313	738
732.428	1526
732.542	1945
732.656	1464
732.771	1640
732.885	310
732.999	1022
733.113	640
733.227	781
733.342	156
733.456	1189
733.570	358
733.684	1410
733.798	1018
733.912	824
734.026	441
734.140	751
734.254	1044
734.368	1899
734.482	1950
734.596	602
734.710	1232
734.824	1476
734.938	1094
735.052	595
735.166	949
735.280	784
735.393	736
735.507	106
735.621	1641
735.735	1447
735.849	181
735.962	1313
736.076	700
736.190	826
736.303	1066
736.417	1868
736.531	610
736.644	1543
736.758	501
736.872	62
736.985	-140
737.099	528
737.212	224
737.326	722
737.439	127
737.553	857
737.666	886
737.780	-46
737.893	802
738.007	831
738.120	550
738.233	1569
738.347	808
738.460	340
738.573	238
738.687	1247
738.800	954
738.913	1534
739.026	857
739.140	353
739.253	466
739.366	1142
739.479	884
739.592	-181
739.705	485
739.818	492
739.932	1020
740.045	645
740.158	251
740.271	431
740.384	322
740.497	869
740.610	1265
740.723	1405
740.836	1254
740.949	2064
741.062	1292
741.174	1813
741.287	1211
741.400	1164
741.513	637
741.626	1815
741.739	905
741.851	511
741.964	734
742.077	1571
742.189	1068
742.302	2806
742.415	2386
742.527	796
742.640	262
742.753	921
742.865	124
742.978	262
743.090	1153
743.203	969
743.316	1174
743.428	1203
743.541	596
743.653	445
743.766	1084
743.878	758
743.990	755
744.103	1194
744.215	2278
744.327	618
744.440	1514
744.552	1348
744.664	980
744.777	980
744.889	694
745.001	652
745.113	353
745.226	359
745.338	499
745.450	788
745.562	473
745.674	501
745.786	611
745.898	1090
746.010	62
746.122	155
746.234	222
746.347	1010
746.459	653
746.570	1658
746.682	1093
746.794	2701
746.906	1651
747.018	246
747.130	623
747.242	790
747.354	601
747.466	840
747.577	656
747.689	1223
747.801	556
747.913	609
748.024	-529
748.136	276
748.248	1030
748.359	219
748.471	458
748.583	1112
748.694	491
748.806	1096
748.918	1089
749.029	826
749.141	72
749.252	762
749.364	484
749.475	1691
749.587	1005
749.698	1261
749.809	88
749.921	917
750.032	487
750.144	284
750.255	515
750.366	249
750.478	149
750.589	-226
750.700	142
750.811	762
750.923	701
751.034	3102
751.145	2273
751.256	222
751.367	726
751.479	941
751.590	7
751.701	409
751.812	359
751.923	725
752.034	1204
752.145	111
752.256	388
752.367	854
752.478	41
752.589	1044
752.700	-329
752.811	-98
752.922	-760
753.032	477
753.143	500
753.254	151
753.365	-148
753.476	-352
753.586	1002
753.697	359
753.808	417
753.919	832
754.029	-482
754.140	1227
754.251	303
754.361	672
754.472	36
754.582	34
754.693	752
754.804	1262
754.914	55
755.025	118
755.135	-354
755.246	145
755.356	-77
755.466	1784
755.577	835
755.687	869
755.798	314
755.908	90
756.018	254
756.129	95
756.239	192
756.349	774
756.460	786
756.570	966
756.680	132
756.790	576
756.900	516
757.011	1209
757.121	935
757.231	560
757.341	656
757.451	-244
757.561	331
757.671	704
757.781	-94
757.891	1764
758.001	195
758.111	1004
758.221	515
758.331	727
758.441	480
758.551	1043
758.661	627
758.771	720
758.880	550
758.990	992
759.100	767
759.210	738
759.320	1499
759.429	495
759.539	220
759.649	1208
759.758	890
759.868	1227
759.978	776
760.087	1410
760.197	809
760.307	1445
760.416	234
760.526	578
760.635	1018
760.745	1404
760.854	343
760.964	632
761.073	1535
761.182	810
761.292	768
761.401	1081
761.511	396
761.620	888
761.729	1378
761.839	1324
761.948	1627
762.057	2123
762.166	1166
762.276	495
762.385	2259
762.494	1360
762.603	709
762.712	1929
762.822	1071
762.931	2557
763.040	1330
763.149	1258
763.258	2014
763.367	1688
763.476	1748
763.585	1821
763.694	3007
763.803	3066
763.912	1913
764.021	2944
764.130	2948
764.238	3322
764.347	3158
764.456	2885
764.565	3643
764.674	4542
764.783	4717
764.891	5802
765.000	6129
765.109	7562
765.217	7492
765.326	10414
765.435	12670
765.543	14953
765.652	19056
765.761	25438
765.869	37611
765.978	57879
766.086	96790
766.195	176648
766.303	352477
766.412	572059
766.520	489203
766.629	241777
766.737	114937
766.846	67623
766.954	44536
767.062	34244
767.171	23995
767.279	19135
767.387	14894
767.496	13617
767.604	10437
767.712	10045
767.820	8553
767.928	7781
768.037	6613
768.145	6218
768.253	7085
768.361	5931
768.469	6115
768.577	6345
768.685	7055
768.793	7609
768.901	7928
769.009	9652
769.117	12069
769.225	15862
769.333	22888
769.441	38673
769.549	70125
769.657	152051
769.765	349371
769.873	480050
769.981	245263
770.088	90251
770.196	45241
770.304	28798
770.412	20471
770.519	15965
770.627	11617
770.735	9444
770.842	7566
770.950	7206
771.058	5777
771.165	6156
771.273	4376
771.380	4711
771.488	3849
771.595	2414
771.703	2325
771.810	2940
771.918	2130
772.025	3119
772.133	1419
772.240	1433
772.348	2611
772.455	2112
772.562	1200
772.670	2107
772.777	1949
772.884	1474
772.991	846
773.099	1813
773.206	680
773.313	1589
773.420	1210
773.528	918
773.635	405
773.742	1808
773.849	864
773.956	1100
774.063	719
774.170	581
774.277	1525
774.384	1400
774.491	40
774.598	895
774.705	5
774.812	1165
774.919	352
775.026	512
775.133	660
775.239	1214
775.346	348
775.453	958
775.560	-89
775.667	531
775.773	-426
775.880	1818
775.987	-263
776.093	960
776.200	141
776.307	777
776.413	368
776.520	-89
776.627	-88
776.733	105
776.840	-570
776.946	1694
777.053	1020
777.159	5639
777.266	1540
777.372	5429
777.478	3438
777.585	2328
777.691	1135
777.798	70
777.904	1004
778.010	1045
778.117	75
778.223	1039
778.329	25
778.435	70
778.542	338
778.648	10
778.754	-911
778.860	-202
778.966	-38
779.072	99
779.178	286
779.284	-122
779.391	-240
779.497	-433
779.603	1705
779.708	921
779.815	6706
779.920	26400
780.026	38837
780.132	3904
780.238	73
780.344	270
780.450	778
780.556	561
780.661	-389
780.767	885
780.873	112
780.979	441
781.085	-324
781.190	244
781.296	-769
781.402	-434
781.507	-1275
781.613	574
781.719	-696
781.824	97
781.930	524
782.035	1
782.141	-478
782.246	625
782.352	-293
782.457	-36
782.563	-1006
782.668	-509
782.773	-407
782.879	-570
782.984	-234
783.090	735
783.195	858
783.300	452
783.405	30
783.511	26
783.616	-143
783.721	-580
783.826	28
783.932	655
784.037	-417
784.142	112
784.247	-965
784.352	-261
784.457	-164
784.562	285
784.667	-1107
784.772	-222
784.877	-238
784.982	1090
785.087	-218
785.192	202
785.297	-512
785.402	402
785.507	113
785.611	-132
785.716	142
785.821	56
785.926	-736
786.031	868
786.135	-163
786.240	-12
786.345	-1270
786.450	22
786.554	-979
786.659	-270
786.763	-1337
786.868	312
786.973	403
787.077	-296
787.182	-518
787.286	713
787.391	227
787.495	-844
787.600	-975
787.704	-552
787.809	-862
787.913	-762
788.017	17
788.122	-83
788.226	-903
788.330	-318
788.435	-632
788.539	-760
788.643	113
788.747	-319
788.852	-954
788.956	-998
789.060	-220
789.164	-581
789.268	-1230
789.372	345
789.476	-601
789.580	-1462
789.684	-998
789.788	210
789.892	-703
789.996	149
790.100	-775
790.204	39
790.308	-42
790.412	-309
790.516	-118
790.620	-531
790.724	70
790.828	243
790.931	-980
791.035	965
791.139	-297
791.242	-1247
791.346	534
791.450	-587
791.554	-1001
791.657	-607
791.761	535
791.864	-556
791.968	-636
792.072	-845
792.175	-476
792.279	407
792.382	-152
792.486	358
792.589	-1754
792.693	-444
792.796	-1306
792.899	233
793.003	-30
793.106	-1107
793.209	524
793.313	481
793.416	-1807
793.519	463
793.623	436
793.726	578
793.829	-917
793.932	-167
794.035	-1519
794.138	-145
794.242	450
794.345	636
794.448	1277
794.551	2383
794.654	13072
794.757	20102
794.860	2124
794.963	-90
795.066	-1003
795.169	449
795.272	-1715
795.375	-349
795.477	-1360
795.580	-261
795.683	-1781
795.786	291
795.889	-2100
795.991	-293
796.094	-223
796.197	-589
796.300	624
796.402	-370
796.505	-930
796.608	-499
796.710	-571
796.813	-1353
796.915	-1509
797.018	187
797.120	332
797.223	-1084
797.326	-326
797.428	-851
797.530	-1774
797.633	-640
797.735	-550
797.838	-958
797.940	-483
798.042	-1393
798.145	-804
798.247	126
798.349	-1305
798.452	-349
798.554	-620
798.656	-1377
798.758	358
798.860	-71
798.962	-1470
799.065	-1397
799.167	-1091
799.269	832
799.371	-76
799.473	225
799.575	-1398
799.677	-1073
799.779	751
799.881	-1094
799.983	748
800.085	-420
800.187	-448
800.289	-633
800.390	-117
800.492	-347
800.594	-5
800.696	-1041
800.798	-429
800.899	-1230
801.001	-1102
801.103	-1267
801.205	-1366
801.306	-205
801.408	-1947
801.509	-188
801.611	-968
801.713	88
801.814	-1437
801.916	-173
802.017	-879
802.119	-1220
802.220	70
802.322	-1775
802.423	1233
802.525	-1929
802.626	-1020
802.727	-55
802.829	-1127
802.930	-1736
803.031	151
803.133	-1021
803.234	-1086
803.335	-368
803.436	-1823
803.538	-207
803.639	-2055
803.740	-732
803.841	-2050
803.942	-63
804.043	-674
804.144	-831
804.245	-740
804.346	-1995
804.447	-630
804.548	-690
804.649	358
804.750	-679
804.851	-1460
804.952	-600
805.053	-629
805.154	-1688
805.255	-157
805.355	-472
805.456	-1615
805.557	-1005
805.658	-2233
805.758	205
805.859	-1146
805.960	-1121
806.061	-1606
806.161	-468
806.262	-715
806.362	-903
806.463	-1174
806.564	-295
806.664	-1084
806.765	-758
806.865	-1170
806.966	-329
807.066	-1449
807.166	-508
807.267	-525
807.367	-1020
807.468	-132
807.568	-1345
807.668	-252
807.769	412
807.869	-1550
807.969	-1180
808.069	-792
808.170	-84
808.270	-868
808.370	-468
808.470	-887
808.570	-1823
808.670	-713
808.770	-1084
808.870	-1218
808.970	-252
809.070	36
809.170	-939
809.271	-414
809.370	-528
809.470	-999
809.570	-1377
809.670	-1507
809.770	-456
809.870	-721
809.970	-212
810.070	-736
810.169	-750
810.269	-3051
810.369	786
810.469	-1709
810.568	-1110
810.668	-994
810.768	-625
810.867	-374
810.967	-347
811.066	-1070
811.166	-1015
811.265	119
811.365	-1673
811.464	-1137
811.564	-206
811.663	-1087
811.763	-2085
811.862	-1044
811.962	151
812.061	-773
812.160	-1195
812.260	-299
812.359	-69
812.458	-1512
812.557	866
812.657	332
812.756	-29
812.855	-1461
812.954	-418
813.053	-53
813.153	-829
813.252	-1874
813.351	213
813.450	-485
813.549	-787
813.648	-637
813.747	-939
813.846	-631
813.945	-1656
814.044	-1101
814.143	-190
814.242	-471
814.341	-637
814.439	-655
814.538	-608
814.637	-1040
814.736	-1061
814.835	-850
814.933	-1037
815.032	-1380
815.131	-1498
815.229	-1229
815.328	-802
815.427	-1091
815.525	-1130
815.624	-1067
815.722	-1375
815.821	-869
815.919	-738
816.018	-1659
816.116	-861
816.215	-1147
816.313	-467
816.412	-1014
816.510	-988
816.609	78
816.707	-553
816.805	-724
816.904	-1350
817.002	-695
817.100	89
817.198	-1236
817.296	-828
817.395	-769
817.493	162
817.591	-772
817.689	1171
817.787	448
817.885	2060
817.983	5678
818.081	15075
818.179	38189
818.277	94546
818.375	62708
818.473	11448
818.571	4298
818.669	3025
818.767	2762
818.865	3069
818.963	3037
819.061	5962
819.158	12291
819.256	32177
819.354	78427
819.452	163003
819.549	77057
819.647	16594
819.745	5845
819.842	3778
819.940	1843
820.038	906
820.135	998
820.233	1315
820.330	-560
820.428	-800
820.525	12
820.623	-871
820.720	-1383
820.818	-39
820.915	293
821.012	405
821.110	-1579
821.207	844
821.304	-1481
821.402	-842
821.499	218
821.596	1556
821.693	-273
821.791	-533
821.888	-493
821.985	1091
822.082	214
822.179	-247
822.276	609
822.373	-384
822.470	-863
822.567	-290
822.664	-1932
822.761	455
822.858	-708
822.955	-217
823.052	151
823.149	-1026
823.246	-709
823.343	-465
823.440	-579
823.536	-1205
823.633	-1123
823.730	-893
823.827	-988
823.923	-1803
824.020	-186
824.117	-1282
824.213	-768
824.310	-10
824.407	-567
824.503	-996
824.600	-937
824.696	-413
824.793	-775
824.889	-816
824.986	-1345
825.082	-221
825.179	-489
825.275	-832
825.371	-1201
825.468	192
825.564	-1556
825.660	-500
825.757	-861
825.853	-932
825.949	-1862
826.045	-560
826.142	-2126
826.238	-818
826.334	-698
826.430	-1766
826.526	-482
826.622	-432
826.718	-1708
826.814	-1620
826.910	-584
827.006	-711
827.102	-1967
827.198	-708
827.294	-2076
827.390	-1367
827.486	453
827.582	-1751
827.678	-2279
827.774	-501
827.869	-996
827.965	-204
828.061	-1865
828.157	-1149
828.252	-1195
828.348	-1704
828.444	-441
828.539	-1810
828.635	-937
828.731	-80
828.826	-2473
828.922	-194
829.017	-737
829.113	-353
829.208	-1524
829.304	-1372
829.399	-112
829.495	-1212
829.590	-814
829.685	-743
829.781	-1207
829.876	-1270
829.971	-1154
830.066	-951
830.162	-1017
830.257	-1047
830.352	-1164
830.447	85
830.543	-1537
830.638	-1995
830.733	-722
830.828	-915
830.923	-456
831.018	-907
831.113	-1458
831.208	-1992
831.303	-1159
831.398	-743
831.493	-1516
831.588	-574
831.683	-1333
831.778	-1101
831.873	-1546
831.967	66
832.062	-2008
832.157	-1356
832.252	-786
832.346	-1159
832.441	-876
832.536	-386
832.631	-617
832.725	-309
832.820	-1502
832.914	-1944
833.009	-1186
833.104	-823
833.198	-1068
833.293	-754
833.387	-915
833.482	-805
833.576	-1823
833.670	-401
833.765	-1409
833.859	-1565
833.954	-785
834.048	-535
834.142	-1038
834.237	-1668
834.331	-1113
834.425	-245
834.519	-2367
834.613	-366
834.708	-1945
834.802	-241
834.896	-1035
834.990	-1691
835.084	-1028
835.178	-1807
835.272	-1219
835.366	-1384
835.460	-1941
835.554	-671
835.648	-1114
835.742	-1114
835.836	-1057
835.930	-1670
836.024	-1135
836.117	-830
836.211	-1218
836.305	-957
836.399	-919
836.493	-1795
836.586	-794
836.680	-1867
836.774	-1851
836.867	538
836.961	-2036
837.055	-1686
837.148	-1044
837.242	-1436
837.335	-1911
837.429	-934
837.522	-1475
837.616	-912
837.709	-685
837.803	-1391
837.896	-1249
837.989	-1152
838.083	-1040
838.176	-1415
838.269	-1305
838.363	-536
838.456	-1912
838.549	-733
838.642	-1292
838.735	822
838.829	-207
838.922	-1396
839.015	-1760
839.108	-1977
839.201	-1019
839.294	-542
839.387	-2046
839.480	-1180
839.573	-906
839.666	-1419
839.759	-1254
839.852	-1552
839.945	-1412
840.038	-671
840.131	-1406
840.223	-1322
840.316	-990
840.409	-1154
840.502	-2122
840.594	-660
840.687	-1687
840.780	-926
840.873	-2173
840.965	-572
841.058	-907
841.150	-1108
841.243	-1986
841.336	-784
841.428	-990
841.521	-491
841.613	-1485
841.706	-735
841.798	-1329
841.890	-1068
841.983	-1722
842.075	-717
842.167	-1833
842.260	-620
842.352	-792
842.444	-1344
842.537	-821
842.629	-470
842.721	-1438
842.813	-1294
842.905	-2736
842.997	-933
843.090	-1504
843.182	-451
843.274	-1221
843.366	815
843.458	327
843.550	435
843.642	-1514
843.734	-1883
843.826	-2211
843.918	-1413
844.009	-1300
844.101	-1124
844.193	-1712
844.285	-1096
844.377	-1034
844.469	-361
844.560	480
844.652	460
844.744	-649
844.835	-433
844.927	-1969
845.019	-1497
845.110	-1551
845.202	-1563
845.293	-1543
845.385	-1775
845.476	-1259
845.568	82
845.659	-1006
845.751	-2144
845.842	-2235
845.934	-1569
846.025	-2358
846.116	-1931
846.208	-1438
846.299	-1020
846.390	-921
846.482	-1111
846.573	-1687
846.664	-1430
846.755	-1549
846.846	-365
846.937	-2402
847.029	-1790
847.120	-1983
847.211	-1012
847.302	-1335
847.393	-1526
847.484	5
847.575	-1431
847.666	-1278
847.757	-1451
847.847	-1890
847.938	-527
848.029	-1879
848.120	-1604
848.211	-2226
848.302	-1104
848.392	-1505
848.483	-419
848.574	-1562
848.664	-1281
848.755	-1969
848.846	-926
848.936	-1783
849.027	-1655
849.118	-1971
849.208	-906
849.299	-1330
849.389	-863
849.480	-1298
849.570	-842
849.661	-1409
849.751	-396
849.841	-1986
849.932	-1317
850.022	-1281
850.112	-1234
850.203	-2172
850.293	-577
850.383	-1650
850.474	-1843
850.564	-2125
850.654	-384
850.744	-1385
850.834	-1124
850.924	-1241
851.014	-796
851.104	-1440
851.194	-1661
851.284	-1296
851.374	-332
851.464	-1417
851.554	-1240
851.644	-1975
851.734	-216
851.824	-1607
851.914	-542
852.004	-146
852.094	-618
852.183	-1142
852.273	-598
852.363	-1789
852.452	-1625
852.542	-1003
852.632	-708
852.721	-845
852.811	-749
852.901	-1272
852.990	-1317
853.080	-1609
853.169	-1350
853.259	-1465
853.348	-1702
853.438	-1625
853.527	-912
853.617	-876
853.706	-323
853.795	-1502
853.885	-957
853.974	-647
854.063	1797
854.152	2141
854.242	478
854.331	-498
854.420	-1781
854.509	-1490
854.598	-1185
854.687	-1967
854.777	-1084
854.866	-1801
854.955	-556
855.044	-1255
855.133	-2080
855.222	-1265
855.311	-1755
855.400	-646
855.488	-1311
855.577	-1131
855.666	-1282
855.755	-1029
855.844	-413
855.933	-1549
856.021	-1797
856.110	-1921
856.199	-2143
856.288	-1484
856.376	-1386
856.465	-1997
856.554	-1533
856.642	-1909
856.731	-714
856.819	-1381
856.908	-1123
856.996	-1872
857.085	-1341
857.173	-1960
857.262	-952
857.350	-1935
857.438	-1426
857.527	-1645
857.615	-1818
857.703	-503
857.792	-1468
857.880	-1986
857.968	-1432
858.056	-1903
858.145	-1182
858.233	-2054
858.321	-1229
858.409	-997
858.497	-1583
858.585	-1718
858.673	-533
858.761	-1589
858.849	-1030
858.937	-2039
859.025	-1624
859.113	-744
859.201	-2224
859.289	-501
859.377	-1152
859.465	-804
859.552	-779
859.640	-1786
859.728	-1459
859.816	-1337
859.903	-891
859.991	-1464
860.079	-1182
860.166	-1409
860.254	-1628
860.342	-1310
860.429	-1279
860.517	-1278
860.604	-868
860.692	-1665
860.779	-1570
860.867	-1683
860.954	-1085
861.042	-419
861.129	-721
861.216	-1248
861.304	-1740
861.391	-1415
861.478	-1120
861.565	-1933
861.653	-287
861.740	-1541
861.827	-1661
861.914	-1056
862.001	-851
862.089	-2009
862.176	-1134
862.263	-1771
862.350	-1294
862.437	-1541
862.524	-1334
862.611	-1369
862.698	-896
862.785	-1156
862.871	-136
862.958	-1526
863.045	-1286
863.132	-1576
863.219	-1049
863.306	-2239
863.392	-422
863.479	-1384
863.566	-1694
863.652	-1132
863.739	-1574
863.826	-236
863.912	-1648
863.999	-1989
864.086	-1492
864.172	-1493
864.259	-1251
864.345	-2458
864.432	-1451
864.518	-1290
864.604	-459
864.691	-845
864.777	-227
864.863	-755
864.950	-932
865.036	-1771
865.122	-1723
865.209	-1098
865.295	-1162
865.381	-1848
865.467	-1861
865.553	-1549
865.639	-1178
865.726	-2261
865.812	-732
865.898	-838
865.984	-524
866.070	644
866.156	1344
866.242	-1683
866.328	-662
866.414	-1754
866.499	-721
866.585	-1869
866.671	-1925
866.757	-1381
866.843	3
866.928	-1989
867.014	-1196
867.100	-1615
867.186	-2159
867.271	-1654
867.357	-899
867.442	-1442
867.528	-1498
867.614	-1693
867.699	-665
867.785	-1103
867.870	-113
867.956	771
868.041	340
868.127	-422
868.212	-518
868.297	-649
868.383	-630
868.468	-916
868.553	-619
868.639	-799
868.724	506
868.809	329
868.894	-1129
868.979	-1911
869.065	-1666
869.150	-2371
869.235	-1226
869.320	-2024
869.405	-2028
869.490	-1585
869.575	-1519
869.660	-1140
869.745	-856
869.830	-2323
869.915	-1817
870.000	-1800
870.085	-1499
870.169	-106
870.254	-578
870.339	-1513
870.424	-1568
870.509	-1720
870.593	-1124
870.678	-1115
870.763	-1978
870.847	-1390
870.932	-1983
871.016	-1869
871.101	-1171
871.186	-1311
871.270	-1149
871.355	-2320
871.439	-1747
871.523	-1907
871.608	-1861
871.692	-1513
871.777	-717
871.861	-1009
871.945	-1786
872.030	-1828
872.114	-1858
872.198	-2299
872.282	-1330
872.367	-1927
872.451	-1451
872.535	-1274
872.619	-740
872.703	-1805
872.787	-1012
872.871	-1366
872.955	-631
873.039	-2029
873.123	-1094
873.207	-596
873.291	-1302
873.375	-1759
873.459	-933
873.543	-1979
873.627	-1492
873.711	-1927
873.794	-613
873.878	-2612
873.962	-1377
874.045	-1072
874.129	-1448
874.137	-1498
874.213	-1997
874.245	-1847
874.296	-1603
874.352	-1838
874.380	-1957
874.460	-1882
874.464	-1880
874.547	-1485
874.568	-1350
874.631	-972
874.676	-1574
874.714	-2060
874.784	-1012
874.798	-809
874.881	-48
874.892	-145
874.965	-792
874.999	-868
875.048	-1010
875.107	-1179
875.131	-1236
875.215	-714
875.215	-715
875.298	-2047
875.323	-2105
875.381	-2218
875.430	-1412
875.465	-823
875.538	-1749
875.548	-1891
875.631	-1481
875.646	-1508
875.714	-1584
875.753	-1324
875.798	-1044
875.861	-1370
875.881	-1476
875.964	-1123
875.968	-1159
876.047	-1663
876.076	-1507
876.130	-1256
876.183	-689
876.213	-404
876.291	-767
876.296	-787
876.379	-936
876.398	-863
876.462	-617
876.506	-1018
876.545	-1390
876.613	-1230
876.628	-1198
876.711	-1524
876.721	-1411
876.794	-441
876.828	-811
876.877	-1404
876.935	-986
876.960	-771
877.043	-634
877.043	-632
877.125	-137
877.150	-250
877.208	-485
877.258	-350
877.291	-206
877.365	-490
877.374	-552
877.456	-717
877.472	-808
877.539	-971
877.579	-694
877.622	-468
877.687	-772
877.704	-858
877.787	-869
877.794	-893
877.869	-994
877.901	-984
877.952	-1111
878.008	-1188
878.034	-1137
878.115	-382
878.117	-367
878.199	-1005
878.222	-929
878.282	-995
878.329	-1035
878.364	-787
878.437	218
878.447	290
878.529	-1364
878.544	-1360
878.611	-909
878.651	-1021
878.694	-1231
878.758	-670
878.776	-583
878.858	-809
878.865	-847
878.941	-863
878.972	-637
879.023	-395
879.078	-716
879.105	-842
879.185	-498
879.187	-489
879.269	-588
879.292	-643
879.351	-848
879.399	-1056
879.433	-1183
879.506	-997
879.516	-960
879.598	-952
879.613	-884
879.680	-580
879.720	-345
879.762	-113
879.827	-1236
879.844	-1575
879.926	-1103
879.933	-1095
880.007	-562
880.040	-467
880.089	-313
880.147	21
880.171	-17
880.253	-837
880.254	-839
880.335	-295
880.360	-121
880.417	562
880.467	695
880.499	753
880.574	1474
880.580	1440
880.662	212
880.680	-136
880.744	-629
880.787	-784
880.825	-963
880.893	-531
880.907	-458
880.989	-594
881.000	-616
881.070	-453
881.106	-480
881.152	-561
881.213	-503
881.233	-515
881.315	-349
881.319	-358
881.396	-133
881.426	-249
881.478	-730
881.532	-550
881.559	-436
881.639	-667
881.641	-660
881.722	-29
881.745	-74
881.803	-350
881.852	-412
881.885	-400
881.958	-356
881.966	-350
882.047	269
882.064	182
882.129	-174
882.171	63
882.210	412
882.277	296
882.291	212
882.372	-83
882.383	-83
882.454	-116
882.489	-297
882.535	-365
882.596	-506
882.616	-536
882.697	-173
882.702	-151
882.778	233
882.808	253
882.859	26
882.914	-544
882.940	-630
883.020	-286
883.021	-281
883.102	-446
883.127	-459
883.183	-273
883.233	60
883.264	169
883.339	-107
883.345	-113
883.426	-164
883.445	-25
883.507	473
883.551	272
883.587	-217
883.657	-425
883.668	-325
883.749	-320
883.763	-230
883.830	-197
883.869	-363
883.910	-219
883.975	361
883.991	398
884.072	152
884.081	100
884.152	-378
884.187	-489
884.233	-444
884.292	-363
884.314	-306
884.394	-290
884.398	-283
884.475	-16
884.504	-58
884.555	-258
884.610	-24
884.636	213
884.716	346
884.716	350
884.797	32
884.821	-88
884.877	19
884.927	214
884.958	281
885.033	164
885.038	162
885.118	363
885.139	283
885.199	-174
885.244	-271
885.279	22
885.350	356
885.359	342
885.439	450
885.456	343
885.520	-180
885.561	-54
885.600	302
885.667	372
885.680	403
885.760	603
885.773	658
885.840	494
885.878	402
885.920	603
885.984	581
886.000	471
886.080	278
886.089	226
886.160	261
886.195	302
886.240	373
886.300	424
886.320	431
886.400	525
886.406	527
886.480	634
886.511	675
886.560	665
886.616	502
886.640	581
886.720	917
886.722	913
886.800	696
886.827	702
886.879	792
886.932	725
886.959	749
887.038	1153
887.039	1156
887.119	406
887.143	270
887.198	372
887.248	336
887.278	303
887.354	158
887.358	155
887.437	27
887.459	-0
887.517	432
887.564	745
887.596	756
887.669	750
887.676	779
887.755	1056
887.774	1112
887.835	929
887.880	756
887.914	703
887.985	675
887.994	763
888.073	1257
888.090	1399
888.153	970
888.195	591
888.232	715
888.300	1029
888.311	1047
888.391	1076
888.405	1063
888.470	942
888.510	830
888.549	849
888.615	1022
888.628	969
888.708	434
888.720	364
888.787	714
888.825	844
888.866	660
888.930	455
888.945	568
889.024	1066
889.035	1133
889.103	1014
889.140	911
889.182	827
889.245	726
889.261	644
889.340	198
889.349	141
889.419	696
889.454	983
889.498	513
889.559	-167
889.577	-21
889.656	610
889.664	670
889.735	939
889.768	1058
889.814	1154
889.873	1276
889.978	467
890.083	1308
890.187	872
890.292	1035
890.397	1156
890.501	959
890.606	1075
890.710	1187
890.815	1524
890.919	1370
891.024	1467
891.128	754
891.233	944
891.337	547
891.442	645
891.546	904
891.650	921
891.755	658
891.859	2144
891.963	705
892.068	1254
892.172	840
892.276	749
892.380	856
892.484	383
892.589	760
892.693	859
892.797	737
892.901	853
893.005	1291
893.109	330
893.213	1307
893.317	369
893.421	816
893.525	817
893.629	646
893.733	744
893.837	336
893.941	501
894.045	1385
894.148	1183
894.252	2212
894.356	1225
894.460	748
894.564	235
894.667	836
894.771	652
894.875	461
894.978	-102
895.082	780
895.186	216
895.289	844
895.393	594
895.496	16
895.600	713
895.703	596
895.807	247
895.910	473
896.014	219
896.117	23
896.221	1220
896.324	719
896.427	1036
896.531	139
896.634	275
896.737	627
896.840	312
896.944	-167
897.047	-25
897.150	712
897.253	881
897.356	460
897.460	748
897.563	-170
897.666	327
897.769	986
897.872	1050
897.975	624
898.078	238
898.181	528
898.284	140
898.387	1172
898.490	1020
898.593	964
898.695	222
898.798	169
898.901	929
899.004	849
899.107	486
899.209	642
899.312	-447
899.415	172
899.518	789
899.620	313
899.723	423
899.826	791
899.928	1136
900.031	708
900.133	279
900.236	5
900.338	117
900.441	88
900.543	-27
900.646	432
900.748	-15
900.851	1342
900.953	545
901.055	-393
901.158	266
901.260	757
901.362	24
901.465	-517
901.567	157
901.669	306
901.771	-130
901.873	576
901.976	1136
902.078	774
902.180	64
902.282	-357
902.384	-19
902.486	851
902.588	406
902.690	995
902.792	509
902.894	555
902.996	26
903.098	-135
903.200	104
903.302	-82
903.404	699
903.505	500
903.607	566
903.709	449
903.811	-631
903.913	-342
904.014	354
904.116	399
904.218	-61
904.319	288
904.421	-71
904.523	157
904.624	162
904.726	201
904.827	252
904.929	350
905.030	-737
905.132	11
905.233	-132
905.335	44
905.436	348
905.537	288
905.639	283
905.740	434
905.841	-429
905.943	1180
906.044	-644
906.145	436
906.247	204
906.348	-80
906.449	248
906.550	784
906.651	197
906.752	118
906.854	-921
906.955	-156
907.056	-66
907.157	672
907.258	-273
907.359	-749
907.460	-129
907.561	329
907.662	44
907.762	568
907.863	-1172
907.964	664
908.065	-26
908.166	109
908.267	661
908.367	39
908.468	191
908.569	58
908.670	-15
908.770	354
908.871	628
908.971	970
909.072	434
909.173	83
909.273	137
909.374	75
909.474	-562
909.575	-207
909.675	-772
909.776	800
909.876	-198
909.977	-387
910.077	508
910.177	234
910.278	-403
910.378	173
910.478	-44
910.579	1057
910.679	-153
910.779	67
910.879	-37
910.980	123
911.080	-421
911.180	305
911.280	73
911.380	535
911.480	-20
911.580	-755
911.680	962
911.780	-128
911.880	50
911.980	438
912.080	-104
912.180	-441
912.280	593
912.380	572
912.480	-821
912.580	-217
912.679	-549
912.779	1152
912.879	-513
912.979	-89
913.078	-279
913.178	108
913.278	-169
913.377	-236
913.477	459
913.577	234
913.676	84
913.776	-486
913.875	-150
913.975	-150
914.074	150
914.174	538
914.273	-283
914.373	237
914.472	174
914.572	-156
914.671	-517
914.770	262
914.870	274
914.969	-185
915.068	-531
915.167	40
915.267	-1004
915.366	-295
915.465	-51
915.564	-193
915.663	-20
915.763	229
915.862	25
915.961	381
916.060	-1193
916.159	-624
916.258	-1007
916.357	-710
916.456	-100
916.555	-31
916.654	-551
916.752	-201
916.851	461
916.950	-358
917.049	721
917.148	-62
917.247	-762
917.345	298
917.444	-146
917.543	546
917.642	178
917.740	-399
917.839	-802
917.937	346
918.036	229
918.135	677
918.233	-267
918.332	-293
918.430	205
918.529	7
918.627	21
918.726	-568
918.824	400
918.923	-391
919.021	-163
919.119	-603
919.218	-233
919.316	-25
919.414	185
919.512	-73
919.611	55
919.709	-220
919.807	-567
919.905	-169
920.003	403
920.102	-410
920.200	5
920.298	567
920.396	574
920.494	-646
920.592	63
920.690	388
920.788	-449
920.886	495
920.984	-370
921.082	-1178
921.180	-64
921.277	-345
921.375	-811
921.473	158
921.571	-981
921.669	60
921.766	-561
921.864	807
921.962	-519
922.060	396
922.157	-190
922.255	983
922.352	-195
922.450	-150
922.548	295
922.645	183
922.743	-373
922.840	512
922.938	106
923.035	284
923.133	-647
923.230	-431
923.327	-296
923.425	293
923.522	266
923.619	846
923.717	-403
923.814	-89
923.911	296
924.008	-332
924.106	144
924.203	-95
924.300	-696
924.397	-184
924.494	-564
924.591	66
924.688	-999
924.786	-410
924.883	-144
924.979	-213
925.077	448
925.173	209
925.270	-294
925.367	-253
925.464	125
925.561	-298
925.658	-230
925.755	-230
925.852	-89
925.948	571
926.045	79
926.142	361
926.239	-562
926.335	-335
926.432	71
926.529	-860
926.625	412
926.722	-640
926.818	-352
926.915	-228
927.011	-235
927.108	-760
927.204	-537
927.301	-667
927.397	-884
927.494	139
927.590	357
927.687	-354
927.783	-692
927.879	-73
927.976	-800
928.072	-237
928.168	-236
928.264	-258
928.361	-428
928.457	-42
928.553	49
928.649	656
928.745	-266
928.841	225
928.937	803
929.033	554
929.129	-380
929.225	-482
929.321	498
929.417	-1030
929.513	-207
929.609	-334
929.705	-297
929.801	156
929.897	-402
929.993	32
930.089	311
930.184	-19
930.280	80
930.376	60
930.471	-100
930.567	-72
930.663	-86
930.758	-188
930.854	-1037
930.950	402
931.045	-412
931.141	100
931.236	-416
931.332	145
931.427	-701
931.523	-252
931.618	-348
931.714	-430
931.809	-956
931.905	707
932.000	-505
932.095	49
932.191	-708
932.286	269
932.381	-785
932.476	-495
932.572	-1000
932.667	-654
932.762	-3
932.857	-750
932.952	-986
933.047	-16
933.142	-337
933.237	-541
933.332	-865
933.427	347
933.522	-124
933.617	-524
933.712	-448
933.807	-759
933.902	-1047
933.997	-725
934.092	-678
934.187	45
934.282	-594
934.376	-756
934.471	95
934.566	-15
934.661	-94
934.755	131
934.850	31
934.945	-572
935.039	-445
935.134	-307
935.228	-1224
935.323	-419
935.417	-862
935.512	-296
935.606	-94
935.701	371
935.795	-540
935.890	-397
935.984	-538
936.079	-601
936.173	-236
936.267	-526
936.362	-104
936.456	336
936.550	-209
936.644	-339
936.738	-435
936.833	336
936.927	403
937.021	580
937.115	-193
937.209	-702
937.303	-273
937.397	-882
937.491	66
937.585	-944
937.679	-454
937.773	459
937.867	-1229
937.961	-175
938.055	-244
938.149	39
938.243	-238
938.337	-46
938.430	-458
938.524	-76
938.618	-706
938.712	-167
938.805	-552
938.899	-235
938.993	253
939.086	-347
939.180	-632
939.274	165
939.367	-698
939.461	-1007
939.554	369
939.648	-125
939.741	-853
939.835	-435
939.928	-426
940.022	505
940.115	174
940.208	-388
940.302	128
940.395	-386
940.488	-1228
940.582	-280
940.675	-641
940.768	-227
940.861	-539
940.954	33
941.048	-747
941.141	-437
941.234	444
941.327	1134
941.420	1076
941.513	-147
941.606	-867
941.699	277
941.792	-459
941.885	-362
941.978	-332
942.071	-448
942.164	-706
942.257	-208
942.349	-1164
942.442	-830
942.535	-993
942.628	-286
942.721	-1444
942.813	-1201
942.906	-232
942.999	-378
943.091	-759
943.184	-202
943.277	-332
943.369	-249
943.462	130
943.554	99
943.647	-1864
943.739	-555
943.832	-17
943.924	-1375
944.017	-138
944.109	-1105
944.201	-247
944.294	-326
944.386	-379
944.478	-572
944.571	-966
944.663	-840
944.755	-725
944.847	-828
944.940	-49
945.032	-1914
945.124	-847
945.216	536
945.308	-615
945.400	-310
945.492	-433
945.584	-589
945.676	-626
945.768	-79
945.860	-179
945.952	-1377
946.044	870
946.136	-788
946.228	-331
946.320	-334
946.412	-1409
946.503	-1701
946.595	-255
946.687	-193
946.779	-370
946.870	-608
946.962	-606
947.054	439
947.145	-176
947.237	-165
947.329	242
947.420	-633
947.512	-318
947.603	98
947.695	-293
947.786	-328
947.878	-833
947.969	153
948.061	-1244
948.152	-1067
948.243	-271
948.335	-434
948.426	-664
948.517	-654
948.609	-464
948.700	-628
948.791	-940
948.882	-677
948.973	-1412
949.065	-873
949.156	-1155
949.247	-669
949.338	-380
949.429	-1317
949.520	-514
949.611	-156
949.702	-35
949.793	-1154
949.884	-774
949.975	-492
950.066	-55
950.157	-912
950.247	57
950.338	-590
950.429	-856
950.520	341
950.611	-1411
950.701	-656
950.792	-959
950.883	-565
950.973	-1539
951.064	-593
951.155	-379
951.245	-171
951.336	-552
951.427	-1150
951.517	-338
951.608	-354
951.698	-1683
951.788	-1004
951.879	-1613
951.969	-451
952.060	-718
952.150	-846
952.240	118
952.331	-1937
952.421	247
952.511	-1576
952.602	-1116
952.692	-726
952.782	-807
952.872	-516
952.962	-586
953.052	-504
953.143	-1001
953.233	-58
953.323	-388
953.413	-1235
953.503	20
953.593	178
953.683	132
953.773	-1506
953.863	-588
953.953	-328
954.042	-333
954.132	-631
954.222	-288
954.312	269
954.402	-104
954.492	152
954.581	260
954.671	-39
954.761	-1258
954.850	66
954.940	-691
955.030	-663
955.119	-702
955.209	-818
955.298	-1187
955.388	-340
955.477	351
955.567	-862
955.656	-1174
955.746	-906
955.835	-349
955.925	-1594
956.014	-830
956.103	-1219
956.193	-379
956.282	-556
956.371	-168
956.461	-868
956.550	-658
956.639	-367
956.728	-649
956.817	-342
956.906	63
956.995	-315
957.085	29
957.174	723
957.263	-541
957.352	106
957.441	-432
957.530	-469
957.619	177
957.708	-399
957.796	-440
957.885	-648
957.974	-535
958.063	500
958.152	-1868
958.241	-228
958.329	246
958.418	-197
958.507	-989
958.596	429
958.684	-430
958.773	66
958.861	187
958.950	1028
959.039	-554
959.127	456
959.216	213
959.304	797
959.393	-28
959.481	-436
959.570	252
959.658	41
959.746	618
959.835	-61
959.923	797
960.011	178
960.100	-331
960.188	271
960.276	-549
960.365	139
960.453	298
960.541	-573
960.629	48
960.717	-823
960.805	-775
960.893	286
960.981	-977
961.069	-245
961.158	-364
961.245	-45
961.333	-565
961.421	-217
961.509	-512
961.597	-547
961.685	-785
961.773	-763
961.861	-1463
961.949	-956
962.036	-349
962.124	-118
962.212	-660
962.299	-312
962.387	-246
962.475	-482
962.562	-1884
962.650	-455
962.738	-563
962.825	-418
962.913	5
963.000	-228
963.088	-597
963.175	-236
963.263	-681
963.350	-791
963.438	-452
963.525	-932
963.612	929
963.700	1817
963.787	6879
963.874	2337
963.962	139
964.049	-431
964.136	-709
964.223	-431
964.310	-619
964.398	-722
964.485	-239
964.572	-321
964.659	52
964.746	600
964.833	-349
964.920	-49
965.007	-672
965.094	-213
965.181	-1464
965.268	-878
965.355	-489
965.441	-337
965.528	-765
965.615	-203
965.702	-1016
965.789	-876
965.875	-665
965.962	-480
966.049	-1245
966.136	-392
966.222	-1285
966.309	-769
966.395	-1643
966.482	-278
966.569	-1131
966.655	-977
966.742	-257
966.828	-999
966.915	-1907
967.001	-446
967.087	-848
967.174	-652
967.260	435
967.347	-221
967.433	736
967.519	3994
967.605	412
967.692	-1407
967.778	-883
967.864	-186
967.950	-1172
968.036	-1151
968.123	-586
968.209	-1170
968.295	-478
968.381	207
968.467	-567
968.553	-1338
968.639	254
968.725	-1384
968.811	595
968.897	727
968.983	-1114
969.069	-1673
969.154	-376
969.240	-811
969.326	-1351
969.412	-1043
969.497	-1080
969.583	-1165
969.669	416
969.755	-612
969.840	-1462
969.926	-410
970.012	-1597
970.097	-112
970.183	-1232
970.268	-487
970.354	-524
970.439	-58
970.525	2328
970.610	-379
970.696	-644
970.781	-107
970.866	-2181
970.952	-458
971.037	-1596
971.122	-717
971.208	-1119
971.293	-495
971.378	-1788
971.463	-926
971.549	-754
971.634	-1192
971.719	-986
971.804	-848
971.889	258
971.974	-880
972.059	-2035
972.144	-960
972.229	-1113
972.314	-1298
972.399	-20
972.484	-653
972.569	-563
972.654	-1259
972.739	605
972.824	38
972.908	-696
972.993	-966
973.078	-1660
973.163	-775
973.247	-1354
973.332	-2047
973.417	-170
973.501	-1314
973.586	-883
973.671	-394
973.755	-1479
973.840	-896
973.924	-282
974.009	84
974.093	-2226
974.178	-511
974.262	-803
974.346	-442
974.431	-932
974.515	-1241
974.600	-701
974.684	-783
974.768	-812
974.852	-863
974.937	-1629
975.021	-739
975.105	-1343
975.189	-953
975.273	-1042
975.358	-1054
975.442	-2053
975.526	-190
975.610	-1608
975.694	-1211
975.778	-271
975.862	-833
975.946	-1771
976.030	187
976.114	-1424
976.198	-1562
976.281	-1646
976.365	12
976.449	-1542
976.533	-507
976.617	-980
976.700	-1336
976.784	-527
976.868	-797
976.951	293
977.035	-902
977.119	-820
977.202	-339
977.286	-697
977.369	-1390
977.453	-347
977.536	-1456
977.620	-1836
977.703	-597
977.787	-1651
977.870	-556
977.953	-76
978.037	-2091
978.120	96
978.203	-1206
978.287	-1
978.370	-185
978.453	-1355
978.536	-1314
978.620	-251
978.703	457
978.786	-948
978.869	-717
978.952	-1756
979.035	148
979.118	-590
979.201	-1044
979.284	-931
979.367	-1621
979.450	-1039
979.533	-1214
979.616	-948
979.699	-970
979.782	290
979.865	-918
979.948	-833
980.030	-1284
980.113	-2181
980.196	-1555
980.279	-614
980.361	-1429
980.444	-1811
980.526	-1022
980.609	-1277
980.692	-1570
980.774	-1530
980.857	-2024
980.939	-1160
981.022	-1900
981.104	-1550
981.187	-641
981.269	-28
981.352	-1211
981.434	-1748
981.516	-1155
981.599	-161
981.681	-462
981.763	-674
981.846	-1028
981.928	-1608
982.010	-1456
982.092	-2239
982.174	-444
982.256	-1541
982.339	-1142
982.421	-1645
982.503	-1043
982.585	-1377
982.667	-1267
982.749	-1033
982.831	-574
982.913	-1155
982.995	-737
983.077	-1457
983.158	9
983.240	-1518
983.322	-1329
983.404	-709
983.486	-1888
983.568	-1612
983.649	-1677
983.731	-1069
983.813	-1670
983.894	-1142
983.976	-1534
984.058	-1290
984.139	91
984.221	-1252
984.302	-626
984.384	-1012
984.465	-1308
984.547	-1793
984.628	-1409
984.710	-33
984.791	-1958
984.872	-524
984.954	-1524
985.035	-1182
985.116	-1948
985.198	-1781
985.279	-512
985.360	-1628
985.441	-1702
985.522	-1264
985.604	-992
985.685	-3736
985.766	-511
985.847	-55
985.928	-2069
986.009	-1777
986.090	-908
986.171	-800
986.252	-1388
986.333	-574
986.414	-893
986.495	-1482
986.576	-1661
986.656	-2276
986.737	-211
986.818	-1239
986.899	-1334
986.980	-1580
987.060	-124
987.141	-1813
987.222	-873
987.302	-1273
987.383	-1084
987.464	-1791
987.544	-1199
987.625	-1106
987.705	-133
987.786	-477
987.866	-1185
987.947	-552
988.027	-1603
988.108	-2185
988.188	-705
988.268	-1041
988.349	-1787
988.429	-982
988.509	-1409
988.589	-1417
988.670	-3380
988.750	-482
988.830	-1513
988.910	-942
988.990	-1527
989.070	-1354
989.151	-1421
989.231	-1837
989.311	62
989.391	-1147
989.471	-1180
989.551	-1537
989.631	-1683
989.711	-142
989.791	-1984
989.870	-1807
989.950	-111
990.030	-1645
990.110	-902
990.190	-2162
990.269	-1132
990.349	-1911
990.429	-792
990.509	-706
990.588	-1822
990.668	-1387
990.747	-703
990.827	-1422
990.907	23
990.986	-2021
991.066	-1554
991.145	-1797
991.225	-683
991.304	-2372
991.383	-1022
991.463	-1075
991.542	-599
991.622	-355
991.701	-891
991.780	-922
991.859	-189
991.939	-1672
992.018	-49
992.097	-1380
992.176	-1202
992.256	-763
992.335	-1835
992.414	-676
992.493	-1251
992.572	-383
992.651	-380
992.730	-1345
992.809	-1080
992.888	-1219
992.967	-1152
993.046	-133
993.125	-1761
993.203	-1661
993.282	-1183
993.361	-1578
993.440	-1210
993.519	-1280
993.597	-1580
993.676	-1168
993.755	607
993.834	-1304
993.912	-1540
993.991	-475
994.069	-1593
994.148	-1541
994.226	-1460
994.305	-1327
994.384	-1272
994.462	-445
994.540	-1449
994.619	-1338
994.697	-917
994.776	-942
994.854	-462
994.932	-1894
995.011	-380
995.089	-670
995.167	-1025
995.245	-606
995.324	-1586
995.402	-529
995.480	-955
995.558	-1027
995.636	-2110
995.714	-875
995.792	-709
995.870	-1384
995.948	-1135
996.026	-639
996.104	-1925
996.182	-600
996.260	-1308
996.338	-791
996.416	-2102
996.494	-1414
996.572	-840
996.649	-1534
996.727	-1718
996.805	-1865
996.883	-1163
996.960	-1541
997.038	-372
997.116	-1163
997.193	-1311
997.271	-728
997.348	-1715
997.426	-1089
997.504	-1720
997.581	-817
997.658	-466
997.736	-1373
997.813	-1057
997.891	-302
997.968	-1475
998.046	-1267
998.123	-1228
998.200	-793
998.277	-1745
998.355	-581
998.432	-2368
998.509	-508
998.586	-293
998.663	-2342
998.741	-1111
998.818	-1557
998.895	-1258
998.972	-965
999.049	-558
999.126	-1779
999.203	-672
999.280	-1291
999.357	-1541
999.434	-522
999.511	-946
999.587	-665
999.664	-1588
999.741	-901
999.818	-712
999.895	-735
999.971	-1476
1000.048	-582
1000.125	-771
1000.202	-2142
1000.278	-162
1000.355	-1205
1000.431	-1321
1000.508	-1801
1000.584	-756
1000.661	-443
1000.738	-1899
1000.814	-710
1000.890	-209
1000.967	-1318
1001.043	-1026
1001.120	-2531
1001.196	-1201
1001.272	-1909
1001.349	-716
1001.425	-122
1001.501	-609
1001.577	-2242
1001.654	-1305
1001.730	-1951
1001.806	-802
1001.882	-1919
1001.958	-878
1002.034	-959
1002.110	-813
1002.186	-2042
1002.262	-1481
1002.338	-999
1002.414	-288
1002.490	-999
1002.566	-1578
1002.642	-1162
1002.718	26
1002.794	-1185
1002.870	-849
1002.945	-1318
1003.021	-1083
1003.097	-1996
1003.173	-906
1003.248	-1883
1003.324	-963
1003.400	-959
1003.475	-1480
1003.551	-1185
1003.626	-1859
1003.702	-2010
1003.777	-1066
1003.853	-583
1003.928	-1290
1004.004	-1391
1004.079	-974
1004.155	-1609
1004.230	-2979
1004.305	-1149
1004.381	-1975
1004.456	-1270
1004.531	-1539
1004.607	-745
1004.682	-1828
1004.757	-1626
1004.832	-1436
1004.907	-1791
1004.982	-517
1005.057	-172
1005.133	-1395
1005.208	-1159
1005.283	-1148
1005.358	-779
1005.433	-1809
1005.508	-699
1005.583	-1344
1005.657	-1246
1005.732	-1163
1005.807	-2200
1005.882	-1364
1005.957	-1482
1006.032	-504
1006.106	-682
1006.181	-680
1006.256	-1399
1006.331	-1732
1006.405	-1678
1006.480	-1151
1006.554	-848
1006.629	-1309
1006.704	-1651
1006.778	-892
1006.853	-593
1006.927	-942
1007.002	-1343
1007.076	-1408
1007.150	-1884
1007.225	-1067
1007.299	-860
1007.373	-1994
1007.448	-1013
1007.522	-526
1007.596	-866
1007.671	-1792
1007.745	-1187
1007.819	-1990
1007.893	-1366
1007.967	-880
1008.041	-2755
1008.115	-686
1008.190	-1909
1008.264	-641
1008.338	-2003
1008.412	-2314
1008.486	-1231
1008.560	-1921
1008.633	-1566
1008.707	-1591
1008.781	-1667
1008.855	-1658
1008.929	-1465
1009.003	-2062
1009.076	-1807
1009.150	-1144
1009.224	-841
1009.298	-1687
1009.371	-1524
1009.445	-1002
1009.519	-2105
1009.592	-2345
1009.666	-960
1009.739	-534
1009.813	-1920
1009.886	-458
1009.960	-2486
1010.033	-1373
1010.107	-1817
1010.180	-2158
1010.253	-1359
1010.327	-1452
1010.400	-1289
1010.473	-608
1010.547	-339
1010.620	-1489
1010.693	-1394
1010.766	-1169
1010.840	-852
1010.913	-878
1010.986	-2283
1011.059	-2109
1011.132	-2293
1011.205	-1399
1011.278	-1775
1011.351	-1905
1011.424	-354
1011.497	-2222
1011.570	-1443
1011.643	-1087
1011.716	-1992
1011.789	-1504
1011.862	-2373
1011.934	-975
1012.007	-2398
1012.080	-1379
1012.153	-1028
1012.225	-1630
1012.298	-1183
1012.371	-1190
1012.443	-1182
1012.516	-1874
1012.588	-1719
1012.661	-1509
1012.733	-1340
1012.806	-490
1012.879	-1351
1012.951	-2072
1013.023	-2662
1013.096	-1179
1013.168	-2205
1013.241	-1117
1013.313	-1539
1013.385	-1939
1013.458	-1797
1013.530	-1239
1013.602	-1657
1013.674	-1196
1013.746	-2528
1013.819	-1498
1013.891	-1047
1013.963	-2266
1014.035	-1625
1014.107	-873
1014.179	-1334
1014.251	-1965
1014.323	-1205
1014.395	-1063
1014.467	-2055
1014.539	-992
1014.611	-2001
1014.683	-1674
1014.754	-1460
1014.826	-1885
1014.898	-1013
1014.970	-2056
1015.042	-1485
1015.113	-1650
1015.185	-1269
1015.257	-2219
1015.328	-1130
1015.400	-2465
1015.471	-1504
1015.543	-1406
1015.615	-758
1015.686	-2094
1015.757	-1415
1015.829	-1302
1015.901	-1817
1015.972	-1505
1016.043	-1121
1016.115	-1421
1016.186	-1273
1016.257	-2587
1016.328	-987
1016.400	-992
1016.471	-1576
1016.542	-1480
1016.613	-1655
1016.685	-773
1016.756	-1020
1016.827	-1796
1016.898	-1899
1016.969	-1376
1017.040	-2556
1017.111	-1654
1017.182	-946
1017.253	-1018
1017.324	-1592
1017.395	-1332
1017.466	-950
1017.537	-1504
1017.608	-1156
1017.678	-1074
1017.749	-1433
1017.820	-1478
1017.891	-1007
1017.961	-1633
1018.032	-2022
1018.103	-1919
1018.173	-1948
1018.244	-1307
1018.315	-1353
1018.385	-891
1018.456	-1875
1018.526	-2226
1018.597	-2011
1018.667	-737
1018.738	-2005
1018.808	-1494
1018.878	-1655
1018.949	-1188
1019.019	-1743
1019.089	-1532
1019.160	-2275
1019.230	-2318
1019.300	-1426
1019.371	-1850
1019.441	-1460
1019.511	-1286
1019.581	-741
1019.651	-1370
1019.721	-1202
1019.791	-1187
1019.861	-1893
1019.931	-1729
1020.001	-1615
1020.071	-1517
1020.141	-1675
1020.211	-1594
1020.281	-1860
1020.351	-1491
1020.421	-1511
1020.491	-1077
1020.560	-2654
1020.630	-2393
1020.700	-770
1020.770	-1835
1020.839	-2141
1020.909	-935
1020.979	-1361
1021.048	-1406
1021.118	-2154
1021.187	-970
1021.257	-2197
1021.326	-1154
1021.396	-1446
1021.465	-867
1021.535	-1949
1021.604	-1888
1021.674	-1415
1021.743	-1333
1021.812	-1838
1021.882	-1226
1021.951	-1352
1022.020	-1413
1022.089	-1224
1022.159	-1536
1022.228	-934
1022.297	-1745
1022.366	-741
1022.435	-1495
1022.504	-1327
1022.573	-2015
1022.642	-1314
1022.711	-1763
1022.781	-1112
1022.849	-1508
1022.918	-1409
1022.987	-1206
1023.056	-1618
1023.125	-1830
1023.194	-1195
1023.263	-1404
1023.331	-1565
1023.400	-1901
1023.469	-1918
1023.538	-937
1023.606	-2045
1023.675	-1202
1023.744	-2092
1023.812	-1773
1023.881	-2464
1023.949	-1543
1024.018	-1789
1024.086	-1648
1024.155	-532
1024.223	-1060
1024.292	-730
1024.360	-1328
1024.429	-1727
1024.497	-660
1024.565	-1571
1024.634	-1585
1024.702	-1280
1024.770	-1540
1024.838	-1230
1024.907	-1518
1024.975	-2221
1025.043	-1638
1025.111	-1597
1025.179	-1290
1025.247	-1640
1025.315	-1440
1025.383	-1481
1025.451	-1733
1025.519	-1515
1025.587	-1886
1025.655	-1864
1025.723	-1629
1025.791	-993
1025.859	-508
1025.927	-1662
1025.995	-1606
1026.062	-814
1026.130	-1092
1026.198	-1929
1026.266	-1791
1026.333	-970
1026.401	-786
1026.469	-1794
1026.536	-1490
1026.604	-1646
1026.671	-1607
1026.739	-1987
1026.806	-1211
1026.874	-2430
1026.941	-1149
1027.009	-1454
1027.076	-1043
1027.144	-1374
1027.211	-2174
1027.278	-1854
1027.345	-1362
1027.413	-714
1027.480	-2331
1027.547	-2083
1027.614	-1058
1027.682	-938
1027.749	-1501
1027.816	-1603
1027.883	-909
1027.950	-1316
1028.017	-1734
1028.084	-925
1028.151	-2399
1028.218	-1668
1028.285	-1491
1028.352	-1872
1028.419	-1564
1028.486	-2190
1028.553	-1145
1028.619	-1888
1028.686	-1178
1028.753	-1258
1028.820	-1584
1028.886	-937
1028.953	-829
1029.020	-1946
1029.086	-1874
1029.153	-2178
1029.220	-1164
1029.286	-1054
1029.353	-789
1029.419	-1432
1029.486	-1989
1029.552	-1247
1029.619	-1233
1029.685	-1091
1029.751	-1274
1029.818	-1434
1029.884	-1672
1029.951	-454
1030.017	-1901
1030.083	-1313
1030.149	-1664
1030.216	-1396
1030.282	-1050
1030.348	-1608
1030.414	-1775
1030.480	-1035
1030.546	-1623
1030.612	-714
1030.678	-2430
1030.744	-1985
1030.810	-1793
1030.876	-1349
1030.942	-2001
1031.008	-1623
1031.074	-1067
1031.140	-1537
1031.206	-1057
1031.272	-1474
1031.337	-591
1031.403	-1299
1031.469	-919
1031.534	-1444
1031.600	-1136
1031.666	-2092
1031.731	-1003
1031.797	-779
1031.863	-1423
1031.928	-1012
1031.994	-1209
1032.059	-1324
1032.125	-1873
1032.190	-1629
1032.256	-1997
1032.321	-1158
1032.386	-1512
1032.452	-1237
1032.517	-1366
1032.582	-1311
1032.647	-1084
1032.713	-1194
1032.778	-1036
1032.843	-1667
1032.908	-1845
1032.974	-1814
1033.039	-1473
1033.104	-1062
1033.169	-419
1033.234	-970
1033.299	-507
1033.364	-1368
1033.429	-1730
1033.494	-1586
1033.559	-1135
1033.624	-1783
1033.688	-1549
1033.753	-2148
1033.818	-1815
1033.883	-1697
1033.948	-1990
1034.013	-1726
1034.077	-717
1034.142	-1285
1034.207	-1613
1034.271	-912
1034.336	-1037
1034.400	-1257
1034.465	-1890
1034.530	-1322
1034.594	-1691
1034.658	-1402
1034.723	-1407
1034.787	-1050
1034.852	-1980
1034.916	-1488
1034.981	-1569
1035.045	-1106
1035.109	-1443
1035.173	-950
1035.238	-1714
1035.302	-2037
1035.366	-2178
1035.430	-1576
1035.495	-1962
1035.559	-1280
1035.623	-2063
1035.687	-1036
1035.751	-1326
1035.815	-1925
1035.879	-2514
1035.943	-1834
1036.007	-2474
1036.071	-1373
1036.135	-1401
1036.198	-1514
1036.262	-1532
1036.326	-1772
1036.390	-1353
1036.454	-1427
1036.517	-1309
1036.581	-2238
1036.645	-1468
1036.709	-1807
1036.772	-2270
1036.836	-2013
1036.900	-2085
1036.963	-1939
1037.026	-1739
1037.090	-1977
1037.154	-1372
1037.217	-1393
1037.280	-1402
1037.344	-1313
1037.407	-2163
1037.471	-1542
1037.534	-2229
1037.597	-1693
1037.661	-1515
1037.724	-1190
1037.787	-1943
1037.850	-2068
1037.913	-1849
1037.977	-1568
1038.040	-1265
1038.103	-1643
1038.166	-2148
1038.229	-2176
1038.292	-2094
1038.355	-1716
1038.418	-1894
1038.481	-909
1038.544	-1743
1038.607	-989
1038.670	-2083
1038.732	-2458
1038.795	-2056
1038.858	-1399
1038.921	-1656
1038.984	-1567
1039.046	-1557
1039.109	-1252
1039.172	-1900
1039.234	-1712
1039.297	-1427
1039.360	-1580
1039.422	-1391
1039.485	-1785
1039.547	-2448
1039.610	-1314
1039.672	-1009
1039.734	-1779
1039.797	-1820
1039.859	-2254
1039.922	-1651
1039.984	-1590
1040.046	-2694
1040.109	-1278
1040.171	-1451
1040.233	-1979
1040.295	-2144
1040.358	-2416
1040.420	-1986
1040.482	-1517
1040.544	-2185
1040.606	-1730
1040.668	-2157
1040.730	-1799
1040.792	-1525
1040.854	-1941
1040.916	-1704
1040.978	-1626
1041.040	-848
1041.102	-1530
1041.164	-1470
1041.225	-1534
1041.287	-2176
1041.349	-1033
1041.411	-1534
1041.472	-760
1041.534	-1579
1041.596	-1526
1041.657	-2232
1041.719	-1052
1041.781	-1735
1041.842	-2238
1041.904	-1321
1041.965	-1157
1042.027	-630
1042.088	-1625
1042.150	-2035
1042.211	-1259
1042.272	-1563
1042.334	-1960
1042.395	-2025
1042.456	-1869
1042.518	-814
1042.579	-1065
1042.640	-1236
1042.701	-948
1042.763	-1966
1042.824	-2305
1042.885	-1746
1042.946	-1877
1043.007	-2318
1043.068	-1814
1043.129	-1903
1043.190	-1605
1043.251	-1087
1043.312	-2043
1043.373	-1604
1043.434	-1407
1043.495	-2300
1043.556	-1076
1043.616	-1110
1043.677	-1550
1043.738	-1542
1043.799	-2253
1043.859	-1518
1043.920	-1149
1043.981	-1275
1044.041	-1563
1044.102	-2085
1044.162	-1444
1044.223	-1670
1044.284	-1294
1044.344	-1539
1044.405	-2543
1044.465	-1542
1044.525	-2488
1044.586	-771
1044.646	-2087
1044.707	-1333
1044.767	-1819
1044.827	-1471
1044.887	-1949
1044.948	-1419
1045.008	-1137
1045.068	-1752
1045.128	-1466
1045.188	-918
1045.249	-1184
1045.309	-1518
1045.369	-1696
1045.429	-1168
1045.489	-772
1045.549	-1691
1045.609	-2084
1045.669	-1543
1045.729	-1830
1045.789	-1048
1045.848	-2080
1045.908	-946
1045.968	-1128
1046.028	-1183
1046.088	-803
1046.147	-560
1046.207	-1987
1046.267	-1502
1046.326	-1407
1046.386	-845
1046.446	-818
1046.505	-1137
1046.565	59
1046.624	-898
1046.684	-29
1046.743	42
1046.803	-509
1046.862	287
1046.922	0
