'Start Wavelength	183.907
'End Wavelength	1046.922
'Gate Delay	5.000
'Gate Width (ms)	1.050
'Laser Output Level	0.000
'X Position	0.000
'Y Position	0.000
'Z Position	0.000
'Grid Point Number	1.000
'Shot Number	100.000
183.907	904.000
183.977	111.000
184.047	349
184.116	413
184.186	322
184.256	691
184.325	323
184.395	-694
184.465	1011
184.534	195
184.604	241
184.674	-7
184.743	-22
184.813	518
184.883	167
184.952	17
185.022	-47
185.092	678
185.161	271
185.231	175
185.301	982
185.370	703
185.440	362
185.509	282
185.579	155
185.649	103
185.718	699
185.788	588
185.857	32
185.927	316
185.996	660
186.066	-44
186.136	-19
186.205	134
186.275	-73
186.344	171
186.414	780
186.483	-191
186.553	1941
186.622	2551
186.692	508
186.761	654
186.831	440
186.900	-50
186.970	419
187.039	868
187.109	1588
187.178	533
187.248	309
187.317	433
187.387	317
187.456	199
187.526	1554
187.595	574
187.664	841
187.734	1248
187.803	1677
187.873	1496
187.942	1176
188.012	1376
188.081	508
188.150	845
188.220	2297
188.289	1553
188.358	1095
188.428	1020
188.497	869
188.567	1532
188.636	636
188.705	1060
188.775	913
188.844	-47
188.913	1824
188.983	1076
189.052	863
189.121	887
189.191	996
189.260	1996
189.329	1411
189.399	607
189.468	1618
189.537	1017
189.606	964
189.676	1577
189.745	1213
189.814	1269
189.883	1466
189.953	675
190.022	1708
190.091	3529
190.161	5430
190.230	2889
190.299	1013
190.368	1247
190.437	648
190.507	929
190.576	696
190.645	1007
190.714	1236
190.783	1055
190.853	1352
190.922	1793
190.991	1508
191.060	1398
191.129	333
191.198	1291
191.268	1236
191.337	1469
191.406	1667
191.475	1398
191.544	1685
191.613	1957
191.682	1287
191.752	1415
191.821	592
191.890	889
191.959	1129
192.028	1376
192.097	1551
192.166	1761
192.235	533
192.304	1759
192.373	1147
192.442	1843
192.511	1513
192.580	1040
192.650	934
192.719	631
192.788	2390
192.857	1458
192.926	1714
192.995	1568
193.064	1870
193.133	2878
193.202	3241
193.271	3506
193.340	2763
193.409	3800
193.478	3866
193.547	3484
193.615	5380
193.684	6856
193.753	3633
193.822	3032
193.891	1662
193.960	2102
194.029	1140
194.098	2929
194.167	1049
194.236	1628
194.305	1080
194.374	976
194.443	1391
194.512	1864
194.580	1276
194.649	1948
194.718	1711
194.787	1128
194.856	617
194.925	2143
194.994	1984
195.062	1865
195.131	2052
195.200	2590
195.269	3485
195.338	2212
195.407	2330
195.475	1105
195.544	2140
195.613	2207
195.682	1875
195.751	3204
195.819	1839
195.888	2893
195.957	3331
196.026	3116
196.094	3028
196.163	2769
196.232	3003
196.301	1442
196.369	1907
196.438	2166
196.507	1600
196.576	2186
196.644	1893
196.713	1332
196.782	1956
196.850	1292
196.919	1174
196.988	1428
197.056	860
197.125	1809
197.194	1598
197.262	2074
197.331	2016
197.400	1468
197.468	1701
197.537	1901
197.606	2285
197.674	2890
197.743	4797
197.812	3390
197.880	4796
197.949	3303
198.017	5058
198.086	4299
198.155	2875
198.223	3104
198.292	5654
198.360	3987
198.429	2730
198.497	2356
198.566	4138
198.635	6281
198.703	2774
198.772	3522
198.840	5907
198.909	7486
198.977	3079
199.046	2911
199.114	3265
199.183	3503
199.251	2284
199.320	2015
199.388	1618
199.457	2252
199.525	2660
199.594	2481
199.662	2392
199.731	1764
199.799	1863
199.867	2554
199.936	2338
200.004	2474
200.073	1891
200.141	1605
200.210	1630
200.278	2540
200.346	2470
200.415	3110
200.483	3083
200.552	3558
200.620	2423
200.688	2814
200.757	1615
200.825	2142
200.893	2199
200.962	2660
201.030	1977
201.098	2415
201.167	3082
201.235	2670
201.303	2978
201.372	3484
201.440	3066
201.508	3071
201.577	3631
201.645	3187
201.713	2776
201.781	2803
201.850	3857
201.918	3078
201.986	3223
202.055	2816
202.123	3025
202.191	2425
202.259	2351
202.327	2267
202.396	2115
202.464	3559
202.532	3653
202.600	8774
202.669	6472
202.737	3513
202.805	3029
202.873	3206
202.941	2646
203.009	2625
203.078	2387
203.146	3533
203.214	1965
203.282	2218
203.350	2536
203.418	2992
203.487	3336
203.555	2253
203.623	2887
203.691	3154
203.759	2409
203.827	3092
203.895	3084
203.963	3550
204.031	2872
204.099	3239
204.168	2057
204.236	3464
204.304	3241
204.372	2844
204.440	3123
204.508	2572
204.576	2093
204.644	3867
204.712	2342
204.780	2937
204.848	3423
204.916	2703
204.984	2878
205.052	3057
205.120	3515
205.188	2928
205.256	3128
205.324	2441
205.392	3586
205.460	3907
205.528	2988
205.596	3207
205.664	3551
205.732	3454
205.799	8188
205.867	12199
205.935	4259
206.003	4245
206.071	3375
206.139	3692
206.207	3662
206.275	3168
206.343	3264
206.411	3877
206.478	3675
206.546	3508
206.614	3104
206.682	3634
206.750	3421
206.818	4542
206.885	5352
206.953	3341
207.021	4425
207.089	4279
207.157	2830
207.225	4252
207.292	3017
207.360	3806
207.428	3679
207.496	2831
207.563	4048
207.631	4021
207.699	3591
207.767	3623
207.834	4062
207.902	3899
207.970	3381
208.038	3472
208.105	4073
208.173	4369
208.241	5257
208.309	5698
208.376	5286
208.444	7970
208.512	5735
208.579	3495
208.647	4859
208.715	5609
208.782	4142
208.850	4182
208.918	3593
208.985	3924
209.053	4182
209.120	4910
209.188	3160
209.256	3579
209.323	3767
209.391	6420
209.459	5330
209.526	4578
209.594	4280
209.661	3854
209.729	3699
209.796	4501
209.864	3995
209.932	3079
209.999	5437
210.067	4943
210.134	4989
210.202	4474
210.269	6569
210.337	7271
210.404	5132
210.472	4736
210.539	3986
210.607	4403
210.674	5702
210.742	5977
210.809	3613
210.877	5056
210.944	6209
211.012	4667
211.079	5854
211.146	5272
211.214	5685
211.281	7873
211.349	7561
211.416	5726
211.484	5658
211.551	4290
211.618	5854
211.686	5279
211.753	5094
211.821	5164
211.888	5148
211.955	5657
212.023	5521
212.090	5691
212.157	5508
212.225	6597
212.292	9716
212.359	15524
212.427	27016
212.494	17334
212.561	9176
212.629	7237
212.696	5978
212.763	5933
212.831	4949
212.898	6059
212.965	4711
213.032	5465
213.100	5528
213.167	6167
213.234	6552
213.301	5642
213.369	5069
213.436	4651
213.503	4455
213.570	6165
213.638	5485
213.705	5586
213.772	3781
213.839	5426
213.906	6563
213.973	5834
214.041	5240
214.108	5837
214.175	5682
214.242	5983
214.309	5576
214.376	5841
214.444	6366
214.511	6130
214.578	6027
214.645	6336
214.712	7595
214.779	6502
214.846	5864
214.913	7761
214.980	7833
215.048	7322
215.115	9112
215.182	8529
215.249	7214
215.316	5189
215.383	6319
215.450	5355
215.517	5434
215.584	5016
215.651	4894
215.718	5653
215.785	6757
215.852	6453
215.919	7299
215.986	6202
216.053	5504
216.120	5108
216.187	6367
216.254	6157
216.321	5614
216.388	6848
216.455	6763
216.522	7354
216.589	8145
216.656	10588
216.722	12150
216.789	9645
216.856	9294
216.923	8277
216.990	8387
217.057	7889
217.124	10275
217.191	8565
217.258	10311
217.324	11267
217.391	11236
217.458	10247
217.525	8675
217.592	7841
217.659	6153
217.725	8757
217.792	9244
217.859	9951
217.926	7270
217.993	6318
218.059	5617
218.126	5345
218.193	5898
218.260	4934
218.327	5706
218.393	6013
218.460	4866
218.527	3945
218.594	6378
218.660	9288
218.727	10026
218.794	5436
218.860	5939
218.927	4996
218.994	5210
219.061	5163
219.127	5862
219.194	8084
219.261	5747
219.327	5114
219.394	5455
219.461	3436
219.527	4536
219.594	6837
219.661	5434
219.727	4203
219.794	5293
219.860	4221
219.927	6938
219.994	10141
220.060	12877
220.127	13174
220.193	9553
220.260	9134
220.326	11213
220.393	16038
220.460	17404
220.526	14222
220.593	11338
220.659	10970
220.726	10514
220.792	20582
220.859	19515
220.925	24071
220.992	28002
221.058	26690
221.125	25830
221.191	20151
221.258	11808
221.324	9631
221.391	8611
221.457	6636
221.524	6584
221.590	9248
221.657	20260
221.723	17281
221.789	14787
221.856	15203
221.922	9506
221.989	7325
222.055	5914
222.121	5978
222.188	8866
222.254	7140
222.321	6087
222.387	4921
222.453	4582
222.520	5899
222.586	4355
222.652	5231
222.719	4260
222.785	6671
222.851	4236
222.918	4710
222.984	5343
223.050	5881
223.116	4896
223.183	5985
223.249	4257
223.315	3443
223.382	4563
223.448	3752
223.514	3545
223.580	4406
223.647	3637
223.713	3666
223.779	4351
223.845	4107
223.911	5046
223.978	3534
224.044	4556
224.110	4879
224.176	4487
224.242	4944
224.309	3629
224.375	4372
224.441	3244
224.507	3535
224.573	3452
224.639	4738
224.705	3212
224.772	3987
224.838	3514
224.904	5899
224.970	3558
225.036	4077
225.102	5473
225.168	4945
225.234	4591
225.300	5076
225.366	5100
225.432	4967
225.499	4865
225.565	4661
225.631	6069
225.697	6306
225.763	6646
225.829	8787
225.895	7826
225.961	11072
226.027	11038
226.093	9378
226.159	12385
226.225	16861
226.291	31472
226.357	44045
226.423	29443
226.489	18493
226.554	12674
226.620	12575
226.686	14958
226.752	20723
226.818	32419
226.884	53838
226.950	50659
227.016	27815
227.082	17558
227.148	13199
227.214	12243
227.279	10628
227.345	9508
227.411	9598
227.477	11581
227.543	20838
227.609	23275
227.674	15719
227.740	9764
227.806	8594
227.872	6904
227.938	7019
228.003	10681
228.069	6288
228.135	5623
228.201	5007
228.267	5254
228.332	6824
228.398	7370
228.464	6278
228.530	4952
228.595	5248
228.661	4362
228.727	8150
228.792	7555
228.858	6011
228.924	4857
228.990	7592
229.055	6243
229.121	8658
229.187	5094
229.252	5907
229.318	5187
229.384	6507
229.449	7097
229.515	4036
229.581	3670
229.646	6164
229.712	6192
229.777	10705
229.843	12075
229.909	9840
229.974	10374
230.040	9918
230.105	8216
230.171	9208
230.236	10497
230.302	15393
230.368	12593
230.433	8165
230.499	7908
230.564	9461
230.630	7252
230.695	6130
230.761	6633
230.826	5277
230.892	10272
230.957	6653
231.023	6175
231.088	6857
231.154	6270
231.219	6917
231.284	8001
231.350	9610
231.415	6407
231.481	6355
231.546	4478
231.612	6136
231.677	4915
231.742	3471
231.808	6201
231.873	5080
231.939	3961
232.004	9792
232.069	10221
232.135	6416
232.200	4668
232.265	6523
232.331	4958
232.396	5344
232.461	4716
232.527	4481
232.592	5219
232.657	5118
232.723	8140
232.788	7682
232.853	5622
232.918	5028
232.984	5162
233.049	4235
233.114	6742
233.179	8459
233.245	9267
233.310	11901
233.375	4658
233.440	5031
233.506	4581
233.571	5015
233.636	4666
233.701	4680
233.766	7412
233.832	9340
233.897	5427
233.962	5827
234.027	8291
234.092	6608
234.157	5589
234.222	6779
234.288	8328
234.353	18728
234.418	18344
234.483	12645
234.548	10586
234.613	8679
234.678	8364
234.743	8627
234.808	19507
234.873	14902
234.938	9910
235.004	7549
235.069	7601
235.134	7435
235.199	7283
235.264	6758
235.329	6035
235.394	6985
235.459	8027
235.524	7827
235.589	6864
235.654	6854
235.719	5698
235.784	6331
235.849	7045
235.913	13033
235.978	12730
236.043	14931
236.108	8865
236.173	8337
236.238	8286
236.303	7218
236.368	7127
236.433	10252
236.498	15885
236.563	14419
236.627	25530
236.692	68189
236.757	66084
236.822	30950
236.887	21653
236.952	18564
237.017	14807
237.081	16947
237.146	20341
237.211	38497
237.276	70241
237.341	98165
237.405	63871
237.470	30766
237.535	21540
237.600	14191
237.664	11475
237.729	9673
237.794	13060
237.859	24978
237.923	18953
237.988	11770
238.053	12964
238.118	13128
238.182	24583
238.247	24334
238.312	13004
238.376	12420
238.441	8319
238.506	9976
238.570	6581
238.635	7262
238.700	7252
238.764	5818
238.829	12422
238.893	16717
238.958	11099
239.023	10186
239.087	7491
239.152	8099
239.216	6829
239.281	7445
239.346	6428
239.410	6352
239.475	7934
239.539	22807
239.604	20649
239.668	10432
239.733	8956
239.797	15745
239.862	36395
239.926	34782
239.991	16383
240.055	9033
240.120	7730
240.184	8453
240.249	6336
240.313	6061
240.378	7335
240.442	14634
240.507	23284
240.571	10696
240.635	11593
240.700	17334
240.764	8185
240.829	6719
240.893	5265
240.957	7345
241.022	14421
241.086	23628
241.151	12935
241.215	6542
241.279	8745
241.344	13874
241.408	10382
241.472	7962
241.537	10334
241.601	8956
241.665	7691
241.730	7899
241.794	9366
241.858	9156
241.922	8255
241.987	9123
242.051	7955
242.115	6934
242.179	7551
242.244	7450
242.308	8327
242.372	8906
242.436	10292
242.501	8835
242.565	7588
242.629	7437
242.693	7629
242.757	6291
242.822	7162
242.886	8223
242.950	8190
243.014	7838
243.078	9439
243.142	9863
243.206	8050
243.271	10451
243.335	9522
243.399	15363
243.463	41791
243.527	100059
243.591	40988
243.655	18211
243.719	11509
243.783	12615
243.847	17434
243.911	23762
243.975	24080
244.040	18967
244.104	12126
244.168	9595
244.232	13145
244.296	18288
244.360	20661
244.424	11928
244.488	8538
244.552	9125
244.615	6874
244.679	7072
244.743	9059
244.807	10679
244.871	7360
244.935	7445
244.999	5995
245.063	7810
245.127	9380
245.191	14603
245.255	15867
245.319	11581
245.383	11223
245.446	10255
245.510	6696
245.574	7663
245.638	8780
245.702	7782
245.766	19476
245.829	13601
245.893	10050
245.957	8530
246.021	9710
246.085	9552
246.149	10796
246.212	23005
246.276	36492
246.340	17646
246.404	13282
246.467	13310
246.531	19563
246.595	13130
246.659	12003
246.722	10707
246.786	13638
246.850	13792
246.913	17753
246.977	10612
247.041	9227
247.104	11548
247.168	10091
247.232	22537
247.295	44530
247.359	25464
247.423	12613
247.486	21892
247.550	15378
247.614	10917
247.677	15250
247.741	10684
247.804	9289
247.868	10844
247.932	18967
247.995	42080
248.059	19231
248.122	11072
248.186	13878
248.249	22209
248.313	64176
248.376	73684
248.440	49167
248.503	21571
248.567	17869
248.630	23680
248.694	31330
248.757	38625
248.821	72948
248.884	48592
248.948	40392
249.011	58542
249.075	82604
249.138	76992
249.202	33164
249.265	21238
249.328	23883
249.392	19813
249.455	17719
249.519	14293
249.582	17488
249.645	26606
249.709	22856
249.772	17770
249.835	15290
249.899	15945
249.962	15553
250.025	14161
250.089	28155
250.152	40594
250.215	22444
250.279	17844
250.342	17211
250.405	16172
250.468	15696
250.532	20896
250.595	31190
250.658	89996
250.721	147617
250.785	68069
250.848	36379
250.911	21918
250.974	20593
251.038	25703
251.101	48487
251.164	29238
251.227	28820
251.290	28345
251.354	40227
251.417	121271
251.480	136354
251.543	103441
251.606	198733
251.669	180541
251.732	86691
251.795	75534
251.859	77754
251.922	139423
251.985	99592
252.048	43240
252.111	32077
252.174	28487
252.237	45111
252.300	89913
252.363	99748
252.426	169684
252.489	91273
252.552	47505
252.615	33663
252.678	33156
252.741	67605
252.804	94497
252.867	179111
252.930	124254
252.993	69328
253.056	41195
253.119	32532
253.182	25509
253.245	43001
253.308	35046
253.371	28032
253.434	26582
253.497	25512
253.559	40771
253.622	33807
253.685	36700
253.748	39827
253.811	21945
253.874	23426
253.937	22743
254.000	19247
254.062	28391
254.125	47266
254.188	42544
254.251	40183
254.314	19807
254.376	31673
254.439	37294
254.502	30070
254.565	30661
254.628	53590
254.690	33688
254.753	19835
254.816	16623
254.878	19378
254.941	31419
255.004	34685
255.067	16554
255.129	17568
255.192	11816
255.255	9714
255.317	13000
255.380	10352
255.443	8031
255.505	8831
255.568	8005
255.631	9338
255.693	10799
255.756	8595
255.819	10043
255.881	8773
255.944	8706
256.006	8240
256.069	8322
256.132	8408
256.194	10195
256.257	22646
256.319	17360
256.382	17490
256.444	14860
256.507	11561
256.569	10883
256.632	11152
256.694	18652
256.757	40542
256.819	117335
256.882	61223
256.944	25441
257.007	19967
257.069	20590
257.132	14372
257.194	13209
257.257	12404
257.319	12829
257.381	16277
257.444	33663
257.506	120814
257.569	153521
257.631	79610
257.693	43962
257.756	23755
257.818	19692
257.880	14011
257.943	12673
258.005	11300
258.067	11713
258.130	10031
258.192	12615
258.254	22463
258.317	16295
258.379	12290
258.441	26277
258.503	27485
258.566	26906
258.628	36320
258.690	12417
258.753	13724
258.815	22247
258.877	15735
258.939	10304
259.001	10557
259.064	10304
259.126	11788
259.188	16554
259.250	12835
259.312	15530
259.375	31422
259.437	24612
259.499	12232
259.561	11647
259.623	12130
259.685	12510
259.747	11627
259.809	23574
259.872	45136
259.934	63198
259.996	69675
260.058	24834
260.120	12242
260.182	11053
260.244	10034
260.306	8792
260.368	9818
260.430	9261
260.492	20046
260.554	37395
260.616	27523
260.678	36480
260.740	52114
260.802	16735
260.864	13758
260.926	12047
260.988	12294
261.050	12460
261.112	27306
261.174	56890
261.236	41468
261.298	16409
261.359	22311
261.421	31662
261.483	13314
261.545	12230
261.607	8706
261.669	9600
261.731	15903
261.793	35331
261.854	19924
261.916	13825
261.978	14032
262.040	14990
262.102	10685
262.164	14932
262.225	13930
262.287	10041
262.349	23147
262.411	20162
262.472	11087
262.534	14968
262.596	31028
262.658	12965
262.719	9591
262.781	12202
262.843	29031
262.904	16751
262.966	12912
263.028	16778
263.090	56301
263.151	154617
263.213	60374
263.275	33884
263.336	17651
263.398	12976
263.459	9174
263.521	9670
263.583	21538
263.644	18490
263.706	9949
263.767	7510
263.829	6980
263.891	6049
263.952	6390
264.014	6786
264.075	14359
264.137	34372
264.198	18108
264.260	8098
264.321	8216
264.383	19165
264.444	51038
264.506	19075
264.567	11706
264.629	20295
264.690	44234
264.752	18210
264.813	11838
264.875	9485
264.936	9408
264.998	9308
265.059	8829
265.120	9550
265.182	15542
265.243	58772
265.305	74122
265.366	21058
265.427	12426
265.489	11830
265.550	8872
265.611	11135
265.673	11746
265.734	10039
265.795	8148
265.857	8363
265.918	10415
265.979	20229
266.040	94363
266.102	96196
266.163	30835
266.224	23663
266.286	15054
266.347	10002
266.408	9152
266.469	9850
266.530	7984
266.592	8949
266.653	14718
266.714	26440
266.775	11256
266.836	9442
266.898	7822
266.959	14525
267.020	12202
267.081	8997
267.142	8057
267.203	9011
267.264	7520
267.326	10097
267.387	7610
267.448	7959
267.509	8534
267.570	8442
267.631	7516
267.692	7559
267.753	8907
267.814	7448
267.875	14274
267.936	32715
267.997	20182
268.058	17188
268.119	11121
268.180	10318
268.241	7540
268.302	8233
268.363	6782
268.424	8057
268.485	8850
268.546	7165
268.607	5693
268.668	5730
268.729	6321
268.790	7949
268.851	9735
268.912	19232
268.972	24341
269.033	14963
269.094	7999
269.155	7876
269.216	6245
269.277	7726
269.338	6662
269.398	7960
269.459	8396
269.520	11790
269.581	14218
269.642	16380
269.702	13306
269.763	10935
269.824	9285
269.885	10645
269.945	17118
270.006	8506
270.067	7464
270.128	7348
270.188	7315
270.249	8247
270.310	6748
270.370	7488
270.431	6689
270.492	6767
270.553	7996
270.613	14895
270.674	29388
270.734	15721
270.795	9942
270.856	12344
270.916	11322
270.977	8120
271.038	9158
271.098	11031
271.159	14957
271.219	16533
271.280	8847
271.340	7819
271.401	9167
271.462	19496
271.522	12549
271.583	9149
271.643	8650
271.704	10213
271.764	11212
271.825	21577
271.885	62676
271.946	91922
272.006	34521
272.066	38935
272.127	70817
272.187	30628
272.248	17145
272.308	16806
272.369	44422
272.429	31195
272.489	22213
272.550	26063
272.610	23988
272.671	21022
272.731	17282
272.791	26119
272.852	18404
272.912	15102
272.972	9304
273.033	11038
273.093	14275
273.153	17317
273.214	13139
273.274	14448
273.334	39100
273.394	74985
273.455	33279
273.515	29527
273.575	65050
273.635	31595
273.696	33886
273.756	65744
273.816	32597
273.876	20057
273.936	30433
273.997	53229
274.057	20121
274.117	15379
274.177	21506
274.237	78828
274.297	72197
274.358	46996
274.418	52959
274.478	43869
274.538	20721
274.598	15787
274.658	37951
274.718	51840
274.778	24427
274.838	14653
274.898	24307
274.958	68970
275.018	64523
275.078	46552
275.138	21032
275.198	13603
275.258	11183
275.318	12836
275.378	22134
275.438	24602
275.498	16875
275.558	30139
275.618	67316
275.678	50244
275.738	31897
275.798	27266
275.858	18331
275.918	10924
275.978	12806
276.038	12357
276.098	9770
276.157	18784
276.217	49685
276.277	25577
276.337	19196
276.397	11471
276.457	13184
276.517	10692
276.576	9557
276.636	9740
276.696	15697
276.756	30089
276.815	25757
276.875	13729
276.935	14346
276.995	14341
277.055	10390
277.114	11408
277.174	13891
277.234	39325
277.293	21226
277.353	13086
277.413	10220
277.472	11344
277.532	11822
277.592	14081
277.651	38232
277.711	79800
277.771	30619
277.830	82270
277.890	76670
277.950	49928
278.009	130499
278.069	60640
278.128	54237
278.188	82060
278.248	38413
278.307	85264
278.367	58561
278.426	20302
278.486	15472
278.545	12525
278.605	11516
278.664	11253
278.724	12889
278.783	25414
278.843	66226
278.902	25393
278.962	16318
279.021	18256
279.081	23034
279.140	24632
279.199	19774
279.259	19085
279.318	20763
279.378	27834
279.437	46321
279.496	129195
279.556	307729
279.615	276985
279.675	93797
279.734	56057
279.793	69244
279.853	103656
279.912	46032
279.971	27713
280.031	25914
280.090	40536
280.149	72701
280.208	62472
280.268	212488
280.327	243022
280.386	74909
280.445	50208
280.505	45988
280.564	26047
280.623	21949
280.682	26318
280.742	39872
280.801	16468
280.860	13213
280.919	13656
280.978	13064
281.037	12240
281.097	11045
281.156	12619
281.215	10471
281.274	14193
281.333	41470
281.392	38134
281.451	11706
281.510	11518
281.569	10598
281.628	9543
281.688	9519
281.747	10604
281.806	11742
281.865	10006
281.924	8511
281.983	9524
282.042	8057
282.101	8793
282.160	7923
282.219	8686
282.278	10382
282.337	25335
282.396	21357
282.454	11103
282.513	13353
282.572	37964
282.631	27051
282.690	11065
282.749	9649
282.808	12096
282.867	12870
282.926	12463
282.985	8963
283.043	8198
283.102	8673
283.161	10395
283.220	21757
283.279	45692
283.338	17851
283.396	11958
283.455	12025
283.514	12849
283.573	18541
283.631	15492
283.690	11411
283.749	11437
283.808	19756
283.866	25085
283.925	12422
283.984	12648
284.043	16043
284.101	16919
284.160	13781
284.219	18004
284.277	17035
284.336	22094
284.395	54352
284.453	51820
284.512	23885
284.570	28743
284.629	28966
284.688	28829
284.746	31235
284.805	36044
284.863	45905
284.922	58825
284.981	72260
285.039	103160
285.098	167698
285.156	304868
285.215	347853
285.273	344980
285.332	333090
285.390	209945
285.449	135701
285.507	95409
285.566	70268
285.624	54515
285.683	42932
285.741	34973
285.799	31077
285.858	26825
285.916	24420
285.975	20420
286.033	18684
286.091	17668
286.150	14794
286.208	14768
286.267	17126
286.325	16429
286.383	20901
286.442	19978
286.500	12891
286.558	12316
286.616	11770
286.675	14896
286.733	14223
286.791	12939
286.850	13715
286.908	15592
286.966	24417
287.024	14251
287.083	11176
287.141	10417
287.199	10391
287.257	14591
287.315	12131
287.374	13190
287.432	23950
287.490	19390
287.548	12670
287.606	11625
287.664	11327
287.723	15038
287.781	19654
287.839	14345
287.897	16000
287.955	20251
288.013	29893
288.071	63045
288.129	184587
288.187	425835
288.245	251566
288.303	92272
288.361	52788
288.419	41002
288.477	28856
288.535	20773
288.593	17056
288.651	14557
288.709	11877
288.767	11567
288.825	11364
288.883	9371
288.941	11127
288.999	9252
289.057	8495
289.115	9130
289.173	9352
289.231	9455
289.289	10282
289.346	9753
289.404	9894
289.462	15664
289.520	15583
289.578	9099
289.636	6653
289.694	7218
289.751	6526
289.809	7183
289.867	7634
289.925	9061
289.983	11396
290.040	8707
290.098	7439
290.156	8684
290.214	10626
290.271	7696
290.329	8044
290.387	7611
290.444	6048
290.502	5670
290.560	7088
290.617	7455
290.675	7453
290.733	8004
290.790	8258
290.848	7357
290.906	8315
290.963	8435
291.021	7739
291.078	8090
291.136	9666
291.194	22491
291.251	50629
291.309	18287
291.366	9020
291.424	9234
291.481	9383
291.539	10485
291.596	9222
291.654	6891
291.711	6554
291.769	7672
291.826	14203
291.884	11003
291.941	6985
291.999	6932
292.056	9157
292.114	10174
292.171	7177
292.228	8989
292.286	10686
292.343	15347
292.401	20987
292.458	15108
292.515	10811
292.573	11691
292.630	11481
292.687	10863
292.745	9706
292.802	12839
292.859	31758
292.917	46826
292.974	29515
293.031	12806
293.089	10116
293.146	8949
293.203	8675
293.260	7513
293.318	10402
293.375	16129
293.432	11033
293.489	8950
293.546	8980
293.604	12914
293.661	27846
293.718	70940
293.775	42012
293.832	20602
293.889	18741
293.947	19942
294.004	15111
294.061	13630
294.118	23779
294.175	48046
294.232	64880
294.289	30568
294.346	15786
294.403	14558
294.460	12153
294.517	11183
294.574	9305
294.631	9694
294.688	11884
294.745	23034
294.802	75207
294.859	94253
294.916	39692
294.973	23702
295.030	17408
295.087	15418
295.144	12071
295.201	10724
295.258	10095
295.315	12865
295.372	28225
295.429	56563
295.486	28616
295.542	18031
295.599	39100
295.656	72396
295.713	46439
295.770	56459
295.827	26327
295.883	14925
295.940	13577
295.997	19727
296.054	20215
296.111	12299
296.167	9274
296.224	8063
296.281	8719
296.338	8292
296.394	8969
296.451	11950
296.508	24843
296.564	49790
296.621	35397
296.678	57828
296.734	91109
296.791	38008
296.848	21347
296.904	20900
296.961	40500
297.018	61489
297.074	51273
297.131	22790
297.187	16992
297.244	21710
297.301	54140
297.357	103926
297.414	41537
297.470	17732
297.527	13868
297.583	13276
297.640	13224
297.696	10419
297.753	9825
297.809	7959
297.866	6787
297.922	8089
297.979	7693
298.035	9913
298.092	15129
298.148	35703
298.204	38832
298.261	19974
298.317	29573
298.374	73258
298.430	47735
298.486	21911
298.543	18624
298.599	18664
298.656	23493
298.712	31568
298.768	70922
298.824	58803
298.881	22068
298.937	14641
298.993	12007
299.050	14777
299.106	13250
299.162	11376
299.218	12022
299.275	10680
299.331	12936
299.387	20848
299.443	63057
299.500	83291
299.556	43036
299.612	21234
299.668	21303
299.724	32410
299.780	37984
299.837	21239
299.893	23332
299.949	60954
300.005	84220
300.061	61308
300.117	100872
300.173	53725
300.229	25436
300.285	27779
300.341	32167
300.397	18087
300.453	13579
300.510	13140
300.566	15066
300.622	20562
300.678	54889
300.734	90375
300.790	64930
300.845	72809
300.901	53292
300.957	76222
301.013	54612
301.069	23386
301.125	17538
301.181	18282
301.237	14539
301.293	11168
301.349	10564
301.405	11109
301.461	12082
301.516	18505
301.572	15572
301.628	21703
301.684	20718
301.740	26655
301.796	45445
301.851	30199
301.907	44391
301.963	48247
302.019	64394
302.074	162030
302.130	171239
302.186	85134
302.242	37865
302.297	26078
302.353	24062
302.409	40734
302.464	39687
302.520	31338
302.576	62610
302.631	76858
302.687	45316
302.743	21035
302.798	13957
302.854	12469
302.910	12925
302.965	16105
303.021	26018
303.076	25297
303.132	27594
303.187	34768
303.243	19237
303.299	12697
303.354	10196
303.410	10904
303.465	9577
303.521	9823
303.576	9934
303.632	13021
303.687	20865
303.743	53304
303.798	51488
303.853	21795
303.909	13048
303.964	12895
304.020	17327
304.075	27455
304.130	23156
304.186	39314
304.241	40965
304.297	33718
304.352	20317
304.358	19614
304.407	13914
304.449	13819
304.463	13793
304.518	15169
304.539	14422
304.573	13232
304.629	13189
304.630	13306
304.684	19193
304.720	33591
304.739	40719
304.794	65858
304.811	56573
304.850	34270
304.902	18148
304.905	17136
304.960	13280
304.992	14269
305.015	14970
305.071	14475
305.083	13903
305.126	11745
305.173	9293
305.181	8927
305.236	8282
305.264	9331
305.292	10483
305.347	12428
305.354	12852
305.402	15252
305.445	14939
305.457	14877
305.512	17762
305.535	17662
305.567	17502
305.622	18700
305.626	19092
305.678	29652
305.716	54184
305.733	62516
305.788	75268
305.807	64833
305.843	47417
305.897	55773
305.898	55818
305.953	59261
305.988	41093
306.008	31383
306.063	22441
306.078	20685
306.118	16501
306.168	11832
306.173	11452
306.228	10514
306.259	9742
306.283	9225
306.338	8816
306.349	9114
306.393	10810
306.440	12889
306.448	13149
306.503	13954
306.530	15034
306.558	19113
306.613	37027
306.620	39831
306.668	55980
306.711	65092
306.723	65106
306.778	53043
306.801	40811
306.833	26802
306.888	15363
306.892	14945
306.943	12670
306.982	11740
306.997	11476
307.052	11112
307.072	11220
307.107	12465
307.162	15903
307.163	15975
307.217	23692
307.253	28192
307.272	29204
307.327	31984
307.343	29777
307.381	25172
307.434	22004
307.436	22416
307.491	40599
307.524	58291
307.546	62838
307.600	60029
307.614	53744
307.655	34507
307.704	21379
307.710	20977
307.765	23453
307.795	28269
307.819	33210
307.874	53250
307.885	53496
307.929	45140
307.975	35023
307.984	35486
308.038	48230
308.065	59453
308.093	96013
308.148	187440
308.156	206880
308.202	297067
308.246	357426
308.257	350061
308.312	212245
308.336	155041
308.366	117269
308.421	75103
308.426	71363
308.475	48649
308.517	36306
308.530	34217
308.585	28994
308.607	28001
308.639	28252
308.694	29834
308.697	30130
308.748	47554
308.787	67103
308.803	67470
308.857	55392
308.877	47910
308.912	42010
308.967	41677
308.967	41728
309.021	57835
309.058	72241
309.076	89453
309.130	150487
309.148	174163
309.185	270165
309.238	428650
309.239	429899
309.293	457898
309.328	439186
309.348	392310
309.402	222465
309.418	178537
309.457	131627
309.508	85283
309.511	84210
309.566	79110
309.598	78742
309.620	89833
309.674	124177
309.688	133919
309.729	129655
309.778	111707
309.783	109263
309.837	77248
309.868	61047
309.892	65543
309.946	80986
309.959	86662
310.001	103030
310.049	117143
310.055	113336
310.109	69183
310.139	43832
310.163	35768
310.218	24584
310.229	22710
310.272	19303
310.319	16336
310.326	16025
310.381	14376
310.409	13774
310.435	13691
310.489	13622
310.499	13589
310.543	13705
310.589	14395
310.598	14439
310.652	14655
310.679	14517
310.706	13458
310.760	11292
310.769	10932
310.814	9970
310.859	9550
310.868	9680
310.923	10210
310.948	10618
310.977	11357
311.031	12688
311.038	12896
311.085	12694
311.128	12011
311.139	11901
311.193	11417
311.218	11253
311.247	10759
311.301	9787
311.308	9655
311.356	9774
311.398	10056
311.410	10063
311.464	9918
311.488	9833
311.518	9948
311.572	10205
311.578	10243
311.626	13206
311.668	15774
311.680	15847
311.734	15972
311.758	16015
311.788	15921
311.842	15685
311.847	15648
311.896	19767
311.937	23404
311.950	22985
312.004	20968
312.027	19998
312.058	16940
312.112	11520
312.117	10976
312.165	10704
312.207	10476
312.297	17397
312.386	13667
312.476	12882
312.566	24929
312.656	12012
312.745	9857
312.835	10766
312.925	13241
313.015	10964
313.104	13337
313.194	11076
313.284	11256
313.374	14793
313.463	13301
313.553	11041
313.643	10673
313.732	10156
313.822	10295
313.912	12170
314.001	13753
314.091	15668
314.180	21225
314.270	17287
314.360	18695
314.449	16072
314.539	12259
314.628	11011
314.718	14066
314.808	17155
314.897	12870
314.987	12853
315.076	16794
315.166	18415
315.255	17575
315.345	17218
315.434	16888
315.524	16249
315.613	19041
315.703	23829
315.792	41765
315.881	128883
315.971	45612
316.060	31023
316.150	40628
316.239	41120
316.328	18338
316.418	12427
316.507	14043
316.597	17248
316.686	17083
316.775	23598
316.865	41954
316.954	13545
317.043	11800
317.133	11979
317.222	11359
317.311	10858
317.400	10500
317.490	15386
317.579	18364
317.668	16107
317.757	27221
317.847	66380
317.936	212748
318.025	75898
318.114	51960
318.203	30540
318.293	35194
318.382	68183
318.471	50766
318.560	66022
318.649	108893
318.738	25569
318.828	18331
318.917	18624
319.006	24063
319.095	52773
319.184	132857
319.273	67638
319.362	36118
319.451	15441
319.540	14491
319.629	29285
319.718	46608
319.807	26872
319.896	48258
319.985	155713
320.074	54335
320.163	20032
320.252	29059
320.341	25815
320.430	24491
320.519	27230
320.608	17941
320.697	17953
320.786	17154
320.875	21665
320.964	26563
321.053	35710
321.142	50596
321.230	52269
321.319	45320
321.408	90034
321.497	41964
321.586	39435
321.675	46616
321.764	41797
321.852	31618
321.941	51367
322.030	36900
322.119	41680
322.207	89563
322.296	66948
322.385	42668
322.474	46965
322.562	111525
322.651	58934
322.740	44901
322.829	58016
322.917	57187
323.006	35228
323.095	31620
323.183	24532
323.272	36511
323.361	58702
323.449	148496
323.538	54889
323.626	109571
323.715	63859
323.804	33876
323.892	99189
323.981	53788
324.069	22628
324.158	58149
324.246	48472
324.335	22311
324.424	32098
324.512	16194
324.601	23538
324.689	56275
324.778	99343
324.866	44574
324.954	15339
325.043	15083
325.131	27421
325.220	44498
325.308	47968
325.397	36855
325.485	22986
325.574	11568
325.662	11139
325.750	12078
325.839	10820
325.927	10140
326.015	13926
326.104	20599
326.192	25008
326.280	10870
326.369	10933
326.457	16481
326.545	25971
326.634	12652
326.722	9509
326.810	10853
326.898	10838
326.987	15293
327.075	25839
327.163	27736
327.251	18801
327.340	46109
327.428	60048
327.516	16065
327.604	13142
327.692	11907
327.781	14340
327.869	21070
327.957	15072
328.045	12956
328.133	9132
328.221	11747
328.309	10434
328.397	10088
328.485	13865
328.574	20660
328.662	55988
328.750	32599
328.838	14044
328.926	10013
329.014	9512
329.102	14863
329.190	37018
329.278	22869
329.366	8736
329.454	7937
329.542	8435
329.630	9240
329.718	10221
329.806	13641
329.893	14565
329.981	16415
330.069	26952
330.157	91350
330.245	231358
330.333	120123
330.421	25440
330.509	23231
330.597	64240
330.684	42395
330.772	19088
330.860	26132
330.948	33425
331.036	15914
331.123	8741
331.211	9392
331.299	13553
331.387	30988
331.475	47362
331.562	16561
331.650	9560
331.738	11885
331.825	15231
331.913	9023
332.001	8449
332.089	12996
332.176	25589
332.264	54130
332.352	40016
332.439	16282
332.527	12319
332.614	10706
332.702	13217
332.790	13051
332.877	28332
332.965	53905
333.052	20531
333.140	22762
333.228	50347
333.315	16960
333.403	14564
333.490	36097
333.578	34652
333.665	64872
333.753	31058
333.840	14466
333.928	17016
334.015	39932
334.103	60896
334.190	158176
334.278	48338
334.365	32294
334.452	27279
334.540	19955
334.627	22123
334.715	31993
334.802	57440
334.889	205361
334.977	188662
335.064	46471
335.151	23936
335.239	22496
335.326	28142
335.413	92107
335.501	104920
335.588	23081
335.675	19635
335.762	26983
335.850	40546
335.937	42691
336.024	87158
336.111	239127
336.199	118536
336.286	39257
336.373	21871
336.460	15920
336.547	14707
336.635	16657
336.722	14219
336.809	13833
336.896	21427
336.983	59608
337.070	129623
337.157	165811
337.245	122423
337.332	77754
337.419	15312
337.506	13400
337.593	16786
337.680	50002
337.767	124623
337.854	38273
337.941	42299
338.028	44874
338.115	18273
338.202	23720
338.289	41098
338.376	116477
338.463	40800
338.550	79899
338.637	74223
338.724	29465
338.811	37326
338.898	11662
338.984	10564
339.071	13617
339.158	14869
339.245	35454
339.332	21605
339.419	29274
339.506	24904
339.593	8339
339.679	9447
339.766	9676
339.853	13635
339.940	24612
340.027	9960
340.113	10380
340.200	13808
340.287	11147
340.374	14338
340.460	23364
340.547	11922
340.634	19622
340.720	60393
340.807	34044
340.894	9621
340.980	10356
341.067	8035
341.154	11131
341.240	16082
341.327	32280
341.414	13618
341.500	14865
341.587	10691
341.674	10283
341.760	21676
341.847	24178
341.933	9564
342.020	5690
342.106	6502
342.193	10188
342.279	17116
342.366	14159
342.452	21569
342.539	14107
342.625	29533
342.712	64991
342.798	26851
342.885	12770
342.971	6627
343.058	6851
343.144	6908
343.230	8014
343.317	8737
343.403	7850
343.490	6375
343.576	7936
343.662	7851
343.749	10612
343.835	13411
343.921	23771
344.008	111520
344.094	222445
344.180	51094
344.267	24618
344.353	74195
344.439	73104
344.525	31854
344.612	14829
344.698	12786
344.784	10378
344.870	7864
344.957	8511
345.043	13642
345.129	11314
345.215	20720
345.301	13621
345.387	9395
345.474	6646
345.560	7889
345.646	9646
345.732	8565
345.818	11635
345.904	10578
345.990	11147
346.076	11525
346.162	20809
346.249	10136
346.335	8479
346.421	10620
346.507	34117
346.593	96584
346.679	24021
346.765	11883
346.851	13268
346.937	11504
347.023	9359
347.108	11465
347.194	9512
347.280	9411
347.366	14129
347.452	41138
347.538	123290
347.624	87085
347.710	70883
347.796	14482
347.882	11011
347.967	9008
348.053	14572
348.139	10741
348.225	8029
348.311	7659
348.397	8594
348.482	10865
348.568	12648
348.654	9740
348.740	23547
348.825	24737
348.911	19853
348.997	60309
349.083	101173
349.168	19652
349.254	10931
349.340	10520
349.425	8314
349.511	12198
349.597	15430
349.682	25678
349.768	72533
349.854	33229
349.939	10445
350.025	7960
350.110	8632
350.196	7477
350.282	6264
350.367	7406
350.453	13736
350.538	13882
350.624	13581
350.709	11841
350.795	7598
350.880	8234
350.966	10329
351.051	13817
351.137	11007
351.222	10151
351.308	26641
351.393	64331
351.479	18257
351.564	8224
351.649	8734
351.735	7515
351.820	7598
351.906	8183
351.991	13272
352.076	44316
352.162	59023
352.247	13456
352.332	11928
352.418	20012
352.503	26392
352.588	93017
352.673	71317
352.759	17671
352.844	10419
352.929	12141
353.014	15668
353.100	11368
353.185	20811
353.270	26384
353.355	24675
353.441	9909
353.526	12240
353.611	22310
353.696	25131
353.781	15493
353.866	8710
353.952	10192
354.037	23409
354.122	45912
354.207	42851
354.292	17953
354.377	9391
354.462	8309
354.547	12802
354.632	11457
354.717	19723
354.802	24402
354.887	10700
354.972	7479
355.057	7217
355.142	6248
355.227	10500
355.312	16700
355.397	34393
355.482	74081
355.567	35913
355.652	27845
355.737	30265
355.822	86381
355.907	62887
355.991	12684
356.076	8814
356.161	8508
356.246	8186
356.331	10346
356.416	24324
356.501	129650
356.585	120477
356.670	21334
356.755	16878
356.840	24320
356.924	103324
357.009	294982
357.094	104896
357.179	29433
357.263	20962
357.348	20333
357.433	20380
357.517	18342
357.602	16559
357.687	14372
357.771	29423
357.856	85649
357.941	46782
358.025	77945
358.110	280453
358.195	123854
358.279	24783
358.364	20082
358.448	62636
358.533	155584
358.617	112409
358.702	108429
358.787	39871
358.871	26764
358.956	21645
359.040	9839
359.125	9579
359.209	12973
359.294	45200
359.378	69624
359.462	27577
359.547	14790
359.631	11238
359.716	8324
359.800	10423
359.885	16296
359.969	10463
360.053	10676
360.138	12211
360.222	14577
360.306	25577
360.391	21833
360.475	48370
360.559	90711
360.644	65832
360.728	44591
360.812	78649
360.896	180900
360.981	83496
361.065	47814
361.149	15894
361.233	14957
361.318	13579
361.402	16864
361.486	13637
361.570	11281
361.654	16142
361.739	35340
361.823	131548
361.907	177279
361.991	37434
362.075	27968
362.159	53702
362.243	47912
362.327	71918
362.411	91820
362.495	42484
362.580	21797
362.664	18245
362.748	19456
362.832	29752
362.916	58941
363.000	169829
363.084	308083
363.168	255916
363.252	66672
363.336	32411
363.420	40778
363.503	124857
363.587	127417
363.671	29950
363.755	23451
363.839	30341
363.923	19196
364.007	36344
364.091	42256
364.175	74047
364.258	223966
364.342	246433
364.426	343613
364.510	177010
364.594	67698
364.677	59080
364.761	173134
364.845	110350
364.929	46749
365.013	36252
365.096	32251
365.180	37161
365.264	57814
365.347	178074
365.431	74436
365.515	25027
365.598	13636
365.682	13295
365.766	25500
365.849	29870
365.933	16099
366.017	21172
366.100	16780
366.184	10990
366.267	11930
366.351	11295
366.435	10041
366.518	8634
366.602	8648
366.685	10203
366.769	12153
366.852	22795
366.936	33163
367.019	19647
367.103	19190
367.186	32812
367.270	12587
367.353	8958
367.436	11244
367.520	10650
367.603	14139
367.687	18521
367.770	30220
367.853	20313
367.937	56592
368.020	80772
368.104	22874
368.187	24248
368.270	31457
368.353	28347
368.437	40309
368.520	82077
368.603	48775
368.687	67720
368.770	111512
368.853	30503
368.936	32107
369.020	32760
369.103	12724
369.186	11587
369.269	12700
369.352	21514
369.436	28121
369.519	19772
369.602	11714
369.685	13547
369.768	12697
369.851	12075
369.934	8399
370.018	13003
370.101	24443
370.184	22042
370.267	18529
370.350	29917
370.433	44002
370.516	102204
370.599	131783
370.682	49925
370.765	66911
370.848	78535
370.931	136633
371.014	53167
371.097	15054
371.180	11525
371.263	9640
371.346	8243
371.429	10262
371.511	10975
371.594	18333
371.677	30194
371.760	35482
371.843	29099
371.926	113550
372.009	227692
372.091	75306
372.174	60773
372.257	126798
372.340	49434
372.423	48834
372.505	54268
372.588	24431
372.671	48641
372.754	135204
372.836	66431
372.919	64765
373.002	110183
373.085	34875
373.167	28794
373.250	63857
373.332	127414
373.415	167138
373.498	309631
373.580	120739
373.663	200097
373.746	226658
373.828	54011
373.911	26927
373.993	33906
374.076	113912
374.159	94841
374.241	44537
374.324	118905
374.406	75739
374.489	103392
374.571	255300
374.654	103101
374.736	59536
374.819	167470
374.901	230204
374.983	217004
375.066	44132
375.148	25918
375.231	96570
375.313	161047
375.395	61229
375.478	18258
375.560	15351
375.643	19657
375.725	59016
375.807	208267
375.890	157007
375.972	74137
376.054	44709
376.136	67392
376.219	31490
376.301	68180
376.383	174737
376.465	63863
376.548	46134
376.630	59447
376.712	152293
376.794	64947
376.877	12870
376.959	9267
377.041	12014
377.123	28566
377.205	30503
377.287	9585
377.369	8806
377.452	10143
377.534	9316
377.616	9409
377.698	9342
377.780	8412
377.862	10500
377.944	10970
378.026	7355
378.108	8738
378.190	7873
378.272	8708
378.354	7390
378.436	8319
378.518	18774
378.600	52754
378.682	41795
378.764	83909
378.846	59801
378.928	23101
379.010	29090
379.091	16582
379.173	10634
379.255	10051
379.337	14189
379.419	44862
379.501	114499
379.583	44657
379.664	16017
379.746	33923
379.828	84099
379.910	109749
379.991	89483
380.073	19296
380.155	14056
380.237	11095
380.318	10116
380.400	11445
380.482	21020
380.564	31322
380.645	31893
380.727	28997
380.809	17351
380.890	14236
380.972	11909
381.053	11868
381.135	14293
381.217	33481
381.298	84864
381.380	43119
381.461	40233
381.543	160639
381.624	174018
381.706	37251
381.787	25156
381.869	27440
381.951	75965
382.032	244279
382.113	144270
382.195	40316
382.276	32069
382.358	61913
382.439	142396
382.521	157050
382.602	228825
382.684	118344
382.765	226414
382.846	303986
382.928	482759
383.009	262199
383.090	216270
383.172	677953
383.253	869298
383.334	310354
383.416	248077
383.497	133879
383.578	95985
383.659	187971
383.741	609458
383.822	1201508
383.903	604786
383.984	229290
384.066	287086
384.147	169738
384.228	47794
384.309	39246
384.390	31568
384.471	26385
384.553	26168
384.634	32910
384.715	30911
384.796	20578
384.877	26764
384.958	82499
385.039	92185
385.120	36773
385.201	20392
385.282	26884
385.363	29153
385.444	27979
385.525	45655
385.606	118096
385.687	91309
385.768	31303
385.849	38078
385.930	125087
386.011	185584
386.092	53603
386.173	20402
386.254	18486
386.335	18914
386.416	23195
386.496	59292
386.577	84501
386.658	35994
386.739	25635
386.820	25817
386.901	21170
386.981	19911
387.062	17966
387.143	28696
387.224	88628
387.304	78683
387.385	36176
387.466	29854
387.547	35603
387.627	27586
387.708	43457
387.789	147485
387.869	162744
387.950	47951
388.031	17085
388.111	18043
388.192	39466
388.273	51106
388.353	31032
388.434	19707
388.514	35308
388.595	128008
388.676	154977
388.756	80302
388.837	79618
388.917	47694
388.998	17012
389.078	15133
389.159	14041
389.239	13594
389.320	20161
389.400	18018
389.480	38724
389.561	88060
389.641	42297
389.722	19832
389.802	30959
389.883	42101
389.963	100326
390.043	62879
390.124	27458
390.204	38537
390.284	97927
390.365	63388
390.445	93893
390.525	216278
390.605	170351
390.686	55963
390.766	26489
390.846	15499
390.927	13204
391.007	14230
391.087	18351
391.167	22907
391.247	19107
391.328	24455
391.408	33758
391.488	25370
391.568	13952
391.648	17782
391.728	23965
391.808	23544
391.888	27412
391.969	55725
392.049	80699
392.129	43212
392.209	50777
392.289	101479
392.369	63916
392.449	64200
392.529	44472
392.609	38238
392.689	49920
392.769	113101
392.849	100265
392.929	95351
393.009	183634
393.089	169328
393.169	226618
393.248	614767
393.328	1381760
393.408	1317770
393.488	561074
393.568	207578
393.648	107573
393.728	68674
393.807	50850
393.887	42858
393.967	37841
394.047	39120
394.127	41433
394.206	61807
394.286	191378
394.366	642424
394.446	630165
394.525	175663
394.605	57324
394.685	46903
394.764	86752
394.844	140925
394.924	100524
395.003	35007
395.083	25627
395.163	23838
395.242	21762
395.322	22362
395.402	20040
395.481	26346
395.561	65237
395.640	157491
395.720	150912
395.799	173804
395.879	122150
395.958	89394
396.038	276855
396.117	830123
396.197	829373
396.276	303233
396.356	121483
396.435	94588
396.515	76370
396.594	96627
396.673	188392
396.753	578267
396.832	1238479
396.912	912986
396.991	289694
397.070	103601
397.150	59917
397.229	47022
397.308	75622
397.388	123661
397.467	60671
397.546	26935
397.625	21456
397.705	24144
397.784	23466
397.863	16463
397.942	13884
398.022	16102
398.101	53493
398.180	129019
398.259	63706
398.338	21228
398.417	17415
398.497	13013
398.576	14399
398.655	10376
398.734	10652
398.813	13860
398.892	48792
398.971	136262
399.050	60946
399.129	12036
399.208	8784
399.287	8995
399.366	8538
399.445	9435
399.524	9024
399.603	9159
399.682	18101
399.761	47230
399.840	144117
399.919	96035
399.998	16621
400.077	7957
400.156	7691
400.235	10543
400.313	9972
400.392	13015
400.471	45830
400.550	68053
400.629	20409
400.708	12168
400.786	14103
400.865	35572
400.944	35441
401.023	16231
401.102	6413
401.180	6303
401.259	7610
401.338	9539
401.416	12107
401.495	11614
401.574	9771
401.652	8148
401.731	11982
401.810	11214
401.888	8089
401.967	7060
402.046	10824
402.124	12988
402.203	14738
402.281	10431
402.360	20089
402.438	44358
402.517	28355
402.596	11469
402.674	11452
402.753	7464
402.831	7598
402.910	10706
402.988	39796
403.066	114966
403.145	61299
403.223	39230
403.302	95049
403.380	68123
403.459	69623
403.537	28557
403.615	13054
403.694	5758
403.772	7099
403.850	6091
403.929	6277
404.007	6291
404.085	16300
404.164	17762
404.242	8055
404.320	9550
404.398	19395
404.477	49013
404.555	192976
404.633	149016
404.711	26131
404.789	11562
404.868	9284
404.946	6166
405.024	5782
405.102	4884
405.180	4624
405.258	4944
405.336	6180
405.415	7631
405.493	16901
405.571	14683
405.649	7334
405.727	6726
405.805	11330
405.883	10511
405.961	12713
406.039	13990
406.117	7076
406.195	12616
406.273	50903
406.351	168533
406.429	92073
406.507	20082
406.585	9547
406.663	8403
406.740	11139
406.818	9426
406.896	7077
406.974	7370
407.052	18547
407.130	102363
407.208	130122
407.285	26119
407.363	7460
407.441	7583
407.519	7148
407.596	8561
407.674	24940
407.752	71946
407.830	66560
407.907	25947
407.985	10650
408.063	6673
408.141	7224
408.218	14847
408.296	14803
408.373	9940
408.451	9938
408.529	8641
408.606	5445
408.684	5191
408.762	4986
408.839	5274
408.917	5485
408.994	6534
409.072	8362
409.149	9131
409.227	17368
409.304	21993
409.382	22230
409.459	23406
409.537	32576
409.614	29133
409.692	21947
409.769	22227
409.846	32974
409.924	42201
410.001	33023
410.079	22408
410.156	16260
410.233	14572
410.311	12306
410.388	10041
410.465	12132
410.543	12211
410.620	9403
410.697	9904
410.775	10665
410.852	7222
410.929	13303
411.006	15259
411.083	11620
411.161	23812
411.238	23614
411.315	13445
411.392	7870
411.469	12107
411.547	13802
411.624	8290
411.701	7221
411.778	9310
411.855	16598
411.932	9763
412.009	7169
412.086	6273
412.163	8097
412.240	8461
412.317	11995
412.394	11654
412.471	6177
412.548	4717
412.625	5858
412.702	8796
412.779	17693
412.856	11333
412.933	5648
413.010	5297
413.087	10985
413.164	44651
413.241	56584
413.318	13282
413.395	11751
413.471	15570
413.548	8211
413.625	6120
413.702	8242
413.779	7029
413.855	3613
413.932	4180
414.009	3369
414.086	4287
414.162	4705
414.239	10276
414.316	42957
414.393	84827
414.469	28315
414.546	5267
414.623	4189
414.699	5000
414.776	7059
414.853	4833
414.929	5950
415.006	5781
415.082	7727
415.159	5824
415.236	5202
415.312	5673
415.389	11207
415.465	13832
415.542	8120
415.618	5562
415.695	10031
415.771	7400
415.848	7364
415.924	7059
416.000	5355
416.077	5346
416.153	3496
416.230	2476
416.306	3763
416.383	5001
416.459	4311
416.535	4256
416.612	4101
416.688	4280
416.764	4789
416.841	4752
416.917	5342
416.993	4472
417.069	6900
417.146	9008
417.222	11208
417.298	7667
417.374	4960
417.451	5880
417.527	7851
417.603	8058
417.679	6222
417.755	6184
417.831	3234
417.908	4247
417.984	4000
418.060	3739
418.136	12728
418.212	15171
418.288	7313
418.364	5345
418.440	5650
418.516	9541
418.592	14679
418.668	21113
418.744	28403
418.820	20138
418.896	7177
418.972	3759
419.048	6335
419.124	14172
419.200	11145
419.276	5136
419.352	3455
419.428	4433
419.504	6105
419.579	7501
419.655	6933
419.731	6947
419.807	20622
419.883	33049
419.959	22121
420.034	8529
420.110	16638
420.186	56226
420.262	40157
420.337	10919
420.413	9627
420.489	6679
420.565	7727
420.640	5958
420.716	8296
420.792	6063
420.867	8301
420.943	8267
421.019	13438
421.094	11392
421.170	8986
421.245	8508
421.321	11101
421.397	11868
421.472	20698
421.548	44254
421.623	31079
421.699	16973
421.774	17636
421.850	18517
421.925	25971
422.001	27145
422.076	28714
422.152	36284
422.227	52477
422.302	67421
422.378	103774
422.453	185712
422.529	384834
422.604	656501
422.679	649354
422.755	618699
422.830	381890
422.905	186494
422.981	111116
423.056	72886
423.131	52859
423.207	41571
423.282	36138
423.357	39671
423.432	29645
423.508	29048
423.583	40935
423.658	30211
423.733	17888
423.808	18471
423.883	19175
423.959	19661
424.034	19229
424.109	16573
424.184	12154
424.259	9787
424.334	9099
424.409	8001
424.484	8336
424.559	9246
424.634	8792
424.709	10400
424.784	11952
424.859	8641
424.934	13175
425.009	41882
425.084	63095
425.159	23564
425.234	8053
425.309	7224
425.384	28385
425.459	41426
425.534	13087
425.609	7527
425.683	5669
425.758	5110
425.833	7504
425.908	8516
425.983	27685
426.058	64343
426.132	28754
426.207	9311
426.282	14640
426.357	11886
426.431	6387
426.506	5555
426.581	6960
426.655	5542
426.730	5909
426.805	5085
426.879	6518
426.954	6477
427.029	14108
427.103	64315
427.178	141114
427.253	56648
427.327	12032
427.402	19405
427.476	47348
427.551	21573
427.625	8938
427.700	7623
427.774	6155
427.849	7670
427.923	5866
427.998	6536
428.072	8445
428.147	21013
428.221	90249
428.296	234949
428.370	110699
428.444	19399
428.519	20113
428.593	34502
428.667	27992
428.742	35215
428.816	44674
428.890	167498
428.965	233786
429.039	72499
429.113	39169
429.188	15393
429.262	7982
429.336	12545
429.410	32341
429.485	22232
429.559	29064
429.633	21113
429.707	11696
429.781	36705
429.855	176268
429.930	225854
430.004	106931
430.078	147262
430.152	151879
430.226	301447
430.300	261040
430.374	51144
430.448	20783
430.522	54636
430.596	131842
430.670	91159
430.744	233790
430.818	264951
430.892	51690
430.966	11268
431.040	7581
431.114	4852
431.188	5356
431.262	6060
431.336	5841
431.410	16671
431.484	40126
431.557	22466
431.631	6887
431.705	11156
431.779	58084
431.853	210780
431.927	128771
432.000	18131
432.074	7307
432.148	7712
432.222	6523
432.295	4698
432.369	5073
432.443	11179
432.516	63020
432.590	136552
432.664	46313
432.737	7814
432.811	2865
432.885	2919
432.958	3760
433.032	2963
433.106	2083
433.179	2193
433.253	3185
433.326	3134
433.400	2687
433.473	2713
433.547	2352
433.620	3657
433.694	7830
433.767	8635
433.841	4183
433.914	3467
433.988	3902
434.061	3994
434.134	3947
434.208	1979
434.281	2145
434.355	2670
434.428	3928
434.501	3690
434.575	3275
434.648	2880
434.721	2247
434.795	2003
434.868	2369
434.941	2679
435.014	2715
435.088	3922
435.161	8173
435.234	11342
435.307	13280
435.381	9309
435.454	10787
435.527	15627
435.600	16534
435.673	12835
435.746	10917
435.819	8579
435.892	7080
435.966	5013
436.039	5068
436.112	5001
436.185	3394
436.258	2804
436.331	2504
436.404	1662
436.477	2312
436.550	2070
436.623	3375
436.696	2131
436.769	3823
436.842	3281
436.915	5365
436.987	6052
437.060	3136
437.133	1961
437.206	3568
437.279	2970
437.352	2857
437.425	2909
437.498	3992
437.570	8850
437.643	7984
437.716	2517
437.789	3672
437.861	10696
437.934	26554
438.007	10740
438.080	3327
438.152	4708
438.225	12548
438.298	77931
438.370	180758
438.443	69640
438.516	22087
438.588	5993
438.661	3440
438.734	3568
438.806	4635
438.879	4598
438.951	8601
439.024	13647
439.096	5277
439.169	2763
439.241	2816
439.314	2803
439.386	7669
439.459	10300
439.531	14688
439.604	6650
439.676	2816
439.749	2154
439.821	2373
439.893	2156
439.966	2797
440.038	5368
440.110	5695
440.183	3051
440.255	3349
440.327	6583
440.400	36069
440.472	125178
440.544	68944
440.617	11586
440.689	10862
440.761	13918
440.833	21160
440.905	12496
440.978	2831
441.050	2432
441.122	3338
441.194	2033
441.266	3471
441.338	3206
441.411	8774
441.483	42386
441.555	52284
441.627	12631
441.699	10666
441.771	9406
441.843	4156
441.915	3718
441.987	4337
442.059	4215
442.131	7346
442.203	10385
442.275	12777
442.347	14130
442.419	30511
442.491	144740
442.563	295878
442.635	114608
442.706	49603
442.778	28764
442.850	9202
442.922	6776
442.994	9462
443.066	12063
443.137	11215
443.209	12641
443.281	19531
443.353	46558
443.425	172860
443.496	498954
443.568	466066
443.640	172529
443.711	38643
443.783	16552
443.855	10235
443.926	7618
443.998	8257
444.070	9173
444.141	8221
444.213	10589
444.285	11804
444.356	10032
444.428	9691
444.499	5707
444.571	4605
444.642	4727
444.714	6006
444.785	10025
444.857	13979
444.928	28519
445.000	18052
445.071	23395
445.143	25655
445.214	22207
445.285	41786
445.357	110490
445.428	346493
445.500	614557
445.571	433338
445.642	249776
445.714	92266
445.785	54504
445.856	20208
445.928	15269
445.999	14053
446.070	10483
446.141	11080
446.213	10992
446.284	7226
446.355	7632
446.426	5351
446.497	5499
446.569	10562
446.640	12652
446.711	8625
446.782	4371
446.853	6420
446.924	6193
446.995	4917
447.066	5243
447.138	10663
447.209	4493
447.280	2116
447.351	2370
447.422	2727
447.493	4611
447.564	5878
447.635	7409
447.706	3692
447.777	1727
447.847	2038
447.918	2888
447.989	5452
448.060	8179
448.131	17821
448.202	13833
448.273	8997
448.344	4171
448.414	3235
448.485	2336
448.556	3343
448.627	1257
448.698	2337
448.768	1974
448.839	2930
448.910	8943
448.981	7673
449.051	3407
449.122	2567
449.193	2512
449.263	2552
449.334	2115
449.405	4970
449.475	10920
449.546	7798
449.616	11635
449.687	8414
449.758	4665
449.828	2979
449.899	2450
449.969	2329
450.040	2089
450.110	5193
450.181	5574
450.251	2532
450.322	2485
450.392	3360
450.463	2508
450.533	2666
450.604	2395
450.674	2825
450.744	3585
450.815	3368
450.885	3488
450.955	3421
451.026	2612
451.096	2974
451.166	4815
451.237	13605
451.307	27713
451.377	9685
451.447	3500
451.518	2219
451.588	2672
451.658	3872
451.728	7705
451.799	29602
451.869	27026
451.939	5141
452.009	1956
452.079	2258
452.149	3865
452.219	9910
452.289	33893
452.360	19500
452.430	5027
452.500	5897
452.570	7882
452.640	16689
452.710	45316
452.780	52484
452.850	28919
452.920	21073
452.990	7943
453.060	5727
453.129	7253
453.199	10971
453.269	40604
453.339	67869
453.409	95182
453.479	116113
453.549	155040
453.619	156069
453.688	48330
453.758	8803
453.828	4557
453.898	4328
453.968	3249
454.037	3221
454.087	2979
454.107	2858
454.168	1976
454.177	1818
454.247	2581
454.249	2606
454.316	2693
454.330	3096
454.386	4466
454.411	9829
454.456	18234
454.492	19546
454.525	20728
454.574	10914
454.595	6705
454.655	4252
454.665	3920
454.734	5549
454.736	5758
454.804	10615
454.817	14757
454.873	30092
454.898	29649
454.943	27908
454.979	18819
455.013	11054
455.060	7517
455.082	6520
455.141	8595
455.152	8681
455.221	23061
455.222	23389
455.291	35817
455.303	32769
455.360	18999
455.384	21107
455.430	24802
455.465	22194
455.499	19167
455.546	25664
455.569	27882
455.627	15166
455.638	13077
455.707	4372
455.708	4396
455.777	3048
455.789	3247
455.846	4229
455.869	3816
455.916	3073
455.950	3457
455.985	3609
456.031	3952
456.054	4069
456.112	3337
456.124	3267
456.193	3655
456.193	3626
456.262	4763
456.274	5070
456.332	6278
456.355	6797
456.401	6719
456.436	5477
456.470	4488
456.516	3228
456.540	2716
456.597	2888
456.609	2864
456.678	3386
456.678	3368
456.747	2702
456.759	2719
456.817	2980
456.840	3240
456.886	3496
456.920	3625
456.955	3992
457.001	4114
457.024	4460
457.082	6083
457.093	6312
457.162	9100
457.163	9156
457.232	10291
457.243	9748
457.301	5886
457.324	4866
457.370	4227
457.405	4636
457.439	5035
457.485	5144
457.508	5310
457.566	6199
457.577	6502
457.646	9532
457.647	9594
457.715	18841
457.727	21077
457.784	35351
457.808	46133
457.853	59575
457.889	68889
457.922	67903
457.969	43881
457.991	43163
458.050	55378
458.060	57645
458.129	99466
458.130	100608
458.198	100435
458.211	90284
458.267	47005
458.292	32166
458.336	21134
458.372	19675
458.405	27106
458.453	42392
458.474	54430
458.533	99407
458.543	103097
458.611	165472
458.614	166073
458.680	97660
458.694	76817
458.749	33974
458.775	23556
458.818	13974
458.855	11320
458.887	9816
458.936	8853
458.955	8413
459.016	7571
459.024	7546
459.093	7189
459.097	7246
459.162	7592
459.177	7556
459.230	7805
459.257	8278
459.299	8901
459.338	9148
459.368	9408
459.418	10755
459.437	10537
459.499	7401
459.505	7203
459.574	6876
459.579	6813
459.643	5922
459.659	5804
459.711	6074
459.740	6483
459.780	6921
459.820	7378
459.849	7695
459.900	8432
459.917	8500
459.981	8369
459.986	8311
460.054	7226
460.061	7220
460.123	7333
460.141	7239
460.191	8640
460.222	9730
460.260	10374
460.302	11317
460.328	10904
460.382	8912
460.397	8715
460.462	8319
460.465	8465
460.534	12691
460.543	13251
460.602	33606
460.623	41587
460.671	61539
460.703	82229
460.739	79797
460.783	63824
460.808	52163
460.864	13715
460.876	10796
460.944	8530
460.945	8493
461.013	7822
461.024	7710
461.081	7439
461.104	7623
461.150	7428
461.184	7196
461.218	7287
461.264	7046
461.286	7328
461.345	8290
461.355	8194
461.423	7840
461.425	7823
461.491	8510
461.505	8733
461.559	16414
461.585	20263
461.628	31380
461.665	42428
461.696	46743
461.745	57115
461.764	50545
461.825	15809
461.832	14837
461.901	9806
461.905	9677
461.969	8851
461.985	8742
462.037	8621
462.065	8399
462.105	9688
462.145	11383
462.173	15581
462.225	23179
462.241	25600
462.305	38619
462.310	37699
462.378	20022
462.385	17634
462.446	10937
462.465	9579
462.514	9276
462.545	9328
462.582	9319
462.625	9281
462.650	8808
462.705	7947
462.718	8270
462.785	9725
462.786	9809
462.854	15021
462.865	15894
462.922	19190
462.945	20635
462.990	15590
463.025	10627
463.058	9435
463.104	7972
463.126	7654
463.184	7762
463.194	8020
463.262	9176
463.264	9223
463.330	8941
463.344	8867
463.398	10491
463.424	11184
463.466	10953
463.504	10932
463.533	10943
463.583	10578
463.601	10828
463.663	12152
463.669	12424
463.737	15267
463.743	15558
463.805	25364
463.823	28112
463.873	42150
463.903	51298
463.940	54442
463.982	58665
464.008	47325
464.062	18694
464.076	17049
464.142	9944
464.144	9909
464.211	9833
464.221	9863
464.279	9398
464.301	9340
464.347	11499
464.381	12993
464.414	14246
464.461	16085
464.482	16929
464.540	19160
464.550	18629
464.617	14498
464.620	14335
464.685	14097
464.699	14033
464.753	15778
464.779	16617
464.820	17892
464.859	19229
464.888	19143
464.938	18617
464.956	19149
465.018	21414
465.023	21154
465.091	16824
465.098	16360
465.158	16576
465.177	16764
465.226	16515
465.257	16131
465.293	16548
465.336	17013
465.361	17632
465.416	19096
465.428	20734
465.495	29436
465.496	29603
465.563	48749
465.575	52113
465.631	64483
465.654	69943
465.698	44842
465.734	22214
465.765	19171
465.813	15372
465.833	15153
465.893	15010
465.900	15071
465.968	15364
465.972	15359
466.035	14462
466.052	14227
466.102	14707
466.131	14878
466.170	15194
466.210	15513
466.237	16312
466.290	17782
466.304	17818
466.369	17879
466.372	17955
466.439	19231
466.449	19393
466.506	22046
466.528	22977
466.573	30685
466.607	36444
466.641	52173
466.687	73937
466.708	81218
466.766	101464
466.775	94062
466.842	36366
466.845	33568
466.909	25613
466.925	23797
466.977	22569
467.004	21925
467.044	22583
467.083	23159
467.111	24215
467.163	26091
467.178	26867
467.242	29872
467.245	29822
467.312	27654
467.321	27317
467.379	27327
467.400	27252
467.446	28249
467.480	28875
467.559	26553
467.638	22562
467.717	24060
467.796	25139
467.875	27688
467.955	26830
468.034	39011
468.113	88088
468.192	129765
468.271	40721
468.350	32389
468.429	40371
468.508	42002
468.588	32287
468.667	26229
468.746	26455
468.825	25743
468.904	20214
468.983	24935
469.062	35328
469.141	43629
469.220	20019
469.299	19155
469.378	21857
469.456	24592
469.535	23380
469.614	22391
469.693	23544
469.772	30337
469.851	40382
469.930	29930
470.009	21162
470.088	22406
470.166	26592
470.245	40204
470.324	47858
470.403	33185
470.482	24555
470.560	20337
470.639	23219
470.718	24703
470.797	21563
470.875	25448
470.954	33640
471.033	37322
471.111	17396
471.190	17340
471.269	15949
471.347	16497
471.426	19266
471.505	21186
471.583	21781
471.662	19925
471.740	17907
471.819	18973
471.898	16780
471.976	18413
472.055	17500
472.133	20616
472.212	27099
472.290	27590
472.369	19518
472.447	16713
472.526	16068
472.604	17444
472.683	18311
472.761	19402
472.839	17978
472.918	17907
472.996	18611
473.075	21596
473.153	20292
473.231	17692
473.310	20426
473.388	21160
473.466	19511
473.545	20925
473.623	25787
473.701	25997
473.780	19201
473.858	18477
473.936	22112
474.014	17677
474.093	20864
474.171	31437
474.249	42602
474.327	29369
474.405	16372
474.484	17255
474.562	17348
474.640	17157
474.718	18299
474.796	19789
474.874	17259
474.952	15444
475.030	17256
475.108	18103
475.187	20451
475.265	22028
475.343	29867
475.421	33795
475.499	18758
475.577	20105
475.655	24573
475.733	48509
475.811	86489
475.889	78430
475.966	54079
476.044	19470
476.122	23111
476.200	29968
476.278	24743
476.356	16584
476.434	17816
476.512	21922
476.590	27876
476.667	25954
476.745	15923
476.823	17633
476.901	16699
476.979	16573
477.056	16694
477.134	18293
477.212	16758
477.290	18035
477.367	15134
477.445	14982
477.523	15684
477.601	15936
477.678	15670
477.756	20742
477.834	21981
477.911	15612
477.989	16547
478.066	17194
478.144	18880
478.222	23018
478.299	32848
478.377	32665
478.454	16083
478.532	15408
478.609	15321
478.687	17773
478.764	13513
478.842	15975
478.919	16841
478.997	16782
479.074	15169
479.152	18033
479.229	23595
479.307	15857
479.384	13718
479.461	13983
479.539	15069
479.616	19141
479.694	16367
479.771	17220
479.848	18336
479.926	23772
480.003	27876
480.080	14398
480.157	14487
480.235	14503
480.312	13966
480.389	16593
480.467	29007
480.544	37397
480.621	20464
480.698	17992
480.775	20692
480.853	20633
480.930	17109
481.007	16015
481.084	19139
481.161	23331
481.238	20172
481.315	14608
481.392	14564
481.470	15630
481.547	17155
481.624	16262
481.701	15076
481.778	16619
481.855	18173
481.932	29454
482.009	47514
482.086	37057
482.163	19318
482.240	28948
482.317	45329
482.393	37522
482.470	18541
482.547	19612
482.624	17217
482.701	17910
482.778	17102
482.855	15317
482.932	14903
483.009	16024
483.085	18757
483.162	22677
483.239	23357
483.316	19465
483.393	20368
483.469	18187
483.546	18949
483.623	21529
483.699	16589
483.776	16935
483.853	19602
483.930	27895
484.006	71404
484.083	120531
484.160	58115
484.236	69604
484.313	56101
484.389	43476
484.466	39976
484.543	38963
484.619	43277
484.696	47531
484.772	45662
484.849	45891
484.925	36501
485.002	35617
485.078	37411
485.155	38653
485.231	33250
485.308	32794
485.384	34730
485.461	42267
485.537	72391
485.614	89787
485.690	36585
485.766	31566
485.843	33410
485.919	43681
485.995	45556
486.072	30534
486.148	29292
486.224	30029
486.301	32353
486.377	37012
486.453	37413
486.530	35025
486.606	43962
486.682	50578
486.758	63730
486.835	75325
486.911	59059
486.987	92852
487.063	91867
487.139	99464
487.215	74075
487.292	44284
487.368	40444
487.444	48310
487.520	61029
487.596	68681
487.672	117248
487.748	353499
487.824	549359
487.900	195550
487.976	63079
488.052	50085
488.128	54944
488.204	44105
488.280	37248
488.356	41930
488.432	85333
488.508	134614
488.584	49303
488.660	31801
488.736	31696
488.812	32586
488.888	37971
488.964	47318
489.039	88480
489.115	137674
489.191	88511
489.267	33814
489.343	30212
489.418	27103
489.494	26084
489.570	24085
489.646	27224
489.722	27889
489.797	28352
489.873	46099
489.949	99063
490.024	89189
490.100	27220
490.176	25875
490.251	30209
490.327	36955
490.403	26192
490.478	24218
490.554	21442
490.629	23191
490.705	21514
490.781	24048
490.856	23573
490.932	28117
491.007	27010
491.083	27253
491.158	24794
491.234	33918
491.309	73633
491.385	82548
491.460	27115
491.536	27998
491.611	23988
491.686	26204
491.762	32497
491.837	60623
491.913	98490
491.988	138204
492.063	170729
492.139	63604
492.214	40785
492.289	20926
492.365	19166
492.440	23377
492.515	24096
492.590	25296
492.666	20388
492.741	29035
492.816	43343
492.891	26495
492.967	19436
493.042	17117
493.117	18145
493.192	19336
493.267	24762
493.342	53134
493.418	68149
493.493	23816
493.568	15698
493.643	17280
493.718	22896
493.793	35225
493.868	36333
493.943	23382
494.018	18792
494.093	17963
494.168	18068
494.243	16607
494.318	16047
494.393	16610
494.468	14425
494.543	15870
494.618	17577
494.693	17871
494.768	16976
494.842	17883
494.917	14067
494.992	17368
495.067	15319
495.142	15017
495.217	17060
495.292	17432
495.366	20402
495.441	24094
495.516	29023
495.591	36355
495.665	116003
495.740	278077
495.815	130942
495.890	27730
495.964	20756
496.039	23663
496.114	20748
496.188	24514
496.263	23949
496.338	21135
496.412	23708
496.487	28879
496.561	27662
496.636	30067
496.710	24072
496.785	26307
496.860	31624
496.934	24634
497.009	24331
497.083	24997
497.158	25099
497.232	30792
497.307	37949
497.381	31619
497.455	38703
497.530	52608
497.604	39011
497.679	39682
497.753	59710
497.827	81557
497.902	74800
497.976	82324
498.050	169910
498.125	643123
498.199	694331
498.273	116178
498.348	79193
498.422	64834
498.496	60039
498.570	54705
498.645	44274
498.719	44544
498.793	50757
498.867	72172
498.941	92306
499.016	256699
499.090	710681
499.164	279860
499.238	35088
499.312	28950
499.386	33582
499.460	33349
499.534	31538
499.609	39065
499.683	57551
499.757	53800
499.831	110287
499.905	459185
499.979	468296
500.053	72568
500.127	64035
500.201	42657
500.275	29586
500.349	29670
500.422	34098
500.496	46089
500.570	87276
500.644	245593
500.718	491883
500.792	124895
500.866	30257
500.940	38516
501.013	33214
501.087	30850
501.161	47612
501.235	65330
501.309	143612
501.382	417581
501.456	394660
501.530	83471
501.603	137520
501.677	60738
501.751	23302
501.825	28780
501.898	55050
501.972	167366
502.046	117627
502.119	30460
502.193	69250
502.266	182078
502.340	97562
502.413	75672
502.487	157506
502.561	95218
502.634	31745
502.708	22622
502.781	20860
502.855	17371
502.928	16330
503.002	16034
503.075	15552
503.149	18906
503.222	19621
503.295	22609
503.369	27993
503.442	36371
503.516	119906
503.589	323935
503.662	224735
503.736	69957
503.809	149438
503.882	134114
503.956	177618
504.029	196815
504.102	203634
504.175	294003
504.249	115977
504.322	50335
504.395	33988
504.468	23647
504.542	21986
504.615	16607
504.688	15999
504.761	15199
504.834	19581
504.907	21644
504.980	31659
505.053	20019
505.127	20779
505.200	28255
505.273	28828
505.346	18852
505.419	13119
505.492	13640
505.565	11207
505.638	11980
505.711	11780
505.784	12246
505.857	11060
505.930	14324
506.003	11991
506.076	16615
506.149	20141
506.221	26946
506.294	23622
506.367	61314
506.440	219686
506.513	132228
506.586	28438
506.659	17619
506.731	13043
506.804	16407
506.877	23829
506.950	19474
507.022	12752
507.095	17547
507.168	23007
507.241	14308
507.313	11644
507.386	13262
507.459	19364
507.531	13415
507.604	10421
507.677	11920
507.749	9215
507.822	16334
507.894	27191
507.967	35080
508.040	19542
508.112	18615
508.185	19036
508.257	16104
508.330	23971
508.402	17928
508.475	16858
508.547	18906
508.620	18419
508.692	30595
508.765	20695
508.837	13643
508.909	13379
508.982	14182
509.054	15616
509.127	14718
509.199	13045
509.271	12255
509.344	12596
509.416	12098
509.488	12399
509.560	13552
509.633	13358
509.705	16429
509.777	15182
509.849	20633
509.922	16408
509.994	13633
510.066	14408
510.138	14258
510.210	27743
510.283	26210
510.355	23029
510.427	18865
510.499	18004
510.571	19238
510.643	17153
510.715	25248
510.787	24429
510.859	19412
510.931	22978
511.003	24306
511.076	24868
511.148	16749
511.219	15988
511.291	28513
511.363	36102
511.435	16396
511.507	14221
511.579	15680
511.651	16515
511.723	14621
511.795	15062
511.867	15079
511.939	20809
512.010	42905
512.082	36992
512.154	16270
512.226	16624
512.298	24315
512.369	34481
512.441	27800
512.513	25350
512.585	21128
512.656	21004
512.728	22924
512.800	18352
512.871	18658
512.943	18647
513.015	15447
513.086	17672
513.158	18483
513.230	18893
513.301	27827
513.373	30222
513.444	20093
513.516	16726
513.588	16926
513.659	18685
513.731	22710
513.802	19283
513.874	36480
513.945	62209
514.016	27015
514.088	17875
514.159	17984
514.231	23658
514.302	32083
514.374	23584
514.445	24691
514.516	48243
514.588	40480
514.659	23422
514.730	44783
514.802	36252
514.873	27094
514.944	28509
515.016	24333
515.087	25359
515.158	32409
515.229	47666
515.301	30525
515.372	38943
515.443	27050
515.514	21063
515.585	17387
515.656	18587
515.728	18948
515.799	17447
515.870	19157
515.941	19622
516.012	20048
516.083	24948
516.154	29215
516.225	35057
516.296	35835
516.367	33138
516.438	39957
516.509	49378
516.580	66822
516.651	205675
516.722	760537
516.793	375505
516.864	73951
516.935	68038
517.006	77649
517.077	98450
517.148	207829
517.219	848903
517.289	1434058
517.360	406338
517.431	128737
517.502	38834
517.573	34294
517.643	32701
517.714	35588
517.785	39095
517.856	40962
517.926	51775
517.997	61979
518.068	79637
518.138	102973
518.209	147438
518.280	540638
518.350	2027311
518.421	900423
518.492	120103
518.562	68955
518.633	68623
518.703	74852
518.774	136330
518.845	360071
518.915	372583
518.986	117319
519.056	62680
519.127	71599
519.197	100902
519.268	241827
519.338	178305
519.408	43426
519.479	42299
519.549	34433
519.620	24589
519.690	20631
519.760	19737
519.831	20498
519.901	20924
519.971	18650
520.042	20109
520.112	24521
520.182	26710
520.253	28576
520.323	23321
520.393	36145
520.463	61959
520.534	41916
520.604	90947
520.674	41821
520.744	36499
520.814	96216
520.885	85638
520.955	77275
521.025	286428
521.095	130159
521.165	24295
521.235	20913
521.305	18162
521.375	16526
521.445	19415
521.515	22466
521.585	25943
521.655	24562
521.725	22426
521.795	22238
521.865	16584
521.935	28528
522.005	26327
522.075	16222
522.145	19352
522.215	21535
522.285	29905
522.355	40372
522.424	80785
522.494	71153
522.564	31486
522.634	49848
522.704	135822
522.774	61976
522.843	20467
522.913	18708
522.983	22924
523.053	19251
523.122	19155
523.192	23208
523.262	71966
523.331	79058
523.401	22302
523.471	15297
523.540	16393
523.610	13433
523.680	13310
523.749	14395
523.819	20375
523.888	20941
523.958	14572
524.027	14993
524.097	18564
524.166	15400
524.236	15849
524.305	17679
524.375	13991
524.444	14347
524.514	16900
524.583	16515
524.653	20637
524.722	25721
524.791	19101
524.861	17960
524.930	14608
524.999	16006
525.069	21847
525.138	20108
525.207	25121
525.277	19289
525.346	18874
525.415	19200
525.484	20325
525.554	24671
525.623	27801
525.692	28215
525.761	31366
525.830	38420
525.900	47897
525.969	71113
526.038	118243
526.107	239371
526.176	734952
526.245	642798
526.314	190444
526.383	355842
526.452	521671
526.522	766766
526.591	826777
526.660	179863
526.729	96331
526.797	96789
526.867	153142
526.935	566656
527.004	1457808
527.073	942324
527.142	111769
527.211	43015
527.280	32735
527.349	29508
527.418	19448
527.487	18834
527.555	16389
527.624	15929
527.693	13851
527.762	15994
527.831	13081
527.899	15205
527.968	13483
528.037	13599
528.106	16629
528.174	28449
528.243	24755
528.312	33759
528.380	45531
528.449	17994
528.518	13903
528.586	11323
528.655	12673
528.723	11332
528.792	11651
528.861	13498
528.929	10925
528.998	11320
529.066	10729
529.135	11696
529.203	10931
529.272	10984
529.340	12526
529.409	14727
529.477	11241
529.545	16467
529.614	20410
529.682	21279
529.751	25294
529.819	26677
529.887	18742
529.956	13506
530.024	14570
530.092	11979
530.161	13731
530.229	21744
530.297	14138
530.365	12508
530.434	11547
530.502	10266
530.570	11993
530.638	9526
530.707	12405
530.775	15016
530.843	10872
530.911	12263
530.979	10993
531.047	12640
531.115	12661
531.183	12065
531.252	12367
531.320	12672
531.388	11043
531.456	13195
531.524	10875
531.592	13464
531.660	14401
531.728	12091
531.796	12257
531.864	12308
531.932	12629
532.000	12777
532.067	12807
532.135	14432
532.203	17095
532.271	16916
532.339	26090
532.407	62559
532.475	42903
532.542	21839
532.610	22478
532.678	26969
532.746	97207
532.814	265236
532.881	78626
532.949	20641
533.017	16717
533.084	14144
533.152	13666
533.220	14339
533.287	14947
533.355	13050
533.423	12984
533.490	12557
533.558	13119
533.625	14580
533.693	15572
533.761	15808
533.828	15880
533.896	14011
533.963	24591
534.031	30440
534.098	40647
534.166	26773
534.233	16612
534.300	19675
534.368	20031
534.435	19935
534.503	21295
534.570	27283
534.637	27139
534.705	30683
534.772	36745
534.840	66703
534.907	310191
534.974	451285
535.041	63009
535.109	31403
535.176	20277
535.243	17458
535.310	17644
535.378	17058
535.445	15347
535.512	15979
535.579	16268
535.646	15351
535.714	16268
535.781	20329
535.848	18946
535.915	18410
535.982	16418
536.049	16513
536.116	17170
536.183	16561
536.250	16134
536.317	17763
536.384	19954
536.451	26683
536.518	27368
536.585	20943
536.652	24904
536.719	33486
536.786	27593
536.853	23866
536.920	31193
536.987	46510
537.053	41228
537.120	129743
537.187	128901
537.254	23682
537.321	19015
537.388	19679
537.454	17685
537.521	17300
537.588	17544
537.654	19096
537.721	21183
537.788	22558
537.855	18317
537.921	18944
537.988	19215
538.055	18738
538.121	17755
538.188	19675
538.254	24870
538.321	44365
538.388	30991
538.454	20528
538.521	20128
538.587	19255
538.654	17807
538.720	18445
538.787	17130
538.853	19165
538.920	22861
538.986	24204
539.053	19701
539.119	20852
539.185	20233
539.252	22757
539.318	29661
539.385	27434
539.451	24377
539.517	24420
539.583	23767
539.650	43805
539.716	107192
539.782	41295
539.849	19988
539.915	20367
539.981	20397
540.047	23681
540.114	22081
540.180	23058
540.246	22149
540.312	28289
540.378	45424
540.444	46795
540.510	44622
540.576	116978
540.643	49661
540.709	20157
540.775	20015
540.841	20018
540.907	25886
540.973	43304
541.039	33631
541.105	32009
541.171	21922
541.237	21967
541.303	20621
541.369	24408
541.435	26722
541.500	41230
541.566	30456
541.632	19072
541.698	18588
541.764	20423
541.830	18088
541.896	19019
541.961	19691
542.027	19183
542.093	20954
542.159	21980
542.224	21423
542.290	28856
542.356	41163
542.421	46818
542.487	26543
542.553	21250
542.618	23032
542.684	22051
542.750	21346
542.815	23831
542.881	34521
542.947	100738
543.012	85218
543.078	22149
543.143	18566
543.209	21864
543.274	20434
543.340	22978
543.405	41586
543.471	68384
543.536	25367
543.602	20678
543.667	19528
543.732	20841
543.798	18641
543.863	21650
543.928	18863
543.994	18608
544.059	21188
544.124	20497
544.190	19900
544.255	21576
544.320	21692
544.386	21305
544.451	26489
544.516	30389
544.581	29868
544.646	64835
544.712	107947
544.777	33961
544.842	26086
544.907	28135
544.972	24969
545.037	23939
545.102	25736
545.168	26655
545.233	26595
545.298	27961
545.363	31360
545.428	32820
545.493	45888
545.558	87985
545.623	48950
545.688	28661
545.753	27107
545.818	26754
545.883	28111
545.947	28892
546.012	30739
546.077	31599
546.142	31052
546.207	30718
546.272	36677
546.337	39225
546.401	35356
546.466	34328
546.531	32595
546.596	37589
546.661	38484
546.725	37742
546.790	37439
546.855	40584
546.919	40873
546.984	47082
547.049	51404
547.113	59786
547.178	60300
547.243	67995
547.307	77204
547.372	88744
547.436	92641
547.501	87109
547.565	92070
547.630	90598
547.695	89036
547.759	91888
547.823	89662
547.888	83918
547.952	85902
548.017	90160
548.081	97104
548.146	105018
548.210	101180
548.274	99439
548.339	95857
548.403	90054
548.468	83670
548.532	83390
548.596	84574
548.660	84874
548.725	93544
548.789	104977
548.853	104316
548.917	95282
548.982	102014
549.046	97348
549.110	76657
549.174	77429
549.238	86844
549.303	95245
549.367	100344
549.431	95123
549.495	89526
549.559	89837
549.623	102646
549.687	114134
549.751	118049
549.815	130323
549.879	130953
549.943	124566
550.007	130670
550.071	131725
550.135	124624
550.199	116080
550.263	111256
550.327	108933
550.391	120389
550.455	122651
550.519	123759
550.582	132698
550.646	155286
550.710	160881
550.774	150747
550.838	152490
550.901	155957
550.965	169184
551.029	175503
551.093	190895
551.156	217530
551.220	291036
551.284	346585
551.347	233358
551.411	233719
551.475	240393
551.538	168460
551.602	153073
551.666	141225
551.729	131884
551.793	129489
551.856	124774
551.920	124866
551.983	125946
552.047	123451
552.110	124805
552.174	125133
552.237	128591
552.301	119100
552.364	112434
552.428	112559
552.491	114497
552.554	118474
552.618	118140
552.681	121502
552.745	121935
552.808	146235
552.871	176551
552.934	142910
552.998	124597
553.061	119680
553.124	114539
553.187	110776
553.251	115034
553.314	117332
553.377	115880
553.440	124741
553.503	146800
553.567	167439
553.630	127347
553.693	121581
553.756	121102
553.819	117926
553.882	112886
553.945	114630
554.008	114350
554.071	112569
554.134	116522
554.197	109607
554.260	106022
554.323	108497
554.386	111823
554.449	114667
554.512	114842
554.575	110135
554.638	110237
554.701	107897
554.764	108729
554.827	103253
554.889	100547
554.952	93997
555.015	93181
555.078	94559
555.141	95294
555.203	94885
555.266	93456
555.329	93804
555.391	89033
555.454	89735
555.517	89343
555.580	84263
555.642	81318
555.705	78877
555.768	82103
555.830	79365
555.893	73476
555.955	73254
556.018	71429
556.080	71709
556.143	74585
556.206	72810
556.268	73079
556.330	72696
556.393	69893
556.455	68966
556.518	78826
556.580	77764
556.643	63148
556.705	62310
556.767	60727
556.830	61603
556.892	62034
556.955	71322
557.017	63768
557.079	58212
557.142	56329
557.204	59175
557.266	77304
557.328	70621
557.391	52727
557.453	50293
557.515	51572
557.577	54919
557.639	56205
557.701	53241
557.764	53432
557.826	55485
557.888	62131
557.950	62587
558.012	68995
558.074	86994
558.136	201976
558.198	544105
558.260	213137
558.322	74829
558.384	75692
558.446	81044
558.508	94656
558.570	110659
558.632	142789
558.694	189722
558.756	253383
558.818	760565
558.880	1869370
558.942	706828
559.003	580121
559.065	305323
559.127	112142
559.189	104732
559.251	114527
559.312	155599
559.374	381631
559.436	1315509
559.498	711152
559.559	137486
559.621	107112
559.683	115003
559.744	187664
559.806	627797
559.868	1017138
559.929	220375
559.991	113936
560.052	171466
560.114	508741
560.176	349684
560.237	277713
560.299	497549
560.360	120631
560.422	46489
560.483	40065
560.545	36101
560.606	33399
560.667	32157
560.729	31410
560.790	29448
560.852	30434
560.913	29569
560.974	28266
561.036	28381
561.097	27545
561.158	28223
561.220	28590
561.281	27883
561.342	28574
561.403	29976
561.465	33961
561.526	60628
561.587	80578
561.648	33442
561.709	28188
561.771	26928
561.832	26129
561.893	25504
561.954	24769
562.015	24356
562.076	25392
562.137	24691
562.198	25940
562.259	25327
562.320	25101
562.381	26279
562.442	34539
562.503	30217
562.564	24346
562.625	23634
562.686	24046
562.747	25558
562.808	26111
562.869	23606
562.930	27097
562.991	27543
563.051	25213
563.112	23706
563.173	24116
563.234	23540
563.294	22644
563.355	22175
563.416	23845
563.477	22572
563.537	23879
563.598	24883
563.659	23475
563.720	22873
563.780	23627
563.841	24290
563.901	24030
563.962	23599
564.023	23080
564.083	22790
564.144	23262
564.204	22978
564.265	23672
564.325	26902
564.386	47486
564.446	46915
564.507	24158
564.567	22247
564.628	22209
564.688	22075
564.749	21672
564.809	25302
564.869	28733
564.930	23282
564.990	21772
565.050	21330
565.111	21657
565.171	20263
565.231	21186
565.292	21958
565.352	20171
565.412	22200
565.472	22914
565.532	22958
565.593	22687
565.653	21646
565.713	23665
565.773	24571
565.833	26985
565.893	31171
565.953	24341
566.013	23127
566.074	23738
566.134	29247
566.194	44363
566.254	46140
566.314	32253
566.374	24103
566.434	25362
566.494	24301
566.554	25321
566.614	25583
566.673	26431
566.733	28566
566.793	29943
566.853	29719
566.913	30152
566.973	30408
567.033	31956
567.092	31986
567.152	31642
567.212	32444
567.272	31335
567.331	33808
567.391	34464
567.451	36134
567.511	45361
567.570	46228
567.630	33425
567.690	31404
567.749	31421
567.809	33638
567.868	37563
567.928	41029
567.988	48309
568.047	53021
568.107	62209
568.166	82604
568.226	125115
568.285	174821
568.345	157360
568.404	126498
568.464	107603
568.523	96630
568.582	98936
568.642	105604
568.701	128827
568.761	181305
568.820	287756
568.879	293470
568.939	226954
568.998	165655
569.057	123416
569.116	97535
569.176	78886
569.235	65264
569.294	56266
569.353	49548
569.413	44115
569.472	41577
569.531	37667
569.590	34538
569.649	32585
569.708	30289
569.767	32139
569.827	34424
569.886	31281
569.945	26635
570.004	28784
570.063	25453
570.122	26643
570.181	28469
570.240	29380
570.299	29485
570.358	30527
570.417	24365
570.475	22560
570.534	23092
570.593	24008
570.652	24856
570.711	25936
570.770	23229
570.829	27796
570.887	24331
570.946	25739
571.005	21602
571.064	22674
571.122	24205
571.181	26803
571.240	22238
571.299	19293
571.357	20938
571.416	22715
571.475	23971
571.533	26500
571.592	22468
571.650	23397
571.709	20145
571.768	23098
571.826	23181
571.885	21778
571.943	19526
572.002	20297
572.060	20299
572.119	18899
572.177	19283
572.236	18309
572.294	18528
572.352	19400
572.411	19798
572.469	18864
572.528	17634
572.586	18819
572.644	20187
572.703	25670
572.761	21202
572.819	19059
572.877	17531
572.936	16809
572.994	15809
573.052	17669
573.110	17916
573.169	19062
573.227	16232
573.285	17307
573.343	17567
573.401	18520
573.459	17546
573.517	17197
573.576	18599
573.634	19710
573.692	19609
573.750	18807
573.808	17504
573.866	18602
573.924	22569
573.982	23023
574.040	18655
574.098	17981
574.155	16717
574.213	17458
574.271	17488
574.329	18909
574.387	17007
574.445	16618
574.503	15907
574.560	15238
574.618	15251
574.676	15191
574.734	16729
574.792	15695
574.849	14609
574.907	15649
574.965	14464
575.022	14053
575.080	14582
575.138	14018
575.195	15258
575.253	14702
575.311	16167
575.368	15763
575.426	13964
575.483	14178
575.541	13591
575.598	14533
575.656	15237
575.713	15685
575.771	14932
575.828	15014
575.886	14933
575.943	15807
576.001	15145
576.058	14981
576.115	16332
576.173	18801
576.230	20237
576.287	21575
576.345	18939
576.402	17025
576.459	16177
576.517	17541
576.574	17855
576.631	18454
576.688	16212
576.746	15434
576.803	14226
576.860	14476
576.917	15075
576.974	14659
577.031	14639
577.089	15316
577.146	15516
577.203	15200
577.260	15977
577.317	17515
577.374	18227
577.431	17487
577.488	16198
577.545	14806
577.602	14438
577.659	14967
577.716	14562
577.773	15393
577.830	13500
577.886	14936
577.943	13747
578.000	14554
578.057	15344
578.114	15181
578.171	14003
578.227	15134
578.284	13595
578.341	15446
578.398	15341
578.454	15644
578.511	18067
578.568	20126
578.625	17547
578.681	15141
578.738	14181
578.794	14292
578.851	14129
578.908	14896
578.964	14332
579.021	15458
579.077	14773
579.134	14733
579.190	14166
579.247	13437
579.303	13980
579.360	13453
579.416	12857
579.473	13583
579.529	13412
579.586	14502
579.642	14451
579.698	15092
579.755	14895
579.811	14776
579.867	14909
579.924	14439
579.980	13969
580.036	15206
580.093	14574
580.149	15426
580.205	16364
580.261	15492
580.317	16743
580.374	16286
580.430	18506
580.486	18701
580.542	16053
580.598	16366
580.619	16424
580.654	16541
580.692	15545
580.710	15073
580.765	15157
580.767	15171
580.823	16543
580.838	16389
580.879	16030
580.911	16191
580.935	16332
580.984	14929
580.991	14747
581.047	15968
581.057	15782
581.103	15003
581.130	15829
581.159	16722
581.203	16335
581.215	16243
581.270	15425
581.276	15383
581.326	15007
581.349	15400
581.382	16038
581.422	16049
581.438	16063
581.494	16238
581.494	16230
581.550	16150
581.567	16167
581.606	16194
581.640	16358
581.661	16488
581.713	16995
581.717	17039
581.773	15995
581.786	16099
581.829	16415
581.859	16226
581.885	16130
581.932	15798
581.940	15727
581.996	16730
582.004	16697
582.052	16529
582.077	16039
582.107	15450
582.150	16752
582.163	17158
582.219	16475
582.223	16462
582.274	16466
582.296	16506
582.330	16487
582.368	17388
582.386	17837
582.441	17135
582.441	17134
582.497	16390
582.514	16299
582.552	16245
582.587	16458
582.608	16507
582.659	16470
582.663	16490
582.719	17813
582.732	17712
582.774	17336
582.805	17417
582.830	17467
582.877	17460
582.885	17457
582.941	17609
582.950	17526
582.996	17033
583.023	17646
583.052	18537
583.095	17852
583.107	17580
583.162	18644
583.168	18692
583.218	19245
583.240	18690
583.273	17820
583.313	17416
583.328	17302
583.384	17909
583.385	17910
583.439	18069
583.458	18373
583.494	18748
583.531	18039
583.549	17809
583.603	18379
583.605	18383
583.660	18618
583.676	18617
583.715	18805
583.748	19052
583.770	19322
583.820	19634
583.825	19644
583.881	19910
583.893	19851
583.936	19562
583.965	19624
583.991	19650
584.038	20128
584.046	20274
584.101	20334
584.110	20238
584.156	19568
584.183	20154
584.211	20886
584.255	21028
584.266	21001
584.321	20224
584.328	20263
584.376	20784
584.400	21141
584.431	21667
584.472	21631
584.486	21610
584.541	22347
584.545	22372
584.596	23039
584.617	23170
584.651	23708
584.689	24345
584.706	24327
584.761	24218
584.762	24216
584.816	25409
584.834	25591
584.871	25967
584.906	26708
584.926	27166
584.978	28046
584.980	28095
585.035	30043
585.051	30681
585.090	32964
585.123	35036
585.145	36219
585.195	38175
585.200	38475
585.254	44161
585.267	45267
585.309	49247
585.340	53878
585.364	57933
585.412	63977
585.419	64981
585.473	75266
585.484	77845
585.528	95043
585.556	114408
585.583	155543
585.628	251573
585.637	288703
585.692	608521
585.700	664781
585.747	858265
585.772	747903
585.801	479538
585.845	172011
585.856	135945
585.910	75455
585.917	69501
585.965	55737
585.989	50986
586.019	47682
586.061	44471
586.074	43953
586.128	43476
586.133	43447
586.183	43920
586.205	43803
586.237	43716
586.277	43795
586.292	43901
586.346	44447
586.349	44400
586.401	44482
586.421	45064
586.455	46589
586.493	48297
586.509	50322
586.564	58377
586.565	58707
586.618	79752
586.637	81842
586.672	74540
586.709	63924
586.727	61108
586.781	61808
586.781	61860
586.835	55858
586.853	54308
586.889	52713
586.925	50932
586.944	50723
586.996	52920
586.998	53059
587.052	54286
587.068	54772
587.106	55790
587.140	56665
587.161	57484
587.212	59278
587.215	59486
587.269	62415
587.284	63166
587.323	65177
587.356	66535
587.377	67736
587.427	71235
587.431	71531
587.485	73268
587.499	73796
587.539	76961
587.571	79595
587.593	82180
587.643	88337
587.648	88957
587.702	93354
587.715	94665
587.755	100029
587.786	103030
587.810	105382
587.858	110727
587.864	111860
587.917	122542
587.930	124935
587.971	134652
588.001	141525
588.025	147250
588.073	158534
588.079	160738
588.133	179472
588.145	183531
588.187	200493
588.217	212609
588.241	226288
588.288	254559
588.295	259021
588.348	294823
588.360	302355
588.402	340952
588.431	368912
588.456	397871
588.503	455266
588.510	467136
588.564	563658
588.575	584356
588.617	695910
588.646	777436
588.671	885824
588.718	1102076
588.725	1153304
588.778	1562772
588.789	1648506
588.832	2041153
588.861	2298794
588.886	2329709
588.932	2261493
588.939	2234947
588.993	1938312
589.004	1917663
589.047	2264613
589.075	2419643
589.100	2223021
589.147	1769561
589.154	1718524
589.207	1323892
589.218	1247268
589.261	1144399
589.290	1084140
589.314	1116878
589.361	1196857
589.368	1236346
589.421	1574320
589.433	1648746
589.475	1997516
589.504	2224372
589.528	2203528
589.576	2037277
589.582	2039818
589.635	2123355
589.647	2118041
589.689	1716381
589.718	1403079
589.742	1194662
589.790	800622
589.795	779152
589.849	585970
589.861	542767
589.902	466956
589.932	410505
589.955	378523
590.004	311902
590.009	308259
590.062	266790
590.075	256246
590.115	234651
590.146	218211
590.168	210414
590.218	192272
590.222	191452
590.275	175820
590.289	171691
590.328	163815
590.360	156194
590.381	151847
590.431	141414
590.435	141276
590.488	133850
590.503	131608
590.541	127870
590.574	124057
590.594	121988
590.645	115831
590.647	115943
590.700	111824
590.716	110448
590.753	108706
590.787	106645
590.806	105565
590.859	101757
590.859	101952
590.912	98917
590.930	97861
590.965	97045
591.001	95617
591.018	95267
591.071	93494
591.072	93245
591.124	91583
591.143	90686
591.177	89892
591.214	88600
591.230	88545
591.283	87705
591.285	87446
591.336	86855
591.356	86379
591.389	85586
591.427	83829
591.442	83120
591.495	79934
591.498	79498
591.547	80053
591.569	80026
591.600	79346
591.640	77906
591.653	78428
591.706	79779
591.711	79722
591.759	80447
591.782	80560
591.811	82811
591.853	85384
591.864	84726
591.917	80092
591.924	79217
591.969	78505
591.995	77817
592.022	78252
592.066	78346
592.075	79101
592.127	82511
592.137	82941
592.180	86385
592.208	88123
592.233	85660
592.279	80178
592.285	80173
592.338	78444
592.350	77820
592.390	77541
592.421	76970
592.443	77725
592.491	78671
592.495	78928
592.548	79330
592.562	79209
592.600	78254
592.633	77015
592.653	76993
592.704	75944
592.705	76409
592.775	77798
592.846	78212
592.916	79264
592.987	80319
593.058	78619
593.128	76852
593.199	77130
593.270	75829
593.341	77076
593.411	77857
593.482	79464
593.553	79929
593.623	79559
593.694	82027
593.764	85652
593.835	79928
593.906	80789
593.976	82425
594.047	85082
594.117	91592
594.188	92078
594.258	85151
594.329	85003
594.399	86296
594.470	89146
594.540	90117
594.611	91837
594.681	90200
594.751	90569
594.822	94520
594.892	97540
594.963	100361
595.033	100845
595.103	104489
595.174	107634
595.244	120051
595.314	130155
595.384	110499
595.455	109478
595.525	113527
595.595	116850
595.665	118061
595.736	114895
595.806	115323
595.876	116569
595.946	117316
596.016	120133
596.087	124188
596.157	123937
596.227	123990
596.297	130312
596.367	138161
596.437	146304
596.507	155510
596.577	161893
596.647	149593
596.717	152057
596.787	154732
596.857	152962
596.927	157645
596.997	155331
597.067	156932
597.137	161963
597.207	161247
597.277	162470
597.347	155323
597.417	150048
597.487	150723
597.557	155358
597.626	157007
597.696	161145
597.766	165471
597.836	169184
597.906	146280
597.975	141638
598.045	141528
598.115	147846
598.185	156683
598.254	174211
598.324	188553
598.394	192147
598.464	186564
598.533	181311
598.603	170342
598.672	165976
598.742	170188
598.812	169624
598.881	175264
598.951	171253
599.020	174631
599.090	178349
599.159	181511
599.229	175076
599.299	171723
599.368	176799
599.437	174667
599.507	162099
599.576	157042
599.646	154356
599.715	151757
599.785	151681
599.854	149241
599.924	148454
599.993	148141
600.062	148646
600.132	151441
600.201	162320
600.270	184789
600.340	192714
600.409	187500
600.478	187689
600.547	190633
600.617	174897
600.686	144278
600.755	132681
600.824	125812
600.894	122628
600.963	124901
601.032	121776
601.101	118567
601.170	113591
601.239	110750
601.308	112391
601.378	112171
601.447	110235
601.516	111606
601.585	114155
601.654	117787
601.723	115939
601.792	118439
601.861	121821
601.930	127470
601.999	129060
602.068	125781
602.137	130123
602.206	130633
602.275	131356
602.343	135117
602.412	135898
602.481	132564
602.550	133078
602.619	136723
602.688	140326
602.756	139054
602.825	140210
602.894	142876
602.963	146121
603.032	148099
603.100	148150
603.169	145856
603.238	149145
603.307	148702
603.375	150246
603.444	153009
603.513	154851
603.581	157188
603.650	160073
603.719	156053
603.787	159177
603.856	162946
603.924	167719
603.993	173640
604.061	178557
604.130	185967
604.198	189406
604.267	191512
604.335	193179
604.404	196214
604.472	199639
604.541	202049
604.609	202040
604.678	204099
604.746	203682
604.815	210850
604.883	213066
604.951	212870
605.020	215657
605.088	222876
605.156	223938
605.225	226116
605.293	227939
605.361	229599
605.429	230288
605.498	235827
605.566	242135
605.634	252102
605.702	261376
605.771	268063
605.839	269110
605.907	261586
605.975	252885
606.043	250094
606.111	246962
606.180	248106
606.248	244555
606.316	243366
606.384	244093
606.452	250942
606.520	257979
606.588	258512
606.656	258632
606.724	251481
606.792	237799
606.860	214469
606.928	197186
606.996	189272
607.064	184246
607.132	189706
607.200	203711
607.267	208926
607.335	212578
607.403	217356
607.471	209120
607.539	204108
607.607	204014
607.674	182001
607.742	184015
607.810	183580
607.878	183365
607.946	187259
608.013	195325
608.081	200347
608.149	199098
608.216	205974
608.284	210777
608.352	211001
608.419	212855
608.487	214893
608.555	205511
608.622	209312
608.690	223415
608.757	245480
608.825	246690
608.893	245521
608.960	235174
609.028	228940
609.095	229596
609.163	220777
609.230	196979
609.298	182964
609.365	192608
609.432	204940
609.500	222411
609.567	252864
609.635	290205
609.702	303533
609.769	287922
609.837	227933
609.904	202349
609.971	213506
610.039	245286
610.106	335227
610.173	657704
610.241	1473905
610.308	851424
610.375	325974
610.442	229868
610.509	209520
610.577	207741
610.644	207543
610.711	214971
610.778	219566
610.845	228913
610.912	243833
610.980	249807
611.047	255518
611.114	246167
611.181	238794
611.248	236268
611.315	249804
611.382	254406
611.449	265572
611.516	271379
611.583	264316
611.650	268460
611.717	271485
611.784	283323
611.851	296278
611.918	325935
611.984	390538
612.051	560581
612.118	1130729
612.185	2528485
612.252	1575313
612.319	474662
612.386	366762
612.452	331933
612.519	313683
612.586	312270
612.653	309181
612.719	316440
612.786	300505
612.853	280702
612.919	273952
612.986	275507
613.053	259404
613.120	243694
613.186	237958
613.253	238915
613.319	241044
613.386	243542
613.453	246911
613.519	249211
613.586	251750
613.652	264059
613.719	252724
613.785	251859
613.852	250525
613.918	246144
613.985	251907
614.051	264248
614.118	270812
614.184	260381
614.250	245631
614.317	251581
614.383	247454
614.449	252716
614.516	252188
614.582	253892
614.648	248699
614.715	247515
614.781	239254
614.847	242362
614.914	241260
614.980	234759
615.046	234158
615.112	241640
615.179	244147
615.245	253337
615.311	259734
615.377	295336
615.443	303536
615.509	267881
615.575	269364
615.642	264918
615.708	274497
615.774	288661
615.840	314469
615.906	354625
615.972	463057
616.038	750994
616.104	1421311
616.170	2866082
616.236	2339164
616.302	700773
616.368	512405
616.434	368255
616.500	331776
616.565	373002
616.631	469166
616.697	380617
616.763	397178
616.829	612323
616.895	1092413
616.961	1012903
617.026	428454
617.092	289160
617.158	264862
617.224	255861
617.289	236531
617.355	225526
617.421	219788
617.487	221909
617.552	209342
617.618	207664
617.684	206012
617.749	210918
617.815	198750
617.880	196829
617.946	196933
618.012	200575
618.077	204185
618.143	195047
618.208	196806
618.274	212589
618.339	211936
618.405	176181
618.470	177981
618.536	179103
618.601	178765
618.667	166249
618.732	157887
618.798	155832
618.863	155603
618.928	152766
618.994	156856
619.059	159654
619.124	170513
619.190	158920
619.255	154448
619.320	154747
619.386	154397
619.451	152219
619.516	148066
619.581	150592
619.647	154921
619.712	153792
619.777	146749
619.842	151141
619.907	152656
619.972	154395
620.038	153548
620.103	149084
620.168	147792
620.233	151915
620.298	149132
620.363	152415
620.428	156598
620.493	159747
620.558	160265
620.623	162584
620.688	162048
620.753	161268
620.818	165723
620.883	164689
620.948	165317
621.013	164043
621.078	160122
621.143	162622
621.207	166477
621.272	163656
621.337	160138
621.402	159474
621.467	165953
621.532	165976
621.596	161241
621.661	155133
621.726	152838
621.791	154385
621.855	155113
621.920	154825
621.985	157566
622.049	164798
622.114	162161
622.179	162243
622.243	166971
622.308	169905
622.373	175879
622.437	171440
622.502	161739
622.566	160271
622.631	160744
622.695	164052
622.760	162860
622.824	160581
622.889	164213
622.953	165772
623.018	185803
623.082	184102
623.147	170716
623.211	167496
623.276	167784
623.340	158101
623.404	154997
623.469	155191
623.533	156482
623.597	152281
623.662	152519
623.726	141324
623.790	135762
623.854	131811
623.919	135530
623.983	136672
624.047	137558
624.111	138243
624.176	142383
624.240	146035
624.304	152801
624.368	141182
624.432	140422
624.496	144365
624.560	153582
624.625	156127
624.689	149024
624.753	155889
624.817	148003
624.881	145489
624.945	134059
625.009	129382
625.073	131588
625.137	138348
625.201	148227
625.265	146620
625.329	134182
625.393	138542
625.456	138491
625.520	143221
625.584	147353
625.648	157503
625.712	178652
625.776	239559
625.839	240891
625.903	147354
625.967	123586
626.031	146641
626.095	188351
626.158	136695
626.222	104532
626.286	100511
626.349	96084
626.413	90337
626.477	92555
626.540	91155
626.604	90413
626.668	87968
626.731	87024
626.795	88759
626.858	90105
626.922	86535
626.986	85995
627.049	86334
627.113	88635
627.176	85888
627.240	85782
627.303	84946
627.366	83745
627.430	86238
627.493	83729
627.557	83415
627.620	84059
627.684	89152
627.747	88373
627.810	79983
627.874	75480
627.937	73541
628.000	76200
628.064	73947
628.127	65507
628.190	67272
628.253	65405
628.317	61867
628.380	60424
628.443	58867
628.506	59392
628.569	56691
628.632	54892
628.696	54201
628.759	54317
628.822	52110
628.885	51181
628.948	50970
629.011	51485
629.074	49147
629.137	47446
629.200	48658
629.263	49452
629.326	46498
629.389	47133
629.452	46171
629.515	46796
629.578	45110
629.641	47860
629.704	47040
629.767	46354
629.830	43964
629.892	44447
629.955	43097
630.018	46957
630.081	46435
630.144	49826
630.207	43396
630.269	46814
630.332	45343
630.395	43581
630.458	41622
630.520	41712
630.583	42015
630.646	40945
630.708	40280
630.771	41013
630.834	44813
630.896	41966
630.959	41835
631.021	42289
631.084	41562
631.146	44032
631.209	46560
631.272	42493
631.334	43577
631.397	43137
631.459	43472
631.522	46159
631.584	46867
631.646	51505
631.709	54507
631.771	57705
631.834	51670
631.896	47807
631.958	44274
632.021	44001
632.083	40230
632.145	42832
632.208	39488
632.270	40692
632.332	39648
632.395	38770
632.457	41972
632.519	38959
632.581	39447
632.643	37799
632.706	39051
632.768	37307
632.830	39601
632.892	39500
632.954	40112
633.016	40517
633.078	39596
633.141	38442
633.203	38425
633.265	39026
633.327	38311
633.389	38479
633.451	42211
633.513	43738
633.575	44317
633.637	42828
633.698	42942
633.760	42448
633.822	42776
633.884	44153
633.946	45075
634.008	47221
634.070	48194
634.132	53430
634.193	56308
634.255	62297
634.317	62455
634.379	62000
634.441	55350
634.502	50150
634.564	45968
634.626	41156
634.687	41069
634.749	39760
634.811	39073
634.873	37369
634.934	37658
634.996	39259
635.057	37288
635.119	38441
635.181	39416
635.242	40879
635.304	37265
635.365	41587
635.427	39273
635.488	39575
635.550	38097
635.611	40423
635.673	38243
635.734	44220
635.796	45129
635.857	51431
635.918	51808
635.980	59224
636.041	61569
636.102	66506
636.164	67779
636.225	65130
636.286	55030
636.348	50674
636.409	44441
636.470	40689
636.531	39943
636.593	40221
636.654	38452
636.715	36563
636.776	36234
636.838	34012
636.899	34608
636.960	32922
637.021	31806
637.082	32151
637.143	31530
637.204	30312
637.265	30148
637.326	31489
637.387	33188
637.448	30106
637.509	32143
637.570	32011
637.631	31630
637.692	29315
637.753	27721
637.814	29479
637.875	28797
637.936	31026
637.997	29507
638.058	30258
638.119	29963
638.179	30244
638.240	29395
638.301	30100
638.362	28372
638.423	28139
638.483	28266
638.544	26316
638.605	27483
638.666	27267
638.726	27908
638.787	28496
638.848	26786
638.908	26773
638.969	26160
639.030	26008
639.090	24910
639.151	26239
639.211	28166
639.272	30963
639.332	38610
639.393	31425
639.453	28635
639.514	31295
639.574	26819
639.635	25327
639.695	25144
639.756	23964
639.816	26604
639.877	27234
639.937	35060
639.997	39149
640.058	25860
640.118	24583
640.178	25861
640.239	25003
640.299	24102
640.359	25128
640.420	26687
640.480	30629
640.540	34422
640.600	34673
640.661	30371
640.721	29785
640.781	32942
640.841	27465
640.901	25400
640.961	25394
641.021	27281
641.082	30805
641.142	31455
641.202	26934
641.262	21792
641.322	24609
641.382	22702
641.442	24541
641.502	23038
641.562	23415
641.622	23475
641.682	26729
641.742	29556
641.802	27763
641.861	24832
641.921	23808
641.981	26008
642.041	24299
642.101	26749
642.161	21902
642.221	22061
642.280	22724
642.340	21280
642.400	22165
642.460	22011
642.519	22799
642.579	22117
642.639	24390
642.698	21250
642.758	25863
642.818	24517
642.877	23057
642.937	23718
642.997	26379
643.056	30739
643.116	23146
643.175	25571
643.235	24542
643.294	25757
643.354	27681
643.414	31419
643.473	37710
643.532	46856
643.592	65319
643.651	103720
643.711	177318
643.770	350743
643.830	837595
643.889	1587906
643.948	402485
644.008	83221
644.067	50728
644.126	37985
644.186	32157
644.245	29449
644.304	25948
644.363	27624
644.423	24040
644.482	25532
644.541	28203
644.600	27771
644.659	37104
644.719	46271
644.778	72655
644.837	123789
644.896	262576
644.955	583488
645.014	176126
645.073	42900
645.132	31827
645.191	29250
645.250	26978
645.309	30904
645.368	32328
645.427	43844
645.486	74294
645.545	124657
645.604	38127
645.663	26555
645.722	26157
645.781	28746
645.840	34193
645.898	43807
645.957	62008
646.016	95234
646.075	172274
646.134	338001
646.192	894993
646.251	1202821
646.310	195527
646.369	60612
646.427	47799
646.486	35806
646.545	29284
646.603	25653
646.662	25078
646.721	23988
646.779	23640
646.838	25683
646.896	34175
646.955	45199
647.014	73074
647.072	145359
647.131	390324
647.189	170390
647.248	29314
647.306	22565
647.365	21015
647.423	17127
647.481	20679
647.540	16835
647.598	16852
647.657	16831
647.715	18300
647.773	15525
647.832	17422
647.890	14870
647.948	15026
648.007	15414
648.065	14623
648.123	15123
648.181	17225
648.240	15599
648.298	15217
648.356	14898
648.414	15399
648.472	14772
648.531	14307
648.589	14785
648.647	14753
648.705	15027
648.763	15682
648.821	16650
648.879	16673
648.937	20190
648.995	25201
649.053	32953
649.111	50905
649.169	81848
649.227	148427
649.285	317738
649.343	870199
649.401	385159
649.459	69975
649.516	39986
649.574	27190
649.632	32641
649.690	35502
649.748	37949
649.806	54937
649.863	100562
649.921	277643
649.979	170058
650.037	26221
650.094	16253
650.152	16344
650.210	13696
650.268	14857
650.325	13602
650.383	14979
650.440	12205
650.498	12464
650.556	12481
650.613	11583
650.671	11494
650.728	12161
650.786	13831
650.843	17725
650.901	13018
650.958	10664
651.016	11223
651.073	10522
651.131	8896
651.188	10290
651.246	10357
651.303	10185
651.360	10014
651.418	9528
651.475	10085
651.532	8888
651.590	10832
651.647	9109
651.704	9402
651.762	9728
651.819	9860
651.876	9410
651.933	9868
651.990	9506
652.048	8338
652.105	8871
652.162	9527
652.219	9019
652.276	8742
652.333	9018
652.390	8202
652.448	8151
652.505	8909
652.562	10065
652.619	8734
652.676	10751
652.733	10040
652.790	8372
652.847	6770
652.904	8204
652.961	6924
653.017	6938
653.074	9479
653.131	8228
653.188	7392
653.245	8788
653.302	8368
653.359	8575
653.415	8483
653.472	7633
653.529	7649
653.586	8041
653.642	8257
653.699	8911
653.756	8181
653.813	7301
653.869	8333
653.926	8098
653.983	7317
654.039	8354
654.096	7555
654.152	8806
654.209	6488
654.266	8576
654.322	7783
654.379	9482
654.435	9402
654.492	10317
654.548	11888
654.605	16233
654.661	10005
654.717	8383
654.774	9176
654.830	8785
654.887	8436
654.943	9282
655.000	10476
655.056	8310
655.112	9116
655.168	8321
655.225	8674
655.281	9871
655.337	11583
655.394	15427
655.450	11472
655.506	11767
655.562	15315
655.618	14302
655.675	8094
655.731	7760
655.787	7628
655.843	8461
655.899	7380
655.955	8047
656.011	8073
656.067	6669
656.123	7339
656.179	7996
656.235	9674
656.291	7270
656.347	9930
656.403	8199
656.459	8098
656.515	9483
656.571	8648
656.627	8383
656.683	7863
656.739	8562
656.795	8282
656.850	8212
656.906	9143
656.962	9815
657.018	8258
657.074	9855
657.129	11920
657.185	17725
657.241	36474
657.297	20799
657.352	8980
657.408	7067
657.464	8547
657.519	7735
657.575	6202
657.630	7301
657.686	5844
657.742	6521
657.797	6997
657.853	6091
657.908	8416
657.964	6412
658.019	6851
658.075	7077
658.130	7973
658.186	5913
658.241	6890
658.297	5800
658.352	6489
658.407	6623
658.463	6333
658.518	6057
658.573	6695
658.629	6307
658.684	6528
658.739	7473
658.795	6141
658.850	6870
658.905	6201
658.960	7229
659.016	5532
659.071	6573
659.126	6993
659.181	7449
659.236	10080
659.291	10751
659.346	8449
659.401	8080
659.457	8035
659.512	6881
659.567	7914
659.622	5851
659.677	6929
659.732	6108
659.787	5822
659.842	7758
659.897	9067
659.952	7208
660.007	6108
660.061	6512
660.116	5890
660.171	5554
660.226	6546
660.281	6564
660.336	6230
660.391	6675
660.445	5757
660.500	6546
660.555	6644
660.610	6256
660.664	6768
660.719	5686
660.774	6794
660.828	6436
660.883	5776
660.938	6766
660.992	4875
661.047	5733
661.101	6221
661.156	6232
661.211	5122
661.265	6083
661.320	6248
661.374	7066
661.429	5666
661.483	6358
661.538	5746
661.592	6683
661.647	7053
661.701	7690
661.755	6057
661.810	6139
661.864	4696
661.919	6042
661.973	6636
662.027	6142
662.081	4658
662.136	6356
662.190	6575
662.244	7289
662.299	6173
662.353	5425
662.407	6101
662.461	6474
662.515	6864
662.569	6594
662.624	5911
662.678	6840
662.732	6282
662.786	6041
662.840	5881
662.894	6688
662.948	6180
663.002	5700
663.056	6482
663.110	5269
663.164	6181
663.218	6566
663.272	6218
663.326	6556
663.380	6987
663.434	7129
663.488	5749
663.542	6822
663.595	6426
663.649	6481
663.703	6487
663.757	7245
663.811	6031
663.864	6160
663.918	6722
663.972	6618
664.026	6363
664.079	5588
664.133	6851
664.187	6563
664.240	6282
664.294	6241
664.348	6917
664.401	6104
664.455	5315
664.508	5353
664.562	4883
664.615	6213
664.669	5717
664.722	6463
664.776	5311
664.829	6088
664.883	6517
664.936	5173
664.990	6932
665.043	6927
665.097	6513
665.150	8185
665.203	5975
665.257	6422
665.310	6993
665.363	7238
665.417	7466
665.470	6568
665.523	6934
665.576	7276
665.630	6988
665.683	6432
665.736	6861
665.789	7226
665.842	6108
665.895	6810
665.949	6538
666.002	6603
666.055	5934
666.108	7990
666.161	6154
666.214	7114
666.267	7312
666.320	7729
666.373	6346
666.426	7943
666.479	6568
666.532	7919
666.585	8706
666.638	9159
666.691	7890
666.744	8600
666.796	8138
666.849	7688
666.902	6779
666.955	6768
667.008	7300
667.060	5789
667.113	5412
667.166	7049
667.219	6690
667.271	6492
667.324	6785
667.377	6526
667.430	6194
667.482	7411
667.535	6338
667.587	8297
667.640	6783
667.693	8425
667.745	12003
667.798	11573
667.850	6577
667.903	7878
667.955	5933
668.008	7596
668.060	8211
668.113	7896
668.165	7948
668.218	7504
668.270	7560
668.322	7117
668.375	6595
668.427	7248
668.479	5944
668.532	7188
668.584	6884
668.636	6808
668.689	7242
668.741	7651
668.793	7392
668.845	6581
668.898	6880
668.950	6706
669.002	8484
669.054	6841
669.106	6810
669.158	7633
669.211	6857
669.263	7279
669.315	7720
669.367	8357
669.419	8046
669.471	8495
669.523	9201
669.575	11076
669.627	9787
669.679	8415
669.731	8910
669.783	7738
669.835	8504
669.886	8389
669.938	7474
669.990	7783
670.042	6889
670.094	7596
670.146	8363
670.197	9829
670.249	11388
670.301	13751
670.353	17518
670.404	25395
670.456	35269
670.508	52496
670.560	82029
670.611	133257
670.663	227986
670.715	538236
670.766	816526
670.818	261164
670.869	47764
670.921	26675
670.972	19229
671.024	14329
671.075	13364
671.127	12395
671.178	10810
671.230	11178
671.281	10352
671.333	12322
671.384	12056
671.436	14790
671.487	19095
671.538	24821
671.590	36458
671.641	58100
671.692	101170
671.744	186682
671.795	124914
671.846	42239
671.897	21741
671.949	15994
672.000	11790
672.051	10457
672.102	9715
672.153	8631
672.204	9041
672.256	8868
672.307	7433
672.358	7794
672.409	7565
672.460	7254
672.511	7140
672.562	6430
672.613	5641
672.664	6829
672.715	7146
672.766	6631
672.817	5877
672.868	6432
672.919	4812
672.970	6313
673.021	5841
673.071	5566
673.122	5955
673.173	6074
673.224	5291
673.275	5265
673.326	5822
673.376	6525
673.427	5338
673.478	5643
673.528	5769
673.579	6365
673.630	5492
673.680	7073
673.731	5511
673.782	5289
673.832	5342
673.883	6962
673.934	5858
673.984	5690
674.035	5175
674.085	5896
674.136	6603
674.186	6794
674.237	7734
674.287	10579
674.338	7469
674.388	6502
674.438	6258
674.489	6564
674.539	7021
674.589	7169
674.640	5876
674.690	6175
674.740	6663
674.791	6474
674.841	7144
674.891	6467
674.942	6037
674.992	6465
675.042	4843
675.092	5644
675.142	5241
675.193	5258
675.243	4929
675.293	6141
675.343	5092
675.393	6766
675.443	6311
675.493	5278
675.543	5063
675.593	5955
675.643	5357
675.693	5377
675.743	6196
675.793	5024
675.843	4906
675.893	5598
675.943	5399
675.993	4932
676.043	5309
676.093	5275
676.142	4162
676.192	6023
676.242	5176
676.292	4951
676.341	4633
676.391	5396
676.441	4266
676.491	5077
676.540	3646
676.590	4390
676.640	4483
676.689	4712
676.739	4121
676.789	4096
676.838	3877
676.888	4391
676.937	4791
676.987	4482
677.037	4011
677.086	3572
677.136	4049
677.185	3628
677.235	3522
677.284	4972
677.333	3923
677.383	3991
677.432	4094
677.482	4662
677.531	4223
677.580	4222
677.630	4698
677.679	4082
677.728	4788
677.778	4264
677.827	3521
677.876	3569
677.925	4171
677.975	4442
678.024	4855
678.073	4313
678.122	5430
678.171	5173
678.220	4243
678.269	5881
678.319	6138
678.368	5983
678.417	5873
678.466	5629
678.515	5028
678.564	4385
678.613	4274
678.662	3956
678.711	3818
678.760	4277
678.809	5316
678.857	4876
678.906	4231
678.955	4209
679.004	4435
679.053	3781
679.102	3814
679.151	4220
679.199	3592
679.248	4512
679.297	4582
679.346	4429
679.394	4215
679.443	4426
679.492	3910
679.540	4957
679.589	5057
679.638	4062
679.686	4483
679.735	4624
679.784	4405
679.832	5251
679.881	4112
679.929	3868
679.978	3394
680.026	4183
680.075	3949
680.123	3844
680.172	3755
680.220	3329
680.268	3417
680.317	3144
680.365	4050
680.414	2985
680.462	3833
680.510	4472
680.559	3503
680.607	3252
680.655	3827
680.703	3676
680.752	3812
680.800	3471
680.848	4023
680.896	3938
680.945	3936
680.993	3857
681.041	4175
681.089	3729
681.137	2813
681.185	3380
681.233	3590
681.258	3827
681.281	4040
681.329	3160
681.377	3421
681.380	3449
681.425	3725
681.473	3827
681.502	3570
681.521	3364
681.569	4693
681.617	3831
681.624	3858
681.665	3939
681.713	4586
681.745	3863
681.761	3490
681.809	3770
681.857	4913
681.867	4632
681.904	3613
681.952	4193
681.989	4122
682.000	4086
682.048	3477
682.096	4019
682.111	3821
682.143	3343
682.191	3303
682.233	4876
682.239	5100
682.286	4281
682.334	4220
682.354	4043
682.382	3764
682.430	4215
682.476	4498
682.477	4495
682.525	3733
682.572	3099
682.598	3398
682.620	3622
682.667	3625
682.715	4265
682.720	4284
682.763	4378
682.810	3520
682.841	3940
682.857	4108
682.905	3671
682.952	4267
682.963	4244
683.000	4172
683.047	3949
683.085	5140
683.095	5434
683.142	4581
683.190	4351
683.206	4222
683.237	3999
683.284	4740
683.328	4099
683.332	4030
683.379	3956
683.426	3823
683.449	3845
683.473	3865
683.521	4398
683.568	4270
683.571	4325
683.615	4918
683.662	4626
683.693	4371
683.709	4228
683.757	3869
683.804	4760
683.814	4696
683.851	4338
683.898	4403
683.936	4781
683.945	4883
683.992	4717
684.039	4684
684.057	4898
684.086	5185
684.133	5138
684.179	4755
684.180	4731
684.227	4999
684.274	5051
684.300	5196
684.321	5273
684.368	4611
684.415	4722
684.422	4679
684.462	4493
684.509	4015
684.543	4829
684.556	5072
684.603	4727
684.649	4107
684.665	4423
684.696	5185
684.743	4735
684.786	5021
684.790	5032
684.837	4788
684.883	5604
684.908	5457
684.930	5259
684.977	6269
685.023	5362
685.029	5356
685.070	5190
685.117	4809
685.150	5079
685.164	5235
685.210	5367
685.257	6225
685.272	6085
685.303	5683
685.350	5761
685.393	5133
685.396	5088
685.443	5552
685.490	6118
685.514	6230
685.536	6195
685.583	5801
685.629	5927
685.636	5837
685.675	5384
685.722	6115
685.757	6116
685.768	6108
685.815	6299
685.861	6224
685.878	5963
685.908	5532
685.954	5773
686.000	6447
686.000	6456
686.047	6629
686.093	7389
686.121	7271
686.139	7040
686.185	6752
686.232	6160
686.242	6176
686.278	6171
686.324	6424
686.363	5731
686.370	5647
686.416	5599
686.463	6544
686.484	6141
686.509	5654
686.555	6500
686.601	5872
686.606	5907
686.647	6235
686.693	5824
686.727	5819
686.739	5794
686.785	5660
686.831	6248
686.848	6219
686.877	6221
686.923	5705
686.969	5685
686.969	5684
687.015	6440
687.061	5806
687.090	6326
687.107	6550
687.153	6043
687.199	6189
687.211	5902
687.245	5390
687.291	6566
687.332	6811
687.336	6811
687.382	6576
687.428	6227
687.453	6225
687.474	6261
687.520	5874
687.565	6824
687.574	6665
687.611	6061
687.657	6483
687.695	6692
687.702	6773
687.748	7237
687.794	7948
687.816	7731
687.839	7169
687.885	7088
687.931	5959
687.937	5909
687.976	5980
688.022	6616
688.058	6453
688.067	6402
688.113	6959
688.158	6496
688.179	6558
688.204	6673
688.249	6598
688.295	6670
688.300	6668
688.340	6767
688.386	7565
688.421	7106
688.431	6939
688.477	7238
688.522	6996
688.542	6939
688.567	7014
688.613	7111
688.658	7653
688.663	7586
688.703	6858
688.749	7591
688.784	7133
688.794	7004
688.839	6710
688.884	6690
688.905	6959
688.930	7383
688.975	6864
689.020	7022
689.026	6980
689.065	6681
689.110	6858
689.146	6785
689.155	6773
689.201	6863
689.246	6738
689.267	6916
689.291	7235
689.336	7054
689.381	7324
689.388	7351
689.426	7175
689.471	6820
689.509	6876
689.516	6940
689.561	6482
689.606	7029
689.630	6981
689.651	6958
689.696	6815
689.741	7084
689.750	7116
689.785	7359
689.830	7447
689.871	7271
689.875	7208
689.920	6880
689.965	7036
689.992	6797
690.010	6917
690.054	6646
690.099	7388
690.112	7480
690.144	7374
690.189	7212
690.233	6449
690.233	6454
690.278	6912
690.323	6237
690.354	6399
690.367	6577
690.412	6808
690.457	7406
690.474	7429
690.501	7358
690.546	7477
690.590	7392
690.595	7377
690.635	7229
690.680	7125
690.716	7121
690.724	7158
690.769	6893
690.813	7074
690.836	7011
690.857	7092
690.902	7482
690.946	7649
690.957	7760
690.991	8351
691.035	8743
691.077	9505
691.080	9528
691.124	9323
691.168	9404
691.198	9102
691.213	8954
691.257	9208
691.301	8699
691.318	8707
691.346	8558
691.390	7929
691.434	7356
691.439	7272
691.478	7202
691.522	8015
691.559	7751
691.567	7745
691.611	8083
691.655	8124
691.680	8340
691.699	8413
691.743	8337
691.787	8444
691.800	8471
691.831	8507
691.875	8558
691.919	8136
691.921	8121
691.964	8387
692.008	8668
692.041	8622
692.052	8548
692.096	8762
692.139	8696
692.162	8545
692.183	8543
692.227	9000
692.271	8701
692.282	8703
692.315	8606
692.359	8604
692.402	8643
692.403	8659
692.447	8533
692.490	8386
692.523	8612
692.534	8728
692.578	8796
692.622	8903
692.643	8805
692.666	8562
692.709	8469
692.753	8226
692.763	8145
692.797	8191
692.840	7802
692.884	8159
692.884	8179
692.928	8463
692.971	8368
693.004	8518
693.015	8537
693.059	8342
693.102	8516
693.124	8402
693.146	8548
693.189	8784
693.233	9421
693.245	9570
693.276	9513
693.320	8862
693.363	8424
693.365	8398
693.407	8691
693.450	8803
693.485	8870
693.493	8894
693.537	9248
693.580	9160
693.605	9361
693.624	9547
693.667	9522
693.710	9652
693.725	9684
693.753	10372
693.797	11523
693.840	12721
693.845	12813
693.883	12361
693.926	11563
693.966	11182
693.970	11141
694.013	10326
694.056	9604
694.086	9146
694.099	9247
694.142	9428
694.185	9521
694.206	9491
694.229	9339
694.272	9294
694.315	9353
694.326	9265
694.358	9310
694.401	9390
694.444	9651
694.446	9635
694.487	9464
694.530	9576
694.566	9168
694.573	9121
694.616	8974
694.659	8852
694.686	8820
694.702	8818
694.745	8865
694.787	8379
694.806	8265
694.830	8320
694.873	8626
694.916	8651
694.926	8652
694.959	8715
695.002	8803
695.044	8951
695.046	8933
695.087	9172
695.130	9382
695.166	9744
695.172	9761
695.215	9459
695.258	9230
695.286	9055
695.301	9220
695.343	9646
695.386	10202
695.406	10330
695.428	10207
695.471	10013
695.514	10029
695.526	9935
695.556	10112
695.599	10608
695.641	10720
695.646	10726
695.684	10362
695.726	9887
695.766	9517
695.769	9541
695.811	9437
695.854	9570
695.886	9528
695.896	9597
695.938	9702
695.981	9977
696.005	9992
696.023	10151
696.065	10668
696.108	11213
696.125	11389
696.150	11262
696.192	10845
696.235	10650
696.245	10575
696.277	10907
696.319	11067
696.361	11499
696.365	11483
696.404	11224
696.446	11136
696.485	10911
696.488	10950
696.530	11341
696.572	11517
696.604	11769
696.614	11740
696.656	11239
696.698	10843
696.724	10640
696.740	10784
696.783	10974
696.825	11199
696.844	11246
696.867	11217
696.909	11175
696.951	11137
696.964	11093
696.992	11336
697.034	11701
697.076	12006
697.083	12023
697.118	11876
697.160	11720
697.202	11606
697.203	11571
697.244	11347
697.286	11148
697.323	10951
697.327	10990
697.369	11054
697.411	11172
697.442	11212
697.453	11340
697.494	11719
697.536	12149
697.562	12370
697.578	12384
697.620	12324
697.661	12317
697.682	12230
697.703	12520
697.744	13198
697.786	13824
697.801	13983
697.828	13750
697.869	13401
697.911	13012
697.921	12883
697.952	12679
697.994	12352
698.035	12103
698.040	12036
698.077	11956
698.118	11865
698.160	11800
698.160	11772
698.201	12146
698.243	12573
698.279	12905
698.284	12955
698.325	13104
698.367	13280
698.399	13365
698.408	13413
698.449	13503
698.491	13570
698.518	13597
698.532	13506
698.573	13113
698.614	12730
698.638	12453
698.656	12626
698.697	13004
698.738	13362
698.757	13490
698.779	13502
698.820	13476
698.862	13458
698.877	13408
698.903	13581
698.944	13823
698.985	14059
698.996	14092
699.026	13987
699.067	13793
699.116	13529
699.235	14457
699.354	13116
699.474	13364
699.593	14958
699.713	14333
699.832	13796
699.951	14111
700.070	14124
700.190	12686
700.309	13293
700.428	14032
700.547	12413
700.667	12655
700.786	13003
700.905	12319
701.024	12764
701.143	12443
701.262	11782
701.381	12111
701.500	12981
701.619	13374
701.738	12443
701.857	12514
701.976	11679
702.095	12587
702.214	13373
702.333	12503
702.452	12172
702.571	13179
702.690	12173
702.809	12242
702.928	11810
703.047	11498
703.165	11593
703.284	12848
703.403	11827
703.522	12678
703.640	12463
703.759	13686
703.878	15897
703.997	12303
704.115	12126
704.234	10300
704.353	11268
704.471	11069
704.590	10457
704.708	10296
704.827	9601
704.946	10972
705.064	11269
705.183	10750
705.301	12158
705.420	15972
705.538	14121
705.656	10849
705.775	11451
705.893	16214
706.012	16481
706.130	12075
706.249	12623
706.367	11935
706.485	12879
706.604	12148
706.722	13130
706.840	15283
706.958	16699
707.077	13833
707.195	11067
707.313	11626
707.431	11580
707.549	10475
707.668	10683
707.786	12645
707.904	11354
708.022	12189
708.140	11087
708.258	11005
708.376	12093
708.494	11173
708.612	13566
708.730	16600
708.848	15069
708.966	15346
709.084	14164
709.202	13047
709.320	12575
709.438	13674
709.556	12819
709.674	13375
709.791	12866
709.909	12499
710.027	11837
710.145	13062
710.263	13169
710.380	12195
710.498	11997
710.616	12862
710.733	11688
710.851	13811
710.969	13492
711.086	13132
711.204	12201
711.322	12525
711.439	12050
711.557	11836
711.674	11896
711.792	11898
711.909	11421
712.027	12076
712.144	10826
712.262	11932
712.379	13700
712.497	17232
712.614	15526
712.732	14354
712.849	14234
712.966	15632
713.084	17007
713.201	15367
713.318	14757
713.436	15154
713.553	15660
713.670	16532
713.787	17286
713.905	16141
714.022	15658
714.139	16471
714.256	21463
714.373	31110
714.490	60215
714.608	181518
714.725	747184
714.842	518967
714.959	43006
715.076	23176
715.193	18020
715.310	17522
715.427	13300
715.544	13794
715.661	13729
715.778	13159
715.895	14023
716.011	14495
716.128	12399
716.245	14303
716.362	14902
716.479	13889
716.596	12250
716.713	12441
716.829	11822
716.946	12562
717.063	11356
717.180	11223
717.296	10690
717.413	11368
717.530	11724
717.646	11490
717.763	10847
717.880	10496
717.996	10552
718.113	10800
718.229	9689
718.346	9749
718.462	10857
718.579	13032
718.695	19152
718.812	15554
718.928	14015
719.045	10766
719.161	10369
719.277	11745
719.394	10063
719.510	11630
719.626	13323
719.743	17907
719.859	26148
719.975	59498
720.092	253443
720.208	418036
720.324	41365
720.440	16162
720.557	14152
720.673	18333
720.789	24097
720.905	41569
721.021	14299
721.137	10715
721.253	10253
721.369	10883
721.486	12249
721.602	14868
721.718	9559
721.834	9152
721.950	9413
722.066	8317
722.181	9014
722.297	10238
722.413	8998
722.529	9361
722.645	8608
722.761	9976
722.877	8257
722.993	9445
723.108	10990
723.224	10930
723.340	8853
723.456	8213
723.571	8814
723.687	8594
723.803	8540
723.918	7694
724.034	7744
724.150	8451
724.265	10362
724.381	18449
724.497	18525
724.612	7748
724.728	7574
724.843	8607
724.959	10471
725.074	18453
725.190	16796
725.305	8746
725.421	7524
725.536	7713
725.651	7804
725.767	7021
725.882	7538
725.997	7097
726.113	7750
726.228	7413
726.343	6189
726.459	6560
726.574	7514
726.689	6885
726.804	7498
726.920	6897
727.035	6634
727.150	6596
727.265	6941
727.380	7796
727.495	7031
727.610	6455
727.725	7329
727.841	8041
727.956	8549
728.071	8915
728.186	6968
728.301	6373
728.416	7035
728.531	6651
728.645	6463
728.760	7317
728.875	8008
728.990	6638
729.105	7195
729.220	7382
729.335	6888
729.449	6771
729.564	5653
729.679	6736
729.794	6290
729.908	7878
730.023	6225
730.138	5910
730.253	6547
730.367	5028
730.482	6134
730.596	6752
730.711	7341
730.826	8732
730.940	8120
731.055	7559
731.169	6530
731.284	7026
731.398	7067
731.513	8635
731.627	8700
731.742	10770
731.856	10478
731.970	11078
732.085	14517
732.199	21400
732.313	39383
732.428	115787
732.542	318321
732.656	132526
732.771	25815
732.885	14497
732.999	13086
733.113	14235
733.227	10493
733.342	10980
733.456	9740
733.570	9010
733.684	9272
733.798	9070
733.912	8828
734.026	8411
734.140	8890
734.254	10623
734.368	14849
734.482	14120
734.596	8663
734.710	9188
734.824	7987
734.938	9188
735.052	8077
735.166	9217
735.280	8308
735.393	8908
735.507	8930
735.621	10754
735.735	13830
735.849	8728
735.962	7499
736.076	9355
736.190	8700
736.303	10766
736.417	11472
736.531	7671
736.644	8672
736.758	7371
736.872	7026
736.985	8284
737.099	7528
737.212	7127
737.326	7289
737.439	7831
737.553	7033
737.666	7616
737.780	7596
737.893	7571
738.007	6989
738.120	6938
738.233	7062
738.347	6588
738.460	7899
738.573	7787
738.687	7362
738.800	8221
738.913	7959
739.026	7653
739.140	6856
739.253	7139
739.366	6811
739.479	6858
739.592	4911
739.705	5689
739.818	7245
739.932	6413
740.045	6852
740.158	6325
740.271	6679
740.384	5866
740.497	7343
740.610	7914
740.723	7251
740.836	7825
740.949	7683
741.062	8579
741.174	7270
741.287	7288
741.400	6302
741.513	6669
741.626	7191
741.739	6554
741.851	5762
741.964	6144
742.077	6686
742.189	6482
742.302	7489
742.415	7780
742.527	6373
742.640	7116
742.753	6550
742.865	5160
742.978	5724
743.090	5699
743.203	6303
743.316	5866
743.428	5905
743.541	6206
743.653	4705
743.766	5781
743.878	5609
743.990	7099
744.103	6777
744.215	6088
744.327	5187
744.440	7157
744.552	8180
744.664	4956
744.777	5615
744.889	5804
745.001	5143
745.113	6035
745.226	3992
745.338	4937
745.450	5110
745.562	5497
745.674	4937
745.786	4922
745.898	4980
746.010	4947
746.122	5465
746.234	5864
746.347	5009
746.459	5852
746.570	4308
746.682	6167
746.794	6042
746.906	4478
747.018	4372
747.130	4699
747.242	4996
747.354	4690
747.466	5819
747.577	4472
747.689	5596
747.801	4600
747.913	3871
748.024	4731
748.136	3706
748.248	4298
748.359	3997
748.471	4802
748.583	4103
748.694	4654
748.806	4934
748.918	5365
749.029	4394
749.141	5090
749.252	5916
749.364	5608
749.475	8237
749.587	5825
749.698	3970
749.809	4688
749.921	4230
750.032	4446
750.144	3692
750.255	4649
750.366	3855
750.478	4833
750.589	4102
750.700	4161
750.811	4338
750.923	4808
751.034	9919
751.145	8215
751.256	4050
751.367	4080
751.479	3120
751.590	3948
751.701	3237
751.812	3918
751.923	3519
752.034	4283
752.145	4664
752.256	3763
752.367	3155
752.478	3368
752.589	4150
752.700	3267
752.811	3201
752.922	3767
753.032	3909
753.143	4900
753.254	3089
753.365	5718
753.476	3786
753.586	3527
753.697	3478
753.808	3739
753.919	3321
754.029	3196
754.140	3283
754.251	3990
754.361	3733
754.472	3528
754.582	3624
754.693	4282
754.804	3712
754.914	2648
755.025	3005
755.135	3448
755.246	2767
755.356	3777
755.466	3644
755.577	3483
755.687	3268
755.798	3775
755.908	2888
756.018	2786
756.129	3070
756.239	4281
756.349	3730
756.460	3744
756.570	4508
756.680	3413
756.790	3265
756.900	3229
757.011	2914
757.121	3963
757.231	3744
757.341	3840
757.451	1987
757.561	2870
757.671	2743
757.781	2620
757.891	3614
758.001	3568
758.111	3695
758.221	3869
758.331	4619
758.441	4902
758.551	4899
758.661	4847
758.771	4402
758.880	3760
758.990	3691
759.100	4451
759.210	3835
759.320	4447
759.429	4401
759.539	4474
759.649	5035
759.758	4892
759.868	6046
759.978	5826
760.087	5827
760.197	6745
760.307	5516
760.416	5111
760.526	4681
760.635	5659
760.745	6683
760.854	6765
760.964	6900
761.073	6768
761.182	6260
761.292	4855
761.401	5420
761.511	4133
761.620	4489
761.729	4842
761.839	3396
761.948	4723
762.057	3702
762.166	3109
762.276	3256
762.385	5181
762.494	4199
762.603	3997
762.712	4286
762.822	3092
762.931	2922
763.040	2689
763.149	2726
763.258	3328
763.367	2851
763.476	3963
763.585	3463
763.694	4253
763.803	3746
763.912	3971
764.021	3560
764.130	4006
764.238	4083
764.347	4360
764.456	4022
764.565	4547
764.674	5121
764.783	4865
764.891	3828
765.000	4781
765.109	4107
765.217	4079
765.326	5817
765.435	7249
765.543	7062
765.652	7554
765.761	8058
765.869	12373
765.978	19825
766.086	37638
766.195	78923
766.303	227898
766.412	590497
766.520	347556
766.629	75564
766.737	30148
766.846	18306
766.954	13256
767.062	11899
767.171	9187
767.279	8563
767.387	7250
767.496	5858
767.604	5731
767.712	5130
767.820	5468
767.928	4773
768.037	4331
768.145	4429
768.253	5723
768.361	3887
768.469	4706
768.577	3728
768.685	5113
768.793	5089
768.901	4689
769.009	6092
769.117	5561
769.225	6570
769.333	10490
769.441	15433
769.549	31325
769.657	78963
769.765	278677
769.873	419529
769.981	96992
770.088	23916
770.196	12392
770.304	10110
770.412	8931
770.519	6317
770.627	6426
770.735	5584
770.842	6087
770.950	4717
771.058	4832
771.165	5327
771.273	5633
771.380	5325
771.488	6604
771.595	6171
771.703	5932
771.810	6028
771.918	5151
772.025	6947
772.133	6944
772.240	5966
772.348	8309
772.455	6545
772.562	6873
772.670	6204
772.777	6911
772.884	7531
772.991	6184
773.099	6079
773.206	6078
773.313	6017
773.420	7388
773.528	5314
773.635	6194
773.742	5821
773.849	6505
773.956	5756
774.063	5743
774.170	5904
774.277	6644
774.384	6015
774.491	5690
774.598	6107
774.705	6106
774.812	5831
774.919	6337
775.026	5381
775.133	6536
775.239	5492
775.346	5020
775.453	5510
775.560	5315
775.667	5989
775.773	4493
775.880	5832
775.987	5155
776.093	5675
776.200	5199
776.307	4070
776.413	5340
776.520	6589
776.627	5226
776.733	5330
776.840	3780
776.946	6823
777.053	6381
777.159	6637
777.266	5004
777.372	7509
777.478	6607
777.585	5373
777.691	3987
777.798	4574
777.904	4949
778.010	6443
778.117	5415
778.223	5065
778.329	4404
778.435	4126
778.542	5377
778.648	3607
778.754	4161
778.860	5090
778.966	4670
779.072	3892
779.178	5161
779.284	4359
779.391	4939
779.497	3447
779.603	6595
779.708	3528
779.815	6360
779.920	12107
780.026	11772
780.132	4939
780.238	3630
780.344	4286
780.450	4765
780.556	3412
780.661	4459
780.767	3681
780.873	3784
780.979	3897
781.085	3583
781.190	4173
781.296	3439
781.402	4481
781.507	3735
781.613	3739
781.719	3793
781.824	3642
781.930	3984
782.035	4017
782.141	4123
782.246	3258
782.352	3752
782.457	3027
782.563	3375
782.668	3406
782.773	3648
782.879	2874
782.984	4439
783.090	3954
783.195	6078
783.300	4888
783.405	4092
783.511	2707
783.616	4248
783.721	3940
783.826	3000
783.932	4050
784.037	3904
784.142	2601
784.247	4115
784.352	4184
784.457	3935
784.562	4426
784.667	3401
784.772	3176
784.877	3011
784.982	3828
785.087	4135
785.192	4055
785.297	3471
785.402	3596
785.507	3784
785.611	2899
785.716	3842
785.821	3741
785.926	2956
786.031	3266
786.135	3189
786.240	2230
786.345	1632
786.450	2751
786.554	4131
786.659	2512
786.763	2438
786.868	3233
786.973	4195
787.077	2759
787.182	2173
787.286	3073
787.391	2737
787.495	1738
787.600	2623
787.704	3209
787.809	2607
787.913	1842
788.017	3808
788.122	2383
788.226	1901
788.330	1806
788.435	2834
788.539	3322
788.643	1782
788.747	1682
788.852	1949
788.956	2100
789.060	2905
789.164	2896
789.268	2837
789.372	2975
789.476	2766
789.580	2588
789.684	1702
789.788	2545
789.892	1896
789.996	2462
790.100	2167
790.204	2083
790.308	3167
790.412	1306
790.516	2769
790.620	1836
790.724	3643
790.828	1713
790.931	1262
791.035	3312
791.139	1917
791.242	1752
791.346	2675
791.450	2009
791.554	2631
791.657	1402
791.761	3250
791.864	2627
791.968	2843
792.072	2201
792.175	2286
792.279	2354
792.382	2820
792.486	2269
792.589	2421
792.693	2725
792.796	2010
792.899	2281
793.003	2059
793.106	688
793.209	2328
793.313	3389
793.416	392
793.519	2214
793.623	4389
793.726	3348
793.829	2665
793.932	2005
794.035	1667
794.138	2870
794.242	3441
794.345	2207
794.448	2699
794.551	3277
794.654	7357
794.757	6115
794.860	3845
794.963	2497
795.066	877
795.169	2268
795.272	1368
795.375	1484
795.477	1291
795.580	1768
795.683	582
795.786	1842
795.889	632
795.991	2536
796.094	2983
796.197	882
796.300	3599
796.402	1327
796.505	1426
796.608	1356
796.710	1877
796.813	1930
796.915	2258
797.018	1756
797.120	1804
797.223	498
797.326	3362
797.428	1129
797.530	435
797.633	1169
797.735	4273
797.838	2580
797.940	3310
798.042	543
798.145	1292
798.247	1792
798.349	-131
798.452	2470
798.554	1989
798.656	1510
798.758	2984
798.860	2153
798.962	1196
799.065	472
799.167	678
799.269	2565
799.371	2974
799.473	3368
799.575	1806
799.677	1909
799.779	3903
799.881	2155
799.983	3158
800.085	1319
800.187	1339
800.289	1054
800.390	1972
800.492	1378
800.594	1580
800.696	234
800.798	1193
800.899	457
801.001	748
801.103	1114
801.205	1386
801.306	1226
801.408	1017
801.509	1239
801.611	1616
801.713	1442
801.814	191
801.916	979
802.017	1491
802.119	337
802.220	1703
802.322	118
802.423	2908
802.525	248
802.626	1943
802.727	2395
802.829	2136
802.930	-1028
803.031	2265
803.133	657
803.234	1204
803.335	1715
803.436	117
803.538	1190
803.639	701
803.740	423
803.841	790
803.942	1545
804.043	1926
804.144	223
804.245	1187
804.346	252
804.447	1174
804.548	2161
804.649	2825
804.750	679
804.851	761
804.952	631
805.053	448
805.154	-209
805.255	1452
805.355	891
805.456	866
805.557	530
805.658	312
805.758	1448
805.859	766
805.960	762
806.061	632
806.161	-14
806.262	1285
806.362	591
806.463	992
806.564	926
806.664	963
806.765	1360
806.865	1363
806.966	437
807.066	218
807.166	906
807.267	1813
807.367	254
807.468	1675
807.568	-573
807.668	965
807.769	1334
807.869	1367
807.969	866
808.069	1032
808.170	478
808.270	582
808.370	1648
808.470	845
808.570	703
808.670	580
808.770	531
808.870	-60
808.970	1210
809.070	683
809.170	490
809.271	1114
809.370	795
809.470	954
809.570	516
809.670	61
809.770	454
809.870	1621
809.970	1229
810.070	1008
810.169	639
810.269	-490
810.369	1135
810.469	504
810.568	324
810.668	931
810.768	323
810.867	626
810.967	-84
811.066	937
811.166	-284
811.265	636
811.365	420
811.464	546
811.564	1036
811.663	1282
811.763	-652
811.862	986
811.962	2114
812.061	171
812.160	608
812.260	1080
812.359	1198
812.458	1077
812.557	3835
812.657	4351
812.756	1954
812.855	1214
812.954	759
813.053	1616
813.153	779
813.252	492
813.351	250
813.450	1590
813.549	-321
813.648	1034
813.747	1020
813.846	1958
813.945	58
814.044	878
814.143	880
814.242	1747
814.341	1028
814.439	386
814.538	1801
814.637	951
814.736	909
814.835	2621
814.933	-367
815.032	863
815.131	2784
815.229	4544
815.328	3913
815.427	2725
815.525	2394
815.624	2829
815.722	3185
815.821	3604
815.919	2886
816.018	2973
816.116	4506
816.215	3352
816.313	3360
816.412	4769
816.510	4822
816.609	5302
816.707	5228
816.805	4205
816.904	3833
817.002	5608
817.100	6024
817.198	7068
817.296	6099
817.395	7647
817.493	8074
817.591	8485
817.689	12896
817.787	15266
817.885	24904
817.983	46280
818.081	99909
818.179	235808
818.277	476702
818.375	311936
818.473	99989
818.571	44115
818.669	29952
818.767	26494
818.865	27403
818.963	33521
819.061	49589
819.158	87036
819.256	182069
819.354	410151
819.452	654903
819.549	363351
819.647	133086
819.745	60822
819.842	39293
819.940	26250
820.038	18935
820.135	14210
820.233	12613
820.330	9754
820.428	8064
820.525	9273
820.623	7287
820.720	6305
820.818	5798
820.915	6555
821.012	5400
821.110	3783
821.207	4787
821.304	4231
821.402	4240
821.499	4284
821.596	5205
821.693	4624
821.791	4565
821.888	4575
821.985	6546
822.082	4114
822.179	3965
822.276	3147
822.373	2531
822.470	3161
822.567	3222
822.664	2048
822.761	3459
822.858	2543
822.955	3311
823.052	2600
823.149	2169
823.246	2959
823.343	2226
823.440	3619
823.536	2283
823.633	1793
823.730	1820
823.827	2280
823.923	1397
824.020	2730
824.117	2464
824.213	1925
824.310	2008
824.407	1937
824.503	2447
824.600	1996
824.696	1503
824.793	1901
824.889	724
824.986	1485
825.082	1329
825.179	1569
825.275	2072
825.371	1092
825.468	476
825.564	946
825.660	2176
825.757	2343
825.853	1663
825.949	1129
826.045	1098
826.142	1616
826.238	774
826.334	1436
826.430	1136
826.526	1363
826.622	680
826.718	2396
826.814	826
826.910	1752
827.006	1136
827.102	208
827.198	1670
827.294	2247
827.390	927
827.486	1531
827.582	27
827.678	912
827.774	2442
827.869	535
827.965	1863
828.061	605
828.157	1153
828.252	1451
828.348	873
828.444	1366
828.539	436
828.635	977
828.731	2326
828.826	598
828.922	1613
829.017	1634
829.113	1856
829.208	360
829.304	-156
829.399	2219
829.495	605
829.590	1561
829.685	484
829.781	1221
829.876	805
829.971	312
830.066	279
830.162	1283
830.257	1528
830.352	902
830.447	1022
830.543	1167
830.638	345
830.733	2002
830.828	362
830.923	2584
831.018	454
831.113	1364
831.208	452
831.303	359
831.398	720
831.493	1173
831.588	993
831.683	-153
831.778	1091
831.873	816
831.967	2524
832.062	1726
832.157	-266
832.252	1780
832.346	340
832.441	1725
832.536	1563
832.631	4913
832.725	2659
832.820	1170
832.914	433
833.009	-161
833.104	554
833.198	1606
833.293	712
833.387	1617
833.482	436
833.576	515
833.670	1390
833.765	1133
833.859	796
833.954	2111
834.048	837
834.142	1421
834.237	-394
834.331	430
834.425	174
834.519	103
834.613	453
834.708	431
834.802	428
834.896	247
834.990	536
835.084	622
835.178	120
835.272	283
835.366	1043
835.460	255
835.554	324
835.648	519
835.742	31
835.836	1019
835.930	-797
836.024	1027
836.117	1340
836.211	651
836.305	1275
836.399	2129
836.493	199
836.586	1837
836.680	-45
836.774	199
836.867	1489
836.961	-386
837.055	-191
837.148	880
837.242	287
837.335	101
837.429	563
837.522	335
837.616	685
837.709	2358
837.803	626
837.896	1609
837.989	952
838.083	1700
838.176	2813
838.269	1594
838.363	1300
838.456	269
838.549	1368
838.642	2186
838.735	4196
838.829	1708
838.922	-10
839.015	561
839.108	-268
839.201	715
839.294	1055
839.387	938
839.480	-851
839.573	1548
839.666	1018
839.759	-635
839.852	-103
839.945	980
840.038	-1056
840.131	216
840.223	484
840.316	1132
840.409	-498
840.502	240
840.594	1406
840.687	-428
840.780	-637
840.873	532
840.965	110
841.058	1451
841.150	1882
841.243	259
841.336	390
841.428	882
841.521	-436
841.613	315
841.706	-258
841.798	-370
841.890	249
841.983	-576
842.075	211
842.167	447
842.260	268
842.352	1160
842.444	1316
842.537	3212
842.629	3484
842.721	730
842.813	427
842.905	-272
842.997	590
843.090	358
843.182	1296
843.274	2949
843.366	8513
843.458	13254
843.550	7235
843.642	59
843.734	622
843.826	594
843.918	-128
844.009	662
844.101	-65
844.193	-194
844.285	-934
844.377	809
844.469	423
844.560	1032
844.652	422
844.744	798
844.835	755
844.927	528
845.019	200
845.110	315
845.202	738
845.293	-19
845.385	-1239
845.476	72
845.568	362
845.659	-220
845.751	790
845.842	-343
845.934	329
846.025	-634
846.116	187
846.208	-300
846.299	288
846.390	-230
846.482	-375
846.573	506
846.664	455
846.755	979
846.846	623
846.937	-918
847.029	-10
847.120	6
847.211	-602
847.302	1167
847.393	-414
847.484	274
847.575	-1087
847.666	-563
847.757	-1018
847.847	-407
847.938	555
848.029	-214
848.120	-970
848.211	429
848.302	-498
848.392	-247
848.483	11
848.574	626
848.664	285
848.755	252
848.846	129
848.936	31
849.027	593
849.118	307
849.208	34
849.299	1979
849.389	5054
849.480	11368
849.570	21574
849.661	44505
849.751	65164
849.841	19106
849.932	2578
850.022	386
850.112	363
850.203	646
850.293	456
850.383	87
850.474	30
850.564	-182
850.654	-462
850.744	-533
850.834	85
850.924	454
851.014	341
851.104	288
851.194	-779
851.284	998
851.374	1027
851.464	836
851.554	209
851.644	941
851.734	828
851.824	132
851.914	-389
852.004	436
852.094	-913
852.183	-128
852.273	144
852.363	-386
852.452	-26
852.542	-198
852.632	-155
852.721	641
852.811	-143
852.901	476
852.990	314
853.080	1375
853.169	1061
853.259	1517
853.348	133
853.438	1669
853.527	3531
853.617	7296
853.706	13636
853.795	28279
853.885	62218
853.974	111990
854.063	212739
854.152	273395
854.242	90594
854.331	18879
854.420	7298
854.509	5144
854.598	3779
854.687	3337
854.777	3267
854.866	1655
854.955	1031
855.044	288
855.133	783
855.222	1053
855.311	378
855.400	1410
855.488	76
855.577	139
855.666	293
855.755	876
855.844	684
855.933	-304
856.021	260
856.110	997
856.199	-362
856.288	-862
856.376	445
856.465	-722
856.554	430
856.642	103
856.731	-671
856.819	496
856.908	-940
856.996	-1059
857.085	-898
857.173	64
857.262	-450
857.350	-179
857.438	-271
857.527	145
857.615	-1223
857.703	20
857.792	-899
857.880	-181
857.968	-290
858.056	-205
858.145	-850
858.233	-562
858.321	-474
858.409	662
858.497	-1042
858.585	-436
858.673	-303
858.761	-284
858.849	-1193
858.937	404
859.025	-190
859.113	-2
859.201	-861
859.289	307
859.377	175
859.465	683
859.552	-102
859.640	-199
859.728	-216
859.816	-862
859.903	248
859.991	-184
860.079	-7
860.166	-270
860.254	-859
860.342	-32
860.429	-794
860.517	-558
860.604	-167
860.692	84
860.779	-665
860.867	463
860.954	-662
861.042	-305
861.129	541
861.216	149
861.304	-151
861.391	-330
861.478	-285
861.565	580
861.653	775
861.740	-668
861.827	-567
861.914	92
862.001	-653
862.089	-90
862.176	-287
862.263	-63
862.350	-666
862.437	21
862.524	-957
862.611	388
862.698	91
862.785	614
862.871	152
862.958	-542
863.045	-28
863.132	107
863.219	-48
863.306	-589
863.392	112
863.479	-175
863.566	-119
863.652	319
863.739	-71
863.826	109
863.912	-333
863.999	-151
864.086	-271
864.172	1142
864.259	-448
864.345	-126
864.432	76
864.518	254
864.604	144
864.691	597
864.777	-52
864.863	713
864.950	1798
865.036	1857
865.122	3260
865.209	4189
865.295	3557
865.381	4223
865.467	4522
865.553	5313
865.639	9400
865.726	15542
865.812	31960
865.898	59790
865.984	87796
866.070	167235
866.156	148391
866.242	37441
866.328	9196
866.414	5136
866.499	4278
866.585	3421
866.671	2894
866.757	3163
866.843	2195
866.928	2395
867.014	1735
867.100	2475
867.186	2416
867.271	3081
867.357	2311
867.442	2300
867.528	2745
867.614	2764
867.699	1951
867.785	2762
867.870	1770
867.956	2491
868.041	2311
868.127	2347
868.212	2089
868.297	2457
868.383	1703
868.468	2341
868.553	2388
868.639	3989
868.724	5190
868.809	4347
868.894	1328
868.979	1674
869.065	1255
869.150	406
869.235	1546
869.320	1500
869.405	912
869.490	989
869.575	725
869.660	1887
869.745	1724
869.830	746
869.915	491
870.000	709
870.085	868
870.169	1756
870.254	1318
870.339	774
870.424	49
870.509	1480
870.593	1147
870.678	1345
870.763	25
870.847	666
870.932	934
871.016	874
871.101	224
871.186	169
871.270	1330
871.355	297
871.439	1275
871.523	1243
871.608	413
871.692	1503
871.777	1074
871.861	1211
871.945	194
872.030	183
872.114	689
872.198	594
872.282	651
872.367	1464
872.451	531
872.535	1280
872.619	849
872.703	425
872.787	327
872.871	1105
872.955	346
873.039	359
873.123	534
873.207	657
873.291	536
873.375	1377
873.459	702
873.543	1258
873.627	-215
873.711	62
873.794	641
873.878	1069
873.962	558
874.045	20
874.129	350
874.137	352
874.213	375
874.245	439
874.296	538
874.352	561
874.380	577
874.460	82
874.464	61
874.547	81
874.568	211
874.631	601
874.676	659
874.714	698
874.784	308
874.798	240
874.881	698
874.892	669
874.965	427
874.999	437
875.048	470
875.107	141
875.131	-8
875.215	1381
875.215	1380
875.298	383
875.323	571
875.381	1060
875.430	1112
875.465	1132
875.538	819
875.548	766
875.631	-788
875.646	-626
875.714	228
875.753	411
875.798	604
875.861	555
875.881	558
875.964	337
875.968	330
876.047	30
876.076	97
876.130	304
876.183	711
876.213	969
876.291	1447
876.296	1467
876.379	548
876.398	520
876.462	427
876.506	544
876.545	727
876.613	801
876.628	793
876.711	470
876.721	582
876.794	1537
876.828	1335
876.877	959
876.935	240
876.960	23
877.043	1313
877.043	1313
877.125	1239
877.150	1371
877.208	1697
877.258	1443
877.291	1283
877.365	1171
877.374	1167
877.456	1043
877.472	1079
877.539	1043
877.579	1423
877.622	1945
877.687	1826
877.704	1750
877.787	1268
877.794	1273
877.869	1319
877.901	1258
877.952	1155
878.008	825
878.034	793
878.115	364
878.117	349
878.199	878
878.222	861
878.282	1098
878.329	1281
878.364	1298
878.437	1237
878.447	1218
878.529	562
878.544	520
878.611	431
878.651	496
878.694	608
878.758	978
878.776	1070
878.858	1593
878.865	1518
878.941	455
878.972	469
879.023	618
879.078	611
879.105	741
879.185	1578
879.187	1587
879.269	964
879.292	1009
879.351	1134
879.399	790
879.433	497
879.506	888
879.516	955
879.598	-177
879.613	-63
879.680	640
879.720	688
879.762	609
879.827	876
879.844	967
879.926	1253
879.933	1203
880.007	761
880.040	1014
880.089	1389
880.147	1860
880.171	2127
880.253	3499
880.254	3507
880.335	5098
880.360	5687
880.417	8523
880.467	12492
880.499	15086
880.574	17651
880.580	17243
880.662	6208
880.680	4671
880.744	1958
880.787	818
880.825	776
880.893	789
880.907	644
880.989	622
881.000	526
881.070	748
881.106	988
881.152	924
881.213	533
881.233	504
881.315	1257
881.319	1248
881.396	883
881.426	688
881.478	669
881.532	761
881.559	659
881.639	1035
881.641	1048
881.722	461
881.745	612
881.803	991
881.852	591
881.885	293
881.958	1016
881.966	1102
882.047	695
882.064	668
882.129	1015
882.171	1169
882.210	1322
882.277	2324
882.291	2355
882.372	1349
882.383	1250
882.454	1103
882.489	948
882.535	838
882.596	1228
882.616	1196
882.697	-141
882.702	-149
882.778	817
882.808	896
882.859	606
882.914	747
882.940	813
883.020	394
883.021	393
883.102	521
883.127	371
883.183	578
883.233	1069
883.264	1147
883.339	1055
883.345	1016
883.426	159
883.445	144
883.507	593
883.551	646
883.587	698
883.657	640
883.668	650
883.749	1059
883.763	1080
883.830	788
883.869	739
883.910	711
883.975	282
883.991	247
884.072	517
884.081	539
884.152	1174
884.187	1394
884.233	1275
884.292	1154
884.314	1024
884.394	442
884.398	397
884.475	360
884.504	566
884.555	824
884.610	856
884.636	914
884.716	1309
884.716	1316
884.797	1354
884.821	1421
884.877	1130
884.927	587
884.958	474
885.033	507
885.038	489
885.118	33
885.139	5
885.199	475
885.244	593
885.279	746
885.350	1393
885.359	1456
885.439	1408
885.456	1384
885.520	897
885.561	776
885.600	562
885.667	389
885.680	512
885.760	748
885.773	836
885.840	993
885.878	959
885.920	1163
885.984	1470
886.000	1400
886.080	1044
886.089	1030
886.160	1158
886.195	995
886.240	928
886.300	1159
886.320	1250
886.400	1346
886.406	1353
886.480	1268
886.511	1245
886.560	1431
886.616	1483
886.640	1166
886.720	118
886.722	90
886.800	739
886.827	1089
886.879	1459
886.932	1472
886.959	1476
887.038	1526
887.039	1528
887.119	1015
887.143	880
887.198	1017
887.248	1222
887.278	1216
887.354	827
887.358	818
887.437	843
887.459	783
887.517	923
887.564	1128
887.596	1128
887.669	911
887.676	874
887.755	565
887.774	449
887.835	843
887.880	1234
887.914	1457
887.985	1804
887.994	1816
888.073	1860
888.090	1860
888.153	1744
888.195	1618
888.232	1744
888.300	2137
888.311	2103
888.391	1661
888.405	1567
888.470	1281
888.510	1130
888.549	1153
888.615	1223
888.628	1285
888.708	1519
888.720	1557
888.787	1624
888.825	1677
888.866	1599
888.930	1382
888.945	1407
889.024	1598
889.035	1614
889.103	1317
889.140	1145
889.182	842
889.245	377
889.261	615
889.340	1754
889.349	1879
889.419	1876
889.454	1872
889.498	1498
889.559	965
889.577	1034
889.656	1328
889.664	1356
889.735	1752
889.768	1936
889.814	1472
889.873	849
889.978	1532
890.083	1017
890.187	1605
890.292	1439
890.397	2013
890.501	830
890.606	987
890.710	951
890.815	973
890.919	725
891.024	1393
891.128	2013
891.233	1520
891.337	1679
891.442	1594
891.546	1044
891.650	948
891.755	866
891.859	2765
891.963	1936
892.068	2102
892.172	662
892.276	1117
892.380	794
892.484	2049
892.589	2255
892.693	2033
892.797	1199
892.901	1283
893.005	1604
893.109	2396
893.213	2206
893.317	1597
893.421	710
893.525	1050
893.629	442
893.733	1624
893.837	1056
893.941	978
894.045	1448
894.148	1312
894.252	1424
894.356	1133
894.460	1345
894.564	1168
894.667	488
894.771	1264
894.875	634
894.978	930
895.082	1360
895.186	1331
895.289	1429
895.393	1654
895.496	1005
895.600	760
895.703	218
895.807	-55
895.910	893
896.014	1247
896.117	1116
896.221	1811
896.324	774
896.427	1309
896.531	282
896.634	1722
896.737	1099
896.840	1315
896.944	587
897.047	1842
897.150	568
897.253	589
897.356	1180
897.460	496
897.563	847
897.666	1455
897.769	498
897.872	108
897.975	766
898.078	1121
898.181	435
898.284	1578
898.387	1067
898.490	1293
898.593	513
898.695	1408
898.798	697
898.901	1101
899.004	1066
899.107	-24
899.209	749
899.312	1382
899.415	937
899.518	433
899.620	1266
899.723	1465
899.826	2326
899.928	2466
900.031	1124
900.133	1028
900.236	-491
900.338	272
900.441	607
900.543	981
900.646	1438
900.748	91
900.851	1017
900.953	1052
901.055	968
901.158	1803
901.260	904
901.362	228
901.465	308
901.567	829
901.669	1421
901.771	1541
901.873	398
901.976	697
902.078	785
902.180	1277
902.282	607
902.384	-221
902.486	1519
902.588	1449
902.690	1161
902.792	1463
902.894	1210
902.996	911
903.098	602
903.200	743
903.302	839
903.404	707
903.505	682
903.607	1393
903.709	795
903.811	1040
903.913	267
904.014	1558
904.116	1317
904.218	255
904.319	1220
904.421	1650
904.523	1004
904.624	1035
904.726	1120
904.827	847
904.929	268
905.030	793
905.132	1155
905.233	737
905.335	413
905.436	406
905.537	130
905.639	636
905.740	979
905.841	1197
905.943	322
906.044	1129
906.145	592
906.247	958
906.348	523
906.449	1267
906.550	734
906.651	792
906.752	405
906.854	396
906.955	436
907.056	28
907.157	1083
907.258	1146
907.359	388
907.460	164
907.561	736
907.662	402
907.762	541
907.863	314
907.964	959
908.065	734
908.166	426
908.267	457
908.367	607
908.468	1097
908.569	968
908.670	1544
908.770	992
908.871	1222
908.971	1526
909.072	2093
909.173	428
909.273	592
909.374	805
909.474	545
909.575	538
909.675	1010
909.776	130
909.876	349
909.977	469
910.077	953
910.177	191
910.278	1040
910.378	716
910.478	499
910.579	495
910.679	778
910.779	229
910.879	960
910.980	973
911.080	519
911.180	322
911.280	898
911.380	-78
911.480	781
911.580	472
911.680	1254
911.780	566
911.880	1258
911.980	535
912.080	890
912.180	813
912.280	164
912.380	190
912.480	224
912.580	183
912.679	487
912.779	907
912.879	901
912.979	-6
913.078	532
913.178	-143
913.278	-3
913.377	580
913.477	602
913.577	579
913.676	1138
913.776	828
913.875	1299
913.975	381
914.074	699
914.174	641
914.273	431
914.373	719
914.472	446
914.572	-518
914.671	232
914.770	-25
914.870	1116
914.969	483
915.068	639
915.167	675
915.267	734
915.366	26
915.465	452
915.564	698
915.663	1206
915.763	370
915.862	935
915.961	546
916.060	901
916.159	243
916.258	770
916.357	524
916.456	531
916.555	824
916.654	878
916.752	745
916.851	758
916.950	799
917.049	1205
917.148	245
917.247	363
917.345	597
917.444	800
917.543	287
917.642	-62
917.740	662
917.839	1683
917.937	604
918.036	1274
918.135	594
918.233	874
918.332	-122
918.430	-263
918.529	685
918.627	857
918.726	736
918.824	977
918.923	102
919.021	193
919.119	485
919.218	-189
919.316	753
919.414	779
919.512	834
919.611	770
919.709	804
919.807	558
919.905	150
920.003	711
920.102	540
920.200	927
920.298	1209
920.396	519
920.494	14
920.592	1230
920.690	1081
920.788	830
920.886	939
920.984	1205
921.082	575
921.180	1834
921.277	716
921.375	1042
921.473	2774
921.571	1205
921.669	479
921.766	1068
921.864	1779
921.962	2129
922.060	1302
922.157	2044
922.255	1416
922.352	2472
922.450	1634
922.548	2290
922.645	2961
922.743	2604
922.840	3836
922.938	4833
923.035	3783
923.133	4455
923.230	4291
923.327	5122
923.425	4379
923.522	4770
923.619	3474
923.717	3224
923.814	3463
923.911	4557
924.008	3688
924.106	3357
924.203	3594
924.300	3574
924.397	3431
924.494	4369
924.591	4528
924.688	3335
924.786	3851
924.883	3475
924.979	3960
925.077	3123
925.173	4039
925.270	3632
925.367	2350
925.464	3532
925.561	4704
925.658	4720
925.755	4966
925.852	4726
925.948	4021
926.045	3454
926.142	4318
926.239	3757
926.335	3369
926.432	4307
926.529	4574
926.625	4670
926.722	3100
926.818	3431
926.915	3542
927.011	2892
927.108	2621
927.204	3363
927.301	2004
927.397	3489
927.494	4013
927.590	2220
927.687	3630
927.783	3501
927.879	3528
927.976	3563
928.072	2267
928.168	3715
928.264	3110
928.361	2755
928.457	3685
928.553	2672
928.649	2877
928.745	2130
928.841	2319
928.937	2838
929.033	3344
929.129	2763
929.225	2512
929.321	2434
929.417	3200
929.513	3579
929.609	2990
929.705	3369
929.801	2383
929.897	2457
929.993	1808
930.089	3718
930.184	1998
930.280	3074
930.376	3071
930.471	2123
930.567	2032
930.663	2479
930.758	2150
930.854	3130
930.950	1877
931.045	2824
931.141	3024
931.236	3687
931.332	2570
931.427	2263
931.523	3563
931.618	2886
931.714	1626
931.809	2550
931.905	2614
932.000	2100
932.095	2055
932.191	3498
932.286	2635
932.381	2297
932.476	2435
932.572	2216
932.667	1396
932.762	2001
932.857	2545
932.952	3087
933.047	2034
933.142	2061
933.237	2758
933.332	2969
933.427	2704
933.522	2786
933.617	902
933.712	2329
933.807	2663
933.902	2582
933.997	2476
934.092	1695
934.187	1557
934.282	2795
934.376	1759
934.471	2409
934.566	1581
934.661	1714
934.755	2807
934.850	2551
934.945	2037
935.039	1580
935.134	1295
935.228	2883
935.323	3331
935.417	2450
935.512	1805
935.606	889
935.701	2721
935.795	1868
935.890	3009
935.984	1827
936.079	1471
936.173	2927
936.267	1789
936.362	1786
936.456	1644
936.550	3749
936.644	1722
936.738	2018
936.833	1520
936.927	2045
937.021	2109
937.115	2464
937.209	1034
937.303	2609
937.397	1827
937.491	1802
937.585	2332
937.679	2253
937.773	1239
937.867	1946
937.961	1738
938.055	2597
938.149	2565
938.243	2299
938.337	1546
938.430	2234
938.524	2437
938.618	1887
938.712	1914
938.805	1493
938.899	1149
938.993	2912
939.086	1405
939.180	1847
939.274	2409
939.367	2173
939.461	1907
939.554	1475
939.648	953
939.741	1417
939.835	2029
939.928	2937
940.022	2053
940.115	445
940.208	1731
940.302	2412
940.395	2113
940.488	760
940.582	1520
940.675	1318
940.768	1900
940.861	1713
940.954	2382
941.048	707
941.141	1384
941.234	2281
941.327	2933
941.420	4419
941.513	1938
941.606	1635
941.699	1834
941.792	2459
941.885	1758
941.978	2053
942.071	1252
942.164	743
942.257	1356
942.349	1574
942.442	2310
942.535	1388
942.628	554
942.721	1152
942.813	1110
942.906	2342
942.999	1002
943.091	1094
943.184	1397
943.277	822
943.369	1528
943.462	750
943.554	1029
943.647	795
943.739	1519
943.832	1656
943.924	-735
944.017	2004
944.109	553
944.201	1096
944.294	679
944.386	1639
944.478	1101
944.571	1087
944.663	784
944.755	2199
944.847	1074
944.940	1235
945.032	856
945.124	999
945.216	1715
945.308	1237
945.400	434
945.492	2046
945.584	1271
945.676	1690
945.768	707
945.860	2262
945.952	886
946.044	1334
946.136	123
946.228	1904
946.320	685
946.412	1511
946.503	1057
946.595	2247
946.687	883
946.779	1163
946.870	653
946.962	278
947.054	1085
947.145	1874
947.237	1252
947.329	1634
947.420	461
947.512	576
947.603	1030
947.695	1101
947.786	375
947.878	1160
947.969	846
948.061	1328
948.152	695
948.243	469
948.335	705
948.426	1015
948.517	967
948.609	1393
948.700	1600
948.791	257
948.882	670
948.973	932
949.065	1428
949.156	730
949.247	-208
949.338	1304
949.429	241
949.520	2107
949.611	-868
949.702	1269
949.793	43
949.884	259
949.975	-237
950.066	1264
950.157	685
950.247	1022
950.338	369
950.429	537
950.520	1382
950.611	861
950.701	445
950.792	1723
950.883	1199
950.973	681
951.064	1171
951.155	1115
951.245	1226
951.336	885
951.427	341
951.517	1670
951.608	846
951.698	233
951.788	-110
951.879	366
951.969	356
952.060	898
952.150	1222
952.240	1996
952.331	13
952.421	1987
952.511	-266
952.602	1263
952.692	236
952.782	852
952.872	808
952.962	1107
953.052	600
953.143	277
953.233	1585
953.323	1529
953.413	394
953.503	1537
953.593	481
953.683	1177
953.773	-240
953.863	69
953.953	-257
954.042	1015
954.132	594
954.222	1369
954.312	271
954.402	680
954.492	844
954.581	2267
954.671	91
954.761	605
954.850	1671
954.940	216
955.030	166
955.119	-10
955.209	514
955.298	662
955.388	811
955.477	441
955.567	288
955.656	572
955.746	245
955.835	703
955.925	460
956.014	796
956.103	621
956.193	1473
956.282	804
956.371	1433
956.461	577
956.550	-429
956.639	491
956.728	364
956.817	436
956.906	1302
956.995	811
957.085	1042
957.174	204
957.263	567
957.352	325
957.441	854
957.530	884
957.619	924
957.708	1094
957.796	412
957.885	-232
957.974	582
958.063	826
958.152	46
958.241	688
958.329	559
958.418	404
958.507	428
958.596	884
958.684	352
958.773	1157
958.861	-522
958.950	-71
959.039	1339
959.127	248
959.216	881
959.304	861
959.393	693
959.481	-141
959.570	812
959.658	100
959.746	1277
959.835	1466
959.923	2517
960.011	544
960.100	1047
960.188	460
960.276	-442
960.365	-566
960.453	21
960.541	-55
960.629	527
960.717	-377
960.805	-375
960.893	329
960.981	317
961.069	918
961.158	633
961.245	284
961.333	630
961.421	246
961.509	736
961.597	43
961.685	673
961.773	-80
961.861	-652
961.949	567
962.036	-66
962.124	269
962.212	953
962.299	-379
962.387	118
962.475	613
962.562	134
962.650	650
962.738	769
962.825	-690
962.913	547
963.000	-527
963.088	809
963.175	-199
963.263	673
963.350	-263
963.438	197
963.525	537
963.612	3370
963.700	5912
963.787	13040
963.874	5178
963.962	1293
964.049	473
964.136	93
964.223	-1017
964.310	-72
964.398	-290
964.485	260
964.572	632
964.659	2305
964.746	1208
964.833	1242
964.920	-182
965.007	272
965.094	520
965.181	-511
965.268	-122
965.355	-363
965.441	496
965.528	50
965.615	313
965.702	312
965.789	-980
965.875	154
965.962	435
966.049	570
966.136	332
966.222	940
966.309	571
966.395	936
966.482	332
966.569	-326
966.655	-506
966.742	665
966.828	-183
966.915	159
967.001	-500
967.087	-636
967.174	838
967.260	606
967.347	1703
967.433	5051
967.519	8130
967.605	3169
967.692	176
967.778	482
967.864	27
967.950	147
968.036	-170
968.123	258
968.209	-655
968.295	335
968.381	1032
968.467	616
968.553	-1224
968.639	1390
968.725	153
968.811	2274
968.897	1277
968.983	-190
969.069	-919
969.154	423
969.240	-55
969.326	-102
969.412	-794
969.497	-653
969.583	-469
969.669	921
969.755	-280
969.840	196
969.926	376
970.012	1130
970.097	2940
970.183	2040
970.268	516
970.354	1396
970.439	2431
970.525	5323
970.610	911
970.696	323
970.781	121
970.866	-990
970.952	793
971.037	-389
971.122	-191
971.208	-296
971.293	-521
971.378	-523
971.463	-123
971.549	480
971.634	-619
971.719	48
971.804	-7
971.889	923
971.974	-50
972.059	-43
972.144	-8
972.229	-259
972.314	251
972.399	362
972.484	-517
972.569	513
972.654	-138
972.739	3506
972.824	2184
972.908	623
972.993	-1239
973.078	-462
973.163	-260
973.247	43
973.332	-1091
973.417	1114
973.501	-698
973.586	152
973.671	-137
973.755	393
973.840	456
973.924	1239
974.009	517
974.093	-88
974.178	2064
974.262	2257
974.346	1196
974.431	985
974.515	342
974.600	-60
974.684	49
974.768	-744
974.852	1465
974.937	-845
975.021	17
975.105	297
975.189	-1
975.273	-87
975.358	-1207
975.442	312
975.526	-493
975.610	-366
975.694	-1492
975.778	847
975.862	358
975.946	-1557
976.030	1187
976.114	179
976.198	-1120
976.281	-366
976.365	633
976.449	-205
976.533	-458
976.617	-189
976.700	313
976.784	-781
976.868	61
976.951	1083
977.035	396
977.119	-453
977.202	-166
977.286	280
977.369	956
977.453	810
977.536	-272
977.620	281
977.703	734
977.787	-596
977.870	598
977.953	866
978.037	-523
978.120	1830
978.203	1244
978.287	2832
978.370	892
978.453	-385
978.536	232
978.620	882
978.703	1392
978.786	529
978.869	-297
978.952	-959
979.035	707
979.118	539
979.201	-591
979.284	439
979.367	-698
979.450	532
979.533	-1190
979.616	21
979.699	-1099
979.782	879
979.865	-645
979.948	-411
980.030	-1030
980.113	268
980.196	-1198
980.279	908
980.361	84
980.444	-133
980.526	157
980.609	608
980.692	321
980.774	792
980.857	-1214
980.939	447
981.022	-984
981.104	347
981.187	-469
981.269	262
981.352	-673
981.434	-792
981.516	-383
981.599	864
981.681	358
981.763	133
981.846	-345
981.928	690
982.010	-919
982.092	-539
982.174	326
982.256	-32
982.339	29
982.421	-183
982.503	214
982.585	-824
982.667	-118
982.749	-709
982.831	-362
982.913	-1352
982.995	224
983.077	129
983.158	1894
983.240	-754
983.322	469
983.404	698
983.486	8
983.568	543
983.649	-401
983.731	527
983.813	-500
983.894	-193
983.976	-656
984.058	120
984.139	936
984.221	-880
984.302	978
984.384	436
984.465	-925
984.547	266
984.628	144
984.710	749
984.791	-145
984.872	314
984.954	-646
985.035	629
985.116	-378
985.198	243
985.279	918
985.360	-461
985.441	-99
985.522	388
985.604	-429
985.685	-1483
985.766	439
985.847	919
985.928	-1419
986.009	327
986.090	-752
986.171	993
986.252	-1081
986.333	-169
986.414	-114
986.495	753
986.576	-215
986.656	831
986.737	237
986.818	29
986.899	-268
986.980	-698
987.060	-181
987.141	396
987.222	-680
987.302	87
987.383	558
987.464	87
987.544	175
987.625	283
987.705	964
987.786	443
987.866	-317
987.947	617
988.027	1082
988.108	-440
988.188	-123
988.268	-155
988.349	572
988.429	222
988.509	4
988.589	467
988.670	-1341
988.750	1942
988.830	-394
988.910	557
988.990	366
989.070	197
989.151	836
989.231	-794
989.311	348
989.391	136
989.471	281
989.551	-179
989.631	-866
989.711	880
989.791	-501
989.870	-240
989.950	-416
990.030	-182
990.110	-462
990.190	-996
990.269	-767
990.349	510
990.429	523
990.509	-395
990.588	-1003
990.668	387
990.747	-570
990.827	-166
990.907	323
990.986	-349
991.066	-79
991.145	-453
991.225	-369
991.304	-58
991.383	-668
991.463	-184
991.542	-444
991.622	-763
991.701	-606
991.780	-1158
991.859	-550
991.939	697
992.018	-299
992.097	-5
992.176	-87
992.256	-809
992.335	-1253
992.414	67
992.493	-763
992.572	40
992.651	754
992.730	-302
992.809	-257
992.888	-745
992.967	-458
993.046	28
993.125	-1817
993.203	-752
993.282	-746
993.361	64
993.440	-716
993.519	-1455
993.597	-837
993.676	-426
993.755	-43
993.834	586
993.912	-1566
993.991	167
994.069	-1622
994.148	-993
994.226	-694
994.305	-436
994.384	-179
994.462	1316
994.540	-2005
994.619	-1438
994.697	-272
994.776	-972
994.854	-234
994.932	-1509
995.011	-1024
995.089	-1046
995.167	-742
995.245	-368
995.324	-1143
995.402	203
995.480	-1476
995.558	-662
995.636	-1854
995.714	-101
995.792	128
995.870	-1084
995.948	-327
996.026	65
996.104	-2032
996.182	125
996.260	-1707
996.338	-380
996.416	-1438
996.494	-992
996.572	-992
996.649	-912
996.727	-1874
996.805	235
996.883	-1367
996.960	-1961
997.038	-1289
997.116	-456
997.193	-826
997.271	-746
997.348	-845
997.426	-680
997.504	-1706
997.581	-17
997.658	-1076
997.736	-2130
997.813	-1950
997.891	-521
997.968	-1436
998.046	-533
998.123	-885
998.200	-374
998.277	-1890
998.355	-781
998.432	-1888
998.509	-510
998.586	-779
998.663	-916
998.741	-1072
998.818	-1460
998.895	-997
998.972	-1418
999.049	129
999.126	-1673
999.203	-800
999.280	-557
999.357	-1828
999.434	-1353
999.511	-1445
999.587	-876
999.664	-1424
999.741	-616
999.818	-290
999.895	-947
999.971	-2253
1000.048	-1383
1000.125	-346
1000.202	-2055
1000.278	-970
1000.355	-1011
1000.431	-1084
1000.508	-1104
1000.584	-1185
1000.661	-587
1000.738	-1845
1000.814	-1263
1000.890	-1308
1000.967	-1937
1001.043	-803
1001.120	-2190
1001.196	-980
1001.272	-1743
1001.349	-669
1001.425	88
1001.501	-1924
1001.577	-1616
1001.654	-749
1001.730	-1430
1001.806	-1613
1001.882	-1523
1001.958	-553
1002.034	-516
1002.110	-1535
1002.186	-2139
1002.262	-1470
1002.338	-1602
1002.414	-1309
1002.490	-101
1002.566	-1645
1002.642	-1313
1002.718	-970
1002.794	-867
1002.870	-927
1002.945	-1303
1003.021	-1613
1003.097	-1451
1003.173	-787
1003.248	-1290
1003.324	-1775
1003.400	-709
1003.475	-1657
1003.551	-1429
1003.626	-1761
1003.702	-1838
1003.777	-1854
1003.853	-1317
1003.928	-2402
1004.004	-1078
1004.079	-1168
1004.155	-726
1004.230	-2317
1004.305	-577
1004.381	-2251
1004.456	-1799
1004.531	-1000
1004.607	-1556
1004.682	-1732
1004.757	-537
1004.832	-1634
1004.907	-1400
1004.982	-744
1005.057	-843
1005.133	-2079
1005.208	-659
1005.283	-874
1005.358	-958
1005.433	-1879
1005.508	-1567
1005.583	-1894
1005.657	-1253
1005.732	-1413
1005.807	-1723
1005.882	-1717
1005.957	-976
1006.032	-1093
1006.106	-1073
1006.181	-1407
1006.256	-1118
1006.331	-2089
1006.405	-1550
1006.480	-1580
1006.554	-1823
1006.629	-1675
1006.704	-734
1006.778	-1101
1006.853	-1116
1006.927	-1705
1007.002	-1266
1007.076	-886
1007.150	-1488
1007.225	-1460
1007.299	-1571
1007.373	-2358
1007.448	-1508
1007.522	-1166
1007.596	-1006
1007.671	-2180
1007.745	-739
1007.819	-2273
1007.893	-1418
1007.967	-1016
1008.041	-2050
1008.115	-1566
1008.190	-1563
1008.264	-1105
1008.338	-2287
1008.412	-966
1008.486	-1438
1008.560	-983
1008.633	-2004
1008.707	-1164
1008.781	-1444
1008.855	-1610
1008.929	-1676
1009.003	-2032
1009.076	-2089
1009.150	-1903
1009.224	-1069
1009.298	-1174
1009.371	-2030
1009.445	-1039
1009.519	-1403
1009.592	-1917
1009.666	-1370
1009.739	-2726
1009.813	-1746
1009.886	-633
1009.960	-2936
1010.033	-1375
1010.107	-1128
1010.180	-1532
1010.253	-1773
1010.327	-1888
1010.400	-1610
1010.473	-2054
1010.547	-543
1010.620	-2456
1010.693	-1048
1010.766	-1669
1010.840	-974
1010.913	-631
1010.986	-1882
1011.059	-1936
1011.132	-2188
1011.205	-1575
1011.278	-2086
1011.351	-1977
1011.424	-1300
1011.497	-1733
1011.570	-1281
1011.643	-2019
1011.716	-2372
1011.789	-2394
1011.862	-1311
1011.934	-1654
1012.007	-1737
1012.080	-1823
1012.153	-778
1012.225	-16
1012.298	-1593
1012.371	-1038
1012.443	-419
1012.516	-2929
1012.588	-1570
1012.661	-1640
1012.733	-2032
1012.806	-725
1012.879	-2041
1012.951	-2207
1013.023	-1220
1013.096	-1515
1013.168	-2013
1013.241	-703
1013.313	-1410
1013.385	-1603
1013.458	-2059
1013.530	-1570
1013.602	-2310
1013.674	-1254
1013.746	-2147
1013.819	-2451
1013.891	-1177
1013.963	-2550
1014.035	-1432
1014.107	-2056
1014.179	-1697
1014.251	-2237
1014.323	-1304
1014.395	-1379
1014.467	-1852
1014.539	-1525
1014.611	-1974
1014.683	-1516
1014.754	-1701
1014.826	-1939
1014.898	-1382
1014.970	-1884
1015.042	-1055
1015.113	-1774
1015.185	-1728
1015.257	-2599
1015.328	-772
1015.400	-1975
1015.471	-1292
1015.543	-2409
1015.615	-1524
1015.686	-2299
1015.757	-1148
1015.829	-1825
1015.901	-813
1015.972	-1414
1016.043	-1502
1016.115	-1529
1016.186	-2252
1016.257	-2428
1016.328	-833
1016.400	-961
1016.471	-1725
1016.542	-2165
1016.613	-1803
1016.685	-1734
1016.756	-775
1016.827	-1760
1016.898	-2317
1016.969	-759
1017.040	-1374
1017.111	-2675
1017.182	-2080
1017.253	-1979
1017.324	-2266
1017.395	-2025
1017.466	-1771
1017.537	-1478
1017.608	-1418
1017.678	-2032
1017.749	-1919
1017.820	-1314
1017.891	-2585
1017.961	-2163
1018.032	-1652
1018.103	-1682
1018.173	-1791
1018.244	-1775
1018.315	-1809
1018.385	-1587
1018.456	-1916
1018.526	-2214
1018.597	-1977
1018.667	-1458
1018.738	-1554
1018.808	-1731
1018.878	-1546
1018.949	-1641
1019.019	-1615
1019.089	-1600
1019.160	-1382
1019.230	-2105
1019.300	-822
1019.371	-1968
1019.441	-1748
1019.511	-1762
1019.581	-1365
1019.651	-1029
1019.721	-1867
1019.791	-2179
1019.861	-2132
1019.931	-2238
1020.001	-1442
1020.071	-1609
1020.141	-1093
1020.211	-1556
1020.281	-1615
1020.351	-1902
1020.421	-1675
1020.491	-827
1020.560	-2599
1020.630	-1130
1020.700	-1322
1020.770	-1978
1020.839	-1971
1020.909	-1790
1020.979	-1444
1021.048	-1772
1021.118	-580
1021.187	-2081
1021.257	-1010
1021.326	-1402
1021.396	-1524
1021.465	-1437
1021.535	-896
1021.604	-2341
1021.674	-1510
1021.743	-1432
1021.812	-1733
1021.882	-1567
1021.951	-1378
1022.020	-974
1022.089	-1926
1022.159	-2009
1022.228	-1760
1022.297	-1735
1022.366	-1420
1022.435	-1040
1022.504	-2061
1022.573	-1879
1022.642	-1259
1022.711	-1227
1022.781	-1287
1022.849	-1910
1022.918	-1732
1022.987	-2125
1023.056	-625
1023.125	-1397
1023.194	-2036
1023.263	-2000
1023.331	-1273
1023.400	-1739
1023.469	-2605
1023.538	-1763
1023.606	-2444
1023.675	-2477
1023.744	-1661
1023.812	-2017
1023.881	-1090
1023.949	-1238
1024.018	-1257
1024.086	-2461
1024.155	-1468
1024.223	-2674
1024.292	-1475
1024.360	-2095
1024.429	-2164
1024.497	-2716
1024.565	-1556
1024.634	-2681
1024.702	-2034
1024.770	-1647
1024.838	-2271
1024.907	-2021
1024.975	-2364
1025.043	-1982
1025.111	-1378
1025.179	-1812
1025.247	-1933
1025.315	-1897
1025.383	-1474
1025.451	-2709
1025.519	-1141
1025.587	-2009
1025.655	-1381
1025.723	-2291
1025.791	-435
1025.859	-1771
1025.927	-1929
1025.995	-2815
1026.062	-1548
1026.130	-1549
1026.198	-1429
1026.266	-2131
1026.333	-1081
1026.401	-1513
1026.469	-942
1026.536	-1261
1026.604	-2082
1026.671	-1824
1026.739	-1580
1026.806	-2389
1026.874	-2171
1026.941	-2090
1027.009	-1773
1027.076	-2415
1027.144	-1155
1027.211	-2624
1027.278	-1723
1027.345	-2140
1027.413	-1789
1027.480	-2492
1027.547	-1724
1027.614	-1916
1027.682	-1297
1027.749	-1705
1027.816	-1219
1027.883	-2288
1027.950	-1514
1028.017	-2360
1028.084	-1476
1028.151	-2080
1028.218	-1714
1028.285	-1657
1028.352	-1896
1028.419	-2826
1028.486	-2051
1028.553	-2652
1028.619	-2230
1028.686	-1653
1028.753	-2471
1028.820	-2009
1028.886	-1616
1028.953	-1965
1029.020	-1757
1029.086	-1307
1029.153	-1914
1029.220	-2207
1029.286	-2148
1029.353	-2157
1029.419	-2520
1029.486	-2181
1029.552	-1619
1029.619	-2626
1029.685	-1263
1029.751	-2601
1029.818	-1513
1029.884	-2314
1029.951	-693
1030.017	-1958
1030.083	-1171
1030.149	-2552
1030.216	-2568
1030.282	-1671
1030.348	-1668
1030.414	-2162
1030.480	-905
1030.546	-1711
1030.612	-1396
1030.678	-2380
1030.744	-1680
1030.810	-2477
1030.876	-1078
1030.942	-2577
1031.008	-1605
1031.074	-2140
1031.140	-2083
1031.206	-1806
1031.272	-1554
1031.337	-2171
1031.403	-1817
1031.469	-2735
1031.534	-2102
1031.600	-1151
1031.666	-1979
1031.731	-2190
1031.797	-2249
1031.863	-1430
1031.928	-1961
1031.994	-2435
1032.059	-2413
1032.125	-1717
1032.190	-1884
1032.256	-2355
1032.321	-2065
1032.386	-2377
1032.452	-223
1032.517	-2052
1032.582	-1711
1032.647	-1193
1032.713	-1981
1032.778	-1432
1032.843	-2064
1032.908	-1625
1032.974	-1986
1033.039	-2156
1033.104	-1983
1033.169	-1832
1033.234	-1897
1033.299	-1501
1033.364	-1218
1033.429	-2434
1033.494	-1476
1033.559	-2260
1033.624	-2438
1033.688	-1922
1033.753	-2513
1033.818	-515
1033.883	-1891
1033.948	-2283
1034.013	-1033
1034.077	-948
1034.142	-198
1034.207	-279
1034.271	1768
1034.336	1884
1034.400	-461
1034.465	-440
1034.530	-1481
1034.594	-1582
1034.658	-1640
1034.723	-2842
1034.787	-1535
1034.852	-1871
1034.916	-2384
1034.981	-2578
1035.045	-1431
1035.109	-2276
1035.173	-1688
1035.238	-2263
1035.302	-1730
1035.366	-1724
1035.430	-2377
1035.495	-2359
1035.559	-1812
1035.623	-1628
1035.687	-2073
1035.751	-2152
1035.815	-2395
1035.879	-2852
1035.943	-1572
1036.007	-2079
1036.071	-1733
1036.135	-1819
1036.198	-2446
1036.262	-2133
1036.326	-1741
1036.390	-1685
1036.454	-1203
1036.517	-1654
1036.581	-1095
1036.645	-982
1036.709	-1345
1036.772	-1458
1036.836	-2193
1036.900	-2065
1036.963	-1799
1037.026	-2539
1037.090	-2263
1037.154	-2082
1037.217	-1606
1037.280	-3257
1037.344	-2105
1037.407	-2662
1037.471	-946
1037.534	-2081
1037.597	-1942
1037.661	-2398
1037.724	-2267
1037.787	-2805
1037.850	-1705
1037.913	-2437
1037.977	-1797
1038.040	-2409
1038.103	-1980
1038.166	-2883
1038.229	-1862
1038.292	-2812
1038.355	-2266
1038.418	-2690
1038.481	-2107
1038.544	-1813
1038.607	-2088
1038.670	-2208
1038.732	-1982
1038.795	-2964
1038.858	-2450
1038.921	-2138
1038.984	-2289
1039.046	-2154
1039.109	-1869
1039.172	-2557
1039.234	-2704
1039.297	-2178
1039.360	-1301
1039.422	-1588
1039.485	-2408
1039.547	-3248
1039.610	-1762
1039.672	-1870
1039.734	-1528
1039.797	-2250
1039.859	-2962
1039.922	-2357
1039.984	-1787
1040.046	-2483
1040.109	-1656
1040.171	-2220
1040.233	-1727
1040.295	-2588
1040.358	-1930
1040.420	-2238
1040.482	-2708
1040.544	-3644
1040.606	-1867
1040.668	-2391
1040.730	-1721
1040.792	-2026
1040.854	-2487
1040.916	-2855
1040.978	-2675
1041.040	-1056
1041.102	-2881
1041.164	-2582
1041.225	-2367
1041.287	-2841
1041.349	-2382
1041.411	-2641
1041.472	-2460
1041.534	-2235
1041.596	-3047
1041.657	-1886
1041.719	-2047
1041.781	-2227
1041.842	-2231
1041.904	-3156
1041.965	-2580
1042.027	-1441
1042.088	-2658
1042.150	-2381
1042.211	-2035
1042.272	-2904
1042.334	-2226
1042.395	-2671
1042.456	-2743
1042.518	-2727
1042.579	-1702
1042.640	-2762
1042.701	-2085
1042.763	-2618
1042.824	-2152
1042.885	-3021
1042.946	-2373
1043.007	-2138
1043.068	-2503
1043.129	-2962
1043.190	-2538
1043.251	-1513
1043.312	-2054
1043.373	-2264
1043.434	-1983
1043.495	-1823
1043.556	-1951
1043.616	-2346
1043.677	-1982
1043.738	-2142
1043.799	-1926
1043.859	-2351
1043.920	-3024
1043.981	-2363
1044.041	-1345
1044.102	-2636
1044.162	-1905
1044.223	-2192
1044.284	-2464
1044.344	-1942
1044.405	-2383
1044.465	-2545
1044.525	-2257
1044.586	-2024
1044.646	-1461
1044.707	-1632
1044.767	-2123
1044.827	-2553
1044.887	-2488
1044.948	-2211
1045.008	-1660
1045.068	-1999
1045.128	-1539
1045.188	-2937
1045.249	-1243
1045.309	-1627
1045.369	-2101
1045.429	-2588
1045.489	-1285
1045.549	-2161
1045.609	-1295
1045.669	-2195
1045.729	-1478
1045.789	-2313
1045.848	-1314
1045.908	-2257
1045.968	-1633
1046.028	-1921
1046.088	-1550
1046.147	-1520
1046.207	-1785
1046.267	-1394
1046.326	-1828
1046.386	-2565
1046.446	-1245
1046.505	-2265
1046.565	-799
1046.624	-1518
1046.684	-1203
1046.743	-1371
1046.803	-675
1046.862	-750
1046.922	0
