'Start Wavelength	183.907
'End Wavelength	1046.922
'Gate Delay	5.000
'Gate Width (ms)	1.050
'Laser Output Level	0.000
'X Position	0.000
'Y Position	0.000
'Z Position	0.000
'Grid Point Number	1.000
'Shot Number	100.000
183.907	113.000
183.977	-374.000
184.047	88
184.116	-50
184.186	211
184.256	130
184.325	381
184.395	-787
184.465	983
184.534	14
184.604	-433
184.674	-184
184.743	-425
184.813	293
184.883	204
184.952	370
185.022	765
185.092	-15
185.161	16
185.231	-797
185.301	-327
185.370	226
185.440	-294
185.509	-527
185.579	660
185.649	-834
185.718	211
185.788	-873
185.857	-287
185.927	-73
185.996	-703
186.066	-478
186.136	-434
186.205	-750
186.275	-75
186.344	429
186.414	-174
186.483	-610
186.553	880
186.622	330
186.692	294
186.761	-9
186.831	-168
186.900	-223
186.970	-101
187.039	191
187.109	362
187.178	169
187.248	-128
187.317	508
187.387	-9
187.456	265
187.526	494
187.595	268
187.664	-91
187.734	234
187.803	713
187.873	248
187.942	492
188.012	504
188.081	907
188.150	-297
188.220	474
188.289	514
188.358	268
188.428	244
188.497	-1160
188.567	78
188.636	-109
188.705	-73
188.775	-489
188.844	-9
188.913	822
188.983	508
189.052	-276
189.121	634
189.191	292
189.260	571
189.329	461
189.399	404
189.468	638
189.537	374
189.606	-363
189.676	280
189.745	44
189.814	1178
189.883	73
189.953	335
190.022	906
190.091	2345
190.161	3323
190.230	1686
190.299	-257
190.368	51
190.437	-371
190.507	1016
190.576	-89
190.645	519
190.714	-300
190.783	-22
190.853	901
190.922	177
190.991	1097
191.060	610
191.129	277
191.198	553
191.268	722
191.337	400
191.406	635
191.475	102
191.544	452
191.613	47
191.682	116
191.752	-53
191.821	642
191.890	67
191.959	859
192.028	-80
192.097	620
192.166	-123
192.235	-196
192.304	1114
192.373	346
192.442	144
192.511	-107
192.580	1004
192.650	1040
192.719	-489
192.788	430
192.857	984
192.926	-324
192.995	953
193.064	694
193.133	1051
193.202	2212
193.271	1886
193.340	695
193.409	1298
193.478	1684
193.547	2147
193.615	3559
193.684	3945
193.753	2102
193.822	1633
193.891	781
193.960	1071
194.029	407
194.098	485
194.167	-102
194.236	1253
194.305	-26
194.374	727
194.443	645
194.512	414
194.580	316
194.649	706
194.718	783
194.787	939
194.856	-486
194.925	659
194.994	106
195.062	1381
195.131	849
195.200	1426
195.269	1447
195.338	1225
195.407	768
195.475	-214
195.544	838
195.613	1473
195.682	1237
195.751	1819
195.819	1349
195.888	1432
195.957	1670
196.026	1553
196.094	1319
196.163	918
196.232	1693
196.301	870
196.369	1000
196.438	1145
196.507	1103
196.576	162
196.644	420
196.713	725
196.782	996
196.850	589
196.919	380
196.988	1384
197.056	651
197.125	1238
197.194	1119
197.262	68
197.331	1030
197.400	494
197.468	653
197.537	651
197.606	49
197.674	1171
197.743	2740
197.812	1600
197.880	2972
197.949	2041
198.017	2689
198.086	2063
198.155	415
198.223	1249
198.292	3032
198.360	1662
198.429	955
198.497	1303
198.566	2312
198.635	3749
198.703	867
198.772	904
198.840	3254
198.909	4202
198.977	1089
199.046	488
199.114	1243
199.183	1071
199.251	1251
199.320	-144
199.388	605
199.457	564
199.525	641
199.594	1524
199.662	598
199.731	759
199.799	447
199.867	1486
199.936	346
200.004	950
200.073	860
200.141	639
200.210	-374
200.278	163
200.346	205
200.415	622
200.483	1307
200.552	1655
200.620	619
200.688	997
200.757	891
200.825	1226
200.893	566
200.962	1324
201.030	635
201.098	1264
201.167	850
201.235	1289
201.303	583
201.372	1359
201.440	885
201.508	1464
201.577	1396
201.645	1054
201.713	404
201.781	1106
201.850	1278
201.918	1347
201.986	1076
202.055	963
202.123	1067
202.191	669
202.259	630
202.327	624
202.396	1073
202.464	724
202.532	1103
202.600	4335
202.669	2618
202.737	809
202.805	1017
202.873	788
202.941	968
203.009	1174
203.078	-247
203.146	1046
203.214	742
203.282	657
203.350	1008
203.418	758
203.487	942
203.555	938
203.623	1440
203.691	1614
203.759	641
203.827	1036
203.895	1190
203.963	971
204.031	743
204.099	1071
204.168	1032
204.236	1877
204.304	1038
204.372	725
204.440	1845
204.508	1222
204.576	543
204.644	1223
204.712	864
204.780	1595
204.848	802
204.916	779
204.984	1295
205.052	1035
205.120	1258
205.188	1545
205.256	651
205.324	1137
205.392	1066
205.460	1703
205.528	1383
205.596	1872
205.664	901
205.732	1087
205.799	4645
205.867	7038
205.935	1830
206.003	2197
206.071	1328
206.139	1947
206.207	1662
206.275	1311
206.343	1003
206.411	1434
206.478	1406
206.546	1262
206.614	1479
206.682	1823
206.750	1406
206.818	2566
206.885	2097
206.953	305
207.021	1652
207.089	1771
207.157	710
207.225	753
207.292	945
207.360	1504
207.428	1293
207.496	1055
207.563	1858
207.631	1270
207.699	733
207.767	1608
207.834	1914
207.902	1827
207.970	1267
208.038	1080
208.105	1215
208.173	1864
208.241	2632
208.309	2966
208.376	2258
208.444	3970
208.512	2824
208.579	1373
208.647	2503
208.715	2424
208.782	2686
208.850	2171
208.918	1760
208.985	2569
209.053	2192
209.120	1910
209.188	650
209.256	1239
209.323	964
209.391	2095
209.459	2741
209.526	1699
209.594	682
209.661	2020
209.729	1700
209.796	2262
209.864	2230
209.932	1355
209.999	3180
210.067	2652
210.134	2167
210.202	2333
210.269	3543
210.337	2799
210.404	2862
210.472	1698
210.539	2257
210.607	2187
210.674	3083
210.742	2060
210.809	1650
210.877	2174
210.944	3314
211.012	1164
211.079	3001
211.146	1746
211.214	2695
211.281	3135
211.349	3290
211.416	2270
211.484	2502
211.551	2363
211.618	2158
211.686	2492
211.753	1815
211.821	2329
211.888	2151
211.955	1772
212.023	2104
212.090	1628
212.157	2065
212.225	2316
212.292	4965
212.359	8144
212.427	20130
212.494	9917
212.561	3321
212.629	2971
212.696	2345
212.763	3009
212.831	1186
212.898	2486
212.965	1587
213.032	2666
213.100	2766
213.167	2539
213.234	3532
213.301	2422
213.369	2537
213.436	2562
213.503	2503
213.570	1840
213.638	2483
213.705	1343
213.772	573
213.839	2806
213.906	4158
213.973	2931
214.041	2095
214.108	2462
214.175	2546
214.242	2701
214.309	1983
214.376	2022
214.444	2670
214.511	2825
214.578	3598
214.645	2851
214.712	3372
214.779	3127
214.846	2470
214.913	3651
214.980	3011
215.048	4016
215.115	5553
215.182	3877
215.249	3145
215.316	2550
215.383	2747
215.450	2159
215.517	2829
215.584	1911
215.651	1743
215.718	1721
215.785	2789
215.852	2263
215.919	2915
215.986	2229
216.053	2216
216.120	1014
216.187	1993
216.254	2470
216.321	2077
216.388	2804
216.455	2788
216.522	2461
216.589	2546
216.656	5391
216.722	5885
216.789	4556
216.856	5640
216.923	3799
216.990	3941
217.057	3575
217.124	4302
217.191	3807
217.258	5124
217.324	6699
217.391	8796
217.458	6395
217.525	3547
217.592	2924
217.659	2102
217.725	3431
217.792	4967
217.859	4994
217.926	1932
217.993	2537
218.059	2436
218.126	2000
218.193	1500
218.260	1435
218.327	707
218.393	1725
218.460	1081
218.527	570
218.594	1847
218.660	4427
218.727	5839
218.794	2068
218.860	1759
218.927	1646
218.994	1024
219.061	1723
219.127	2467
219.194	3787
219.261	2273
219.327	1065
219.394	2339
219.461	509
219.527	1334
219.594	3655
219.661	2249
219.727	994
219.794	2765
219.860	1478
219.927	2236
219.994	3552
220.060	6604
220.127	4879
220.193	3227
220.260	2900
220.326	4578
220.393	8448
220.460	13466
220.526	7531
220.593	3909
220.659	4642
220.726	4572
220.792	11535
220.859	9338
220.925	13537
220.992	21227
221.058	18091
221.125	16414
221.191	11671
221.258	4744
221.324	4224
221.391	2954
221.457	2158
221.524	2372
221.590	3286
221.657	11611
221.723	9331
221.789	7889
221.856	7986
221.922	4308
221.989	3244
222.055	2525
222.121	1405
222.188	3453
222.254	2725
222.321	1664
222.387	890
222.453	1492
222.520	1384
222.586	1005
222.652	1389
222.719	1247
222.785	1761
222.851	1417
222.918	1015
222.984	1284
223.050	1841
223.116	121
223.183	2038
223.249	975
223.315	168
223.382	2033
223.448	1116
223.514	319
223.580	1794
223.647	627
223.713	943
223.779	1047
223.845	1182
223.911	1513
223.978	1689
224.044	1613
224.110	860
224.176	1011
224.242	147
224.309	914
224.375	1277
224.441	1899
224.507	909
224.573	796
224.639	1641
224.705	962
224.772	928
224.838	371
224.904	2470
224.970	733
225.036	1642
225.102	1173
225.168	2407
225.234	1863
225.300	1290
225.366	1460
225.432	1521
225.499	1727
225.565	1952
225.631	612
225.697	1589
225.763	1918
225.829	2831
225.895	3316
225.961	5220
226.027	4183
226.093	3069
226.159	4793
226.225	5849
226.291	16172
226.357	30961
226.423	15189
226.489	7316
226.554	5731
226.620	4757
226.686	5201
226.752	8692
226.818	13435
226.884	37739
226.950	34521
227.016	12219
227.082	7517
227.148	5227
227.214	5414
227.279	3668
227.345	2569
227.411	2977
227.477	1922
227.543	6598
227.609	7549
227.674	4227
227.740	2369
227.806	2853
227.872	2110
227.938	2883
228.003	3404
228.069	2245
228.135	1379
228.201	2002
228.267	1658
228.332	3055
228.398	2715
228.464	2353
228.530	1242
228.595	1897
228.661	1949
228.727	4330
228.792	4336
228.858	1484
228.924	314
228.990	3588
229.055	2174
229.121	3750
229.187	2785
229.252	2327
229.318	1581
229.384	2541
229.449	3471
229.515	672
229.581	450
229.646	3297
229.712	2007
229.777	5821
229.843	6497
229.909	5180
229.974	4397
230.040	4981
230.105	3240
230.171	2941
230.236	4389
230.302	7000
230.368	5986
230.433	3099
230.499	2604
230.564	2515
230.630	1761
230.695	2082
230.761	2113
230.826	369
230.892	4218
230.957	2008
231.023	1413
231.088	2331
231.154	1961
231.219	1620
231.284	2748
231.350	4306
231.415	906
231.481	1613
231.546	982
231.612	1657
231.677	284
231.742	195
231.808	2051
231.873	387
231.939	818
232.004	3720
232.069	5698
232.135	2471
232.200	1576
232.265	1805
232.331	874
232.396	640
232.461	1542
232.527	1286
232.592	765
232.657	1186
232.723	4979
232.788	3956
232.853	1618
232.918	1722
232.984	964
233.049	982
233.114	4077
233.179	4904
233.245	6480
233.310	9342
233.375	2121
233.440	1914
233.506	1505
233.571	1128
233.636	1998
233.701	1542
233.766	5055
233.832	8043
233.897	2769
233.962	1795
234.027	4081
234.092	3481
234.157	2499
234.222	2072
234.288	4330
234.353	16968
234.418	15962
234.483	7967
234.548	5181
234.613	3587
234.678	3316
234.743	3376
234.808	17605
234.873	12291
234.938	5619
235.004	3978
235.069	3002
235.134	2378
235.199	3033
235.264	1856
235.329	1091
235.394	2637
235.459	4614
235.524	3511
235.589	2348
235.654	2218
235.719	1971
235.784	2556
235.849	3048
235.913	9224
235.978	11447
236.043	13506
236.108	4325
236.173	3476
236.238	4854
236.303	2876
236.368	3171
236.433	5490
236.498	11433
236.563	6748
236.627	11369
236.692	44777
236.757	38523
236.822	14259
236.887	11714
236.952	8359
237.017	5545
237.081	7155
237.146	8146
237.211	18683
237.276	43050
237.341	79768
237.405	38229
237.470	13639
237.535	10987
237.600	6072
237.664	5188
237.729	3872
237.794	5789
237.859	13435
237.923	9327
237.988	5624
238.053	8537
238.118	8969
238.182	21415
238.247	21861
238.312	10207
238.376	7471
238.441	5310
238.506	5106
238.570	2539
238.635	3603
238.700	2085
238.764	1835
238.829	9180
238.893	13100
238.958	6213
239.023	4890
239.087	2875
239.152	4280
239.216	1969
239.281	2344
239.346	1819
239.410	2432
239.475	3254
239.539	20871
239.604	18939
239.668	5533
239.733	2508
239.797	4577
239.862	11593
239.926	17992
239.991	8292
240.055	3720
240.120	2941
240.184	3557
240.249	1919
240.313	2766
240.378	2534
240.442	11029
240.507	21741
240.571	7320
240.635	8605
240.700	13850
240.764	4349
240.829	2966
240.893	1676
240.957	3643
241.022	12057
241.086	23808
241.151	10881
241.215	2505
241.279	5768
241.344	12371
241.408	6631
241.472	3122
241.537	4415
241.601	4160
241.665	2849
241.730	2414
241.794	3631
241.858	2183
241.922	3253
241.987	2407
242.051	2168
242.115	1082
242.179	3445
242.244	2862
242.308	3186
242.372	4039
242.436	3745
242.501	3017
242.565	2360
242.629	1347
242.693	3532
242.757	1183
242.822	2560
242.886	3121
242.950	3502
243.014	3124
243.078	3667
243.142	3896
243.206	2925
243.271	4089
243.335	3509
243.399	5485
243.463	19733
243.527	65852
243.591	21654
243.655	8095
243.719	5092
243.783	5585
243.847	8207
243.911	11822
243.975	13927
244.040	8921
244.104	5017
244.168	4028
244.232	5503
244.296	9410
244.360	10223
244.424	5355
244.488	5008
244.552	4369
244.615	2607
244.679	3333
244.743	4477
244.807	4361
244.871	3216
244.935	3344
244.999	1313
245.063	2201
245.127	3840
245.191	6882
245.255	7746
245.319	5721
245.383	3782
245.446	4565
245.510	1863
245.574	3264
245.638	4188
245.702	3496
245.766	11899
245.829	7729
245.893	3772
245.957	3465
246.021	4708
246.085	4116
246.149	6180
246.212	14417
246.276	22839
246.340	9094
246.404	7716
246.467	6970
246.531	11108
246.595	7702
246.659	6703
246.722	4354
246.786	6946
246.850	7676
246.913	9846
246.977	3903
247.041	3941
247.104	4892
247.168	4787
247.232	13190
247.295	30252
247.359	15287
247.423	5819
247.486	12749
247.550	8317
247.614	5518
247.677	7915
247.741	4747
247.804	4205
247.868	5446
247.932	10388
247.995	27823
248.059	9323
248.122	4145
248.186	6032
248.249	10542
248.313	42782
248.376	48722
248.440	30429
248.503	10851
248.567	9040
248.630	12350
248.694	17212
248.757	21411
248.821	47821
248.884	28548
248.948	22860
249.011	36420
249.075	56140
249.138	49133
249.202	17495
249.265	11904
249.328	15831
249.392	10067
249.455	7495
249.519	5278
249.582	7445
249.645	13556
249.709	9791
249.772	5635
249.835	6309
249.899	8250
249.962	6304
250.025	5594
250.089	16221
250.152	25400
250.215	12127
250.279	7675
250.342	8373
250.405	8418
250.468	6430
250.532	8786
250.595	14749
250.658	54509
250.721	100798
250.785	33865
250.848	18223
250.911	10040
250.974	9566
251.038	12096
251.101	28423
251.164	15559
251.227	14875
251.290	12270
251.354	18631
251.417	78652
251.480	83505
251.543	49287
251.606	149219
251.669	117755
251.732	39621
251.795	39898
251.859	40671
251.922	94220
251.985	56995
252.048	19718
252.111	14146
252.174	13053
252.237	23038
252.300	56467
252.363	58027
252.426	127452
252.489	54855
252.552	26714
252.615	17227
252.678	17696
252.741	40510
252.804	52784
252.867	125285
252.930	76209
252.993	40563
253.056	22767
253.119	16896
253.182	11128
253.245	22334
253.308	16376
253.371	16333
253.434	14722
253.497	13240
253.559	27673
253.622	18510
253.685	22028
253.748	25216
253.811	11311
253.874	15484
253.937	14862
254.000	9805
254.062	17280
254.125	30194
254.188	22778
254.251	22793
254.314	10314
254.376	19379
254.439	23005
254.502	18023
254.565	17524
254.628	35247
254.690	19655
254.753	11087
254.816	9215
254.878	9740
254.941	19517
255.004	23390
255.067	9067
255.129	9459
255.192	5882
255.255	4996
255.317	6663
255.380	4654
255.443	2791
255.505	2220
255.568	3014
255.631	3981
255.693	4521
255.756	3619
255.819	4591
255.881	2603
255.944	3072
256.006	3012
256.069	3603
256.132	2741
256.194	5595
256.257	19911
256.319	14771
256.382	13249
256.444	6642
256.507	4074
256.569	3347
256.632	4583
256.694	9283
256.757	22464
256.819	70588
256.882	26755
256.944	11081
257.007	8758
257.069	8632
257.132	6399
257.194	5153
257.257	4616
257.319	3584
257.381	5107
257.444	16615
257.506	78293
257.569	91168
257.631	44818
257.693	24241
257.756	11736
257.818	11148
257.880	6829
257.943	5977
258.005	4305
258.067	3350
258.130	3595
258.192	5730
258.254	14356
258.317	7446
258.379	4894
258.441	15594
258.503	17556
258.566	22062
258.628	34688
258.690	7716
258.753	6692
258.815	12096
258.877	6965
258.939	4152
259.001	3935
259.064	3065
259.126	5514
259.188	9753
259.250	6010
259.312	7396
259.375	21097
259.437	14382
259.499	4974
259.561	4814
259.623	4640
259.685	3430
259.747	4824
259.809	19639
259.872	45212
259.934	59317
259.996	54262
260.058	12195
260.120	5588
260.182	5173
260.244	3827
260.306	4151
260.368	4289
260.430	3101
260.492	6842
260.554	16021
260.616	16537
260.678	28755
260.740	48922
260.802	11139
260.864	8016
260.926	5658
260.988	6248
261.050	4921
261.112	10318
261.174	36484
261.236	36884
261.298	10074
261.359	18591
261.421	31034
261.483	7525
261.545	5308
261.607	3562
261.669	4834
261.731	11010
261.793	31497
261.854	11645
261.916	6989
261.978	4480
262.040	5788
262.102	4919
262.164	11447
262.225	10351
262.287	4543
262.349	12655
262.411	12218
262.472	5894
262.534	11423
262.596	31353
262.658	8797
262.719	4481
262.781	7397
262.843	28343
262.904	13152
262.966	7522
263.028	9876
263.090	42614
263.151	123836
263.213	37817
263.275	17002
263.336	8639
263.398	6226
263.459	4370
263.521	3984
263.583	12281
263.644	9401
263.706	3290
263.767	2254
263.829	2619
263.891	1617
263.952	1681
264.014	2090
264.075	2828
264.137	8777
264.198	6722
264.260	1926
264.321	2231
264.383	7744
264.444	16880
264.506	4983
264.567	3385
264.629	5105
264.690	9479
264.752	4488
264.813	3826
264.875	2798
264.936	3201
264.998	2416
265.059	2060
265.120	2774
265.182	6132
265.243	34106
265.305	38095
265.366	8206
265.427	4355
265.489	4181
265.550	1410
265.611	4041
265.673	3302
265.734	2917
265.795	1600
265.857	2113
265.918	2881
265.979	9452
266.040	59000
266.102	49006
266.163	12503
266.224	8742
266.286	5709
266.347	3019
266.408	3004
266.469	4856
266.530	3138
266.592	2129
266.653	7335
266.714	14501
266.775	3925
266.836	2767
266.898	1582
266.959	4275
267.020	2793
267.081	2860
267.142	2381
267.203	2202
267.264	2012
267.326	3389
267.387	1893
267.448	1554
267.509	1819
267.570	2447
267.631	959
267.692	1525
267.753	2162
267.814	2230
267.875	7245
267.936	19244
267.997	6641
268.058	5394
268.119	3150
268.180	4095
268.241	2357
268.302	2655
268.363	1910
268.424	2787
268.485	3220
268.546	1196
268.607	1332
268.668	717
268.729	1337
268.790	3633
268.851	3914
268.912	9137
268.972	13231
269.033	7131
269.094	2655
269.155	2504
269.216	1942
269.277	3455
269.338	2849
269.398	1996
269.459	2350
269.520	4683
269.581	6341
269.642	8704
269.702	4661
269.763	3737
269.824	2715
269.885	4607
269.945	7891
270.006	3144
270.067	2005
270.128	2090
270.188	1607
270.249	2785
270.310	2224
270.370	2634
270.431	3052
270.492	1072
270.553	3157
270.613	7555
270.674	18699
270.734	8021
270.795	4247
270.856	4845
270.916	4081
270.977	2971
271.038	4728
271.098	4037
271.159	7251
271.219	8045
271.280	2324
271.340	3358
271.401	4034
271.462	15120
271.522	7465
271.583	4281
271.643	3966
271.704	3178
271.764	4227
271.825	10613
271.885	38685
271.946	58112
272.006	17357
272.066	21557
272.127	44436
272.187	12307
272.248	7376
272.308	7843
272.369	31455
272.429	18703
272.489	11456
272.550	12620
272.610	12053
272.671	10286
272.731	8983
272.791	19167
272.852	8711
272.912	6970
272.972	4142
273.033	3312
273.093	8440
273.153	8328
273.214	3971
273.274	5188
273.334	18966
273.394	47829
273.455	17762
273.515	15513
273.575	40815
273.635	16570
273.696	22288
273.756	48334
273.816	17951
273.876	10500
273.936	24250
273.997	49865
274.057	11819
274.117	7465
274.177	11019
274.237	50210
274.297	50643
274.358	39496
274.418	39418
274.478	28083
274.538	10281
274.598	9885
274.658	39434
274.718	53693
274.778	19932
274.838	9116
274.898	20086
274.958	74625
275.018	52491
275.078	31614
275.138	12469
275.198	7253
275.258	4586
275.318	7367
275.378	12963
275.438	14302
275.498	9134
275.558	27560
275.618	65300
275.678	37738
275.738	17344
275.798	13395
275.858	5909
275.918	3696
275.978	5075
276.038	5131
276.098	4551
276.157	9555
276.217	30903
276.277	14262
276.337	8053
276.397	5249
276.457	6244
276.517	4577
276.576	3170
276.636	3323
276.696	6158
276.756	17847
276.815	14499
276.875	5540
276.935	6770
276.995	5365
277.055	3224
277.114	3032
277.174	6257
277.234	24873
277.293	11342
277.353	5423
277.413	4547
277.472	4593
277.532	4764
277.592	5870
277.651	19172
277.711	40515
277.771	12896
277.830	44649
277.890	39985
277.950	25946
278.009	83019
278.069	30868
278.128	26410
278.188	40527
278.248	15979
278.307	40165
278.367	28438
278.426	9393
278.486	5700
278.545	4820
278.605	3602
278.664	3639
278.724	4756
278.783	15256
278.843	48557
278.902	14432
278.962	7027
279.021	7764
279.081	11276
279.140	11904
279.199	7728
279.259	6419
279.318	7650
279.378	10030
279.437	19930
279.496	76709
279.556	226407
279.615	202770
279.675	50471
279.734	27671
279.793	40201
279.853	65807
279.912	24081
279.971	11692
280.031	10714
280.090	20785
280.149	44012
280.208	32285
280.268	145171
280.327	175074
280.386	40428
280.445	27370
280.505	25534
280.564	11742
280.623	9276
280.682	13169
280.742	22773
280.801	7388
280.860	4761
280.919	3377
280.978	4244
281.037	3917
281.097	3523
281.156	3825
281.215	4198
281.274	5468
281.333	29003
281.392	25677
281.451	5024
281.510	3562
281.569	4102
281.628	2179
281.688	3041
281.747	4700
281.806	3246
281.865	3621
281.924	2702
281.983	2350
282.042	1809
282.101	1503
282.160	2452
282.219	1493
282.278	2936
282.337	14269
282.396	11102
282.454	4012
282.513	5063
282.572	22252
282.631	14140
282.690	4140
282.749	3064
282.808	3748
282.867	3889
282.926	4018
282.985	2083
283.043	1877
283.102	2265
283.161	3431
283.220	10472
283.279	29549
283.338	8290
283.396	4270
283.455	4070
283.514	3959
283.573	6931
283.631	4532
283.690	3359
283.749	2851
283.808	8428
283.866	11209
283.925	3072
283.984	3598
284.043	5256
284.101	5925
284.160	3297
284.219	5241
284.277	4697
284.336	6991
284.395	29931
284.453	29363
284.512	8467
284.570	10285
284.629	8647
284.688	6991
284.746	7155
284.805	8512
284.863	11571
284.922	13849
284.981	14860
285.039	20429
285.098	39586
285.156	104217
285.215	274609
285.273	273519
285.332	123069
285.390	58512
285.449	36071
285.507	23652
285.566	18068
285.624	12811
285.683	9060
285.741	7019
285.799	6162
285.858	6501
285.916	5556
285.975	4745
286.033	3386
286.091	3348
286.150	3404
286.208	2967
286.267	4320
286.325	3329
286.383	7629
286.442	7318
286.500	3082
286.558	2396
286.616	2954
286.675	5138
286.733	4066
286.791	3926
286.850	3972
286.908	5953
286.966	11934
287.024	4950
287.083	3145
287.141	2706
287.199	2925
287.257	5918
287.315	4323
287.374	3789
287.432	12583
287.490	8964
287.548	4120
287.606	3020
287.664	3412
287.723	4969
287.781	7243
287.839	3510
287.897	5014
287.955	6149
288.013	11150
288.071	27383
288.129	104558
288.187	319210
288.245	146650
288.303	42235
288.361	23722
288.419	17975
288.477	12045
288.535	8604
288.593	6265
288.651	4593
288.709	3297
288.767	2728
288.825	3569
288.883	2916
288.941	2274
288.999	2692
289.057	1967
289.115	2907
289.173	2817
289.231	4221
289.289	5724
289.346	5264
289.404	4993
289.462	6701
289.520	7271
289.578	3178
289.636	2100
289.694	806
289.751	670
289.809	1717
289.867	1858
289.925	2949
289.983	4011
290.040	2090
290.098	1512
290.156	1818
290.214	2816
290.271	1578
290.329	1539
290.387	1388
290.444	1365
290.502	1131
290.560	639
290.617	654
290.675	2798
290.733	1988
290.790	2921
290.848	2336
290.906	6309
290.963	3132
291.021	3006
291.078	2938
291.136	3382
291.194	8462
291.251	23296
291.309	6657
291.366	2619
291.424	1536
291.481	2630
291.539	2321
291.596	2383
291.654	747
291.711	715
291.769	2253
291.826	7325
291.884	4984
291.941	1441
291.999	2556
292.056	2739
292.114	3677
292.171	1973
292.228	1288
292.286	3510
292.343	8618
292.401	13602
292.458	10055
292.515	6258
292.573	4768
292.630	5219
292.687	5459
292.745	2509
292.802	4345
292.859	10187
292.917	26936
292.974	17158
293.031	5725
293.089	3396
293.146	2772
293.203	2506
293.260	1656
293.318	3829
293.375	3861
293.432	1925
293.489	1732
293.546	1817
293.604	4888
293.661	16210
293.718	47888
293.775	22110
293.832	9751
293.889	7178
293.947	8214
294.004	5575
294.061	5041
294.118	10880
294.175	22258
294.232	18991
294.289	8235
294.346	4550
294.403	4403
294.460	5803
294.517	5043
294.574	2457
294.631	2952
294.688	4559
294.745	12306
294.802	46824
294.859	43328
294.916	16594
294.973	12554
295.030	8950
295.087	7098
295.144	3866
295.201	4449
295.258	3744
295.315	6532
295.372	18208
295.429	42272
295.486	15914
295.542	6056
295.599	12450
295.656	20959
295.713	19128
295.770	36906
295.827	13766
295.883	5886
295.940	5680
295.997	8608
296.054	9670
296.111	4238
296.167	3130
296.224	2001
296.281	2956
296.338	2799
296.394	2234
296.451	3882
296.508	13516
296.564	29969
296.621	17191
296.678	35355
296.734	57432
296.791	19347
296.848	9956
296.904	10130
296.961	22238
297.018	41445
297.074	31953
297.131	11051
297.187	7600
297.244	12195
297.301	39738
297.357	82191
297.414	28280
297.470	11036
297.527	7034
297.583	5604
297.640	5807
297.696	5165
297.753	3427
297.809	2678
297.866	1187
297.922	1560
297.979	2115
298.035	3547
298.092	6831
298.148	23769
298.204	24065
298.261	10088
298.317	15887
298.374	48200
298.430	30249
298.486	13927
298.543	9995
298.599	8026
298.656	8361
298.712	14791
298.768	38539
298.824	30825
298.881	9471
298.937	4752
298.993	3655
299.050	5628
299.106	4604
299.162	3328
299.218	4667
299.275	3141
299.331	4777
299.387	10363
299.443	41594
299.500	48328
299.556	16648
299.612	7196
299.668	6899
299.724	8035
299.780	8991
299.837	5786
299.893	9032
299.949	34129
300.005	45587
300.061	31967
300.117	59032
300.173	30628
300.229	12998
300.285	13118
300.341	16778
300.397	8782
300.453	4931
300.510	3168
300.566	3823
300.622	6769
300.678	17641
300.734	36110
300.790	34653
300.845	47583
300.901	27567
300.957	35250
301.013	29669
301.069	10586
301.125	7319
301.181	6527
301.237	4395
301.293	3244
301.349	2565
301.405	2970
301.461	2451
301.516	3831
301.572	4232
301.628	8569
301.684	8965
301.740	13147
301.796	24621
301.851	15839
301.907	25115
301.963	28084
302.019	44094
302.074	122509
302.130	123229
302.186	53310
302.242	20312
302.297	13292
302.353	13121
302.409	25297
302.464	23233
302.520	16746
302.576	42258
302.631	53120
302.687	27439
302.743	11293
302.798	6610
302.854	5109
302.910	5358
302.965	6254
303.021	11208
303.076	11465
303.132	14216
303.187	18524
303.243	8773
303.299	4373
303.354	3763
303.410	3597
303.465	3033
303.521	2766
303.576	3437
303.632	5114
303.687	11625
303.743	38260
303.798	34759
303.853	12434
303.909	5765
303.964	5392
304.020	8192
304.075	13905
304.130	11001
304.186	20017
304.241	22215
304.297	17346
304.352	8730
304.358	8401
304.407	5722
304.449	5164
304.463	4984
304.518	5591
304.539	5208
304.573	4559
304.629	4768
304.630	4848
304.684	9053
304.720	20572
304.739	26241
304.794	46773
304.811	40025
304.850	23418
304.902	9752
304.905	8909
304.960	5939
304.992	5989
305.015	6008
305.071	5082
305.083	4840
305.126	3943
305.173	2251
305.181	1998
305.236	2552
305.264	2993
305.292	3498
305.347	5878
305.354	6042
305.402	6925
305.445	6565
305.457	6473
305.512	7875
305.535	8072
305.567	8468
305.622	9804
305.626	10195
305.678	20509
305.716	38511
305.733	44154
305.788	54083
305.807	46083
305.843	33502
305.897	43587
305.898	43656
305.953	45115
305.988	30151
306.008	22378
306.063	14499
306.078	12874
306.118	9014
306.168	5716
306.173	5485
306.228	4635
306.259	3918
306.283	3436
306.338	3899
306.349	3945
306.393	4366
306.440	5401
306.448	5513
306.503	5463
306.530	5722
306.558	8642
306.613	20774
306.620	22643
306.668	35221
306.711	46632
306.723	46815
306.778	36839
306.801	27045
306.833	16586
306.888	7651
306.892	7337
306.943	6434
306.982	5218
306.997	4807
307.052	4097
307.072	4039
307.107	4562
307.162	6246
307.163	6269
307.217	9784
307.253	12036
307.272	12430
307.327	13979
307.343	13234
307.381	11543
307.434	10561
307.436	10982
307.491	23013
307.524	34602
307.546	37337
307.600	40051
307.614	36372
307.655	21870
307.704	10001
307.710	9677
307.765	11249
307.795	13655
307.819	16499
307.874	25948
307.885	26212
307.929	20995
307.975	15832
307.984	16325
308.038	23200
308.065	29423
308.093	56422
308.148	122315
308.156	136800
308.202	214933
308.246	273698
308.257	265825
308.312	138585
308.336	91902
308.366	68528
308.421	43997
308.426	41643
308.475	26500
308.517	17073
308.530	15695
308.585	12756
308.607	11963
308.639	12120
308.694	12782
308.697	12920
308.748	23895
308.787	35185
308.803	34813
308.857	27223
308.877	22994
308.912	19461
308.967	17794
308.967	17770
309.021	25945
309.058	33288
309.076	44070
309.130	82508
309.148	97353
309.185	186490
309.238	333986
309.239	335115
309.293	370386
309.328	343183
309.348	292741
309.402	132503
309.418	92637
309.457	62491
309.508	35937
309.511	35449
309.566	32670
309.598	32258
309.620	39099
309.674	59290
309.688	64707
309.729	59155
309.778	45760
309.783	44664
309.837	31125
309.868	24800
309.892	32453
309.946	53504
309.959	59444
310.001	78517
310.049	96759
310.055	93135
310.109	52321
310.139	29235
310.163	23772
310.218	16342
310.229	15033
310.272	12075
310.319	8412
310.326	8062
310.381	6512
310.409	5565
310.435	5423
310.489	5274
310.499	5306
310.543	5437
310.589	5478
310.598	5483
310.652	5706
310.679	5659
310.706	5081
310.760	3693
310.769	3514
310.814	3825
310.859	4294
310.868	4338
310.923	4225
310.948	4260
310.977	5764
311.031	8724
311.038	9163
311.085	8372
311.128	6899
311.139	6711
311.193	5927
311.218	5532
311.247	4992
311.301	4050
311.308	3920
311.356	4010
311.398	4146
311.410	4128
311.464	3941
311.488	3848
311.518	3913
311.572	3977
311.578	3986
311.626	7224
311.668	10011
311.680	9857
311.734	8914
311.758	8488
311.788	8964
311.842	9812
311.847	9868
311.896	10653
311.937	11316
311.950	11183
312.004	10460
312.027	10113
312.058	8812
312.112	6440
312.117	6189
312.165	5803
312.207	5453
312.297	6425
312.386	5746
312.476	7235
312.566	18960
312.656	8748
312.745	3969
312.835	4610
312.925	6088
313.015	6547
313.104	5536
313.194	4661
313.284	5858
313.374	8538
313.463	7069
313.553	5125
313.643	3666
313.732	4030
313.822	4107
313.912	5897
314.001	6321
314.091	6296
314.180	8073
314.270	8816
314.360	9939
314.449	8814
314.539	4668
314.628	4274
314.718	5815
314.808	8138
314.897	5313
314.987	5792
315.076	7659
315.166	10599
315.255	8470
315.345	9320
315.434	8535
315.524	8315
315.613	10203
315.703	14395
315.792	19727
315.881	60611
315.971	20902
316.060	18251
316.150	22503
316.239	22589
316.328	8808
316.418	5253
316.507	6385
316.597	8781
316.686	7924
316.775	10530
316.865	23598
316.954	6349
317.043	4086
317.133	6286
317.222	4569
317.311	4761
317.400	4205
317.490	10205
317.579	11714
317.668	8800
317.757	14635
317.847	32398
317.936	109258
318.025	45178
318.114	27267
318.203	17763
318.293	30168
318.382	75216
318.471	43961
318.560	52939
318.649	57648
318.738	13603
318.828	12096
318.917	12301
319.006	12581
319.095	29302
319.184	74027
319.273	47877
319.362	29062
319.451	10438
319.540	9430
319.629	22327
319.718	39195
319.807	17376
319.896	24557
319.985	97141
320.074	37436
320.163	9729
320.252	17529
320.341	12973
320.430	9261
320.519	19565
320.608	10027
320.697	8770
320.786	9714
320.875	12351
320.964	16153
321.053	26268
321.142	38871
321.230	41832
321.319	25463
321.408	65551
321.497	25668
321.586	26681
321.675	27958
321.764	25466
321.852	16167
321.941	37044
322.030	25003
322.119	23298
322.207	69331
322.296	38375
322.385	19063
322.474	25544
322.562	87389
322.651	41173
322.740	29480
322.829	39192
322.917	33714
323.006	23462
323.095	20551
323.183	11649
323.272	20022
323.361	34480
323.449	99851
323.538	32628
323.626	68342
323.715	44034
323.804	16961
323.892	62314
323.981	37830
324.069	12323
324.158	31912
324.246	33464
324.335	13152
324.424	24347
324.512	7197
324.601	9868
324.689	11057
324.778	15415
324.866	23870
324.954	7108
325.043	8096
325.131	15297
325.220	24585
325.308	29401
325.397	21735
325.485	14156
325.574	5171
325.662	5043
325.750	6830
325.839	5888
325.927	4023
326.015	7424
326.104	9311
326.192	13682
326.280	5458
326.369	5555
326.457	9508
326.545	20048
326.634	7573
326.722	4840
326.810	6489
326.898	5713
326.987	7956
327.075	18583
327.163	17870
327.251	7057
327.340	8083
327.428	7321
327.516	4931
327.604	7318
327.692	5549
327.781	5435
327.869	10631
327.957	7444
328.045	9100
328.133	3659
328.221	6147
328.309	6104
328.397	4811
328.485	8296
328.574	12699
328.662	44676
328.750	20276
328.838	7036
328.926	6729
329.014	4876
329.102	7602
329.190	19601
329.278	13715
329.366	3899
329.454	2565
329.542	3635
329.630	3029
329.718	3672
329.806	6250
329.893	5807
329.981	5014
330.069	9514
330.157	32532
330.245	110336
330.333	53703
330.421	9551
330.509	12168
330.597	53477
330.684	31779
330.772	9039
330.860	9884
330.948	12328
331.036	5651
331.123	2496
331.211	2832
331.299	5081
331.387	10445
331.475	21750
331.562	6811
331.650	3493
331.738	4112
331.825	6300
331.913	2961
332.001	3628
332.089	5856
332.176	12058
332.264	29220
332.352	22635
332.439	7979
332.527	5176
332.614	3787
332.702	6849
332.790	6972
332.877	14561
332.965	29055
333.052	9062
333.140	9075
333.228	22408
333.315	6310
333.403	5854
333.490	17253
333.578	15958
333.665	28081
333.753	11667
333.840	5287
333.928	6560
334.015	19497
334.103	27315
334.190	91939
334.278	21703
334.365	10428
334.452	8750
334.540	6071
334.627	6640
334.715	11557
334.802	23464
334.889	111081
334.977	116398
335.064	18195
335.151	8279
335.239	7467
335.326	11951
335.413	44268
335.501	60732
335.588	8898
335.675	6512
335.762	6902
335.850	11595
335.937	12079
336.024	29544
336.111	123014
336.199	54768
336.286	12772
336.373	6347
336.460	4117
336.547	3778
336.635	5748
336.722	6225
336.809	5196
336.896	10565
336.983	27134
337.070	64764
337.157	98840
337.245	74952
337.332	50466
337.419	7055
337.506	4090
337.593	6562
337.680	16873
337.767	55131
337.854	17760
337.941	17976
338.028	24998
338.115	8025
338.202	9275
338.289	19013
338.376	75424
338.463	23050
338.550	30912
338.637	34482
338.724	13491
338.811	21415
338.898	5054
338.984	3826
339.071	5006
339.158	7698
339.245	23387
339.332	13053
339.419	14887
339.506	14396
339.593	3181
339.679	4889
339.766	4261
339.853	6559
339.940	18642
340.027	5797
340.113	6298
340.200	9505
340.287	5526
340.374	8335
340.460	15922
340.547	5950
340.634	13146
340.720	53273
340.807	29585
340.894	5111
340.980	4696
341.067	5096
341.154	5464
341.240	9295
341.327	25594
341.414	7269
341.500	4729
341.587	4766
341.674	4930
341.760	16202
341.847	19874
341.933	6140
342.020	1816
342.106	2909
342.193	6326
342.279	13511
342.366	8608
342.452	18190
342.539	8532
342.625	22351
342.712	58694
342.798	23209
342.885	8984
342.971	2651
343.058	2044
343.144	3025
343.230	3941
343.317	3549
343.403	3213
343.490	2810
343.576	2480
343.662	3849
343.749	5083
343.835	7788
343.921	18265
344.008	101185
344.094	245923
344.180	51959
344.267	19866
344.353	68798
344.439	69144
344.525	26955
344.612	8741
344.698	7915
344.784	5600
344.870	3703
344.957	3736
345.043	9955
345.129	5763
345.215	15815
345.301	7517
345.387	4477
345.474	2234
345.560	3266
345.646	3408
345.732	4240
345.818	4685
345.904	3786
345.990	6198
346.076	5708
346.162	9068
346.249	5725
346.335	3792
346.421	6871
346.507	26216
346.593	103635
346.679	21694
346.765	5590
346.851	5274
346.937	4545
347.023	4357
347.108	5639
347.194	4389
347.280	4956
347.366	7636
347.452	27971
347.538	123192
347.624	83768
347.710	66456
347.796	9410
347.882	3713
347.967	3409
348.053	4541
348.139	3351
348.225	2977
348.311	3555
348.397	3040
348.482	6237
348.568	7144
348.654	3864
348.740	6598
348.825	6501
348.911	12142
348.997	53605
349.083	109939
349.168	15339
349.254	4748
349.340	4184
349.425	3233
349.511	7362
349.597	8072
349.682	18854
349.768	69302
349.854	31245
349.939	4798
350.025	3204
350.110	3155
350.196	2622
350.282	1452
350.367	3106
350.453	6814
350.538	6202
350.624	5538
350.709	6043
350.795	3087
350.880	3631
350.966	4549
351.051	7117
351.137	4652
351.222	4875
351.308	19631
351.393	58696
351.479	11779
351.564	3637
351.649	3645
351.735	4133
351.820	3095
351.906	5026
351.991	7053
352.076	35634
352.162	55767
352.247	10695
352.332	5497
352.418	11688
352.503	15851
352.588	82321
352.673	65586
352.759	14089
352.844	6127
352.929	7432
353.014	10402
353.100	6752
353.185	13533
353.270	20524
353.355	20611
353.441	5172
353.526	5738
353.611	17486
353.696	21301
353.781	11935
353.866	4153
353.952	5885
354.037	16738
354.122	40976
354.207	36952
354.292	12689
354.377	5343
354.462	5056
354.547	7833
354.632	6330
354.717	8205
354.802	14896
354.887	6160
354.972	3521
355.057	2604
355.142	2574
355.227	5892
355.312	10995
355.397	26191
355.482	68467
355.567	30822
355.652	22067
355.737	24012
355.822	78394
355.907	62572
355.991	9761
356.076	4252
356.161	4757
356.246	3600
356.331	5394
356.416	16533
356.501	122313
356.585	127092
356.670	15721
356.755	11499
356.840	17122
356.924	80415
357.009	299406
357.094	107700
357.179	23967
357.263	18758
357.348	14767
357.433	12854
357.517	12722
357.602	10552
357.687	8996
357.771	11458
357.856	28569
357.941	20727
358.025	58217
358.110	272464
358.195	121554
358.279	17775
358.364	14263
358.448	52143
358.533	147450
358.617	102007
358.702	103548
358.787	35849
358.871	19737
358.956	16385
359.040	6504
359.125	3837
359.209	5917
359.294	14074
359.378	22984
359.462	15468
359.547	9112
359.631	5083
359.716	2925
359.800	3646
359.885	7545
359.969	5732
360.053	8977
360.138	6479
360.222	10395
360.306	18676
360.391	14031
360.475	19987
360.559	49055
360.644	53138
360.728	37178
360.812	64614
360.896	184575
360.981	69455
361.065	35822
361.149	11271
361.233	9771
361.318	8970
361.402	15694
361.486	8244
361.570	5199
361.654	8993
361.739	25352
361.823	114486
361.907	181443
361.991	28287
362.075	20025
362.159	41386
362.243	26630
362.327	22737
362.411	30687
362.495	16078
362.580	7407
362.664	4348
362.748	5007
362.832	7902
362.916	12042
363.000	47141
363.084	156090
363.168	217781
363.252	47871
363.336	17258
363.420	21297
363.503	63134
363.587	73826
363.671	14378
363.755	11168
363.839	18582
363.923	8361
364.007	18906
364.091	21267
364.175	23771
364.258	108573
364.342	78067
364.426	104210
364.510	55892
364.594	25215
364.677	30248
364.761	161694
364.845	109303
364.929	35616
365.013	26964
365.096	22648
365.180	26289
365.264	27012
365.347	104686
365.431	40468
365.515	10312
365.598	7342
365.682	6219
365.766	8477
365.849	10445
365.933	7785
366.017	9517
366.100	5715
366.184	2169
366.267	5177
366.351	4434
366.435	4408
366.518	3187
366.602	2864
366.685	4707
366.769	6066
366.852	9185
366.936	18801
367.019	11996
367.103	6544
367.186	12293
367.270	5001
367.353	2879
367.436	4618
367.520	3896
367.603	7513
367.687	11548
367.770	23962
367.853	13751
367.937	48662
368.020	84233
368.104	18194
368.187	17534
368.270	25105
368.353	20787
368.437	24076
368.520	48706
368.603	34693
368.687	53596
368.770	112132
368.853	25583
368.936	21165
369.020	18421
369.103	8895
369.186	6838
369.269	7987
369.352	14360
369.436	23152
369.519	14883
369.602	8494
369.685	6921
369.768	7250
369.851	5166
369.934	3865
370.018	6055
370.101	18812
370.184	14332
370.267	10270
370.350	25414
370.433	34842
370.516	93179
370.599	113112
370.682	30551
370.765	52901
370.848	65108
370.931	131994
371.014	50200
371.097	11440
371.180	6550
371.263	4118
371.346	1373
371.429	3780
371.511	3162
371.594	11357
371.677	16267
371.760	14862
371.843	15610
371.926	90136
372.009	219570
372.091	62511
372.174	44765
372.257	125596
372.340	42304
372.423	23786
372.505	23292
372.588	11274
372.671	36381
372.754	128967
372.836	59206
372.919	28174
373.002	53901
373.085	18472
373.167	16898
373.250	52750
373.332	122547
373.415	142268
373.498	301852
373.580	102382
373.663	148034
373.746	199301
373.828	41907
373.911	16927
373.993	15824
374.076	53700
374.159	48484
374.241	30537
374.324	106015
374.406	65996
374.489	85926
374.571	268507
374.654	104925
374.736	47313
374.819	160701
374.901	217264
374.983	221905
375.066	35983
375.148	13128
375.231	45356
375.313	85851
375.395	31243
375.478	8697
375.560	7739
375.643	10112
375.725	42027
375.807	196672
375.890	138653
375.972	47286
376.054	27203
376.136	39478
376.219	18808
376.301	53478
376.383	176036
376.465	61408
376.548	39805
376.630	45353
376.712	149515
376.794	65191
376.877	7836
376.959	3887
377.041	6513
377.123	9001
377.205	10261
377.287	2092
377.369	6844
377.452	8960
377.534	5210
377.616	5000
377.698	4437
377.780	3006
377.862	5341
377.944	5230
378.026	2372
378.108	3666
378.190	2568
378.272	3591
378.354	2227
378.436	2502
378.518	6547
378.600	25351
378.682	25959
378.764	74595
378.846	58366
378.928	15612
379.010	21884
379.091	12166
379.173	4629
379.255	4482
379.337	8442
379.419	33531
379.501	110187
379.583	38997
379.664	9529
379.746	23536
379.828	70306
379.910	98944
379.991	86374
380.073	12840
380.155	8553
380.237	5981
380.318	5480
380.400	5601
380.482	14921
380.564	22749
380.645	23035
380.727	21032
380.809	13063
380.890	8973
380.972	5769
381.053	6091
381.135	7596
381.217	22151
381.298	77287
381.380	34786
381.461	26268
381.543	141052
381.624	173177
381.706	28534
381.787	16408
381.869	17809
381.951	54557
382.032	233066
382.113	139320
382.195	28393
382.276	19596
382.358	44774
382.439	136274
382.521	137876
382.602	220410
382.684	87865
382.765	175351
382.846	171143
382.928	225585
383.009	113557
383.090	71760
383.172	306967
383.253	484281
383.334	160968
383.416	196663
383.497	93429
383.578	34162
383.659	60839
383.741	250049
383.822	715213
383.903	344747
383.984	129571
384.066	250496
384.147	148125
384.228	26995
384.309	20025
384.390	14650
384.471	10874
384.553	10867
384.634	16518
384.715	18700
384.796	8561
384.877	12095
384.958	64967
385.039	79784
385.120	25155
385.201	10020
385.282	12739
385.363	11350
385.444	10537
385.525	30322
385.606	113622
385.687	90548
385.768	16991
385.849	19155
385.930	102709
386.011	183150
386.092	44010
386.173	10429
386.254	6808
386.335	7902
386.416	10553
386.496	44382
386.577	71837
386.658	21237
386.739	12430
386.820	11021
386.901	7425
386.981	8815
387.062	6534
387.143	15057
387.224	71660
387.304	63855
387.385	20001
387.466	13519
387.547	17678
387.627	13767
387.708	25202
387.789	126305
387.869	161746
387.950	38732
388.031	6721
388.111	4318
388.192	12495
388.273	19562
388.353	12346
388.434	9342
388.514	21447
388.595	119882
388.676	154939
388.756	68121
388.837	65678
388.917	39630
388.998	7858
389.078	8499
389.159	6569
389.239	7355
389.320	13888
389.400	9958
389.480	23800
389.561	77991
389.641	36736
389.722	12236
389.802	20135
389.883	29380
389.963	94160
390.043	52929
390.124	12777
390.204	28265
390.284	83838
390.365	48462
390.445	43364
390.525	138544
390.605	126381
390.686	42685
390.766	19904
390.846	10321
390.927	5264
391.007	6761
391.087	8902
391.167	16413
391.247	10652
391.328	10723
391.408	13709
391.488	9464
391.568	3207
391.648	9616
391.728	13499
391.808	12986
391.888	14422
391.969	40367
392.049	69146
392.129	24483
392.209	30946
392.289	91344
392.369	42612
392.449	24209
392.529	17887
392.609	18296
392.689	24260
392.769	90529
392.849	73914
392.929	43229
393.009	117034
393.089	94215
393.169	75969
393.248	238644
393.328	887105
393.408	932457
393.488	255308
393.568	72895
393.648	36179
393.728	22814
393.807	16567
393.887	16015
393.967	13894
394.047	16080
394.127	18768
394.206	30479
394.286	102036
394.366	486716
394.446	512328
394.525	108054
394.605	26225
394.685	19933
394.764	34070
394.844	58945
394.924	43659
395.003	17836
395.083	13321
395.163	12184
395.242	9625
395.322	10738
395.402	7205
395.481	11346
395.561	25271
395.640	71614
395.720	58421
395.799	74857
395.879	58236
395.958	41733
396.038	148927
396.117	640138
396.197	681352
396.276	177840
396.356	52534
396.435	35307
396.515	28057
396.594	36028
396.673	68069
396.753	253628
396.832	816541
396.912	602721
396.991	144916
397.070	39199
397.150	21624
397.229	15487
397.308	19610
397.388	32833
397.467	16640
397.546	8186
397.625	5243
397.705	11466
397.784	10937
397.863	6176
397.942	4602
398.022	6035
398.101	18523
398.180	57851
398.259	28262
398.338	9810
398.417	7195
398.497	4891
398.576	5676
398.655	3240
398.734	4891
398.813	7314
398.892	18302
398.971	64605
399.050	29540
399.129	4497
399.208	3466
399.287	4674
399.366	2307
399.445	3128
399.524	3016
399.603	3059
399.682	10015
399.761	25008
399.840	72516
399.919	52429
399.998	7498
400.077	2677
400.156	1467
400.235	5325
400.313	2271
400.392	5057
400.471	35149
400.550	59362
400.629	13883
400.708	6124
400.786	4073
400.865	11557
400.944	13254
401.023	8772
401.102	1263
401.180	1996
401.259	1811
401.338	3986
401.416	5958
401.495	4402
401.574	3614
401.652	3078
401.731	5419
401.810	5321
401.888	2153
401.967	3389
402.046	8325
402.124	6940
402.203	7489
402.281	5607
402.360	13287
402.438	18729
402.517	10708
402.596	3648
402.674	3217
402.753	2117
402.831	2713
402.910	4138
402.988	22328
403.066	91235
403.145	49015
403.223	25409
403.302	73203
403.380	50440
403.459	49866
403.537	18411
403.615	6020
403.694	1534
403.772	1605
403.850	1919
403.929	1801
404.007	3198
404.085	8606
404.164	10632
404.242	3208
404.320	5359
404.398	12589
404.477	32603
404.555	175940
404.633	150023
404.711	21430
404.789	7324
404.868	4764
404.946	3321
405.024	2021
405.102	2147
405.180	1606
405.258	1518
405.336	2761
405.415	3260
405.493	8275
405.571	7535
405.649	1942
405.727	1861
405.805	4490
405.883	4735
405.961	4461
406.039	4501
406.117	2480
406.195	7127
406.273	37118
406.351	156034
406.429	84028
406.507	9562
406.585	2678
406.663	4771
406.740	6880
406.818	5585
406.896	1926
406.974	3511
407.052	10825
407.130	88130
407.208	124636
407.285	21846
407.363	2923
407.441	3492
407.519	2462
407.596	4681
407.674	14635
407.752	47011
407.830	37538
407.907	11646
407.985	4996
408.063	1820
408.141	1392
408.218	6018
408.296	5327
408.373	5871
408.451	5347
408.529	4651
408.606	1436
408.684	1053
408.762	339
408.839	1272
408.917	1342
408.994	1719
409.072	2686
409.149	2822
409.227	7509
409.304	8840
409.382	4970
409.459	5737
409.537	10200
409.614	8597
409.692	4582
409.769	4782
409.846	8721
409.924	15026
410.001	12188
410.079	6227
410.156	4998
410.233	9642
410.311	5796
410.388	3132
410.465	6043
410.543	8098
410.620	3488
410.697	4252
410.775	5419
410.852	1630
410.929	5465
411.006	10694
411.083	5837
411.161	21642
411.238	18285
411.315	4541
411.392	2754
411.469	8354
411.547	12071
411.624	5212
411.701	4523
411.778	4320
411.855	11543
411.932	5564
412.009	2066
412.086	2238
412.163	3378
412.240	4022
412.317	7029
412.394	6997
412.471	1464
412.548	1024
412.625	2186
412.702	2883
412.779	13480
412.856	12691
412.933	2132
413.010	1362
413.087	5733
413.164	36735
413.241	51631
413.318	10924
413.395	7302
413.471	14047
413.548	4974
413.625	2627
413.702	2781
413.779	2571
413.855	31
413.932	796
414.009	-564
414.086	1219
414.162	647
414.239	7373
414.316	33094
414.393	76565
414.469	24575
414.546	3073
414.623	1138
414.699	1608
414.776	2111
414.853	1115
414.929	1652
415.006	1553
415.082	2374
415.159	2100
415.236	2025
415.312	2143
415.389	6937
415.465	10047
415.542	4275
415.618	2635
415.695	6066
415.771	3994
415.848	3184
415.924	2773
416.000	1462
416.077	1496
416.153	-495
416.230	-249
416.306	490
416.383	1097
416.459	533
416.535	319
416.612	511
416.688	980
416.764	2012
416.841	610
416.917	761
416.993	663
417.069	2146
417.146	4122
417.222	6735
417.298	3388
417.374	1612
417.451	2225
417.527	4170
417.603	5585
417.679	2891
417.755	3234
417.831	649
417.908	1149
417.984	187
418.060	486
418.136	7995
418.212	11755
418.288	3371
418.364	2033
418.440	978
418.516	4977
418.592	4892
418.668	13019
418.744	22691
418.820	15531
418.896	3049
418.972	992
419.048	1989
419.124	10418
419.200	7019
419.276	1193
419.352	-433
419.428	1618
419.504	1907
419.579	4434
419.655	1814
419.731	2823
419.807	14253
419.883	26994
419.959	17286
420.034	4782
420.110	9042
420.186	46008
420.262	32950
420.337	5129
420.413	3439
420.489	1861
420.565	1997
420.640	1617
420.716	2439
420.792	1029
420.867	1904
420.943	1140
421.019	6282
421.094	4573
421.170	1839
421.245	867
421.321	1951
421.397	2508
421.472	6768
421.548	21948
421.623	15502
421.699	5021
421.774	4401
421.850	3946
421.925	8879
422.001	7169
422.076	4910
422.152	6769
422.227	11621
422.302	12292
422.378	18155
422.453	34168
422.529	86482
422.604	293619
422.679	517976
422.755	318357
422.830	95048
422.905	34797
422.981	17777
423.056	11541
423.131	8618
423.207	6713
423.282	8011
423.357	16207
423.432	9162
423.508	8788
423.583	23843
423.658	16322
423.733	3797
423.808	5338
423.883	7633
423.959	5796
424.034	4555
424.109	3331
424.184	765
424.259	976
424.334	1127
424.409	901
424.484	1104
424.559	3081
424.634	2567
424.709	6999
424.784	6376
424.859	3392
424.934	5459
425.009	31135
425.084	53494
425.159	17445
425.234	2293
425.309	1062
425.384	4076
425.459	7549
425.534	1258
425.609	627
425.683	346
425.758	976
425.833	1842
425.908	3495
425.983	18469
426.058	55882
426.132	20193
426.207	2560
426.282	3685
426.357	2863
426.431	1336
426.506	1077
426.581	993
426.655	2071
426.730	1855
426.805	1972
426.879	3101
426.954	2652
427.029	7668
427.103	51166
427.178	130819
427.253	52451
427.327	5088
427.402	3496
427.476	10010
427.551	3877
427.625	2264
427.700	2490
427.774	-1
427.849	1845
427.923	504
427.998	1558
428.072	1087
428.147	6220
428.221	35213
428.296	108559
428.370	52663
428.444	6027
428.519	4983
428.593	9293
428.667	7751
428.742	10687
428.816	12154
428.890	58857
428.965	97387
429.039	25455
429.113	12472
429.188	4935
429.262	953
429.336	6610
429.410	23619
429.485	13085
429.559	8817
429.633	6883
429.707	2919
429.781	10094
429.855	63144
429.930	100058
430.004	40868
430.078	50880
430.152	51755
430.226	137580
430.300	137655
430.374	19256
430.448	5734
430.522	17570
430.596	52647
430.670	36549
430.744	126798
430.818	185786
430.892	34957
430.966	6126
431.040	2209
431.114	276
431.188	-52
431.262	1216
431.336	1487
431.410	5837
431.484	16214
431.557	10801
431.631	1197
431.705	2580
431.779	17448
431.853	90996
431.927	59968
432.000	7159
432.074	1883
432.148	1655
432.222	1350
432.295	1377
432.369	635
432.443	5257
432.516	47507
432.590	127120
432.664	41810
432.737	4883
432.811	511
432.885	465
432.958	438
433.032	743
433.106	-715
433.179	-666
433.253	713
433.326	822
433.400	-530
433.473	-175
433.547	-687
433.620	1061
433.694	4488
433.767	4835
433.841	748
433.914	-188
433.988	305
434.061	1011
434.134	561
434.208	-37
434.281	-290
434.355	-778
434.428	-70
434.501	81
434.575	-358
434.648	-186
434.721	-225
434.795	-422
434.868	-653
434.941	-607
435.014	-515
435.088	-164
435.161	1896
435.234	5477
435.307	6862
435.381	2014
435.454	2142
435.527	4090
435.600	3891
435.673	3089
435.746	1636
435.819	894
435.892	280
435.966	167
436.039	588
436.112	637
436.185	-411
436.258	-866
436.331	-931
436.404	-594
436.477	-986
436.550	-70
436.623	-350
436.696	13
436.769	714
436.842	694
436.915	457
436.987	2116
437.060	1308
437.133	184
437.206	-364
437.279	-21
437.352	-11
437.425	859
437.498	3618
437.570	6839
437.643	4739
437.716	1429
437.789	701
437.861	9636
437.934	33051
438.007	12097
438.080	1745
438.152	2441
438.225	7515
438.298	61559
438.370	177765
438.443	74516
438.516	25475
438.588	4204
438.661	175
438.734	1273
438.806	1605
438.879	2585
438.951	6172
439.024	15297
439.096	3026
439.169	420
439.241	-567
439.314	587
439.386	1365
439.459	4003
439.531	11425
439.604	3944
439.676	470
439.749	-82
439.821	-157
439.893	584
439.966	913
440.038	3865
440.110	3013
440.183	1613
440.255	578
440.327	3254
440.400	22964
440.472	109058
440.544	66060
440.617	9018
440.689	9862
440.761	14686
440.833	23929
440.905	13239
440.978	604
441.050	790
441.122	-343
441.194	209
441.266	-146
441.338	601
441.411	3750
441.483	33370
441.555	48832
441.627	9112
441.699	3676
441.771	2356
441.843	346
441.915	217
441.987	-160
442.059	314
442.131	1727
442.203	3880
442.275	3669
442.347	3100
442.419	6110
442.491	38017
442.563	99533
442.635	37987
442.706	16669
442.778	12755
442.850	1747
442.922	596
442.994	2170
443.066	3482
443.137	1952
443.209	932
443.281	4101
443.353	10754
443.425	47015
443.496	186537
443.568	170553
443.640	55384
443.711	10153
443.783	4948
443.855	2204
443.926	1011
443.998	1311
444.070	2176
444.141	2644
444.213	5581
444.285	6595
444.356	5382
444.428	3815
444.499	897
444.571	-100
444.642	579
444.714	1263
444.785	4286
444.857	3438
444.928	7824
445.000	3920
445.071	5738
445.143	7472
445.214	6849
445.285	8989
445.357	27715
445.428	117431
445.500	287182
445.571	157996
445.642	76726
445.714	24542
445.785	18382
445.856	5936
445.928	7576
445.999	9313
446.070	7874
446.141	4883
446.213	5890
446.284	2241
446.355	1996
446.426	1246
446.497	1077
446.569	1811
446.640	5464
446.711	5025
446.782	1435
446.853	1646
446.924	2755
446.995	2305
447.066	891
447.138	1476
447.209	1183
447.280	-325
447.351	318
447.422	-577
447.493	882
447.564	2852
447.635	4988
447.706	950
447.777	-587
447.847	-788
447.918	-547
447.989	465
448.060	1752
448.131	5114
448.202	5608
448.273	3905
448.344	1530
448.414	293
448.485	84
448.556	-217
448.627	-5
448.698	-68
448.768	-382
448.839	-249
448.910	1366
448.981	1639
449.051	1917
449.122	1
449.193	159
449.263	-203
449.334	-357
449.405	1847
449.475	6051
449.546	3689
449.616	3382
449.687	1992
449.758	645
449.828	-612
449.899	-724
449.969	-852
450.040	-717
450.110	1188
450.181	1690
450.251	-129
450.322	-531
450.392	-83
450.463	40
450.533	-668
450.604	974
450.674	-432
450.744	76
450.815	-161
450.885	482
450.955	533
451.026	-884
451.096	-797
451.166	161
451.237	2492
451.307	8316
451.377	2447
451.447	-12
451.518	-124
451.588	-207
451.658	525
451.728	1178
451.799	7987
451.869	8015
451.939	402
452.009	-257
452.079	-698
452.149	581
452.219	1201
452.289	10734
452.360	5542
452.430	570
452.500	1124
452.570	2975
452.640	3556
452.710	12936
452.780	16491
452.850	13945
452.920	13205
452.990	3622
453.060	1671
453.129	3142
453.199	3070
453.269	11938
453.339	24103
453.409	36310
453.479	40411
453.549	55514
453.619	56062
453.688	16845
453.758	1221
453.828	456
453.898	492
453.968	-65
454.037	-681
454.087	-56
454.107	194
454.168	-393
454.177	-492
454.247	738
454.249	702
454.316	-521
454.330	-348
454.386	353
454.411	1583
454.456	3544
454.492	5249
454.525	6772
454.574	3674
454.595	2336
454.655	477
454.665	173
454.734	1113
454.736	1169
454.804	2788
454.817	3922
454.873	8473
454.898	8743
454.943	9165
454.979	6063
455.013	3249
455.060	1798
455.082	1222
455.141	947
455.152	851
455.221	6347
455.222	6412
455.291	10804
455.303	10415
455.360	8045
455.384	11597
455.430	17567
455.465	13478
455.499	9673
455.546	8206
455.569	7526
455.627	5574
455.638	5217
455.707	320
455.708	327
455.777	37
455.789	188
455.846	793
455.869	453
455.916	-245
455.950	-281
455.985	-288
456.031	774
456.054	1209
456.112	578
456.124	499
456.193	-293
456.193	-309
456.262	109
456.274	294
456.332	1180
456.355	1272
456.401	1307
456.436	949
456.470	526
456.516	-104
456.540	-319
456.597	-7
456.609	-5
456.678	-178
456.678	-186
456.747	-267
456.759	-277
456.817	-358
456.840	-208
456.886	97
456.920	-197
456.955	-446
457.001	-161
457.024	-30
457.082	776
457.093	940
457.162	1735
457.163	1753
457.232	2634
457.243	2429
457.301	1453
457.324	931
457.370	132
457.405	497
457.439	893
457.485	610
457.508	468
457.566	1041
457.577	1166
457.646	1055
457.647	1081
457.715	4149
457.727	4673
457.784	6956
457.808	9149
457.853	12473
457.889	14512
457.922	14822
457.969	9416
457.991	8795
458.050	11350
458.060	11675
458.129	20657
458.130	20867
458.198	22210
458.211	19716
458.267	9816
458.292	6437
458.336	2836
458.372	2839
458.405	4400
458.453	6912
458.474	8915
458.533	18235
458.543	19156
458.611	36823
458.614	36923
458.680	24250
458.694	19142
458.749	6713
458.775	4414
458.818	1894
458.855	1444
458.887	1138
458.936	1098
458.955	1111
459.016	714
459.024	695
459.093	1737
459.097	1753
459.162	1424
459.177	1428
459.230	1652
459.257	1974
459.299	2897
459.338	3440
459.368	3692
459.418	5028
459.437	4996
459.499	3301
459.505	3195
459.574	1408
459.579	1352
459.643	1158
459.659	1145
459.711	1011
459.740	1043
459.780	1174
459.820	1520
459.849	1534
459.900	1132
459.917	1155
459.981	1553
459.986	1541
460.054	1044
460.061	992
460.123	1015
460.141	1318
460.191	2412
460.222	2697
460.260	2658
460.302	3206
460.328	3301
460.382	2011
460.397	1811
460.462	1572
460.465	1604
460.534	3371
460.543	3551
460.602	10063
460.623	12562
460.671	19423
460.703	27421
460.739	27649
460.783	23267
460.808	19814
460.864	4896
460.876	3475
460.944	1858
460.945	1836
461.013	1742
461.024	1718
461.081	2044
461.104	2447
461.150	2723
461.184	2509
461.218	2190
461.264	1446
461.286	1331
461.345	1223
461.355	1116
461.423	1264
461.425	1247
461.491	1097
461.505	1236
461.559	2800
461.585	3342
461.628	4724
461.665	6369
461.696	7229
461.745	10128
461.764	9854
461.825	4355
461.832	4118
461.901	2513
461.905	2550
461.969	2387
461.985	2274
462.037	2561
462.065	2525
462.105	2131
462.145	1764
462.173	2344
462.225	3811
462.241	3982
462.305	5153
462.310	5125
462.378	4755
462.385	4425
462.446	2347
462.465	2217
462.514	2582
462.545	2776
462.582	2511
462.625	2044
462.650	2025
462.705	2191
462.718	2213
462.785	2240
462.786	2244
462.854	2328
462.865	2363
462.922	2981
462.945	3456
462.990	3451
463.025	2785
463.058	2051
463.104	1274
463.126	1310
463.184	1536
463.194	1611
463.262	1889
463.264	1926
463.330	2330
463.344	2218
463.398	2709
463.424	3109
463.466	2435
463.504	1850
463.533	2258
463.583	2839
463.601	2809
463.663	2609
463.669	2610
463.737	2530
463.743	2568
463.805	4707
463.823	5300
463.873	6685
463.903	7537
463.940	8388
463.982	9636
464.008	8413
464.062	4561
464.076	4238
464.142	2696
464.144	2668
464.211	2015
464.221	1980
464.279	2856
464.301	3147
464.347	3750
464.381	4338
464.414	4271
464.461	3775
464.482	3706
464.540	3804
464.550	3747
464.617	3158
464.620	3136
464.685	4309
464.699	4493
464.753	4668
464.779	4984
464.820	5734
464.859	6295
464.888	6033
464.938	5544
464.956	5744
465.018	6244
465.023	6145
465.091	4739
465.098	4592
465.158	4894
465.177	5066
465.226	4932
465.257	4657
465.293	4732
465.336	4935
465.361	5302
465.416	6043
465.428	6335
465.495	8156
465.496	8180
465.563	9825
465.575	10160
465.631	11621
465.654	12391
465.698	9410
465.734	6203
465.765	5518
465.813	4693
465.833	4585
465.893	4615
465.900	4619
465.968	4470
465.972	4456
466.035	4270
466.052	4184
466.102	3886
466.131	3774
466.170	4294
466.210	4796
466.237	4932
466.290	5179
466.304	5179
466.369	5057
466.372	5098
466.439	6062
466.449	6181
466.506	6245
466.528	6308
466.573	8027
466.607	9244
466.641	11753
466.687	15264
466.708	16664
466.766	20640
466.775	19506
466.842	10544
466.845	10102
466.909	7458
466.925	6870
466.977	7298
467.004	7535
467.044	7618
467.083	7703
467.111	8312
467.163	9397
467.178	9724
467.242	11019
467.245	10968
467.312	9532
467.321	9328
467.379	8940
467.400	8772
467.446	9772
467.480	10469
467.559	8379
467.638	7356
467.717	7866
467.796	8789
467.875	8374
467.955	7800
468.034	9494
468.113	16334
468.192	23246
468.271	9058
468.350	8087
468.429	8942
468.508	10669
468.588	8846
468.667	6672
468.746	6641
468.825	6008
468.904	5430
468.983	6345
469.062	9176
469.141	10414
469.220	6654
469.299	6388
469.378	6461
469.456	9553
469.535	8621
469.614	7312
469.693	7339
469.772	8893
469.851	9283
469.930	8256
470.009	7205
470.088	6725
470.166	8745
470.245	12305
470.324	14098
470.403	8720
470.482	8159
470.560	5964
470.639	7297
470.718	8808
470.797	7595
470.875	7756
470.954	8420
471.033	8492
471.111	5852
471.190	6349
471.269	4740
471.347	6293
471.426	6363
471.505	7708
471.583	7264
471.662	7441
471.740	6635
471.819	6786
471.898	5702
471.976	6370
472.055	6444
472.133	7153
472.212	8527
472.290	7392
472.369	5734
472.447	5569
472.526	5734
472.604	6445
472.683	6481
472.761	6737
472.839	6771
472.918	6603
472.996	5611
473.075	6495
473.153	6387
473.231	5480
473.310	6552
473.388	7214
473.466	5728
473.545	7794
473.623	10352
473.701	10119
473.780	8087
473.858	5387
473.936	6758
474.014	5964
474.093	7120
474.171	8408
474.249	9039
474.327	7933
474.405	5971
474.484	6255
474.562	5437
474.640	4774
474.718	6263
474.796	5450
474.874	6417
474.952	5207
475.030	4976
475.108	5703
475.187	6505
475.265	7564
475.343	10085
475.421	10903
475.499	5884
475.577	6293
475.655	6254
475.733	10577
475.811	13960
475.889	13670
475.966	11308
476.044	4153
476.122	6830
476.200	8444
476.278	7545
476.356	4369
476.434	5071
476.512	6975
476.590	8518
476.667	8234
476.745	4163
476.823	5304
476.901	4905
476.979	3678
477.056	4949
477.134	4696
477.212	5129
477.290	4332
477.367	4580
477.445	4047
477.523	3832
477.601	4912
477.678	4068
477.756	4607
477.834	5375
477.911	4268
477.989	4677
478.066	3391
478.144	4800
478.222	5410
478.299	9140
478.377	9077
478.454	4315
478.532	3880
478.609	5268
478.687	6035
478.764	3770
478.842	4831
478.919	5370
478.997	5119
479.074	3731
479.152	4122
479.229	4991
479.307	3918
479.384	3384
479.461	3085
479.539	3114
479.616	5146
479.694	4155
479.771	3822
479.848	3551
479.926	4425
480.003	6564
480.080	4313
480.157	3180
480.235	4078
480.312	3780
480.389	3890
480.467	5039
480.544	7097
480.621	5034
480.698	4289
480.775	6135
480.853	3776
480.930	3003
481.007	4101
481.084	4435
481.161	5314
481.238	5347
481.315	3026
481.392	3113
481.470	3676
481.547	2138
481.624	3276
481.701	3491
481.778	3488
481.855	4406
481.932	5354
482.009	8694
482.086	7368
482.163	4552
482.240	7127
482.317	12447
482.393	10548
482.470	4221
482.547	4252
482.624	3435
482.701	4722
482.778	4200
482.855	3631
482.932	2843
483.009	3281
483.085	4832
483.162	6243
483.239	6269
483.316	3767
483.393	4430
483.469	3826
483.546	3745
483.623	4309
483.699	3005
483.776	2638
483.853	4973
483.930	6709
484.006	13128
484.083	22030
484.160	18583
484.236	31761
484.313	25056
484.389	17177
484.466	16623
484.543	14724
484.619	15062
484.696	16513
484.772	15976
484.849	14810
484.925	14089
485.002	13019
485.078	15402
485.155	16377
485.231	13399
485.308	13151
485.384	12720
485.461	15041
485.537	18617
485.614	21834
485.690	13645
485.766	13211
485.843	12839
485.919	18275
485.995	19733
486.072	11830
486.148	11489
486.224	12324
486.301	11334
486.377	13750
486.453	16249
486.530	14472
486.606	17223
486.682	19661
486.758	19197
486.835	19694
486.911	16585
486.987	24041
487.063	34116
487.139	45600
487.215	31355
487.292	17470
487.368	13817
487.444	15488
487.520	22456
487.596	20946
487.672	26495
487.748	71045
487.824	107617
487.900	36759
487.976	14319
488.052	15855
488.128	22730
488.204	17460
488.280	14016
488.356	15284
488.432	20648
488.508	26965
488.584	15319
488.660	11124
488.736	11739
488.812	12407
488.888	16315
488.964	19712
489.039	38916
489.115	67449
489.191	43091
489.267	12349
489.343	10588
489.418	10197
489.494	9328
489.570	7818
489.646	10995
489.722	9342
489.797	9584
489.873	11303
489.949	21350
490.024	21538
490.100	8847
490.176	9015
490.251	10786
490.327	15112
490.403	10785
490.478	8866
490.554	7492
490.629	8333
490.705	7390
490.781	8420
490.856	7920
490.932	9723
491.007	10106
491.083	9208
491.158	7720
491.234	8746
491.309	14553
491.385	15976
491.460	7921
491.536	9156
491.611	8543
491.686	8340
491.762	12117
491.837	25395
491.913	43039
491.988	60215
492.063	82181
492.139	21874
492.214	10281
492.289	7196
492.365	6495
492.440	7590
492.515	7486
492.590	7291
492.666	5249
492.741	7458
492.816	9920
492.891	6556
492.967	6412
493.042	6034
493.117	4980
493.192	5849
493.267	9598
493.342	26041
493.418	37878
493.493	9384
493.568	4850
493.643	4608
493.718	6765
493.793	8825
493.868	12937
493.943	8979
494.018	5730
494.093	4733
494.168	5239
494.243	4370
494.318	4962
494.393	4384
494.468	4922
494.543	5285
494.618	5173
494.693	4670
494.768	4551
494.842	4819
494.917	3879
494.992	5153
495.067	4120
495.142	3624
495.217	5684
495.292	4796
495.366	6446
495.441	6879
495.516	9060
495.591	12974
495.665	51086
495.740	139554
495.815	69297
495.890	7258
495.964	3544
496.039	7239
496.114	5885
496.188	5505
496.263	5936
496.338	4738
496.412	4845
496.487	7158
496.561	7650
496.636	8806
496.710	5226
496.785	6419
496.860	7336
496.934	5286
497.009	5977
497.083	5963
497.158	5461
497.232	6818
497.307	8934
497.381	7330
497.455	7728
497.530	10120
497.604	7793
497.679	7910
497.753	12824
497.827	17785
497.902	16730
497.976	18325
498.050	33031
498.125	132880
498.199	171875
498.273	36969
498.348	25953
498.422	18869
498.496	15349
498.570	13606
498.645	9287
498.719	6741
498.793	10244
498.867	13047
498.941	17296
499.016	45675
499.090	143137
499.164	71872
499.238	7512
499.312	6704
499.386	7509
499.460	7126
499.534	6789
499.609	7563
499.683	9655
499.757	10790
499.831	19043
499.905	84164
499.979	99616
500.053	15214
500.127	14417
500.201	14373
500.275	8857
500.349	6064
500.422	7285
500.496	11534
500.570	27160
500.644	51767
500.718	95015
500.792	30606
500.866	6756
500.940	7059
501.013	7382
501.087	5010
501.161	12736
501.235	17156
501.309	24252
501.382	69501
501.456	80351
501.530	17193
501.603	21679
501.677	11683
501.751	3348
501.825	7663
501.898	9320
501.972	26505
502.046	22357
502.119	6443
502.193	12607
502.266	30080
502.340	18336
502.413	12038
502.487	26114
502.561	16060
502.634	6855
502.708	6154
502.781	5116
502.855	6254
502.928	2221
503.002	3705
503.075	3306
503.149	4233
503.222	3273
503.295	4042
503.369	5118
503.442	5550
503.516	17912
503.589	49767
503.662	39271
503.736	12737
503.809	22869
503.882	23065
503.956	28696
504.029	35355
504.102	39259
504.175	60854
504.249	18608
504.322	6352
504.395	6289
504.468	4037
504.542	3048
504.615	3011
504.688	3297
504.761	1846
504.834	5505
504.907	6124
504.980	11508
505.053	5515
505.127	4713
505.200	9509
505.273	5178
505.346	3393
505.419	2087
505.492	3884
505.565	2348
505.638	1810
505.711	1977
505.784	1888
505.857	1904
505.930	3615
506.003	1566
506.076	4527
506.149	3563
506.221	4008
506.294	4815
506.367	8764
506.440	37811
506.513	30669
506.586	6623
506.659	3818
506.731	3316
506.804	4431
506.877	6982
506.950	4584
507.022	4239
507.095	2930
507.168	5558
507.241	4541
507.313	2580
507.386	2196
507.459	6263
507.531	4394
507.604	2289
507.677	2801
507.749	1897
507.822	4690
507.894	10311
507.967	15377
508.040	8186
508.112	9010
508.185	7898
508.257	4459
508.330	10478
508.402	6508
508.475	5059
508.547	6984
508.620	6097
508.692	8604
508.765	6993
508.837	4198
508.909	4487
508.982	4356
509.054	6705
509.127	4076
509.199	2982
509.271	2924
509.344	3674
509.416	3969
509.488	3891
509.560	3920
509.633	4493
509.705	5597
509.777	4850
509.849	8549
509.922	5921
509.994	3558
510.066	4517
510.138	4346
510.210	12176
510.283	10781
510.355	8010
510.427	7455
510.499	6326
510.571	5983
510.643	5360
510.715	10971
510.787	9117
510.859	8191
510.931	7021
511.003	10431
511.076	10826
511.148	4488
511.219	4311
511.291	6794
511.363	9215
511.435	5906
511.507	3489
511.579	6006
511.651	6189
511.723	4713
511.795	6083
511.867	5356
511.939	5999
512.010	9015
512.082	9414
512.154	3717
512.226	5588
512.298	10409
512.369	14019
512.441	12011
512.513	11647
512.585	8102
512.656	8466
512.728	8377
512.800	6935
512.871	7396
512.943	6708
513.015	4213
513.086	6340
513.158	7419
513.230	5678
513.301	11114
513.373	15962
513.444	8319
513.516	5805
513.588	5598
513.659	7187
513.731	9610
513.802	7390
513.874	15575
513.945	31637
514.016	11393
514.088	5931
514.159	5729
514.231	9660
514.302	13926
514.374	10392
514.445	6316
514.516	13328
514.588	8826
514.659	6431
514.730	9511
514.802	12006
514.873	7700
514.944	9424
515.016	7895
515.087	8944
515.158	8626
515.229	11785
515.301	7705
515.372	11761
515.443	6598
515.514	5958
515.585	4889
515.656	6419
515.728	6136
515.799	4492
515.870	6331
515.941	6854
516.012	5092
516.083	9895
516.154	10596
516.225	16014
516.296	14627
516.367	10287
516.438	12147
516.509	15210
516.580	20735
516.651	55231
516.722	225846
516.793	139925
516.864	22603
516.935	20992
517.006	21393
517.077	27458
517.148	61770
517.219	229794
517.289	453050
517.360	100412
517.431	30720
517.502	8757
517.573	8926
517.643	9229
517.714	10120
517.785	11053
517.856	10876
517.926	14812
517.997	17721
518.068	22486
518.138	30932
518.209	39155
518.280	146104
518.350	650223
518.421	326930
518.492	30521
518.562	14858
518.633	12364
518.703	12542
518.774	23012
518.845	63098
518.915	75843
518.986	21068
519.056	13944
519.127	23090
519.197	32420
519.268	54515
519.338	40552
519.408	11189
519.479	15533
519.549	13450
519.620	9569
519.690	5628
519.760	6443
519.831	5018
519.901	6380
519.971	4881
520.042	5676
520.112	5855
520.182	7639
520.253	10063
520.323	6011
520.393	6736
520.463	11766
520.534	5564
520.604	15945
520.674	8461
520.744	6333
520.814	13957
520.885	17215
520.955	14259
521.025	50973
521.095	29542
521.165	6885
521.235	4593
521.305	3576
521.375	4819
521.445	5503
521.515	7940
521.585	10165
521.655	8349
521.725	7617
521.795	7081
521.865	1983
521.935	8037
522.005	5586
522.075	4091
522.145	5518
522.215	4135
522.285	6660
522.355	7288
522.424	14541
522.494	14492
522.564	8315
522.634	19031
522.704	67889
522.774	34304
522.843	7793
522.913	5406
522.983	7993
523.053	6268
523.122	5427
523.192	8634
523.262	34004
523.331	40950
523.401	7891
523.471	4212
523.540	5468
523.610	2920
523.680	3166
523.749	3541
523.819	5128
523.888	4068
523.958	2951
524.027	3814
524.097	4194
524.166	3446
524.236	3512
524.305	5587
524.375	2837
524.444	2359
524.514	5408
524.583	3267
524.653	3330
524.722	5299
524.791	2235
524.861	3999
524.930	2524
524.999	3258
525.069	5959
525.138	3763
525.207	4211
525.277	4291
525.346	3259
525.415	3276
525.484	4511
525.554	4076
525.623	5169
525.692	5035
525.761	6067
525.830	8025
525.900	7828
525.969	11553
526.038	19546
526.107	37288
526.176	130120
526.245	122679
526.314	37081
526.383	63073
526.452	96562
526.522	148459
526.591	184713
526.660	51497
526.729	27492
526.797	26258
526.867	44711
526.935	211773
527.004	416383
527.073	263271
527.142	22938
527.211	8896
527.280	7524
527.349	7744
527.418	2540
527.487	4428
527.555	2086
527.624	2774
527.693	1426
527.762	4003
527.831	1408
527.899	3447
527.968	1982
528.037	2060
528.106	4689
528.174	9159
528.243	6952
528.312	8173
528.380	15609
528.449	3661
528.518	3524
528.586	732
528.655	3952
528.723	1499
528.792	964
528.861	1714
528.929	539
528.998	2956
529.066	1823
529.135	1358
529.203	901
529.272	695
529.340	2295
529.409	3497
529.477	728
529.545	1088
529.614	4547
529.682	2273
529.751	3349
529.819	5474
529.887	3601
529.956	1303
530.024	2108
530.092	1717
530.161	4048
530.229	7489
530.297	3189
530.365	2926
530.434	1873
530.502	710
530.570	1820
530.638	-107
530.707	2210
530.775	3406
530.843	1514
530.911	1656
530.979	2530
531.047	1139
531.115	2795
531.183	2575
531.252	2860
531.320	2017
531.388	817
531.456	1802
531.524	71
531.592	3104
531.660	4208
531.728	607
531.796	1461
531.864	1662
531.932	2733
532.000	2439
532.067	2399
532.135	3272
532.203	4723
532.271	3952
532.339	8708
532.407	27996
532.475	20431
532.542	6449
532.610	7504
532.678	8097
532.746	42428
532.814	146932
532.881	45841
532.949	5792
533.017	3089
533.084	2589
533.152	2211
533.220	2390
533.287	3228
533.355	2340
533.423	2249
533.490	686
533.558	1880
533.625	2705
533.693	3231
533.761	2739
533.828	3319
533.896	2045
533.963	8534
534.031	11209
534.098	15433
534.166	7732
534.233	2492
534.300	3426
534.368	4205
534.435	2452
534.503	4148
534.570	4266
534.637	4250
534.705	5033
534.772	5918
534.840	9885
534.907	55810
534.974	90382
535.041	11433
535.109	4732
535.176	2418
535.243	3023
535.310	3211
535.378	3896
535.445	3198
535.512	3018
535.579	3903
535.646	2124
535.714	3488
535.781	4785
535.848	3718
535.915	4896
535.982	2553
536.049	2619
536.116	4995
536.183	2667
536.250	3719
536.317	3439
536.384	5286
536.451	8938
536.518	9931
536.585	4422
536.652	8119
536.719	12354
536.786	10310
536.853	6284
536.920	10214
536.987	18065
537.053	15864
537.120	61524
537.187	73855
537.254	6978
537.321	4147
537.388	5078
537.454	2073
537.521	2661
537.588	3450
537.654	4364
537.721	4947
537.788	6628
537.855	3892
537.921	3989
537.988	3655
538.055	4144
538.121	3088
538.188	5305
538.254	7017
538.321	20153
538.388	13949
538.454	4975
538.521	3707
538.587	3636
538.654	3161
538.720	2604
538.787	3832
538.853	3845
538.920	5502
538.986	5332
539.053	3383
539.119	4775
539.185	4295
539.252	6034
539.318	10687
539.385	9010
539.451	5462
539.517	7070
539.583	7880
539.650	13606
539.716	49740
539.782	19373
539.849	4973
539.915	5368
539.981	4295
540.047	6949
540.114	6451
540.180	7119
540.246	4341
540.312	8794
540.378	17337
540.444	21930
540.510	17037
540.576	58121
540.643	23244
540.709	5241
540.775	4623
540.841	4521
540.907	5527
540.973	10163
541.039	8877
541.105	12896
541.171	6139
541.237	3979
541.303	6028
541.369	8048
541.435	8673
541.500	18360
541.566	11522
541.632	5006
541.698	3649
541.764	4275
541.830	3863
541.896	3737
541.961	5156
542.027	4482
542.093	4803
542.159	5716
542.224	4689
542.290	9279
542.356	15503
542.421	24562
542.487	10133
542.553	5187
542.618	5663
542.684	5102
542.750	5347
542.815	6355
542.881	10115
542.947	45074
543.012	44909
543.078	5943
543.143	4204
543.209	4663
543.274	5204
543.340	5738
543.405	15094
543.471	32289
543.536	9211
543.602	5078
543.667	3466
543.732	4904
543.798	3732
543.863	5097
543.928	3431
543.994	3320
544.059	4512
544.124	4851
544.190	4737
544.255	3924
544.320	5746
544.386	4407
544.451	8973
544.516	10544
544.581	8461
544.646	24670
544.712	57028
544.777	12270
544.842	6270
544.907	5833
544.972	5766
545.037	5004
545.102	5384
545.168	6243
545.233	6269
545.298	6799
545.363	7488
545.428	8494
545.493	16024
545.558	42428
545.623	20806
545.688	5636
545.753	5788
545.818	5288
545.883	6698
545.947	5356
546.012	6587
546.077	6617
546.142	8153
546.207	6851
546.272	9431
546.337	11649
546.401	8645
546.466	8716
546.531	6610
546.596	9291
546.661	10504
546.725	9223
546.790	7144
546.855	9421
546.919	7368
546.984	9624
547.049	9821
547.113	11350
547.178	11793
547.243	14192
547.307	15513
547.372	19028
547.436	18102
547.501	17275
547.565	19624
547.630	21244
547.695	19627
547.759	18120
547.823	17255
547.888	15791
547.952	16918
548.017	19176
548.081	20027
548.146	20783
548.210	21486
548.274	19753
548.339	19216
548.403	17938
548.468	17349
548.532	15944
548.596	16548
548.660	17301
548.725	19188
548.789	21725
548.853	22655
548.917	19394
548.982	20041
549.046	19420
549.110	15193
549.174	15644
549.238	16530
549.303	18410
549.367	20747
549.431	19339
549.495	17891
549.559	17839
549.623	20571
549.687	23292
549.751	26882
549.815	28176
549.879	27293
549.943	24754
550.007	27107
550.071	26468
550.135	26649
550.199	23599
550.263	21513
550.327	21664
550.391	22323
550.455	23183
550.519	23966
550.582	26321
550.646	32359
550.710	35583
550.774	29784
550.838	29575
550.901	31064
550.965	32598
551.029	33385
551.093	35663
551.156	40628
551.220	52167
551.284	70390
551.347	47236
551.411	42392
551.475	45217
551.538	33892
551.602	29908
551.666	27518
551.729	24703
551.793	24857
551.856	24108
551.920	23569
551.983	23434
552.047	23881
552.110	23873
552.174	22692
552.237	24318
552.301	22714
552.364	21770
552.428	20607
552.491	21427
552.554	23145
552.618	22470
552.681	24030
552.745	23376
552.808	31786
552.871	39763
552.934	28533
552.998	22928
553.061	22020
553.124	21031
553.187	20256
553.251	19990
553.314	21113
553.377	20215
553.440	23416
553.503	30284
553.567	38523
553.630	23643
553.693	21734
553.756	22046
553.819	20820
553.882	19927
553.945	19782
554.008	20255
554.071	19184
554.134	20207
554.197	18233
554.260	17575
554.323	20130
554.386	19568
554.449	20058
554.512	20338
554.575	19179
554.638	18734
554.701	20213
554.764	18239
554.827	18473
554.889	16611
554.952	15075
555.015	15147
555.078	15005
555.141	15723
555.203	15398
555.266	16213
555.329	16245
555.391	14969
555.454	16722
555.517	15585
555.580	14111
555.642	13361
555.705	12992
555.768	13983
555.830	14228
555.893	12090
555.955	12732
556.018	12022
556.080	12604
556.143	13082
556.206	12426
556.268	12894
556.330	13085
556.393	12210
556.455	12381
556.518	14002
556.580	15128
556.643	12110
556.705	11775
556.767	9749
556.830	11174
556.892	11862
556.955	17923
557.017	14913
557.079	10204
557.142	9668
557.204	11622
557.266	21948
557.328	21234
557.391	9824
557.453	8813
557.515	9132
557.577	11949
557.639	13404
557.701	9782
557.764	9468
557.826	10836
557.888	11563
557.950	12123
558.012	13999
558.074	17162
558.136	37319
558.198	112369
558.260	46883
558.322	15433
558.384	17037
558.446	20409
558.508	23863
558.570	29318
558.632	42844
558.694	64465
558.756	67130
558.818	197368
558.880	606368
558.942	208942
559.003	119535
559.065	68815
559.127	24817
559.189	24319
559.251	27117
559.312	36412
559.374	86019
559.436	350804
559.498	205432
559.559	29111
559.621	24311
559.683	25797
559.744	39898
559.806	139999
559.868	262516
559.929	50908
559.991	23041
560.052	31579
560.114	101820
560.176	74317
560.237	53487
560.299	109391
560.360	25781
560.422	8928
560.483	7281
560.545	7109
560.606	5770
560.667	5164
560.729	5210
560.790	4862
560.852	5162
560.913	5051
560.974	5483
561.036	4882
561.097	5391
561.158	6449
561.220	6113
561.281	5297
561.342	6244
561.403	7588
561.465	8752
561.526	24995
561.587	40970
561.648	10474
561.709	5242
561.771	5852
561.832	4746
561.893	5361
561.954	4390
562.015	5128
562.076	5223
562.137	4697
562.198	4382
562.259	4410
562.320	4733
562.381	5999
562.442	11518
562.503	10183
562.564	5631
562.625	5815
562.686	5191
562.747	6856
562.808	7091
562.869	5196
562.930	5672
562.991	5757
563.051	4509
563.112	5109
563.173	4740
563.234	4638
563.294	4486
563.355	4599
563.416	5864
563.477	4610
563.537	5098
563.598	4918
563.659	5024
563.720	4102
563.780	5202
563.841	5241
563.901	4764
563.962	4102
564.023	5046
564.083	5256
564.144	4990
564.204	4616
564.265	5196
564.325	4093
564.386	8079
564.446	9976
564.507	4527
564.567	4856
564.628	5211
564.688	3410
564.749	4350
564.809	5071
564.869	6083
564.930	4593
564.990	5242
565.050	3523
565.111	4382
565.171	4356
565.231	4526
565.292	4781
565.352	3701
565.412	4731
565.472	5158
565.532	5287
565.593	4854
565.653	4060
565.713	5001
565.773	5577
565.833	6722
565.893	10502
565.953	5643
566.013	4092
566.074	4250
566.134	6475
566.194	9167
566.254	12330
566.314	8909
566.374	4181
566.434	5167
566.494	5091
566.554	4339
566.614	4820
566.673	5487
566.733	6240
566.793	6029
566.853	7105
566.913	6147
566.973	6367
567.033	8282
567.092	9908
567.152	8754
567.212	8948
567.272	6562
567.331	6711
567.391	7610
567.451	8309
567.511	9561
567.570	9833
567.630	7016
567.690	6925
567.749	6811
567.809	6837
567.868	8254
567.928	9646
567.988	10522
568.047	12582
568.107	14569
568.166	21465
568.226	37081
568.285	57281
568.345	44311
568.404	31034
568.464	23865
568.523	21567
568.582	23240
568.642	27018
568.701	34298
568.761	51244
568.820	95852
568.879	93524
568.939	56353
568.998	36333
569.057	24484
569.116	18530
569.176	14315
569.235	10840
569.294	10509
569.353	8609
569.413	9029
569.472	6934
569.531	5803
569.590	6185
569.649	5930
569.708	6106
569.767	7514
569.827	12305
569.886	10908
569.945	4754
570.004	6769
570.063	5213
570.122	6194
570.181	6285
570.240	6419
570.299	7358
570.358	11378
570.417	6780
570.475	5420
570.534	5183
570.593	6387
570.652	7483
570.711	9173
570.770	5090
570.829	6480
570.887	6421
570.946	7312
571.005	4414
571.064	5189
571.122	6178
571.181	6784
571.240	4781
571.299	4348
571.357	4636
571.416	4478
571.475	4123
571.533	4978
571.592	4819
571.650	4723
571.709	4434
571.768	5184
571.826	5418
571.885	5337
571.943	4190
572.002	4260
572.060	4140
572.119	3767
572.177	3203
572.236	3982
572.294	3427
572.352	4088
572.411	4353
572.469	2828
572.528	3643
572.586	4846
572.644	6873
572.703	14211
572.761	6954
572.819	4244
572.877	3246
572.936	2564
572.994	2879
573.052	3793
573.110	5360
573.169	5281
573.227	3563
573.285	3686
573.343	3658
573.401	3481
573.459	4676
573.517	3310
573.576	3205
573.634	4225
573.692	5490
573.750	3913
573.808	3146
573.866	3673
573.924	3866
573.982	4536
574.040	3259
574.098	3387
574.155	3336
574.213	3948
574.271	2788
574.329	4399
574.387	3495
574.445	2878
574.503	3179
574.560	3066
574.618	3648
574.676	3334
574.734	3593
574.792	4432
574.849	3459
574.907	2555
574.965	2481
575.022	2356
575.080	3606
575.138	3359
575.195	3836
575.253	3758
575.311	4415
575.368	3235
575.426	2345
575.483	3927
575.541	3418
575.598	2787
575.656	2558
575.713	2994
575.771	3707
575.828	2771
575.886	2411
575.943	4005
576.001	3320
576.058	2462
576.115	3392
576.173	4230
576.230	4326
576.287	5283
576.345	5158
576.402	3134
576.459	3165
576.517	3406
576.574	4375
576.631	3079
576.688	3356
576.746	2400
576.803	3436
576.860	2612
576.917	3464
576.974	3748
577.031	3187
577.089	3149
577.146	3104
577.203	3330
577.260	3916
577.317	2973
577.374	4022
577.431	3248
577.488	3301
577.545	2343
577.602	3463
577.659	2758
577.716	3533
577.773	2770
577.830	2638
577.886	3036
577.943	2603
578.000	2401
578.057	3192
578.114	3702
578.171	3585
578.227	3506
578.284	2592
578.341	3905
578.398	3455
578.454	3199
578.511	3542
578.568	4783
578.625	4021
578.681	3220
578.738	2665
578.794	3107
578.851	2726
578.908	2361
578.964	2399
579.021	3365
579.077	3081
579.134	3393
579.190	2672
579.247	2291
579.303	2839
579.360	2755
579.416	3007
579.473	2622
579.529	1541
579.586	2446
579.642	3234
579.698	2829
579.755	2600
579.811	3030
579.867	3559
579.924	2656
579.980	2487
580.036	2688
580.093	2889
580.149	4154
580.205	3865
580.261	3019
580.317	4233
580.374	3710
580.430	4262
580.486	3950
580.542	3351
580.598	3089
580.619	3181
580.654	3342
580.692	3326
580.710	3316
580.765	3048
580.767	3037
580.823	3349
580.838	3412
580.879	3586
580.911	3464
580.935	3366
580.984	3383
580.991	3388
581.047	3807
581.057	3654
581.103	2955
581.130	2906
581.159	2843
581.203	3132
581.215	3207
581.270	3047
581.276	3084
581.326	3408
581.349	3684
581.382	4091
581.422	4070
581.438	4066
581.494	3603
581.494	3610
581.550	4063
581.567	4134
581.606	4269
581.640	3649
581.661	3255
581.713	4353
581.717	4449
581.773	4544
581.786	4297
581.829	3377
581.859	3698
581.885	4011
581.932	4084
581.940	4083
581.996	3826
582.004	3935
582.052	4500
582.077	4057
582.107	3553
582.150	3512
582.163	3508
582.219	4257
582.223	4251
582.274	4106
582.296	4118
582.330	4138
582.368	4616
582.386	4873
582.441	4401
582.441	4398
582.497	4431
582.514	4217
582.552	3886
582.587	4107
582.608	4189
582.659	3820
582.663	3784
582.719	4411
582.732	4360
582.774	4370
582.805	4362
582.830	4262
582.877	4402
582.885	4441
582.941	4600
582.950	4680
582.996	4977
583.023	5195
583.052	5586
583.095	5609
583.107	5564
583.162	5830
583.168	5792
583.218	5316
583.240	5118
583.273	4896
583.313	4563
583.328	4459
583.384	5423
583.385	5420
583.439	5223
583.458	5368
583.494	5611
583.531	4929
583.549	4661
583.603	4802
583.605	4799
583.660	5288
583.676	5368
583.715	5626
583.748	5610
583.770	5742
583.820	6068
583.825	6043
583.881	4441
583.893	4736
583.936	6400
583.965	6287
583.991	5920
584.038	6379
584.046	6491
584.101	6129
584.110	6122
584.156	6100
584.183	5848
584.211	5533
584.255	6336
584.266	6573
584.321	5893
584.328	5926
584.376	6381
584.400	6601
584.431	6684
584.472	6620
584.486	6671
584.541	6988
584.545	6979
584.596	6841
584.617	6893
584.651	7370
584.689	7980
584.706	7940
584.761	7672
584.762	7660
584.816	7901
584.834	8184
584.871	8471
584.906	8388
584.926	8431
584.978	8317
584.980	8332
585.035	9984
585.051	10131
585.090	10578
585.123	11122
585.145	11432
585.195	12104
585.200	12241
585.254	14289
585.267	14835
585.309	16321
585.340	17476
585.364	18516
585.412	20346
585.419	20673
585.473	22551
585.484	23261
585.528	28600
585.556	34149
585.583	46819
585.628	74456
585.637	85687
585.692	178653
585.700	196198
585.747	250440
585.772	215520
585.801	134553
585.845	42780
585.856	33361
585.910	20436
585.917	19177
585.965	16922
585.989	15906
586.019	15152
586.061	14626
586.074	14572
586.128	14336
586.133	14334
586.183	15100
586.205	15331
586.237	15435
586.277	15203
586.292	15152
586.346	15207
586.349	15162
586.401	15025
586.421	15169
586.455	15625
586.493	16389
586.509	17665
586.564	21765
586.565	21863
586.618	28853
586.637	29907
586.672	26177
586.709	21989
586.727	21332
586.781	21196
586.781	21231
586.835	18974
586.853	18485
586.889	18182
586.925	18304
586.944	18609
586.996	18713
586.998	18764
587.052	19837
587.068	19917
587.106	20429
587.140	20871
587.161	21055
587.212	22117
587.215	22231
587.269	22461
587.284	22719
587.323	23421
587.356	23615
587.377	24293
587.427	25988
587.431	26115
587.485	27260
587.499	27346
587.539	28663
587.571	29919
587.593	30786
587.643	32529
587.648	32822
587.702	35454
587.715	35961
587.755	37779
587.786	39012
587.810	40014
587.858	41798
587.864	42294
587.917	46141
587.930	47140
587.971	52075
588.001	55242
588.025	57812
588.073	63445
588.079	64649
588.133	73564
588.145	75601
588.187	83737
588.217	89296
588.241	96266
588.288	109808
588.295	112081
588.348	130490
588.360	134270
588.402	154021
588.431	167752
588.456	182312
588.503	211034
588.510	217110
588.564	264767
588.575	274640
588.617	329156
588.646	367354
588.671	424196
588.718	537423
588.725	572191
588.778	848102
588.789	907882
588.832	1347177
588.861	1660743
588.886	1914819
588.932	2387093
588.939	2390270
588.993	2222004
589.004	2188169
589.047	2004390
589.075	1814779
589.100	1493999
589.147	905029
589.154	870824
589.207	630921
589.218	583650
589.261	537640
589.290	509786
589.314	537227
589.361	594920
589.368	628745
589.421	913075
589.433	976262
589.475	1458114
589.504	1810668
589.528	1967118
589.576	2195266
589.582	2162887
589.635	1756615
589.647	1649678
589.689	1075121
589.718	685208
589.742	561246
589.790	334555
589.795	325308
589.849	239638
589.861	220156
589.902	188114
589.932	163782
589.955	150543
590.004	122574
590.009	121298
590.062	104567
590.075	100290
590.115	92548
590.146	85991
590.168	82788
590.218	75140
590.222	74923
590.275	69437
590.289	67728
590.328	64679
590.360	61907
590.381	60248
590.431	55651
590.435	55687
590.488	53289
590.503	52537
590.541	51234
590.574	49736
590.594	49036
590.645	46500
590.647	46562
590.700	44194
590.716	43313
590.753	42530
590.787	41656
590.806	41276
590.859	39504
590.859	39639
590.912	39595
590.930	39472
590.965	38522
591.001	37211
591.018	37023
591.071	36200
591.072	36064
591.124	36078
591.143	35909
591.177	35846
591.214	35550
591.230	35867
591.283	36503
591.285	36395
591.336	35861
591.356	35499
591.389	35476
591.427	35078
591.442	34724
591.495	32829
591.498	32581
591.547	33248
591.569	33390
591.600	32777
591.640	31553
591.653	31810
591.706	32589
591.711	32539
591.759	32712
591.782	32679
591.811	33018
591.853	33138
591.864	32958
591.917	31387
591.924	31053
591.969	31267
591.995	31212
592.022	31541
592.066	31738
592.075	32171
592.127	34143
592.137	34382
592.180	35445
592.208	35895
592.233	34451
592.279	31308
592.285	31483
592.338	32044
592.350	32038
592.390	31202
592.421	30394
592.443	30502
592.491	30379
592.495	30556
592.548	31444
592.562	31571
592.600	31171
592.633	30626
592.653	30570
592.704	29970
592.705	30144
592.775	30172
592.846	31177
592.916	31442
592.987	32694
593.058	31243
593.128	29722
593.199	29730
593.270	29388
593.341	29629
593.411	31307
593.482	30127
593.553	31492
593.623	30112
593.694	31380
593.764	31718
593.835	30313
593.906	29825
593.976	31216
594.047	31512
594.117	35517
594.188	34498
594.258	31690
594.329	30128
594.399	31823
594.470	32752
594.540	32539
594.611	32433
594.681	32257
594.751	31767
594.822	34130
594.892	34392
594.963	36096
595.033	34508
595.103	37134
595.174	36754
595.244	45344
595.314	47519
595.384	37858
595.455	37956
595.525	39513
595.595	40090
595.665	40233
595.736	38913
595.806	39615
595.876	39108
595.946	39006
596.016	40223
596.087	41362
596.157	40265
596.227	41262
596.297	43027
596.367	45928
596.437	49286
596.507	52810
596.577	56435
596.647	48763
596.717	49023
596.787	50135
596.857	49900
596.927	50823
596.997	50683
597.067	51069
597.137	54711
597.207	57966
597.277	55291
597.347	52384
597.417	50688
597.487	51458
597.557	51539
597.626	52483
597.696	53294
597.766	55492
597.836	57120
597.906	48900
597.975	45527
598.045	45974
598.115	47874
598.185	50484
598.254	56976
598.324	61655
598.394	61346
598.464	60359
598.533	58917
598.603	55454
598.672	55783
598.742	57868
598.812	57789
598.881	57568
598.951	55983
599.020	56742
599.090	57696
599.159	58442
599.229	56189
599.299	53524
599.368	56008
599.437	54917
599.507	51698
599.576	51421
599.646	49289
599.715	50402
599.785	49677
599.854	48368
599.924	48705
599.993	48044
600.062	47181
600.132	49357
600.201	52255
600.270	60742
600.340	63902
600.409	61628
600.478	60322
600.547	60462
600.617	56043
600.686	45926
600.755	44110
600.824	42909
600.894	40907
600.963	40947
601.032	39163
601.101	38498
601.170	37265
601.239	36991
601.308	37929
601.378	37964
601.447	36196
601.516	36758
601.585	38964
601.654	40837
601.723	38526
601.792	38070
601.861	39838
601.930	44986
601.999	45381
602.068	42985
602.137	44252
602.206	43907
602.275	43463
602.343	46559
602.412	46474
602.481	42966
602.550	42105
602.619	43772
602.688	43553
602.756	44215
602.825	42740
602.894	44454
602.963	45116
603.032	46004
603.100	44907
603.169	46274
603.238	44755
603.307	46127
603.375	46662
603.444	48229
603.513	48946
603.581	50178
603.650	52773
603.719	49145
603.787	50497
603.856	51880
603.924	56300
603.993	56536
604.061	54687
604.130	56623
604.198	58582
604.267	60265
604.335	59475
604.404	60934
604.472	60562
604.541	61865
604.609	62184
604.678	63521
604.746	61904
604.815	65535
604.883	65333
604.951	65543
605.020	65690
605.088	67823
605.156	68559
605.225	69212
605.293	69660
605.361	70798
605.429	71488
605.498	72926
605.566	75050
605.634	77292
605.702	78589
605.771	82717
605.839	82453
605.907	80435
605.975	76202
606.043	75053
606.111	75433
606.180	75708
606.248	75546
606.316	76362
606.384	75487
606.452	80262
606.520	83366
606.588	81021
606.656	78011
606.724	76209
606.792	71180
606.860	65678
606.928	58091
606.996	56917
607.064	57083
607.132	57273
607.200	62664
607.267	64994
607.335	64412
607.403	67645
607.471	62688
607.539	62167
607.607	61729
607.674	55887
607.742	56172
607.810	57636
607.878	57478
607.946	57241
608.013	60423
608.081	64035
608.149	64274
608.216	62986
608.284	65214
608.352	64890
608.419	65145
608.487	68090
608.555	62310
608.622	62799
608.690	66966
608.757	73042
608.825	76282
608.893	75834
608.960	79513
609.028	80284
609.095	72065
609.163	66906
609.230	58520
609.298	56204
609.365	56484
609.432	62492
609.500	68344
609.567	77006
609.635	87562
609.702	91462
609.769	87570
609.837	69399
609.904	59864
609.971	62245
610.039	74109
610.106	105171
610.173	218753
610.241	517643
610.308	240694
610.375	83875
610.442	65120
610.509	62621
610.577	61444
610.644	62338
610.711	64259
610.778	64894
610.845	67383
610.912	72961
610.980	75923
611.047	77389
611.114	76999
611.181	73393
611.248	69561
611.315	74352
611.382	74563
611.449	78204
611.516	80153
611.583	79274
611.650	79779
611.717	82663
611.784	84140
611.851	92447
611.918	107000
611.984	125148
612.051	194436
612.118	444895
612.185	1127389
612.252	577991
612.319	134210
612.386	107957
612.452	96044
612.519	92983
612.586	94295
612.653	92645
612.719	93843
612.786	89430
612.853	82849
612.919	81172
612.986	81928
613.053	76638
613.120	72712
613.186	74947
613.253	75535
613.319	73431
613.386	71854
613.453	74247
613.519	79068
613.586	80060
613.652	90726
613.719	84288
613.785	80236
613.852	73491
613.918	73122
613.985	75118
614.051	80231
614.118	90572
614.184	83379
614.250	72512
614.317	72647
614.383	73688
614.449	73485
614.516	73248
614.582	72903
614.648	72326
614.715	72582
614.781	72164
614.847	75946
614.914	73681
614.980	70840
615.046	70343
615.112	70088
615.179	73063
615.245	75575
615.311	81134
615.377	103309
615.443	103541
615.509	80823
615.575	79839
615.642	77484
615.708	82708
615.774	85840
615.840	95812
615.906	113668
615.972	163448
616.038	299572
616.104	605006
616.170	1403081
616.236	1001732
616.302	202881
616.368	147498
616.434	103321
616.500	99656
616.565	110956
616.631	139208
616.697	106667
616.763	115523
616.829	188613
616.895	342849
616.961	293906
617.026	113507
617.092	79614
617.158	75362
617.224	72794
617.289	69677
617.355	64821
617.421	63797
617.487	63609
617.552	60611
617.618	58658
617.684	59577
617.749	60840
617.815	56654
617.880	55550
617.946	56118
618.012	57319
618.077	57808
618.143	56304
618.208	58428
618.274	60624
618.339	61275
618.405	48760
618.470	50539
618.536	48780
618.601	51841
618.667	47868
618.732	44870
618.798	44114
618.863	45064
618.928	43125
618.994	46537
619.059	48970
619.124	59963
619.190	48516
619.255	43377
619.320	42632
619.386	43013
619.451	40800
619.516	41805
619.581	41111
619.647	43048
619.712	41935
619.777	40610
619.842	42549
619.907	45366
619.972	44330
620.038	43546
620.103	41078
620.168	39941
620.233	41544
620.298	41019
620.363	42184
620.428	43020
620.493	43033
620.558	44345
620.623	44470
620.688	43876
620.753	42322
620.818	45072
620.883	45566
620.948	44852
621.013	45017
621.078	44727
621.143	43329
621.207	46794
621.272	45444
621.337	46220
621.402	46223
621.467	48758
621.532	48463
621.596	49840
621.661	44079
621.726	42244
621.791	44052
621.855	44549
621.920	43543
621.985	44306
622.049	47183
622.114	45494
622.179	45160
622.243	48213
622.308	46933
622.373	50977
622.437	48458
622.502	45220
622.566	43966
622.631	43884
622.695	46854
622.760	46824
622.824	44970
622.889	48053
622.953	49374
623.018	65910
623.082	60968
623.147	48944
623.211	46969
623.276	48167
623.340	43340
623.404	43425
623.469	43069
623.533	43434
623.597	42569
623.662	43027
623.726	38010
623.790	36194
623.854	36784
623.919	39060
623.983	38558
624.047	39653
624.111	39661
624.176	42123
624.240	48115
624.304	52156
624.368	39245
624.432	38427
624.496	40910
624.560	45503
624.625	46642
624.689	42692
624.753	42905
624.817	41739
624.881	40299
624.945	37339
625.009	35793
625.073	38433
625.137	42493
625.201	49966
625.265	46072
625.329	39207
625.393	41043
625.456	40116
625.520	41900
625.584	43194
625.648	47485
625.712	58762
625.776	90311
625.839	92913
625.903	46519
625.967	35681
626.031	49646
626.095	65433
626.158	40497
626.222	29264
626.286	28852
626.349	26807
626.413	25641
626.477	28671
626.540	26413
626.604	25758
626.668	25890
626.731	26149
626.795	26428
626.858	27491
626.922	25456
626.986	26108
627.049	24080
627.113	27159
627.176	23940
627.240	24955
627.303	24996
627.366	24989
627.430	27916
627.493	26293
627.557	24277
627.620	26883
627.684	25596
627.747	27495
627.810	23616
627.874	24112
627.937	21489
628.000	26112
628.064	23824
628.127	19649
628.190	21705
628.253	20516
628.317	18812
628.380	20567
628.443	19766
628.506	21094
628.569	18047
628.632	16964
628.696	17024
628.759	17068
628.822	15636
628.885	15896
628.948	16357
629.011	16976
629.074	16634
629.137	16247
629.200	16332
629.263	20643
629.326	14871
629.389	15719
629.452	15579
629.515	16479
629.578	16508
629.641	18821
629.704	16284
629.767	16595
629.830	13845
629.892	15131
629.955	14037
630.018	17647
630.081	17873
630.144	20632
630.207	14967
630.269	18219
630.332	15224
630.395	15615
630.458	14541
630.520	16067
630.583	15255
630.646	14378
630.708	12809
630.771	13882
630.834	14397
630.896	14105
630.959	14140
631.021	13709
631.084	14688
631.146	16126
631.209	15673
631.272	13608
631.334	13619
631.397	13869
631.459	14261
631.522	16170
631.584	16529
631.646	18449
631.709	18229
631.771	21593
631.834	17767
631.896	16032
631.958	13495
632.021	15544
632.083	13283
632.145	14730
632.208	13766
632.270	14149
632.332	12147
632.395	12779
632.457	14002
632.519	13105
632.581	13915
632.643	13567
632.706	14010
632.768	12453
632.830	13140
632.892	12926
632.954	13101
633.016	14335
633.078	12976
633.141	12941
633.203	11773
633.265	13822
633.327	12709
633.389	13402
633.451	15986
633.513	16774
633.575	16029
633.637	16241
633.698	14662
633.760	15120
633.822	14746
633.884	15887
633.946	14973
634.008	14168
634.070	15388
634.132	17347
634.193	16822
634.255	20301
634.317	18283
634.379	20284
634.441	16771
634.502	15123
634.564	14273
634.626	13321
634.687	12655
634.749	13070
634.811	12691
634.873	11936
634.934	12608
634.996	13022
635.057	12631
635.119	11492
635.181	13496
635.242	13686
635.304	10432
635.365	15457
635.427	11540
635.488	13219
635.550	11849
635.611	13348
635.673	11625
635.734	14925
635.796	14277
635.857	16837
635.918	15326
635.980	19935
636.041	17519
636.102	21316
636.164	20663
636.225	20134
636.286	15679
636.348	16572
636.409	13382
636.470	11629
636.531	12351
636.593	12614
636.654	12153
636.715	10922
636.776	10147
636.838	10432
636.899	11215
636.960	10081
637.021	10397
637.082	10569
637.143	9888
637.204	9293
637.265	9384
637.326	9757
637.387	10357
637.448	8961
637.509	9623
637.570	10154
637.631	11316
637.692	8912
637.753	7821
637.814	9021
637.875	9216
637.936	10311
637.997	8277
638.058	9044
638.119	10104
638.179	8626
638.240	8324
638.301	8755
638.362	6878
638.423	8843
638.483	9792
638.544	7605
638.605	8754
638.666	7404
638.726	8891
638.787	9166
638.848	7253
638.908	7848
638.969	8772
639.030	8238
639.090	5680
639.151	7760
639.211	8979
639.272	12891
639.332	17903
639.393	10113
639.453	8406
639.514	10096
639.574	8439
639.635	7394
639.695	8321
639.756	6678
639.816	8462
639.877	10818
639.937	17096
639.997	20097
640.058	7093
640.118	6549
640.178	7850
640.239	7364
640.299	7251
640.359	7294
640.420	7997
640.480	8991
640.540	10196
640.600	10208
640.661	10108
640.721	8235
640.781	11120
640.841	7368
640.901	8423
640.961	8731
641.021	8632
641.082	10308
641.142	13031
641.202	9042
641.262	5831
641.322	7740
641.382	5990
641.442	7272
641.502	6296
641.562	7296
641.622	5955
641.682	7419
641.742	8672
641.802	7863
641.861	7557
641.921	7722
641.981	9578
642.041	8848
642.101	10229
642.161	7179
642.221	6021
642.280	7348
642.340	6877
642.400	5962
642.460	7229
642.519	6715
642.579	6046
642.639	7590
642.698	3975
642.758	8600
642.818	6745
642.877	7037
642.937	7272
642.997	9692
643.056	12913
643.116	7575
643.175	8245
643.235	7337
643.294	7488
643.354	10006
643.414	11430
643.473	16540
643.532	16350
643.592	24690
643.651	41067
643.711	78512
643.770	163266
643.830	418973
643.889	820791
643.948	149756
644.008	25995
644.067	16227
644.126	12084
644.186	10827
644.245	9645
644.304	6772
644.363	8975
644.423	6396
644.482	7032
644.541	8965
644.600	7256
644.659	11328
644.719	13984
644.778	22965
644.837	40431
644.896	88633
644.955	197028
645.014	50923
645.073	12607
645.132	9503
645.191	8418
645.250	7829
645.309	9037
645.368	9007
645.427	12149
645.486	21947
645.545	35653
645.604	10253
645.663	7069
645.722	8412
645.781	9265
645.840	10755
645.898	14337
645.957	23065
646.016	37160
646.075	74034
646.134	148418
646.192	426942
646.251	552440
646.310	63313
646.369	18075
646.427	15458
646.486	10226
646.545	8287
646.603	7287
646.662	7248
646.721	7513
646.779	6769
646.838	6159
646.896	10103
646.955	13795
647.014	23824
647.072	45309
647.131	125615
647.189	48634
647.248	7845
647.306	6914
647.365	5718
647.423	4014
647.481	7155
647.540	3571
647.598	5160
647.657	4804
647.715	5809
647.773	3950
647.832	5477
647.890	3210
647.948	4673
648.007	5375
648.065	3417
648.123	4626
648.181	6395
648.240	5479
648.298	3930
648.356	4331
648.414	5089
648.472	3525
648.531	4929
648.589	4418
648.647	5045
648.705	3922
648.763	5096
648.821	4824
648.879	5819
648.937	6890
648.995	8653
649.053	10495
649.111	18718
649.169	30642
649.227	58130
649.285	125973
649.343	360292
649.401	139898
649.459	32875
649.516	18119
649.574	9983
649.632	15161
649.690	16355
649.748	12376
649.806	17527
649.863	33278
649.921	87109
649.979	48422
650.037	8585
650.094	3662
650.152	5460
650.210	4255
650.268	5490
650.325	4357
650.383	4863
650.440	4092
650.498	4696
650.556	3336
650.613	3407
650.671	3677
650.728	4111
650.786	4014
650.843	5632
650.901	1889
650.958	4931
651.016	3370
651.073	3485
651.131	2294
651.188	1704
651.246	2812
651.303	3294
651.360	2672
651.418	3505
651.475	3309
651.532	2557
651.590	2902
651.647	2183
651.704	3373
651.762	3766
651.819	2920
651.876	3042
651.933	3214
651.990	3690
652.048	1808
652.105	2360
652.162	2719
652.219	1692
652.276	2369
652.333	3427
652.390	2026
652.448	3111
652.505	2418
652.562	2889
652.619	3055
652.676	3726
652.733	3932
652.790	2110
652.847	1584
652.904	3327
652.961	1925
653.017	2109
653.074	4248
653.131	3356
653.188	1475
653.245	2945
653.302	2823
653.359	2269
653.415	2920
653.472	2857
653.529	2502
653.586	2049
653.642	2253
653.699	3593
653.756	1286
653.813	1590
653.869	2949
653.926	2089
653.983	1212
654.039	3076
654.096	2075
654.152	3492
654.209	1724
654.266	3630
654.322	1922
654.379	2878
654.435	3443
654.492	3734
654.548	4808
654.605	7609
654.661	3720
654.717	2565
654.774	3298
654.830	3080
654.887	2893
654.943	3192
655.000	2994
655.056	2648
655.112	2765
655.168	2632
655.225	2125
655.281	3848
655.337	3691
655.394	6329
655.450	4413
655.506	3800
655.562	6477
655.618	5739
655.675	1102
655.731	2903
655.787	2307
655.843	2511
655.899	1573
655.955	2694
656.011	2366
656.067	1553
656.123	2789
656.179	2453
656.235	2827
656.291	1776
656.347	2868
656.403	2631
656.459	2878
656.515	2842
656.571	2896
656.627	2651
656.683	2046
656.739	3474
656.795	2835
656.850	2721
656.906	3581
656.962	3891
657.018	1655
657.074	3306
657.129	3119
657.185	6136
657.241	10836
657.297	6035
657.352	2416
657.408	1858
657.464	3821
657.519	2660
657.575	1730
657.630	2223
657.686	2263
657.742	1841
657.797	1614
657.853	2412
657.908	2671
657.964	1427
658.019	2033
658.075	2498
658.130	1772
658.186	1643
658.241	2081
658.297	1604
658.352	1585
658.407	2040
658.463	815
658.518	2199
658.573	1017
658.629	1473
658.684	1253
658.739	3723
658.795	1175
658.850	2315
658.905	1506
658.960	1948
659.016	56
659.071	1932
659.126	2725
659.181	3034
659.236	6042
659.291	4900
659.346	3560
659.401	3791
659.457	2568
659.512	2781
659.567	2567
659.622	2336
659.677	1568
659.732	2257
659.787	1908
659.842	2169
659.897	2775
659.952	3083
660.007	1719
660.061	1167
660.116	6
660.171	2354
660.226	1704
660.281	2185
660.336	782
660.391	2265
660.445	1219
660.500	2068
660.555	1899
660.610	1498
660.664	2355
660.719	2014
660.774	1763
660.828	2403
660.883	1958
660.938	2277
660.992	1133
661.047	2348
661.101	1535
661.156	2388
661.211	1435
661.265	2243
661.320	1574
661.374	1896
661.429	1186
661.483	2596
661.538	815
661.592	1732
661.647	2077
661.701	2417
661.755	1567
661.810	1664
661.864	600
661.919	1978
661.973	1674
662.027	1911
662.081	231
662.136	1681
662.190	2181
662.244	2497
662.299	915
662.353	1610
662.407	1982
662.461	2653
662.515	1901
662.569	1742
662.624	1984
662.678	1953
662.732	1252
662.786	2097
662.840	1964
662.894	1995
662.948	1428
663.002	1722
663.056	1646
663.110	1356
663.164	1039
663.218	2786
663.272	2666
663.326	2824
663.380	2295
663.434	2709
663.488	1691
663.542	2230
663.595	1434
663.649	1797
663.703	1524
663.757	1793
663.811	2016
663.864	1223
663.918	1633
663.972	1662
664.026	1400
664.079	1594
664.133	2120
664.187	1773
664.240	1338
664.294	2109
664.348	1136
664.401	2131
664.455	1747
664.508	1656
664.562	1158
664.615	1786
664.669	1762
664.722	1954
664.776	1634
664.829	1909
664.883	1261
664.936	1920
664.990	1338
665.043	2376
665.097	2061
665.150	3337
665.203	1982
665.257	1152
665.310	2465
665.363	2130
665.417	2229
665.470	1918
665.523	1992
665.576	2460
665.630	1957
665.683	2157
665.736	2746
665.789	1926
665.842	1707
665.895	2159
665.949	2087
666.002	1864
666.055	1520
666.108	3191
666.161	1872
666.214	2256
666.267	2048
666.320	3224
666.373	2343
666.426	2892
666.479	1335
666.532	2695
666.585	2228
666.638	3354
666.691	1639
666.744	3784
666.796	2224
666.849	2216
666.902	2235
666.955	2114
667.008	1233
667.060	2060
667.113	1504
667.166	1698
667.219	2562
667.271	2377
667.324	1717
667.377	1959
667.430	1494
667.482	2047
667.535	2560
667.587	2675
667.640	2048
667.693	4051
667.745	5693
667.798	5934
667.850	2317
667.903	2021
667.955	2175
668.008	2440
668.060	2238
668.113	2829
668.165	2124
668.218	2884
668.270	2461
668.322	2158
668.375	2255
668.427	2978
668.479	2422
668.532	2224
668.584	2416
668.636	2375
668.689	3038
668.741	2744
668.793	1298
668.845	2074
668.898	2037
668.950	3157
669.002	2001
669.054	1809
669.106	1730
669.158	2350
669.211	1928
669.263	2137
669.315	2453
669.367	3305
669.419	1897
669.471	3495
669.523	3742
669.575	4820
669.627	3673
669.679	2424
669.731	2295
669.783	2766
669.835	3657
669.886	3099
669.938	2226
669.990	2581
670.042	1898
670.094	2676
670.146	2090
670.197	2663
670.249	1758
670.301	3012
670.353	2598
670.404	5032
670.456	6196
670.508	10448
670.560	15935
670.611	26551
670.663	47604
670.715	125518
670.766	176663
670.818	36617
670.869	6300
670.921	5342
670.972	3560
671.024	3277
671.075	2153
671.127	3493
671.178	1542
671.230	3053
671.281	2356
671.333	3930
671.384	3549
671.436	4845
671.487	5272
671.538	7871
671.590	10831
671.641	16681
671.692	30910
671.744	57538
671.795	29079
671.846	8864
671.897	4837
671.949	3332
672.000	2781
672.051	3478
672.102	2674
672.153	2416
672.204	2400
672.256	2802
672.307	2060
672.358	2725
672.409	1678
672.460	1721
672.511	2097
672.562	2424
672.613	1851
672.664	2083
672.715	1421
672.766	1792
672.817	970
672.868	1910
672.919	1743
672.970	1731
673.021	1266
673.071	1004
673.122	1636
673.173	1984
673.224	1379
673.275	1480
673.326	1485
673.376	1793
673.427	555
673.478	1396
673.528	2171
673.579	1976
673.630	1493
673.680	2267
673.731	1445
673.782	1625
673.832	1504
673.883	2514
673.934	1420
673.984	2254
674.035	1700
674.085	1710
674.136	1453
674.186	2036
674.237	1918
674.287	3741
674.338	1462
674.388	1539
674.438	1172
674.489	1283
674.539	1238
674.589	1992
674.640	1687
674.690	2176
674.740	1462
674.791	1763
674.841	1852
674.891	1473
674.942	1780
674.992	1632
675.042	1298
675.092	1313
675.142	681
675.193	1257
675.243	790
675.293	2055
675.343	921
675.393	1773
675.443	1035
675.493	1546
675.543	396
675.593	1462
675.643	714
675.693	1161
675.743	1003
675.793	1201
675.843	721
675.893	1263
675.943	1115
675.993	1716
676.043	1620
676.093	1607
676.142	820
676.192	1494
676.242	326
676.292	1774
676.341	1948
676.391	891
676.441	345
676.491	1172
676.540	547
676.590	1170
676.640	1506
676.689	870
676.739	-199
676.789	954
676.838	494
676.888	1330
676.937	1059
676.987	181
677.037	523
677.086	1122
677.136	502
677.185	973
677.235	99
677.284	997
677.333	298
677.383	-237
677.432	429
677.482	2054
677.531	1196
677.580	435
677.630	575
677.679	1332
677.728	-13
677.778	1026
677.827	1276
677.876	1093
677.925	779
677.975	1146
678.024	744
678.073	980
678.122	1090
678.171	1114
678.220	610
678.269	2215
678.319	990
678.368	1646
678.417	712
678.466	1651
678.515	689
678.564	1215
678.613	302
678.662	247
678.711	1192
678.760	1469
678.809	457
678.857	818
678.906	585
678.955	869
679.004	1584
679.053	1263
679.102	22
679.151	1034
679.199	1043
679.248	935
679.297	989
679.346	1024
679.394	549
679.443	839
679.492	588
679.540	1290
679.589	610
679.638	1792
679.686	228
679.735	853
679.784	956
679.832	848
679.881	-139
679.929	1547
679.978	-33
680.026	395
680.075	-17
680.123	909
680.172	-834
680.220	369
680.268	597
680.317	408
680.365	490
680.414	780
680.462	-65
680.510	879
680.559	141
680.607	616
680.655	76
680.703	705
680.752	133
680.800	276
680.848	-37
680.896	615
680.945	893
680.993	-64
681.041	40
681.089	1175
681.137	-87
681.185	293
681.233	692
681.258	483
681.281	271
681.329	419
681.377	1303
681.380	1291
681.425	806
681.473	1371
681.502	1052
681.521	800
681.569	1176
681.617	666
681.624	757
681.665	1260
681.713	966
681.745	894
681.761	828
681.809	211
681.857	1358
681.867	1129
681.904	310
681.952	1234
681.989	575
682.000	353
682.048	1342
682.096	677
682.111	857
682.143	1192
682.191	282
682.233	820
682.239	887
682.286	741
682.334	549
682.354	731
682.382	961
682.430	1265
682.476	1240
682.477	1224
682.525	2253
682.572	536
682.598	833
682.620	1094
682.667	963
682.715	1722
682.720	1675
682.763	1048
682.810	1227
682.841	1034
682.857	929
682.905	1158
682.952	930
682.963	1051
683.000	1366
683.047	576
683.085	2048
683.095	2453
683.142	740
683.190	1723
683.206	1396
683.237	708
683.284	1386
683.328	1834
683.332	1865
683.379	1701
683.426	1386
683.449	1529
683.473	1652
683.521	1205
683.568	2337
683.571	2279
683.615	1389
683.662	2464
683.693	2110
683.709	1873
683.757	1528
683.804	1927
683.814	1904
683.851	1837
683.898	1572
683.936	1853
683.945	1911
683.992	2266
684.039	2332
684.057	2175
684.086	1873
684.133	2203
684.179	1824
684.180	1802
684.227	2239
684.274	2582
684.300	2833
684.321	2960
684.368	1720
684.415	2117
684.422	2121
684.462	2169
684.509	1719
684.543	1833
684.556	1860
684.603	1902
684.649	1859
684.665	2115
684.696	2642
684.743	1994
684.786	2318
684.790	2344
684.837	2015
684.883	2840
684.908	2996
684.930	3036
684.977	2478
685.023	2476
685.029	2455
685.070	2371
685.117	2481
685.150	2540
685.164	2540
685.210	2741
685.257	3616
685.272	3339
685.303	2691
685.350	2627
685.393	2588
685.396	2599
685.443	3682
685.490	4029
685.514	4353
685.536	4421
685.583	3399
685.629	3607
685.636	3501
685.675	2969
685.722	2811
685.757	3102
685.768	3193
685.815	3363
685.861	2784
685.878	2916
685.908	3172
685.954	2730
686.000	3289
686.000	3296
686.047	3585
686.093	3990
686.121	4089
686.139	3974
686.185	3528
686.232	2891
686.242	2990
686.278	3390
686.324	2427
686.363	2805
686.370	2912
686.416	2772
686.463	3494
686.484	3385
686.509	3247
686.555	3327
686.601	3904
686.606	3879
686.647	3398
686.693	2706
686.727	3089
686.739	3291
686.785	3139
686.831	3034
686.848	3047
686.877	3022
686.923	3485
686.969	2925
686.969	2922
687.015	3235
687.061	3508
687.090	3760
687.107	3880
687.153	4018
687.199	3915
687.211	3796
687.245	3555
687.291	3870
687.332	3852
687.336	3832
687.382	3988
687.428	3743
687.453	3731
687.474	3765
687.520	3688
687.565	3340
687.574	3345
687.611	3443
687.657	4196
687.695	3948
687.702	3919
687.748	4526
687.794	4704
687.816	4576
687.839	4237
687.885	3620
687.931	3708
687.937	3635
687.976	3594
688.022	3999
688.058	4420
688.067	4445
688.113	4158
688.158	3088
688.179	3472
688.204	4089
688.249	3805
688.295	4578
688.300	4507
688.340	3996
688.386	4804
688.421	4163
688.431	3996
688.477	4621
688.522	5151
688.542	4923
688.567	4580
688.613	3898
688.658	4371
688.663	4364
688.703	4398
688.749	4742
688.784	4671
688.794	4624
688.839	4892
688.884	3991
688.905	4054
688.930	4186
688.975	4021
689.020	3956
689.026	3897
689.065	3650
689.110	4590
689.146	4382
689.155	4338
689.201	4571
689.246	4086
689.267	4382
689.291	4602
689.336	4690
689.381	4484
689.388	4365
689.426	4012
689.471	4477
689.509	4315
689.516	4270
689.561	4538
689.606	4185
689.630	4597
689.651	4938
689.696	4312
689.741	4781
689.750	4725
689.785	4531
689.830	4810
689.871	3951
689.875	3881
689.920	4512
689.965	3862
689.992	3942
690.010	4067
690.054	4594
690.099	5105
690.112	5128
690.144	5115
690.189	4433
690.233	4339
690.233	4347
690.278	5098
690.323	4665
690.354	4719
690.367	4832
690.412	4656
690.457	5478
690.474	5387
690.501	5027
690.546	5073
690.590	4821
690.595	4776
690.635	4735
690.680	4657
690.716	4977
690.724	5042
690.769	5172
690.813	5269
690.836	5062
690.857	5228
690.902	6496
690.946	6782
690.957	6964
690.991	7805
691.035	9240
691.077	10312
691.080	10324
691.124	9564
691.168	9261
691.198	8891
691.213	8493
691.257	7657
691.301	6088
691.318	5910
691.346	6154
691.390	5350
691.434	5820
691.439	5763
691.478	5621
691.522	5638
691.559	5691
691.567	5746
691.611	6183
691.655	5687
691.680	6249
691.699	6397
691.743	5606
691.787	5358
691.800	5089
691.831	4935
691.875	5307
691.919	5407
691.921	5402
691.964	5510
692.008	5539
692.041	5797
692.052	5915
692.096	5690
692.139	6317
692.162	6085
692.183	5741
692.227	5981
692.271	5286
692.282	5367
692.315	5835
692.359	5768
692.402	6133
692.403	6149
692.447	5863
692.490	5991
692.523	6216
692.534	6304
692.578	6215
692.622	6011
692.643	6257
692.666	6294
692.709	5776
692.753	5280
692.763	5133
692.797	5281
692.840	6098
692.884	5901
692.884	5912
692.928	5885
692.971	6087
693.004	6106
693.015	6219
693.059	6356
693.102	6545
693.124	6779
693.146	6852
693.189	6662
693.233	6619
693.245	6667
693.276	6976
693.320	6648
693.363	6867
693.365	6850
693.407	6646
693.450	6617
693.485	6365
693.493	6457
693.537	7370
693.580	7739
693.605	8118
693.624	8475
693.667	8953
693.710	10022
693.725	10212
693.753	12167
693.797	15449
693.840	18875
693.845	19201
693.883	17494
693.926	15062
693.966	13237
693.970	13081
694.013	11050
694.056	9436
694.086	7958
694.099	7760
694.142	7563
694.185	7057
694.206	6817
694.229	7068
694.272	7467
694.315	8272
694.326	8292
694.358	8138
694.401	8304
694.444	8461
694.446	8442
694.487	8264
694.530	8083
694.566	7895
694.573	7848
694.616	7224
694.659	6813
694.686	6475
694.702	6439
694.745	6609
694.787	6511
694.806	6450
694.830	6406
694.873	6341
694.916	6367
694.926	6248
694.959	6376
695.002	7223
695.044	7409
695.046	7424
695.087	7504
695.130	6986
695.166	6726
695.172	6781
695.215	6748
695.258	7048
695.286	7164
695.301	7164
695.343	7105
695.386	6905
695.406	6853
695.428	6945
695.471	7072
695.514	7311
695.526	7312
695.556	7353
695.599	7662
695.641	7578
695.646	7563
695.684	7611
695.726	7637
695.766	7767
695.769	7769
695.811	7159
695.854	6816
695.886	6550
695.896	6659
695.938	6982
695.981	7248
696.005	7458
696.023	7554
696.065	7535
696.108	7657
696.125	7650
696.150	7812
696.192	8006
696.235	8362
696.245	8414
696.277	8428
696.319	8258
696.361	8354
696.365	8313
696.404	8018
696.446	7947
696.485	7731
696.488	7764
696.530	7908
696.572	8058
696.604	8143
696.614	8150
696.656	8111
696.698	8162
696.724	8006
696.740	7988
696.783	8101
696.825	8109
696.844	8132
696.867	8174
696.909	8081
696.951	8077
696.964	8014
696.992	7915
697.034	7940
697.076	7733
697.083	7714
697.118	7993
697.160	8103
697.202	8266
697.203	8246
697.244	8122
697.286	7955
697.323	7614
697.327	7662
697.369	8199
697.411	8371
697.442	8708
697.453	8740
697.494	8585
697.536	8552
697.562	8424
697.578	8492
697.620	8675
697.661	8851
697.682	8933
697.703	9204
697.744	9597
697.786	10117
697.801	10224
697.828	10217
697.869	10219
697.911	10145
697.921	10136
697.952	9819
697.994	9241
698.035	8740
698.040	8646
698.077	8538
698.118	8423
698.160	8252
698.160	8225
698.201	8413
698.243	8465
698.279	8625
698.284	8692
698.325	8999
698.367	9295
698.399	9496
698.408	9421
698.449	8968
698.491	8517
698.518	8174
698.532	8355
698.573	8839
698.614	9353
698.638	9595
698.656	9522
698.697	9310
698.738	9087
698.757	8955
698.779	8996
698.820	9033
698.862	9068
698.877	9048
698.903	9212
698.944	9447
698.985	9679
698.996	9716
699.026	9719
699.067	9684
699.116	9615
699.235	8758
699.354	9048
699.474	8571
699.593	9874
699.713	10454
699.832	9929
699.951	10014
700.070	9559
700.190	8620
700.309	8855
700.428	9491
700.547	9441
700.667	9152
700.786	9526
700.905	8444
701.024	9619
701.143	8889
701.262	8587
701.381	8496
701.500	9506
701.619	10742
701.738	8681
701.857	9386
701.976	8231
702.095	7839
702.214	10618
702.333	9913
702.452	8666
702.571	8051
702.690	8745
702.809	7654
702.928	7985
703.047	7761
703.165	9259
703.284	7874
703.403	8631
703.522	9312
703.640	8831
703.759	9958
703.878	11441
703.997	8382
704.115	8177
704.234	7818
704.353	7807
704.471	7467
704.590	7887
704.708	7857
704.827	8366
704.946	7487
705.064	7997
705.183	7750
705.301	8714
705.420	9385
705.538	10212
705.656	6963
705.775	8489
705.893	10960
706.012	12468
706.130	8042
706.249	9287
706.367	8172
706.485	9187
706.604	8738
706.722	9255
706.840	10966
706.958	11787
707.077	8151
707.195	8235
707.313	8037
707.431	8465
707.549	6725
707.668	7790
707.786	8261
707.904	8159
708.022	7331
708.140	8174
708.258	7730
708.376	8370
708.494	7251
708.612	9175
708.730	10806
708.848	10621
708.966	9523
709.084	9789
709.202	8140
709.320	9669
709.438	7864
709.556	8217
709.674	8209
709.791	9143
709.909	8189
710.027	8252
710.145	8395
710.263	9717
710.380	8127
710.498	8436
710.616	8534
710.733	8695
710.851	8106
710.969	8569
711.086	7944
711.204	8991
711.322	7423
711.439	8736
711.557	7329
711.674	7993
711.792	7452
711.909	8176
712.027	7472
712.144	7859
712.262	8149
712.379	8955
712.497	11005
712.614	10279
712.732	9767
712.849	8728
712.966	10442
713.084	12543
713.201	8976
713.318	10086
713.436	9221
713.553	9571
713.670	9856
713.787	10869
713.905	9899
714.022	9904
714.139	10263
714.256	13176
714.373	17965
714.490	33373
714.608	98658
714.725	432941
714.842	327952
714.959	22691
715.076	12369
715.193	9974
715.310	9217
715.427	8235
715.544	7530
715.661	9364
715.778	7805
715.895	9592
716.011	9021
716.128	9117
716.245	7519
716.362	10566
716.479	10415
716.596	8594
716.713	7681
716.829	9011
716.946	7744
717.063	7152
717.180	7199
717.296	7032
717.413	7600
717.530	7141
717.646	6901
717.763	7808
717.880	6619
717.996	7104
718.113	7529
718.229	6833
718.346	6897
718.462	7632
718.579	10554
718.695	19654
718.812	11122
718.928	9853
719.045	7545
719.161	7407
719.277	6378
719.394	7590
719.510	7043
719.626	8179
719.743	9889
719.859	14000
719.975	27375
720.092	120286
720.208	224800
720.324	19802
720.440	8447
720.557	9399
720.673	14096
720.789	14628
720.905	24240
721.021	8465
721.137	6384
721.253	7845
721.369	6643
721.486	7731
721.602	8714
721.718	6657
721.834	5550
721.950	5779
722.066	5159
722.181	6181
722.297	6692
722.413	6073
722.529	6169
722.645	6739
722.761	5267
722.877	6385
722.993	5660
723.108	7583
723.224	5673
723.340	6635
723.456	4938
723.571	6101
723.687	5345
723.803	5755
723.918	4743
724.034	6153
724.150	5352
724.265	6710
724.381	10414
724.497	12293
724.612	5605
724.728	4817
724.843	4840
724.959	6528
725.074	10059
725.190	10231
725.305	5705
725.421	5450
725.536	4784
725.651	4950
725.767	4323
725.882	4481
725.997	4856
726.113	5168
726.228	4371
726.343	4791
726.459	3715
726.574	5212
726.689	4534
726.804	4121
726.920	4190
727.035	5553
727.150	3994
727.265	4777
727.380	4968
727.495	4527
727.610	4605
727.725	4511
727.841	4550
727.956	6299
728.071	5294
728.186	4517
728.301	3986
728.416	5835
728.531	4435
728.645	4035
728.760	4883
728.875	6287
728.990	5170
729.105	5157
729.220	5546
729.335	5844
729.449	4283
729.564	3767
729.679	3430
729.794	4589
729.908	4678
730.023	4087
730.138	3237
730.253	4581
730.367	3050
730.482	4208
730.596	4004
730.711	4937
730.826	4572
730.940	5011
731.055	4237
731.169	4159
731.284	4255
731.398	3620
731.513	4112
731.627	5064
731.742	5044
731.856	5700
731.970	5303
732.085	7205
732.199	9069
732.313	16266
732.428	43086
732.542	135999
732.656	59323
732.771	10569
732.885	6606
732.999	5713
733.113	5410
733.227	5565
733.342	4771
733.456	4833
733.570	4219
733.684	5407
733.798	4833
733.912	5293
734.026	4486
734.140	5075
734.254	4495
734.368	8596
734.482	7128
734.596	4807
734.710	4516
734.824	4923
734.938	4240
735.052	4708
735.166	5532
735.280	4937
735.393	4146
735.507	4964
735.621	4636
735.735	7543
735.849	5019
735.962	4079
736.076	4333
736.190	5894
736.303	5789
736.417	7480
736.531	4000
736.644	4798
736.758	3505
736.872	4478
736.985	3282
737.099	3816
737.212	3789
737.326	4733
737.439	3794
737.553	4518
737.666	3558
737.780	3659
737.893	3251
738.007	4970
738.120	2692
738.233	4939
738.347	3742
738.460	4537
738.573	4491
738.687	4821
738.800	4829
738.913	6551
739.026	4237
739.140	4087
739.253	3810
739.366	4544
739.479	2741
739.592	3501
739.705	3684
739.818	3795
739.932	3001
740.045	3961
740.158	3266
740.271	4417
740.384	3476
740.497	4402
740.610	4248
740.723	4438
740.836	4179
740.949	5199
741.062	6219
741.174	5287
741.287	3425
741.400	3924
741.513	4645
741.626	4088
741.739	2928
741.851	3767
741.964	3263
742.077	4247
742.189	3519
742.302	5532
742.415	3427
742.527	3937
742.640	2706
742.753	4468
742.865	2686
742.978	3248
743.090	3050
743.203	3210
743.316	2750
743.428	3005
743.541	3392
743.653	2822
743.766	3091
743.878	3741
743.990	3775
744.103	4635
744.215	3203
744.327	3764
744.440	4944
744.552	7621
744.664	3633
744.777	3053
744.889	899
745.001	3892
745.113	2497
745.226	3367
745.338	3226
745.450	3704
745.562	3077
745.674	2882
745.786	3225
745.898	3261
746.010	2541
746.122	3598
746.234	2989
746.347	3401
746.459	2052
746.570	3380
746.682	3399
746.794	2953
746.906	2682
747.018	3156
747.130	2534
747.242	3709
747.354	2025
747.466	3707
747.577	1531
747.689	3392
747.801	2769
747.913	2247
748.024	2483
748.136	2406
748.248	2234
748.359	3308
748.471	1848
748.583	2495
748.694	2997
748.806	3330
748.918	3023
749.029	3907
749.141	2875
749.252	3363
749.364	3681
749.475	9107
749.587	4564
749.698	2185
749.809	2198
749.921	2601
750.032	1945
750.144	2571
750.255	1709
750.366	2370
750.478	2170
750.589	2787
750.700	2204
750.811	2779
750.923	2853
751.034	10237
751.145	8230
751.256	2208
751.367	2111
751.479	3222
751.590	1696
751.701	2028
751.812	709
751.923	2788
752.034	2460
752.145	2268
752.256	1202
752.367	2257
752.478	1737
752.589	2887
752.700	1017
752.811	2513
752.922	1560
753.032	2174
753.143	3367
753.254	1863
753.365	2561
753.476	3015
753.586	2234
753.697	2433
753.808	1741
753.919	2124
754.029	2013
754.140	2111
754.251	1794
754.361	1868
754.472	1137
754.582	2357
754.693	1383
754.804	2759
754.914	1514
755.025	2475
755.135	2259
755.246	2018
755.356	864
755.466	2075
755.577	1941
755.687	2179
755.798	1716
755.908	2664
756.018	1516
756.129	1664
756.239	1739
756.349	1902
756.460	1181
756.570	2444
756.680	1593
756.790	2625
756.900	2479
757.011	1923
757.121	1498
757.231	2346
757.341	1648
757.451	1680
757.561	615
757.671	1758
757.781	1288
757.891	2914
758.001	1398
758.111	2821
758.221	2088
758.331	2937
758.441	1940
758.551	4974
758.661	2890
758.771	2768
758.880	2582
758.990	2003
759.100	1664
759.210	2416
759.320	2162
759.429	2728
759.539	2656
759.649	2165
759.758	2840
759.868	2878
759.978	1906
760.087	3326
760.197	2793
760.307	3251
760.416	2317
760.526	2113
760.635	2953
760.745	3275
760.854	2682
760.964	4056
761.073	2886
761.182	2702
761.292	2915
761.401	3945
761.511	1937
761.620	2756
761.729	2278
761.839	2712
761.948	2291
762.057	2639
762.166	2041
762.276	1692
762.385	3130
762.494	2794
762.603	2580
762.712	2605
762.822	1504
762.931	1992
763.040	1669
763.149	2318
763.258	1892
763.367	2325
763.476	1890
763.585	3082
763.694	2420
763.803	2305
763.912	2448
764.021	2467
764.130	1966
764.238	3427
764.347	2176
764.456	2479
764.565	2848
764.674	2967
764.783	2842
764.891	2813
765.000	3671
765.109	4355
765.217	3711
765.326	6266
765.435	6173
765.543	6926
765.652	7683
765.761	11030
765.869	14837
765.978	24634
766.086	45186
766.195	95425
766.303	269955
766.412	638593
766.520	425610
766.629	114323
766.737	43072
766.846	24959
766.954	16568
767.062	13837
767.171	9616
767.279	8815
767.387	5945
767.496	5735
767.604	5075
767.712	4509
767.820	3789
767.928	4843
768.037	4046
768.145	4249
768.253	3752
768.361	2907
768.469	2957
768.577	3670
768.685	4664
768.793	3793
768.901	4210
769.009	5342
769.117	4506
769.225	7631
769.333	10704
769.441	18403
769.549	35910
769.657	92717
769.765	311939
769.873	472963
769.981	138281
770.088	33294
770.196	16165
770.304	11794
770.412	7838
770.519	6562
770.627	5390
770.735	4945
770.842	4539
770.950	4266
771.058	3304
771.165	4512
771.273	3609
771.380	3056
771.488	4062
771.595	2913
771.703	3425
771.810	2803
771.918	2148
772.025	3419
772.133	3383
772.240	3397
772.348	3287
772.455	3315
772.562	2199
772.670	3347
772.777	2127
772.884	2891
772.991	2837
773.099	2805
773.206	1700
773.313	3974
773.420	2842
773.528	2011
773.635	2210
773.742	3780
773.849	2915
773.956	2878
774.063	2234
774.170	2465
774.277	2446
774.384	3502
774.491	1505
774.598	2321
774.705	2121
774.812	3510
774.919	2663
775.026	3108
775.133	2675
775.239	2484
775.346	1787
775.453	2150
775.560	1882
775.667	3113
775.773	810
775.880	2685
775.987	1949
776.093	3228
776.200	2603
776.307	2124
776.413	2551
776.520	2638
776.627	793
776.733	2528
776.840	333
776.946	3441
777.053	2444
777.159	3721
777.266	1137
777.372	3363
777.478	3436
777.585	2667
777.691	1560
777.798	2793
777.904	2891
778.010	4018
778.117	3075
778.223	2191
778.329	2317
778.435	1594
778.542	2855
778.648	1803
778.754	904
778.860	3101
778.966	618
779.072	2045
779.178	1530
779.284	1516
779.391	1693
779.497	1382
779.603	3459
779.708	843
779.815	2664
779.920	5414
780.026	5142
780.132	1785
780.238	1251
780.344	1922
780.450	2713
780.556	1788
780.661	1122
780.767	2713
780.873	745
780.979	2030
781.085	845
781.190	1520
781.296	1220
781.402	1169
781.507	1216
781.613	1530
781.719	1335
781.824	1850
781.930	2366
782.035	1526
782.141	1051
782.246	2235
782.352	1816
782.457	1469
782.563	1588
782.668	1930
782.773	1001
782.879	1699
782.984	1685
783.090	2248
783.195	3800
783.300	3262
783.405	1523
783.511	1971
783.616	1469
783.721	2692
783.826	815
783.932	2282
784.037	1699
784.142	1920
784.247	901
784.352	2021
784.457	1738
784.562	1767
784.667	1161
784.772	1024
784.877	1562
784.982	2258
785.087	1085
785.192	2627
785.297	1172
785.402	1807
785.507	1738
785.611	987
785.716	1336
785.821	1413
785.926	600
786.031	1293
786.135	1229
786.240	1503
786.345	-100
786.450	1853
786.554	1300
786.659	1338
786.763	-649
786.868	1644
786.973	1729
787.077	1228
787.182	1458
787.286	1509
787.391	1002
787.495	663
787.600	75
787.704	960
787.809	1382
787.913	1531
788.017	1406
788.122	1337
788.226	1132
788.330	539
788.435	755
788.539	933
788.643	498
788.747	630
788.852	368
788.956	388
789.060	183
789.164	696
789.268	488
789.372	1983
789.476	439
789.580	372
789.684	-199
789.788	1151
789.892	205
789.996	2312
790.100	334
790.204	1052
790.308	1107
790.412	719
790.516	972
790.620	841
790.724	2491
790.828	1485
790.931	328
791.035	2107
791.139	-112
791.242	368
791.346	1306
791.450	642
791.554	361
791.657	-102
791.761	1136
791.864	1974
791.968	943
792.072	1188
792.175	330
792.279	1355
792.382	198
792.486	1261
792.589	84
792.693	1477
792.796	-615
792.899	1130
793.003	1039
793.106	395
793.209	94
793.313	1200
793.416	38
793.519	2934
793.623	2490
793.726	3966
793.829	780
793.932	584
794.035	115
794.138	2343
794.242	1328
794.345	942
794.448	1313
794.551	2976
794.654	4333
794.757	3739
794.860	820
794.963	877
795.066	-773
795.169	1284
795.272	327
795.375	598
795.477	261
795.580	241
795.683	-372
795.786	720
795.889	297
795.991	2010
796.094	1379
796.197	-638
796.300	1026
796.402	869
796.505	-1287
796.608	-5
796.710	1167
796.813	456
796.915	126
797.018	1244
797.120	421
797.223	16
797.326	921
797.428	338
797.530	-293
797.633	763
797.735	1548
797.838	1254
797.940	1559
798.042	581
798.145	339
798.247	776
798.349	-472
798.452	1697
798.554	519
798.656	498
798.758	1136
798.860	639
798.962	-453
799.065	291
799.167	-348
799.269	2035
799.371	1924
799.473	1288
799.575	66
799.677	1045
799.779	2266
799.881	2300
799.983	1829
800.085	1175
800.187	767
800.289	-487
800.390	36
800.492	683
800.594	1272
800.696	426
800.798	160
800.899	802
801.001	68
801.103	478
801.205	306
801.306	367
801.408	-738
801.509	690
801.611	622
801.713	640
801.814	-894
801.916	729
802.017	811
802.119	-70
802.220	-37
802.322	-1189
802.423	1420
802.525	-142
802.626	162
802.727	1350
802.829	630
802.930	-1114
803.031	1244
803.133	-162
803.234	-179
803.335	-90
803.436	-987
803.538	357
803.639	-551
803.740	1198
803.841	-364
803.942	514
804.043	-67
804.144	-483
804.245	522
804.346	314
804.447	93
804.548	1554
804.649	1763
804.750	275
804.851	-462
804.952	580
805.053	-743
805.154	-562
805.255	239
805.355	754
805.456	-2
805.557	432
805.658	-1492
805.758	634
805.859	674
805.960	55
806.061	-528
806.161	-687
806.262	-338
806.362	815
806.463	-359
806.564	375
806.664	-739
806.765	2
806.865	-196
806.966	616
807.066	-145
807.166	739
807.267	133
807.367	-432
807.468	80
807.568	-1273
807.668	365
807.769	1283
807.869	-759
807.969	-270
808.069	-749
808.170	297
808.270	75
808.370	877
808.470	850
808.570	177
808.670	-17
808.770	299
808.870	-623
808.970	-75
809.070	-1140
809.170	283
809.271	298
809.370	67
809.470	-554
809.570	-167
809.670	-836
809.770	146
809.870	-394
809.970	1285
810.070	37
810.169	1305
810.269	-947
810.369	1428
810.469	-452
810.568	94
810.668	-300
810.768	-40
810.867	-129
810.967	321
811.066	125
811.166	30
811.265	114
811.365	182
811.464	-1058
811.564	189
811.663	1012
811.763	-115
811.862	76
811.962	1198
812.061	266
812.160	7
812.260	-746
812.359	269
812.458	-893
812.557	663
812.657	470
812.756	559
812.855	-77
812.954	450
813.053	768
813.153	385
813.252	-698
813.351	533
813.450	84
813.549	-83
813.648	157
813.747	425
813.846	165
813.945	-595
814.044	-352
814.143	98
814.242	74
814.341	93
814.439	291
814.538	845
814.637	-481
814.736	-171
814.835	150
814.933	578
815.032	677
815.131	1654
815.229	446
815.328	1618
815.427	-281
815.525	1129
815.624	310
815.722	803
815.821	183
815.919	417
816.018	767
816.116	1928
816.215	664
816.313	823
816.412	1086
816.510	971
816.609	2346
816.707	2073
816.805	769
816.904	1476
817.002	2304
817.100	3161
817.198	2483
817.296	2066
817.395	2109
817.493	3501
817.591	2688
817.689	6055
817.787	7297
817.885	13660
817.983	26623
818.081	59631
818.179	154575
818.277	369755
818.375	252402
818.473	57988
818.571	22455
818.669	15959
818.767	12840
818.865	14579
818.963	17549
819.061	28344
819.158	51158
819.256	120036
819.354	296960
819.452	566770
819.549	302309
819.647	78920
819.745	31653
819.842	20486
819.940	12479
820.038	9818
820.135	7127
820.233	7614
820.330	3650
820.428	2728
820.525	3922
820.623	3185
820.720	2355
820.818	2483
820.915	2487
821.012	1738
821.110	325
821.207	2826
821.304	728
821.402	1903
821.499	2513
821.596	2024
821.693	1622
821.791	2540
821.888	1684
821.985	6217
822.082	2516
822.179	2065
822.276	432
822.373	723
822.470	513
822.567	1333
822.664	19
822.761	1683
822.858	-258
822.955	1271
823.052	1047
823.149	465
823.246	829
823.343	671
823.440	1095
823.536	1246
823.633	114
823.730	400
823.827	1114
823.923	207
824.020	1139
824.117	747
824.213	-185
824.310	815
824.407	332
824.503	1259
824.600	-27
824.696	287
824.793	673
824.889	458
824.986	538
825.082	944
825.179	17
825.275	331
825.371	-571
825.468	1288
825.564	-111
825.660	497
825.757	-214
825.853	1477
825.949	-1229
826.045	387
826.142	-588
826.238	731
826.334	-47
826.430	-262
826.526	786
826.622	-188
826.718	111
826.814	-123
826.910	555
827.006	-271
827.102	-684
827.198	777
827.294	-258
827.390	669
827.486	-2
827.582	-721
827.678	-1175
827.774	1066
827.869	-1575
827.965	788
828.061	-219
828.157	-119
828.252	92
828.348	-292
828.444	-11
828.539	-250
828.635	-328
828.731	813
828.826	-1068
828.922	683
829.017	372
829.113	144
829.208	-1068
829.304	-536
829.399	518
829.495	-357
829.590	-52
829.685	-59
829.781	-1
829.876	-702
829.971	-933
830.066	211
830.162	-74
830.257	-414
830.352	-565
830.447	1401
830.543	-543
830.638	-1836
830.733	517
830.828	74
830.923	421
831.018	13
831.113	-318
831.208	-378
831.303	-428
831.398	-68
831.493	-867
831.588	555
831.683	-1207
831.778	-175
831.873	-379
831.967	410
832.062	-669
832.157	-266
832.252	309
832.346	-145
832.441	627
832.536	1861
832.631	3652
832.725	3755
832.820	-1581
832.914	-83
833.009	-314
833.104	-100
833.198	459
833.293	91
833.387	-746
833.482	-142
833.576	-986
833.670	437
833.765	268
833.859	206
833.954	-97
834.048	-5
834.142	515
834.237	-245
834.331	-462
834.425	126
834.519	-828
834.613	494
834.708	-1142
834.802	-66
834.896	-1483
834.990	-199
835.084	-284
835.178	-549
835.272	-597
835.366	-377
835.460	387
835.554	799
835.648	-808
835.742	-719
835.836	-371
835.930	-342
836.024	281
836.117	449
836.211	-1574
836.305	256
836.399	88
836.493	-1357
836.586	198
836.680	-586
836.774	-777
836.867	654
836.961	-1354
837.055	-1045
837.148	-1255
837.242	320
837.335	-871
837.429	-801
837.522	-1283
837.616	342
837.709	-140
837.803	-360
837.896	-491
837.989	-248
838.083	249
838.176	546
838.269	-355
838.363	935
838.456	-1320
838.549	1485
838.642	1225
838.735	4522
838.829	1815
838.922	-874
839.015	-817
839.108	-1264
839.201	-1698
839.294	-160
839.387	-485
839.480	-792
839.573	-248
839.666	415
839.759	-800
839.852	-503
839.945	-318
840.038	-748
840.131	-846
840.223	-537
840.316	488
840.409	-152
840.502	-1761
840.594	748
840.687	-1609
840.780	-116
840.873	-1695
840.965	-289
841.058	-884
841.150	331
841.243	-461
841.336	1109
841.428	-888
841.521	-62
841.613	-1051
841.706	-114
841.798	-1119
841.890	-661
841.983	-1842
842.075	626
842.167	-1396
842.260	-473
842.352	447
842.444	-200
842.537	655
842.629	2390
842.721	-1108
842.813	-205
842.905	-1592
842.997	284
843.090	-913
843.182	606
843.274	-47
843.366	3051
843.458	5490
843.550	4237
843.642	-325
843.734	550
843.826	-738
843.918	368
844.009	-163
844.101	-919
844.193	-1042
844.285	-1037
844.377	-636
844.469	114
844.560	-987
844.652	-199
844.744	-551
844.835	-148
844.927	-809
845.019	-138
845.110	-519
845.202	-228
845.293	-1130
845.385	-508
845.476	-781
845.568	-616
845.659	-1471
845.751	60
845.842	-658
845.934	-297
846.025	-450
846.116	-513
846.208	-703
846.299	-78
846.390	-1218
846.482	-1258
846.573	-661
846.664	-159
846.755	-428
846.846	469
846.937	-1307
847.029	-107
847.120	-1432
847.211	-235
847.302	-51
847.393	-1031
847.484	26
847.575	88
847.666	-426
847.757	381
847.847	-735
847.938	144
848.029	-1155
848.120	-1299
848.211	-1311
848.302	-406
848.392	-1780
848.483	353
848.574	-1040
848.664	-47
848.755	-769
848.846	-190
848.936	-1315
849.027	-345
849.118	-582
849.208	-364
849.299	315
849.389	2259
849.480	4084
849.570	11091
849.661	21496
849.751	36289
849.841	10174
849.932	702
850.022	-393
850.112	-418
850.203	-812
850.293	-857
850.383	-510
850.474	-424
850.564	-1267
850.654	-287
850.744	-739
850.834	186
850.924	-745
851.014	414
851.104	-983
851.194	-281
851.284	-233
851.374	25
851.464	33
851.554	536
851.644	-656
851.734	355
851.824	-1422
851.914	-624
852.004	-609
852.094	-248
852.183	-841
852.273	378
852.363	-1265
852.452	-436
852.542	-1461
852.632	-361
852.721	-536
852.811	141
852.901	-757
852.990	-905
853.080	-414
853.169	264
853.259	-508
853.348	600
853.438	635
853.527	1807
853.617	2620
853.706	8012
853.795	13971
853.885	35908
853.974	68067
854.063	129654
854.152	187822
854.242	59237
854.331	8196
854.420	3233
854.509	1314
854.598	2844
854.687	1341
854.777	538
854.866	-477
854.955	1185
855.044	-564
855.133	-985
855.222	-754
855.311	-744
855.400	-42
855.488	145
855.577	-1957
855.666	237
855.755	411
855.844	472
855.933	-1458
856.021	-41
856.110	-881
856.199	-652
856.288	-1211
856.376	-1103
856.465	-2128
856.554	180
856.642	-839
856.731	-346
856.819	-542
856.908	-484
856.996	-639
857.085	-550
857.173	-1154
857.262	174
857.350	-560
857.438	25
857.527	-856
857.615	-1007
857.703	27
857.792	-1039
857.880	-1504
857.968	-260
858.056	-1592
858.145	-482
858.233	-1543
858.321	-1396
858.409	-409
858.497	-593
858.585	-1021
858.673	-306
858.761	-2235
858.849	-289
858.937	-672
859.025	162
859.113	-653
859.201	-1095
859.289	-463
859.377	-921
859.465	-937
859.552	-583
859.640	-1889
859.728	-1039
859.816	-1476
859.903	-481
859.991	-1396
860.079	-808
860.166	-878
860.254	-664
860.342	-1112
860.429	-988
860.517	-1410
860.604	-587
860.692	-837
860.779	-988
860.867	-745
860.954	-731
861.042	-23
861.129	-719
861.216	-452
861.304	-886
861.391	-947
861.478	-348
861.565	-429
861.653	-62
861.740	-836
861.827	-1114
861.914	-704
862.001	-798
862.089	-366
862.176	-258
862.263	-807
862.350	-1020
862.437	-1651
862.524	-1225
862.611	-1398
862.698	26
862.785	-401
862.871	-652
862.958	-1484
863.045	-800
863.132	-1680
863.219	-287
863.306	-1779
863.392	128
863.479	-1670
863.566	-1269
863.652	-1067
863.739	-1199
863.826	-367
863.912	-406
863.999	-1619
864.086	-256
864.172	-1372
864.259	-994
864.345	-1000
864.432	-276
864.518	-683
864.604	-1041
864.691	-895
864.777	-132
864.863	-1179
864.950	367
865.036	-745
865.122	911
865.209	-284
865.295	330
865.381	-694
865.467	1006
865.553	1266
865.639	3145
865.726	7795
865.812	17209
865.898	34323
865.984	50613
866.070	98349
866.156	96811
866.242	20227
866.328	3622
866.414	1516
866.499	997
866.585	282
866.671	721
866.757	849
866.843	1190
866.928	-462
867.014	236
867.100	-76
867.186	451
867.271	-544
867.357	998
867.442	493
867.528	241
867.614	-676
867.699	333
867.785	-167
867.870	-798
867.956	-277
868.041	802
868.127	173
868.212	121
868.297	-182
868.383	-60
868.468	913
868.553	2065
868.639	1211
868.724	5574
868.809	3310
868.894	-99
868.979	-443
869.065	-49
869.150	-895
869.235	-510
869.320	-1503
869.405	-517
869.490	19
869.575	-334
869.660	-971
869.745	400
869.830	-1093
869.915	-855
870.000	-1216
870.085	134
870.169	-519
870.254	497
870.339	-1189
870.424	-1611
870.509	-524
870.593	399
870.678	-1268
870.763	-990
870.847	-1142
870.932	-1293
871.016	-323
871.101	-387
871.186	-651
871.270	-240
871.355	-1052
871.439	-295
871.523	-541
871.608	-317
871.692	-712
871.777	396
871.861	-863
871.945	-481
872.030	479
872.114	-595
872.198	-1444
872.282	-594
872.367	-1222
872.451	-656
872.535	-696
872.619	-518
872.703	-1152
872.787	25
872.871	-366
872.955	-663
873.039	-961
873.123	-123
873.207	-132
873.291	-846
873.375	-1086
873.459	375
873.543	-1224
873.627	-447
873.711	-503
873.794	47
873.878	-1726
873.962	-492
874.045	158
874.129	-113
874.137	-174
874.213	-791
874.245	-887
874.296	-1035
874.352	-1064
874.380	-1084
874.460	-827
874.464	-817
874.547	-1222
874.568	-1025
874.631	-447
874.676	-534
874.714	-595
874.784	-81
874.798	19
874.881	68
874.892	9
874.965	-390
874.999	-681
875.048	-1096
875.107	-424
875.131	-145
875.215	-687
875.215	-687
875.298	-1358
875.323	-1210
875.381	-808
875.430	-87
875.465	413
875.538	-718
875.548	-878
875.631	-113
875.646	-265
875.714	-977
875.753	-890
875.798	-731
875.861	-747
875.881	-792
875.964	-218
875.968	-239
876.047	-418
876.076	-293
876.130	-212
876.183	-243
876.213	-227
876.291	393
876.296	438
876.379	-1207
876.398	-862
876.462	225
876.506	-502
876.545	-1166
876.613	-105
876.628	141
876.711	-1095
876.721	-964
876.794	71
876.828	-223
876.877	-687
876.935	466
876.960	941
877.043	-348
877.043	-344
877.125	817
877.150	624
877.208	183
877.258	207
877.291	248
877.365	85
877.374	59
877.456	315
877.472	108
877.539	-703
877.579	-166
877.622	311
877.687	74
877.704	61
877.787	9
877.794	16
877.869	-70
877.901	-209
877.952	-409
878.008	-281
878.034	-246
878.115	-110
878.117	-103
878.199	-314
878.222	-140
878.282	255
878.329	-23
878.364	-222
878.437	91
878.447	116
878.529	-1092
878.544	-901
878.611	140
878.651	-205
878.694	-683
878.758	-388
878.776	-255
878.858	-370
878.865	-321
878.941	112
878.972	-167
879.023	-615
879.078	-703
879.105	-672
879.185	32
879.187	45
879.269	-444
879.292	-516
879.351	-711
879.399	-320
879.433	-99
879.506	-521
879.516	-558
879.598	-366
879.613	-397
879.680	-498
879.720	-359
879.762	-187
879.827	-130
879.844	-141
879.926	-140
879.933	-159
880.007	-531
880.040	-493
880.089	-160
880.147	88
880.171	187
880.253	1379
880.254	1382
880.335	1529
880.360	1820
880.417	2901
880.467	4119
880.499	4914
880.574	6257
880.580	6226
880.662	1138
880.680	666
880.744	205
880.787	98
880.825	-310
880.893	-491
880.907	-489
880.989	-789
881.000	-713
881.070	-41
881.106	-392
881.152	-895
881.213	-670
881.233	-524
881.315	-456
881.319	-409
881.396	73
881.426	-293
881.478	-735
881.532	-326
881.559	-159
881.639	-496
881.641	-504
881.722	-527
881.745	-472
881.803	70
881.852	141
881.885	-137
881.958	-171
881.966	-140
882.047	-157
882.064	-208
882.129	2
882.171	496
882.210	851
882.277	1205
882.291	1174
882.372	88
882.383	-2
882.454	-103
882.489	-46
882.535	6
882.596	-108
882.616	-172
882.697	427
882.702	388
882.778	-300
882.808	-340
882.859	-244
882.914	-204
882.940	-202
883.020	-81
883.021	-75
883.102	327
883.127	355
883.183	-22
883.233	-453
883.264	-593
883.339	54
883.345	131
883.426	-263
883.445	-66
883.507	290
883.551	188
883.587	38
883.657	-189
883.668	-150
883.749	-211
883.763	-85
883.830	-291
883.869	-731
883.910	-594
883.975	-35
883.991	-39
884.072	-691
884.081	-692
884.152	334
884.187	579
884.233	70
884.292	-35
884.314	110
884.394	-486
884.398	-472
884.475	-269
884.504	-435
884.555	-235
884.610	490
884.636	620
884.716	360
884.716	361
884.797	288
884.821	120
884.877	154
884.927	70
884.958	-75
885.033	-230
885.038	-202
885.118	54
885.139	130
885.199	-22
885.244	-54
885.279	-57
885.350	-81
885.359	-25
885.439	396
885.456	405
885.520	-286
885.561	-407
885.600	-128
885.667	67
885.680	102
885.760	316
885.773	342
885.840	42
885.878	-52
885.920	225
885.984	284
886.000	223
886.080	103
886.089	81
886.160	-112
886.195	29
886.240	377
886.300	181
886.320	22
886.400	-68
886.406	-91
886.480	252
886.511	409
886.560	577
886.616	626
886.640	374
886.720	-153
886.722	-175
886.800	-24
886.827	53
886.879	9
886.932	-95
886.959	71
887.038	731
887.039	727
887.119	-212
887.143	-461
887.198	101
887.248	520
887.278	509
887.354	610
887.358	619
887.437	500
887.459	498
887.517	746
887.564	849
887.596	718
887.669	557
887.676	512
887.755	-182
887.774	-347
887.835	-54
887.880	101
887.914	142
887.985	267
887.994	272
888.073	292
888.090	286
888.153	319
888.195	351
888.232	295
888.300	156
888.311	195
888.391	322
888.405	385
888.470	157
888.510	-118
888.549	103
888.615	668
888.628	602
888.708	13
888.720	-74
888.787	215
888.825	350
888.866	255
888.930	166
888.945	214
889.024	329
889.035	362
889.103	341
889.140	271
889.182	205
889.245	124
889.261	170
889.340	395
889.349	418
889.419	835
889.454	1026
889.498	694
889.559	261
889.577	379
889.656	859
889.664	904
889.735	432
889.768	201
889.814	435
889.873	744
889.978	-707
890.083	337
890.187	705
890.292	603
890.397	223
890.501	541
890.606	454
890.710	551
890.815	178
890.919	698
891.024	558
891.128	1360
891.233	894
891.337	736
891.442	71
891.546	179
891.650	797
891.755	571
891.859	994
891.963	801
892.068	1331
892.172	1228
892.276	528
892.380	723
892.484	1171
892.589	1621
892.693	470
892.797	179
892.901	485
893.005	631
893.109	1093
893.213	1737
893.317	487
893.421	181
893.525	114
893.629	599
893.733	921
893.837	310
893.941	1421
894.045	1903
894.148	-63
894.252	-17
894.356	70
894.460	615
894.564	1465
894.667	327
894.771	237
894.875	996
894.978	411
895.082	759
895.186	1060
895.289	286
895.393	640
895.496	933
895.600	318
895.703	663
895.807	953
895.910	7
896.014	468
896.117	351
896.221	486
896.324	1383
896.427	1589
896.531	915
896.634	783
896.737	739
896.840	-252
896.944	944
897.047	334
897.150	1200
897.253	-268
897.356	309
897.460	866
897.563	1198
897.666	237
897.769	740
897.872	226
897.975	482
898.078	128
898.181	1434
898.284	151
898.387	423
898.490	687
898.593	168
898.695	-282
898.798	228
898.901	802
899.004	851
899.107	377
899.209	840
899.312	635
899.415	661
899.518	20
899.620	264
899.723	18
899.826	1711
899.928	486
900.031	565
900.133	-140
900.236	972
900.338	-8
900.441	623
900.543	-193
900.646	184
900.748	-211
900.851	870
900.953	175
901.055	670
901.158	100
901.260	414
901.362	683
901.465	87
901.567	254
901.669	-247
901.771	-124
901.873	342
901.976	-263
902.078	406
902.180	540
902.282	1198
902.384	823
902.486	769
902.588	357
902.690	240
902.792	277
902.894	699
902.996	354
903.098	552
903.200	-293
903.302	832
903.404	1040
903.505	498
903.607	481
903.709	486
903.811	464
903.913	551
904.014	459
904.116	39
904.218	638
904.319	733
904.421	886
904.523	776
904.624	357
904.726	952
904.827	-395
904.929	46
905.030	502
905.132	519
905.233	844
905.335	-290
905.436	326
905.537	703
905.639	436
905.740	220
905.841	119
905.943	1041
906.044	470
906.145	717
906.247	-117
906.348	912
906.449	1051
906.550	121
906.651	371
906.752	391
906.854	-64
906.955	415
907.056	-205
907.157	1370
907.258	616
907.359	377
907.460	400
907.561	761
907.662	-529
907.762	-162
907.863	-14
907.964	1
908.065	-194
908.166	622
908.267	-10
908.367	209
908.468	322
908.569	919
908.670	204
908.770	937
908.871	-319
908.971	891
909.072	503
909.173	-95
909.273	-52
909.374	917
909.474	475
909.575	-123
909.675	-288
909.776	1026
909.876	196
909.977	427
910.077	-493
910.177	285
910.278	614
910.378	7
910.478	-181
910.579	644
910.679	-244
910.779	366
910.879	153
910.980	230
911.080	348
911.180	1090
911.280	358
911.380	141
911.480	569
911.580	57
911.680	216
911.780	24
911.880	-79
911.980	334
912.080	-67
912.180	1152
912.280	597
912.380	578
912.480	269
912.580	423
912.679	-946
912.779	613
912.879	37
912.979	1132
913.078	-423
913.178	1489
913.278	942
913.377	656
913.477	8
913.577	450
913.676	609
913.776	1076
913.875	149
913.975	306
914.074	440
914.174	763
914.273	63
914.373	562
914.472	271
914.572	-362
914.671	279
914.770	227
914.870	146
914.969	531
915.068	-122
915.167	543
915.267	158
915.366	105
915.465	-618
915.564	144
915.663	593
915.763	981
915.862	477
915.961	165
916.060	-349
916.159	-64
916.258	-212
916.357	83
916.456	89
916.555	-151
916.654	-26
916.752	732
916.851	469
916.950	-301
917.049	456
917.148	621
917.247	1119
917.345	-226
917.444	375
917.543	256
917.642	331
917.740	893
917.839	360
917.937	532
918.036	651
918.135	-329
918.233	178
918.332	942
918.430	-7
918.529	-179
918.627	381
918.726	-280
918.824	-261
918.923	472
919.021	-52
919.119	-478
919.218	-236
919.316	171
919.414	52
919.512	719
919.611	1034
919.709	258
919.807	-313
919.905	639
920.003	176
920.102	544
920.200	386
920.298	624
920.396	-150
920.494	668
920.592	60
920.690	388
920.788	837
920.886	94
920.984	620
921.082	-164
921.180	420
921.277	1028
921.375	522
921.473	448
921.571	552
921.669	458
921.766	747
921.864	623
921.962	330
922.060	288
922.157	76
922.255	292
922.352	53
922.450	421
922.548	-252
922.645	-145
922.743	-476
922.840	303
922.938	1569
923.035	1499
923.133	752
923.230	1114
923.327	1254
923.425	1815
923.522	1502
923.619	1371
923.717	1042
923.814	1103
923.911	777
924.008	1906
924.106	938
924.203	766
924.300	297
924.397	889
924.494	1079
924.591	1390
924.688	280
924.786	469
924.883	319
924.979	260
925.077	790
925.173	506
925.270	205
925.367	1220
925.464	577
925.561	1518
925.658	1168
925.755	1616
925.852	729
925.948	290
926.045	682
926.142	819
926.239	1015
926.335	726
926.432	1397
926.529	1268
926.625	1643
926.722	664
926.818	243
926.915	1627
927.011	495
927.108	839
927.204	-455
927.301	276
927.397	697
927.494	915
927.590	307
927.687	718
927.783	156
927.879	1536
927.976	-221
928.072	1105
928.168	870
928.264	395
928.361	791
928.457	957
928.553	1124
928.649	948
928.745	1205
928.841	1026
928.937	965
929.033	721
929.129	159
929.225	409
929.321	320
929.417	1030
929.513	192
929.609	383
929.705	-95
929.801	840
929.897	-77
929.993	470
930.089	177
930.184	274
930.280	1350
930.376	559
930.471	636
930.567	592
930.663	621
930.758	808
930.854	704
930.950	797
931.045	599
931.141	827
931.236	325
931.332	-71
931.427	101
931.523	844
931.618	897
931.714	260
931.809	907
931.905	703
932.000	702
932.095	888
932.191	725
932.286	1112
932.381	770
932.476	601
932.572	662
932.667	431
932.762	324
932.857	1105
932.952	558
933.047	537
933.142	-49
933.237	680
933.332	910
933.427	1381
933.522	348
933.617	112
933.712	1338
933.807	986
933.902	-45
933.997	939
934.092	264
934.187	186
934.282	362
934.376	455
934.471	358
934.566	669
934.661	14
934.755	474
934.850	-189
934.945	932
935.039	409
935.134	-18
935.228	222
935.323	983
935.417	505
935.512	649
935.606	184
935.701	593
935.795	123
935.890	439
935.984	451
936.079	532
936.173	-332
936.267	-292
936.362	-93
936.456	224
936.550	588
936.644	940
936.738	-225
936.833	-99
936.927	-232
937.021	129
937.115	261
937.209	-368
937.303	858
937.397	67
937.491	239
937.585	578
937.679	413
937.773	169
937.867	228
937.961	514
938.055	-38
938.149	1186
938.243	-11
938.337	118
938.430	81
938.524	1115
938.618	598
938.712	950
938.805	577
938.899	110
938.993	-202
939.086	-89
939.180	384
939.274	1345
939.367	-113
939.461	327
939.554	-69
939.648	831
939.741	504
939.835	227
939.928	248
940.022	822
940.115	-207
940.208	423
940.302	869
940.395	313
940.488	-593
940.582	1231
940.675	130
940.768	642
940.861	146
940.954	609
941.048	-336
941.141	-313
941.234	12
941.327	390
941.420	230
941.513	928
941.606	-294
941.699	369
941.792	-13
941.885	483
941.978	-561
942.071	393
942.164	194
942.257	688
942.349	449
942.442	341
942.535	0
942.628	397
942.721	265
942.813	-486
942.906	413
942.999	-220
943.091	-306
943.184	-142
943.277	-175
943.369	365
943.462	175
943.554	657
943.647	680
943.739	526
943.832	259
943.924	-550
944.017	652
944.109	-605
944.201	99
944.294	1270
944.386	-376
944.478	-378
944.571	-324
944.663	363
944.755	200
944.847	459
944.940	308
945.032	170
945.124	-732
945.216	1390
945.308	155
945.400	-18
945.492	-203
945.584	-33
945.676	-1001
945.768	440
945.860	416
945.952	471
946.044	392
946.136	-983
946.228	-247
946.320	643
946.412	-603
946.503	320
946.595	596
946.687	584
946.779	-490
946.870	880
946.962	-129
947.054	843
947.145	523
947.237	871
947.329	-163
947.420	313
947.512	367
947.603	-329
947.695	-287
947.786	476
947.878	-61
947.969	567
948.061	312
948.152	-94
948.243	70
948.335	-22
948.426	-98
948.517	206
948.609	-151
948.700	-196
948.791	-492
948.882	157
948.973	-249
949.065	184
949.156	-601
949.247	-983
949.338	-26
949.429	-449
949.520	752
949.611	-905
949.702	120
949.793	-188
949.884	316
949.975	-5
950.066	-34
950.157	-380
950.247	-671
950.338	143
950.429	280
950.520	417
950.611	-561
950.701	-393
950.792	170
950.883	567
950.973	437
951.064	467
951.155	472
951.245	-213
951.336	114
951.427	-561
951.517	579
951.608	394
951.698	-153
951.788	-219
951.879	-463
951.969	-236
952.060	136
952.150	-1071
952.240	-378
952.331	-1354
952.421	424
952.511	-219
952.602	-70
952.692	52
952.782	109
952.872	279
952.962	-422
953.052	-420
953.143	-387
953.233	623
953.323	69
953.413	-264
953.503	604
953.593	-369
953.683	-98
953.773	-589
953.863	131
953.953	74
954.042	-453
954.132	-147
954.222	-176
954.312	141
954.402	-57
954.492	128
954.581	-534
954.671	-267
954.761	-1222
954.850	712
954.940	10
955.030	-38
955.119	-1160
955.209	-218
955.298	-939
955.388	354
955.477	109
955.567	-225
955.656	330
955.746	254
955.835	-268
955.925	183
956.014	-126
956.103	-521
956.193	-262
956.282	35
956.371	-128
956.461	-59
956.550	-511
956.639	-561
956.728	-848
956.817	195
956.906	-591
956.995	-385
957.085	-1228
957.174	-389
957.263	-623
957.352	-105
957.441	-217
957.530	-289
957.619	92
957.708	186
957.796	-117
957.885	-312
957.974	-380
958.063	554
958.152	-1321
958.241	726
958.329	-387
958.418	-666
958.507	-1232
958.596	478
958.684	-1003
958.773	179
958.861	-296
958.950	-850
959.039	-723
959.127	-223
959.216	-274
959.304	88
959.393	-704
959.481	-283
959.570	565
959.658	-768
959.746	-1122
959.835	163
959.923	-1352
960.011	504
960.100	257
960.188	-457
960.276	-859
960.365	36
960.453	-126
960.541	-346
960.629	-211
960.717	-132
960.805	-1122
960.893	-238
960.981	-760
961.069	1026
961.158	-438
961.245	-202
961.333	-885
961.421	-912
961.509	355
961.597	503
961.685	-241
961.773	-137
961.861	-376
961.949	481
962.036	-964
962.124	-666
962.212	95
962.299	-768
962.387	-783
962.475	396
962.562	-1211
962.650	33
962.738	-500
962.825	-758
962.913	-586
963.000	-129
963.088	-836
963.175	5
963.263	-273
963.350	-977
963.438	-923
963.525	181
963.612	903
963.700	219
963.787	899
963.874	419
963.962	-765
964.049	591
964.136	-642
964.223	45
964.310	-435
964.398	-140
964.485	-231
964.572	731
964.659	-182
964.746	-752
964.833	-431
964.920	-622
965.007	-510
965.094	112
965.181	-736
965.268	-614
965.355	-344
965.441	-643
965.528	-746
965.615	1043
965.702	-214
965.789	-337
965.875	130
965.962	177
966.049	-891
966.136	277
966.222	-372
966.309	39
966.395	-642
966.482	397
966.569	-844
966.655	-984
966.742	-772
966.828	-297
966.915	-1210
967.001	-498
967.087	-1134
967.174	-751
967.260	-734
967.347	-592
967.433	-1118
967.519	584
967.605	-1227
967.692	-394
967.778	-125
967.864	-520
967.950	-1420
968.036	182
968.123	-181
968.209	-953
968.295	-955
968.381	822
968.467	-271
968.553	-1073
968.639	-131
968.725	-562
968.811	-382
968.897	1001
968.983	-719
969.069	-852
969.154	-124
969.240	129
969.326	-819
969.412	-511
969.497	-969
969.583	-1265
969.669	-159
969.755	264
969.840	-1026
969.926	-542
970.012	-1117
970.097	446
970.183	-579
970.268	118
970.354	-876
970.439	-1293
970.525	199
970.610	-1244
970.696	883
970.781	-267
970.866	-1949
970.952	-263
971.037	-1019
971.122	-527
971.208	-63
971.293	190
971.378	-1034
971.463	-193
971.549	-656
971.634	-158
971.719	-981
971.804	-446
971.889	57
971.974	-119
972.059	-273
972.144	-164
972.229	-542
972.314	-841
972.399	279
972.484	-443
972.569	-636
972.654	-1931
972.739	233
972.824	-261
972.908	-1016
972.993	-865
973.078	-1432
973.163	-812
973.247	-87
973.332	-1911
973.417	588
973.501	-667
973.586	-416
973.671	83
973.755	-525
973.840	-679
973.924	-19
974.009	-130
974.093	-1713
974.178	255
974.262	-527
974.346	-408
974.431	65
974.515	-571
974.600	-960
974.684	528
974.768	-101
974.852	307
974.937	-1815
975.021	127
975.105	-1364
975.189	370
975.273	-702
975.358	-1621
975.442	-1509
975.526	-24
975.610	-1074
975.694	-1230
975.778	152
975.862	-952
975.946	-2880
976.030	491
976.114	-1155
976.198	-506
976.281	-1078
976.365	-41
976.449	-1194
976.533	-982
976.617	-728
976.700	16
976.784	-573
976.868	-409
976.951	-1191
977.035	-706
977.119	-849
977.202	-600
977.286	-495
977.369	-247
977.453	-601
977.536	-164
977.620	-706
977.703	-809
977.787	-1624
977.870	540
977.953	111
978.037	-1117
978.120	-81
978.203	-789
978.287	-1054
978.370	-493
978.453	-711
978.536	-629
978.620	-183
978.703	-670
978.786	-885
978.869	-972
978.952	-1892
979.035	566
979.118	-703
979.201	-1321
979.284	-569
979.367	-1436
979.450	-203
979.533	-871
979.616	184
979.699	-305
979.782	-846
979.865	-342
979.948	-1107
980.030	-2151
980.113	-1219
980.196	-1375
980.279	-294
980.361	-1256
980.444	-516
980.526	-288
980.609	-544
980.692	-954
980.774	-1100
980.857	-1038
980.939	-243
981.022	-1224
981.104	-569
981.187	72
981.269	-646
981.352	-277
981.434	-1330
981.516	-555
981.599	401
981.681	-343
981.763	-904
981.846	-510
981.928	-805
982.010	-537
982.092	-2013
982.174	-324
982.256	-1133
982.339	-195
982.421	-486
982.503	-435
982.585	-1712
982.667	-569
982.749	-671
982.831	-1169
982.913	-1853
982.995	108
983.077	-1796
983.158	-43
983.240	-2248
983.322	-718
983.404	-866
983.486	-822
983.568	-177
983.649	-1020
983.731	340
983.813	-1204
983.894	-775
983.976	-1174
984.058	-1918
984.139	-555
984.221	-1460
984.302	103
984.384	-1259
984.465	-1046
984.547	-124
984.628	-1118
984.710	-840
984.791	-768
984.872	-1659
984.954	-1359
985.035	-526
985.116	-709
985.198	-1467
985.279	295
985.360	-1501
985.441	-1051
985.522	-224
985.604	-994
985.685	-2203
985.766	193
985.847	494
985.928	-1177
986.009	-564
986.090	-1050
986.171	-1008
986.252	-1339
986.333	-365
986.414	-1378
986.495	-1028
986.576	-847
986.656	-949
986.737	-174
986.818	-290
986.899	-769
986.980	-1494
987.060	264
987.141	-1860
987.222	41
987.302	-547
987.383	-536
987.464	-1204
987.544	-300
987.625	-1006
987.705	73
987.786	-1209
987.866	-595
987.947	-505
988.027	-92
988.108	-891
988.188	-649
988.268	-1185
988.349	-755
988.429	-31
988.509	25
988.589	-1127
988.670	-2579
988.750	510
988.830	-1089
988.910	-965
988.990	-784
989.070	-1193
989.151	-623
989.231	-1381
989.311	346
989.391	-102
989.471	-136
989.551	-1349
989.631	-1376
989.711	-26
989.791	-2006
989.870	-1260
989.950	-175
990.030	-1339
990.110	-1099
990.190	-1380
990.269	-949
990.349	-1134
990.429	-977
990.509	-223
990.588	-605
990.668	-336
990.747	-927
990.827	-686
990.907	-891
990.986	-661
991.066	-700
991.145	-1157
991.225	-510
991.304	-387
991.383	-337
991.463	-260
991.542	-284
991.622	-1244
991.701	-944
991.780	-1555
991.859	-900
991.939	-1721
992.018	-449
992.097	-329
992.176	220
992.256	-538
992.335	-1216
992.414	-1157
992.493	-377
992.572	-1279
992.651	22
992.730	-1508
992.809	-871
992.888	-1318
992.967	-1028
993.046	-925
993.125	-1565
993.203	-1074
993.282	-786
993.361	-1211
993.440	-693
993.519	-1681
993.597	-275
993.676	-1343
993.755	-19
993.834	-1179
993.912	-1148
993.991	-311
994.069	-2086
994.148	-1467
994.226	-1010
994.305	-1801
994.384	-1254
994.462	233
994.540	-1647
994.619	-2022
994.697	-643
994.776	-1990
994.854	-440
994.932	-1280
995.011	-1402
995.089	-1026
995.167	-810
995.245	-819
995.324	-1281
995.402	-604
995.480	-1049
995.558	-1818
995.636	-2182
995.714	-1484
995.792	854
995.870	-1417
995.948	-1198
996.026	-1051
996.104	-1812
996.182	-683
996.260	-1099
996.338	-788
996.416	-1257
996.494	-1527
996.572	-347
996.649	-851
996.727	-1861
996.805	-828
996.883	-1179
996.960	-1237
997.038	-914
997.116	-1158
997.193	-1461
997.271	-1109
997.348	-1273
997.426	-1269
997.504	-1567
997.581	-237
997.658	-561
997.736	-2007
997.813	-712
997.891	-135
997.968	-1211
998.046	-1006
998.123	-871
998.200	-1558
998.277	-2084
998.355	-1276
998.432	-1741
998.509	-1281
998.586	-859
998.663	-1206
998.741	-1289
998.818	-2087
998.895	-1387
998.972	-651
999.049	-876
999.126	-130
999.203	-629
999.280	-1242
999.357	-1377
999.434	-1382
999.511	-1158
999.587	-678
999.664	-541
999.741	-1704
999.818	-623
999.895	-1403
999.971	-1837
1000.048	-853
1000.125	362
1000.202	-1613
1000.278	-1158
1000.355	-923
1000.431	-1385
1000.508	-1290
1000.584	-850
1000.661	-1046
1000.738	-1610
1000.814	-1161
1000.890	-473
1000.967	-960
1001.043	-860
1001.120	-2467
1001.196	-1125
1001.272	-1389
1001.349	-1074
1001.425	-2152
1001.501	-1150
1001.577	-1550
1001.654	-1072
1001.730	-1204
1001.806	-906
1001.882	-2332
1001.958	-580
1002.034	-1039
1002.110	-1839
1002.186	-1822
1002.262	-916
1002.338	-2293
1002.414	-1097
1002.490	-491
1002.566	-1698
1002.642	-2384
1002.718	-374
1002.794	-1424
1002.870	-1026
1002.945	-1555
1003.021	-926
1003.097	-1343
1003.173	-750
1003.248	-1966
1003.324	-357
1003.400	-998
1003.475	-1747
1003.551	-964
1003.626	-663
1003.702	-1099
1003.777	-1124
1003.853	-1476
1003.928	-1530
1004.004	-1132
1004.079	-1256
1004.155	-1171
1004.230	-1502
1004.305	-385
1004.381	-1088
1004.456	-1304
1004.531	-1309
1004.607	-1467
1004.682	-1599
1004.757	-1731
1004.832	-1106
1004.907	-1370
1004.982	-1035
1005.057	-1010
1005.133	-664
1005.208	-1507
1005.283	-2050
1005.358	-700
1005.433	-1453
1005.508	-1213
1005.583	-2346
1005.657	-1346
1005.732	-195
1005.807	-1257
1005.882	-1163
1005.957	-1501
1006.032	-578
1006.106	-1802
1006.181	-621
1006.256	-1295
1006.331	-2220
1006.405	-1412
1006.480	-1450
1006.554	-1731
1006.629	-589
1006.704	-2012
1006.778	-1141
1006.853	-988
1006.927	-921
1007.002	-1160
1007.076	-1009
1007.150	-1079
1007.225	-637
1007.299	-1563
1007.373	-2717
1007.448	-1651
1007.522	-292
1007.596	-1908
1007.671	-694
1007.745	-785
1007.819	-2493
1007.893	-1193
1007.967	-625
1008.041	-2749
1008.115	-1110
1008.190	-2021
1008.264	-962
1008.338	-2902
1008.412	-1599
1008.486	-1753
1008.560	-1464
1008.633	-1973
1008.707	-1288
1008.781	-1534
1008.855	-666
1008.929	-1380
1009.003	-2183
1009.076	-2098
1009.150	-334
1009.224	-1955
1009.298	-954
1009.371	-2705
1009.445	-968
1009.519	-1261
1009.592	-2079
1009.666	-1968
1009.739	-628
1009.813	-1966
1009.886	-184
1009.960	-2274
1010.033	-1003
1010.107	-1741
1010.180	-2303
1010.253	-1654
1010.327	-1760
1010.400	-1720
1010.473	-1504
1010.547	-448
1010.620	-1306
1010.693	-1736
1010.766	-1561
1010.840	-1396
1010.913	-1157
1010.986	-2325
1011.059	-1610
1011.132	-1461
1011.205	-795
1011.278	-1122
1011.351	-1568
1011.424	-1419
1011.497	-1727
1011.570	-1794
1011.643	-1790
1011.716	-2017
1011.789	-1924
1011.862	-2713
1011.934	-1002
1012.007	-2275
1012.080	-1675
1012.153	-1678
1012.225	-1101
1012.298	-1852
1012.371	-2626
1012.443	-1238
1012.516	-2026
1012.588	-1812
1012.661	-2107
1012.733	-2418
1012.806	-523
1012.879	-2002
1012.951	-1418
1013.023	-1772
1013.096	-1018
1013.168	-2196
1013.241	-1276
1013.313	-978
1013.385	-2175
1013.458	-1689
1013.530	-1462
1013.602	-2105
1013.674	-221
1013.746	-2178
1013.819	-2129
1013.891	-1475
1013.963	-2701
1014.035	-1673
1014.107	-1457
1014.179	-1694
1014.251	-2330
1014.323	-1256
1014.395	-912
1014.467	-1939
1014.539	-989
1014.611	-2779
1014.683	-2179
1014.754	-1652
1014.826	-2173
1014.898	-1066
1014.970	-2650
1015.042	-865
1015.113	-691
1015.185	-1146
1015.257	-2443
1015.328	-1462
1015.400	-1683
1015.471	-1532
1015.543	-2532
1015.615	-1566
1015.686	-1907
1015.757	-1777
1015.829	-1210
1015.901	-1867
1015.972	-1751
1016.043	-1625
1016.115	-1674
1016.186	-1781
1016.257	-2159
1016.328	-1099
1016.400	-1559
1016.471	-2087
1016.542	-1585
1016.613	-1634
1016.685	-1190
1016.756	-716
1016.827	-1563
1016.898	-2681
1016.969	-816
1017.040	-2025
1017.111	-1803
1017.182	-1795
1017.253	-634
1017.324	-1173
1017.395	-1155
1017.466	-1808
1017.537	-1311
1017.608	-1589
1017.678	-2150
1017.749	-1778
1017.820	-1975
1017.891	-2109
1017.961	-1249
1018.032	-1776
1018.103	-1641
1018.173	-1633
1018.244	-1784
1018.315	-1753
1018.385	-1538
1018.456	-2213
1018.526	-1989
1018.597	-2154
1018.667	-1213
1018.738	-1691
1018.808	-1040
1018.878	-2106
1018.949	-1685
1019.019	-1938
1019.089	-787
1019.160	-1074
1019.230	-2371
1019.300	-395
1019.371	-1867
1019.441	-1761
1019.511	-1512
1019.581	-985
1019.651	-2197
1019.721	-1590
1019.791	-1113
1019.861	-2206
1019.931	-1804
1020.001	-1387
1020.071	-2165
1020.141	-2412
1020.211	-1015
1020.281	-1902
1020.351	-1925
1020.421	-1083
1020.491	-1721
1020.560	-1990
1020.630	-1980
1020.700	-1187
1020.770	-1156
1020.839	-2162
1020.909	-1384
1020.979	-1848
1021.048	-1342
1021.118	-2340
1021.187	-2043
1021.257	-2082
1021.326	-771
1021.396	-2083
1021.465	-1611
1021.535	-1918
1021.604	-2434
1021.674	-1222
1021.743	-1445
1021.812	-2341
1021.882	-2022
1021.951	-1458
1022.020	-1480
1022.089	-1971
1022.159	-2422
1022.228	-1764
1022.297	-1779
1022.366	-2118
1022.435	-2054
1022.504	-1538
1022.573	-2383
1022.642	-2580
1022.711	-1998
1022.781	-2082
1022.849	-1816
1022.918	-1264
1022.987	-1852
1023.056	-2635
1023.125	-2242
1023.194	-1225
1023.263	-892
1023.331	-1543
1023.400	-2291
1023.469	-2447
1023.538	-972
1023.606	-2023
1023.675	-1601
1023.744	-2640
1023.812	-2269
1023.881	-1020
1023.949	-1831
1024.018	-1659
1024.086	-1798
1024.155	-1788
1024.223	-2171
1024.292	-791
1024.360	-1095
1024.429	-1682
1024.497	-1771
1024.565	-1367
1024.634	-2201
1024.702	-1459
1024.770	-1558
1024.838	-2737
1024.907	-1735
1024.975	-1935
1025.043	-356
1025.111	-1590
1025.179	-1711
1025.247	-1868
1025.315	-1119
1025.383	-2297
1025.451	-1464
1025.519	-1736
1025.587	-1577
1025.655	-1713
1025.723	-1897
1025.791	-1021
1025.859	-1384
1025.927	-1221
1025.995	-1775
1026.062	-1372
1026.130	-2060
1026.198	-1704
1026.266	-1972
1026.333	-1702
1026.401	-795
1026.469	-1971
1026.536	-1754
1026.604	-1185
1026.671	-1587
1026.739	-2480
1026.806	-1646
1026.874	-2574
1026.941	-1491
1027.009	-2047
1027.076	-1419
1027.144	-1629
1027.211	-1562
1027.278	-1554
1027.345	-1570
1027.413	-1664
1027.480	-2047
1027.547	-2052
1027.614	-1426
1027.682	-1847
1027.749	-1763
1027.816	-2576
1027.883	-2560
1027.950	-1761
1028.017	-1211
1028.084	-1484
1028.151	-1715
1028.218	-1824
1028.285	-1248
1028.352	-1273
1028.419	-1878
1028.486	-1739
1028.553	-1414
1028.619	-1982
1028.686	-1708
1028.753	-2211
1028.820	-936
1028.886	-760
1028.953	-1600
1029.020	-2052
1029.086	-2357
1029.153	-1806
1029.220	-1454
1029.286	-1226
1029.353	-1342
1029.419	-1986
1029.486	-1610
1029.552	-1776
1029.619	-1583
1029.685	-1651
1029.751	-1801
1029.818	-330
1029.884	-1447
1029.951	-1459
1030.017	-1066
1030.083	-1692
1030.149	-1170
1030.216	-1497
1030.282	-855
1030.348	-680
1030.414	-1442
1030.480	-2318
1030.546	-2166
1030.612	-1590
1030.678	-769
1030.744	-1433
1030.810	-1413
1030.876	-2088
1030.942	-1807
1031.008	-1894
1031.074	-1700
1031.140	-1825
1031.206	-1314
1031.272	-2487
1031.337	-1009
1031.403	-914
1031.469	-1759
1031.534	-1757
1031.600	-1424
1031.666	-2305
1031.731	-1830
1031.797	-1050
1031.863	-1884
1031.928	-1981
1031.994	-1979
1032.059	-2020
1032.125	-1460
1032.190	-1805
1032.256	-1458
1032.321	-2109
1032.386	-1385
1032.452	-1625
1032.517	-1539
1032.582	-1902
1032.647	-1855
1032.713	-2097
1032.778	-1685
1032.843	-2284
1032.908	-2139
1032.974	-1786
1033.039	-2227
1033.104	-1620
1033.169	-1668
1033.234	-1932
1033.299	-1538
1033.364	-1463
1033.429	-1890
1033.494	-1818
1033.559	-1744
1033.624	-1292
1033.688	-809
1033.753	-2513
1033.818	-1507
1033.883	-1809
1033.948	-1091
1034.013	-2089
1034.077	-1229
1034.142	-1280
1034.207	-2032
1034.271	-1049
1034.336	-1689
1034.400	-811
1034.465	-1212
1034.530	-2501
1034.594	-1683
1034.658	-837
1034.723	-1579
1034.787	-2155
1034.852	-1789
1034.916	-1730
1034.981	-1928
1035.045	-2516
1035.109	-2026
1035.173	-1463
1035.238	-2680
1035.302	-2078
1035.366	-2005
1035.430	-1520
1035.495	-803
1035.559	-1501
1035.623	-1472
1035.687	-2474
1035.751	-1904
1035.815	-1991
1035.879	-2120
1035.943	-2154
1036.007	-1667
1036.071	-2297
1036.135	-2179
1036.198	-2204
1036.262	-2281
1036.326	-1759
1036.390	-1708
1036.454	-2377
1036.517	-2175
1036.581	-1771
1036.645	-1747
1036.709	-1896
1036.772	-1497
1036.836	-2104
1036.900	-1938
1036.963	-2610
1037.026	-2291
1037.090	-2627
1037.154	-1794
1037.217	-1059
1037.280	-2273
1037.344	-2084
1037.407	-1757
1037.471	-2273
1037.534	-1560
1037.597	-2361
1037.661	-1985
1037.724	-2160
1037.787	-1747
1037.850	-2024
1037.913	-2297
1037.977	-1271
1038.040	-2111
1038.103	-1651
1038.166	-2125
1038.229	-1615
1038.292	-2073
1038.355	-1831
1038.418	-2048
1038.481	-2091
1038.544	-1405
1038.607	-2180
1038.670	-1877
1038.732	-2106
1038.795	-1967
1038.858	-1660
1038.921	-1577
1038.984	-2090
1039.046	-1439
1039.109	-2956
1039.172	-1847
1039.234	-1525
1039.297	-2608
1039.360	-2322
1039.422	-2244
1039.485	-1974
1039.547	-2385
1039.610	-2316
1039.672	-1565
1039.734	-1912
1039.797	-1490
1039.859	-2282
1039.922	-1925
1039.984	-1962
1040.046	-1933
1040.109	-1997
1040.171	-2222
1040.233	-2541
1040.295	-2202
1040.358	-2463
1040.420	-2050
1040.482	-3079
1040.544	-1468
1040.606	-2752
1040.668	-1881
1040.730	-2247
1040.792	-2066
1040.854	-2490
1040.916	-1550
1040.978	-2020
1041.040	-1344
1041.102	-1493
1041.164	-2139
1041.225	-2471
1041.287	-2160
1041.349	-2754
1041.411	-1756
1041.472	-2282
1041.534	-2477
1041.596	-2192
1041.657	-2108
1041.719	-2633
1041.781	-1616
1041.842	-1341
1041.904	-2230
1041.965	-3388
1042.027	-2091
1042.088	-2819
1042.150	-1897
1042.211	-2593
1042.272	-724
1042.334	-2248
1042.395	-1771
1042.456	-2459
1042.518	-1278
1042.579	-2325
1042.640	-2192
1042.701	-2985
1042.763	-2472
1042.824	-3366
1042.885	-1612
1042.946	-2668
1043.007	-1589
1043.068	-1746
1043.129	-2247
1043.190	-1823
1043.251	-1932
1043.312	-1950
1043.373	-1539
1043.434	-2289
1043.495	-1736
1043.556	-2152
1043.616	-2052
1043.677	-2171
1043.738	-2093
1043.799	-2471
1043.859	-2053
1043.920	-3138
1043.981	-2290
1044.041	-1731
1044.102	-2232
1044.162	-2702
1044.223	-1448
1044.284	-2020
1044.344	-1904
1044.405	-2950
1044.465	-2004
1044.525	-2786
1044.586	-1887
1044.646	-2173
1044.707	-1977
1044.767	-2569
1044.827	-1675
1044.887	-1731
1044.948	-1432
1045.008	-2529
1045.068	-2758
1045.128	-2039
1045.188	-2165
1045.249	-1581
1045.309	-1886
1045.369	-2112
1045.429	-1509
1045.489	-1664
1045.549	-2126
1045.609	-2888
1045.669	-1947
1045.729	-2004
1045.789	-1473
1045.848	-1400
1045.908	-1902
1045.968	-2371
1046.028	-1786
1046.088	-1820
1046.147	-1939
1046.207	-2360
1046.267	-1568
1046.326	-1692
1046.386	-1350
1046.446	-2189
1046.505	-923
1046.565	-913
1046.624	-708
1046.684	-1283
1046.743	-703
1046.803	-964
1046.862	-479
1046.922	0
