'Start Wavelength	183.907
'End Wavelength	1046.922
'Gate Delay	5.000
'Gate Width (ms)	1.050
'Laser Output Level	0.000
'X Position	0.000
'Y Position	0.000
'Z Position	0.000
'Grid Point Number	1.000
'Shot Number	100.000
183.907	-298.000
183.977	-662.000
184.047	-47
184.116	698
184.186	218
184.256	200
184.325	329
184.395	-678
184.465	29
184.534	217
184.604	127
184.674	560
184.743	-594
184.813	204
184.883	-80
184.952	380
185.022	-535
185.092	-141
185.161	-93
185.231	140
185.301	-223
185.370	290
185.440	-64
185.509	770
185.579	-100
185.649	44
185.718	-421
185.788	813
185.857	258
185.927	62
185.996	-132
186.066	368
186.136	-850
186.205	-215
186.275	-116
186.344	407
186.414	-275
186.483	68
186.553	1004
186.622	1243
186.692	38
186.761	-51
186.831	-135
186.900	563
186.970	189
187.039	935
187.109	485
187.178	390
187.248	494
187.317	305
187.387	-33
187.456	501
187.526	-404
187.595	1052
187.664	157
187.734	959
187.803	-33
187.873	913
187.942	-309
188.012	722
188.081	52
188.150	462
188.220	549
188.289	901
188.358	-191
188.428	813
188.497	-573
188.567	1132
188.636	555
188.705	27
188.775	472
188.844	254
188.913	156
188.983	309
189.052	1128
189.121	245
189.191	451
189.260	499
189.329	472
189.399	1072
189.468	-41
189.537	-157
189.606	428
189.676	893
189.745	64
189.814	979
189.883	-162
189.953	606
190.022	53
190.091	675
190.161	905
190.230	1260
190.299	429
190.368	447
190.437	-360
190.507	485
190.576	265
190.645	171
190.714	235
190.783	157
190.853	580
190.922	1009
190.991	223
191.060	627
191.129	347
191.198	776
191.268	-72
191.337	253
191.406	884
191.475	112
191.544	-163
191.613	695
191.682	128
191.752	823
191.821	275
191.890	286
191.959	265
192.028	1044
192.097	725
192.166	317
192.235	-825
192.304	490
192.373	222
192.442	834
192.511	137
192.580	383
192.650	469
192.719	173
192.788	212
192.857	1326
192.926	403
192.995	716
193.064	475
193.133	1325
193.202	1211
193.271	1632
193.340	1315
193.409	1488
193.478	1131
193.547	1331
193.615	2326
193.684	1766
193.753	1090
193.822	2031
193.891	632
193.960	1051
194.029	222
194.098	1271
194.167	298
194.236	564
194.305	128
194.374	893
194.443	187
194.512	240
194.580	404
194.649	788
194.718	964
194.787	535
194.856	189
194.925	937
194.994	174
195.062	238
195.131	583
195.200	849
195.269	686
195.338	629
195.407	637
195.475	493
195.544	910
195.613	479
195.682	1026
195.751	100
195.819	982
195.888	947
195.957	868
196.026	942
196.094	1032
196.163	1231
196.232	1321
196.301	635
196.369	382
196.438	701
196.507	372
196.576	707
196.644	495
196.713	637
196.782	43
196.850	1282
196.919	705
196.988	807
197.056	-142
197.125	1182
197.194	916
197.262	634
197.331	878
197.400	-93
197.468	207
197.537	360
197.606	116
197.674	2149
197.743	1584
197.812	1013
197.880	1100
197.949	986
198.017	1552
198.086	423
198.155	399
198.223	1167
198.292	1685
198.360	1057
198.429	45
198.497	1510
198.566	1457
198.635	2147
198.703	514
198.772	1122
198.840	2007
198.909	2373
198.977	778
199.046	1002
199.114	898
199.183	636
199.251	637
199.320	321
199.388	132
199.457	-94
199.525	100
199.594	241
199.662	638
199.731	1343
199.799	643
199.867	498
199.936	781
200.004	927
200.073	1239
200.141	742
200.210	477
200.278	331
200.346	1433
200.415	1601
200.483	1155
200.552	1595
200.620	710
200.688	848
200.757	238
200.825	1635
200.893	117
200.962	807
201.030	618
201.098	-109
201.167	1283
201.235	705
201.303	773
201.372	1686
201.440	711
201.508	452
201.577	1120
201.645	1421
201.713	481
201.781	1078
201.850	676
201.918	354
201.986	403
202.055	278
202.123	652
202.191	791
202.259	840
202.327	905
202.396	1044
202.464	727
202.532	1050
202.600	3150
202.669	1199
202.737	689
202.805	341
202.873	1003
202.941	1123
203.009	1085
203.078	1063
203.146	1462
203.214	508
203.282	580
203.350	1036
203.418	1157
203.487	892
203.555	226
203.623	997
203.691	990
203.759	227
203.827	1217
203.895	1002
203.963	957
204.031	542
204.099	1470
204.168	953
204.236	1163
204.304	1328
204.372	896
204.440	105
204.508	826
204.576	281
204.644	735
204.712	668
204.780	1181
204.848	965
204.916	1269
204.984	363
205.052	1518
205.120	811
205.188	948
205.256	778
205.324	746
205.392	689
205.460	1180
205.528	904
205.596	1548
205.664	511
205.732	1043
205.799	1917
205.867	3963
205.935	981
206.003	2326
206.071	676
206.139	1306
206.207	1217
206.275	1332
206.343	1061
206.411	677
206.478	707
206.546	2047
206.614	1093
206.682	1523
206.750	1323
206.818	1199
206.885	2004
206.953	734
207.021	1901
207.089	1387
207.157	1116
207.225	1423
207.292	718
207.360	1650
207.428	1043
207.496	2019
207.563	1012
207.631	1453
207.699	726
207.767	1590
207.834	1254
207.902	1068
207.970	652
208.038	1456
208.105	691
208.173	1338
208.241	1949
208.309	2636
208.376	1604
208.444	3017
208.512	747
208.579	1175
208.647	1843
208.715	2258
208.782	606
208.850	1732
208.918	1521
208.985	1677
209.053	1489
209.120	2434
209.188	716
209.256	1168
209.323	986
209.391	2206
209.459	3247
209.526	1996
209.594	1030
209.661	1596
209.729	2210
209.796	1027
209.864	1791
209.932	-376
209.999	2562
210.067	2345
210.134	2079
210.202	1879
210.269	1704
210.337	2091
210.404	1666
210.472	1781
210.539	1622
210.607	1605
210.674	1596
210.742	1691
210.809	2049
210.877	2482
210.944	2428
211.012	1508
211.079	2983
211.146	1219
211.214	1627
211.281	2949
211.349	1860
211.416	2692
211.484	2390
211.551	2066
211.618	1804
211.686	2563
211.753	748
211.821	2302
211.888	1414
211.955	1721
212.023	1762
212.090	2787
212.157	1224
212.225	2261
212.292	3567
212.359	4932
212.427	9994
212.494	5163
212.561	3784
212.629	2809
212.696	2218
212.763	2204
212.831	1656
212.898	1823
212.965	1610
213.032	2406
213.100	1259
213.167	2887
213.234	2973
213.301	2734
213.369	1308
213.436	1363
213.503	1669
213.570	3145
213.638	2298
213.705	1805
213.772	1699
213.839	1812
213.906	2524
213.973	1966
214.041	2267
214.108	3011
214.175	2290
214.242	1146
214.309	2116
214.376	2043
214.444	1543
214.511	3066
214.578	2033
214.645	3211
214.712	2490
214.779	2441
214.846	2476
214.913	3082
214.980	2920
215.048	3473
215.115	3474
215.182	2952
215.249	2267
215.316	2150
215.383	3092
215.450	2617
215.517	2110
215.584	1963
215.651	1927
215.718	2175
215.785	2728
215.852	2719
215.919	2358
215.986	2406
216.053	2027
216.120	1352
216.187	1921
216.254	3218
216.321	1438
216.388	2726
216.455	2102
216.522	2759
216.589	3001
216.656	3668
216.722	4141
216.789	3854
216.856	3401
216.923	3828
216.990	3421
217.057	3167
217.124	3197
217.191	3079
217.258	4220
217.324	5166
217.391	4464
217.458	3624
217.525	3305
217.592	3012
217.659	1422
217.725	2901
217.792	3353
217.859	4393
217.926	1905
217.993	2895
218.059	2914
218.126	2656
218.193	1687
218.260	2185
218.327	1042
218.393	2337
218.460	1402
218.527	1538
218.594	1510
218.660	3072
218.727	3736
218.794	1245
218.860	2572
218.927	1462
218.994	1212
219.061	1326
219.127	2149
219.194	2728
219.261	2322
219.327	1777
219.394	2903
219.461	754
219.527	2028
219.594	2463
219.661	1815
219.727	1369
219.794	1497
219.860	1738
219.927	2070
219.994	3918
220.060	4682
220.127	5010
220.193	3963
220.260	3359
220.326	4681
220.393	6142
220.460	6656
220.526	5522
220.593	3990
220.659	5288
220.726	4711
220.792	8042
220.859	8066
220.925	10360
220.992	10636
221.058	10850
221.125	9198
221.191	7591
221.258	3691
221.324	3391
221.391	3742
221.457	2237
221.524	2451
221.590	3606
221.657	6990
221.723	5799
221.789	5542
221.856	4859
221.922	2880
221.989	2825
222.055	2177
222.121	2286
222.188	3876
222.254	3040
222.321	2273
222.387	1393
222.453	1837
222.520	2076
222.586	1731
222.652	1761
222.719	1210
222.785	2413
222.851	1312
222.918	2160
222.984	1301
223.050	1962
223.116	1012
223.183	2516
223.249	691
223.315	855
223.382	1686
223.448	821
223.514	441
223.580	284
223.647	1230
223.713	1119
223.779	1332
223.845	2455
223.911	1372
223.978	1033
224.044	1195
224.110	1274
224.176	1961
224.242	1360
224.309	690
224.375	2068
224.441	1183
224.507	1012
224.573	969
224.639	2449
224.705	362
224.772	1295
224.838	799
224.904	1946
224.970	1903
225.036	1200
225.102	852
225.168	1928
225.234	1781
225.300	1301
225.366	1762
225.432	1599
225.499	1691
225.565	1942
225.631	2145
225.697	2125
225.763	2481
225.829	2725
225.895	3072
225.961	4332
226.027	4622
226.093	3884
226.159	5481
226.225	7570
226.291	13241
226.357	19560
226.423	11009
226.489	7445
226.554	5775
226.620	4805
226.686	5930
226.752	9671
226.818	13713
226.884	22714
226.950	19861
227.016	10456
227.082	6875
227.148	5338
227.214	4760
227.279	4128
227.345	3374
227.411	3937
227.477	4666
227.543	8438
227.609	7842
227.674	6456
227.740	2880
227.806	2773
227.872	3248
227.938	2628
228.003	3438
228.069	3302
228.135	1694
228.201	2488
228.267	2021
228.332	2760
228.398	1793
228.464	2397
228.530	472
228.595	2213
228.661	955
228.727	3251
228.792	3137
228.858	1633
228.924	693
228.990	3154
229.055	1378
229.121	3988
229.187	949
229.252	1969
229.318	1421
229.384	2326
229.449	1666
229.515	-438
229.581	539
229.646	2772
229.712	1698
229.777	4014
229.843	4234
229.909	3696
229.974	3403
230.040	4342
230.105	2407
230.171	3101
230.236	3403
230.302	4654
230.368	3803
230.433	2771
230.499	2842
230.564	4227
230.630	1570
230.695	2313
230.761	3292
230.826	1603
230.892	3464
230.957	1513
231.023	1992
231.088	2538
231.154	2493
231.219	1795
231.284	2919
231.350	4382
231.415	1628
231.481	2216
231.546	2270
231.612	2116
231.677	1138
231.742	569
231.808	2753
231.873	1492
231.939	239
232.004	4066
232.069	3374
232.135	1603
232.200	1708
232.265	2135
232.331	1934
232.396	1273
232.461	1324
232.527	796
232.592	793
232.657	2315
232.723	1800
232.788	1541
232.853	1962
232.918	1023
232.984	431
233.049	1732
233.114	1201
233.179	2477
233.245	3292
233.310	2918
233.375	505
233.440	2133
233.506	1789
233.571	986
233.636	1511
233.701	1831
233.766	2544
233.832	3189
233.897	894
233.962	902
234.027	3141
234.092	1803
234.157	2233
234.222	1774
234.288	2664
234.353	5979
234.418	4959
234.483	3608
234.548	3619
234.613	3130
234.678	4135
234.743	2781
234.808	7133
234.873	4459
234.938	3528
235.004	2923
235.069	2685
235.134	2030
235.199	2719
235.264	2776
235.329	1246
235.394	2822
235.459	2789
235.524	1905
235.589	2768
235.654	2293
235.719	502
235.784	2736
235.849	1632
235.913	3738
235.978	3315
236.043	3761
236.108	2746
236.173	2062
236.238	3354
236.303	3118
236.368	2210
236.433	4428
236.498	4719
236.563	5496
236.627	11787
236.692	29899
236.757	27077
236.822	13105
236.887	7854
236.952	7583
237.017	4993
237.081	8012
237.146	8232
237.211	18130
237.276	30794
237.341	40672
237.405	24852
237.470	12457
237.535	7487
237.600	6239
237.664	4362
237.729	3854
237.794	5311
237.859	11174
237.923	6584
237.988	4128
238.053	3890
238.118	4024
238.182	8192
238.247	8610
238.312	2942
238.376	3076
238.441	1413
238.506	4554
238.570	1288
238.635	3755
238.700	2117
238.764	1908
238.829	3865
238.893	4563
238.958	4598
239.023	3407
239.087	2066
239.152	3367
239.216	1859
239.281	3286
239.346	2539
239.410	2619
239.475	2457
239.539	8840
239.604	5767
239.668	3216
239.733	3113
239.797	5352
239.862	14312
239.926	12290
239.991	5789
240.055	3602
240.120	2330
240.184	2948
240.249	1545
240.313	2002
240.378	2211
240.442	5486
240.507	7226
240.571	3477
240.635	3197
240.700	5284
240.764	2273
240.829	3058
240.893	1582
240.957	2973
241.022	5009
241.086	6699
241.151	2726
241.215	925
241.279	3049
241.344	3241
241.408	3938
241.472	3734
241.537	4265
241.601	3907
241.665	3056
241.730	2660
241.794	3356
241.858	3131
241.922	3917
241.987	3252
242.051	2186
242.115	2734
242.179	3067
242.244	2743
242.308	2541
242.372	2892
242.436	3042
242.501	3429
242.565	1896
242.629	2202
242.693	3261
242.757	2569
242.822	1892
242.886	3253
242.950	3465
243.014	2179
243.078	3491
243.142	3183
243.206	2844
243.271	3807
243.335	3132
243.399	5852
243.463	13832
243.527	37833
243.591	12884
243.655	6511
243.719	3036
243.783	4919
243.847	5902
243.911	8746
243.975	8391
244.040	6150
244.104	4889
244.168	3425
244.232	4445
244.296	6362
244.360	7635
244.424	4309
244.488	2535
244.552	3548
244.615	1686
244.679	2944
244.743	3766
244.807	2896
244.871	2970
244.935	2583
244.999	1623
245.063	2749
245.127	2734
245.191	4677
245.255	4730
245.319	4518
245.383	3065
245.446	4432
245.510	1168
245.574	2422
245.638	3262
245.702	2237
245.766	7027
245.829	5352
245.893	3036
245.957	3597
246.021	3814
246.085	3421
246.149	2751
246.212	10474
246.276	14385
246.340	6451
246.404	4922
246.467	5747
246.531	5320
246.595	5094
246.659	4286
246.722	2722
246.786	4843
246.850	5544
246.913	7045
246.977	2417
247.041	2763
247.104	4315
247.168	3896
247.232	9020
247.295	17652
247.359	10138
247.423	4817
247.486	9121
247.550	5437
247.614	3622
247.677	5569
247.741	3968
247.804	3193
247.868	4412
247.932	7872
247.995	18822
248.059	6510
248.122	3704
248.186	6180
248.249	9176
248.313	27272
248.376	30556
248.440	20076
248.503	7884
248.567	7716
248.630	9117
248.694	12844
248.757	16652
248.821	30658
248.884	20677
248.948	17052
249.011	25161
249.075	34833
249.138	29993
249.202	12896
249.265	8265
249.328	8459
249.392	6981
249.455	7277
249.519	6928
249.582	6727
249.645	10658
249.709	8909
249.772	6366
249.835	5845
249.899	5936
249.962	6985
250.025	5901
250.089	11507
250.152	16184
250.215	8190
250.279	6225
250.342	6221
250.405	6605
250.468	6161
250.532	8481
250.595	12556
250.658	34678
250.721	57433
250.785	24915
250.848	14301
250.911	7765
250.974	7753
251.038	10445
251.101	19644
251.164	11163
251.227	11350
251.290	10501
251.354	15950
251.417	49454
251.480	51764
251.543	38397
251.606	82568
251.669	68736
251.732	32024
251.795	30663
251.859	29361
251.922	55698
251.985	36762
252.048	16529
252.111	12815
252.174	10529
252.237	19070
252.300	39002
252.363	39933
252.426	71710
252.489	33024
252.552	17706
252.615	11594
252.678	13617
252.741	29242
252.804	36802
252.867	71228
252.930	47539
252.993	26133
253.056	16394
253.119	11868
253.182	8527
253.245	13894
253.308	11638
253.371	9248
253.434	8568
253.497	8910
253.559	17463
253.622	11610
253.685	13077
253.748	13983
253.811	7934
253.874	7831
253.937	7577
254.000	6481
254.062	12121
254.125	18203
254.188	17684
254.251	14696
254.314	7091
254.376	11774
254.439	14066
254.502	11348
254.565	12300
254.628	22027
254.690	12390
254.753	6338
254.816	5478
254.878	6839
254.941	13377
255.004	12281
255.067	6317
255.129	5963
255.192	3790
255.255	3123
255.317	5184
255.380	3578
255.443	2556
255.505	1775
255.568	2245
255.631	2358
255.693	4250
255.756	2697
255.819	3386
255.881	1906
255.944	2526
256.006	2204
256.069	2778
256.132	2267
256.194	3363
256.257	6256
256.319	5583
256.382	4440
256.444	5386
256.507	3685
256.569	3941
256.632	4241
256.694	6795
256.757	18821
256.819	54137
256.882	24754
256.944	10651
257.007	7653
257.069	7831
257.132	5755
257.194	5850
257.257	5957
257.319	5779
257.381	6883
257.444	16522
257.506	57802
257.569	68471
257.631	33077
257.693	17796
257.756	8218
257.818	6088
257.880	4737
257.943	5371
258.005	3584
258.067	4662
258.130	4911
258.192	4692
258.254	7106
258.317	5356
258.379	4751
258.441	12597
258.503	10503
258.566	9613
258.628	10803
258.690	4668
258.753	5080
258.815	8517
258.877	5020
258.939	3306
259.001	4384
259.064	3730
259.126	3706
259.188	4767
259.250	4352
259.312	6683
259.375	13375
259.437	9519
259.499	4961
259.561	4370
259.623	4911
259.685	4003
259.747	4448
259.809	9095
259.872	14350
259.934	23672
259.996	25779
260.058	9297
260.120	3384
260.182	3252
260.244	3683
260.306	3520
260.368	3748
260.430	3176
260.492	8053
260.554	16117
260.616	9711
260.678	14383
260.740	16027
260.802	5867
260.864	5185
260.926	3153
260.988	5141
261.050	4514
261.112	10735
261.174	22448
261.236	13368
261.298	6306
261.359	6207
261.421	9831
261.483	3811
261.545	4935
261.607	2215
261.669	3810
261.731	4357
261.793	11429
261.854	6334
261.916	4387
261.978	4784
262.040	5220
262.102	3495
262.164	3986
262.225	3577
262.287	3398
262.349	8843
262.411	8183
262.472	4065
262.534	3953
262.596	8173
262.658	4579
262.719	2602
262.781	3547
262.843	6548
262.904	4640
262.966	3857
263.028	5333
263.090	19343
263.151	53402
263.213	20103
263.275	11610
263.336	5196
263.398	4428
263.459	1971
263.521	3908
263.583	9000
263.644	6987
263.706	2818
263.767	1970
263.829	2404
263.891	2134
263.952	1877
264.014	1384
264.075	4830
264.137	14658
264.198	6184
264.260	2660
264.321	3123
264.383	7917
264.444	21970
264.506	7499
264.567	3965
264.629	9093
264.690	18481
264.752	7247
264.813	4620
264.875	3130
264.936	3831
264.998	3556
265.059	3447
265.120	4298
265.182	6058
265.243	29104
265.305	33914
265.366	8958
265.427	4445
265.489	3719
265.550	2227
265.611	4170
265.673	3852
265.734	3525
265.795	3337
265.857	3736
265.918	3147
265.979	8885
266.040	45495
266.102	43622
266.163	12914
266.224	9409
266.286	5217
266.347	2728
266.408	3388
266.469	3345
266.530	3369
266.592	2719
266.653	4901
266.714	9588
266.775	3750
266.836	2565
266.898	2130
266.959	5107
267.020	4254
267.081	3728
267.142	2562
267.203	2302
267.264	1225
267.326	3780
267.387	1828
267.448	2003
267.509	2564
267.570	2126
267.631	1840
267.692	2036
267.753	2740
267.814	2512
267.875	5944
267.936	13859
267.997	8213
268.058	6789
268.119	3410
268.180	3896
268.241	2377
268.302	2605
268.363	1852
268.424	2476
268.485	2360
268.546	2276
268.607	768
268.668	1316
268.729	1541
268.790	2846
268.851	2363
268.912	8442
268.972	9248
269.033	4652
269.094	2363
269.155	2696
269.216	1575
269.277	2943
269.338	2518
269.398	2569
269.459	2448
269.520	4183
269.581	4795
269.642	5827
269.702	4251
269.763	3773
269.824	2120
269.885	4348
269.945	6405
270.006	3056
270.067	1788
270.128	2340
270.188	1312
270.249	2141
270.310	1715
270.370	3229
270.431	1912
270.492	2578
270.553	3486
270.613	5992
270.674	11857
270.734	5038
270.795	2800
270.856	4037
270.916	2935
270.977	2847
271.038	3385
271.098	4150
271.159	6310
271.219	6241
271.280	2449
271.340	2720
271.401	2289
271.462	4583
271.522	3225
271.583	3579
271.643	3648
271.704	3507
271.764	4246
271.825	9035
271.885	29572
271.946	39724
272.006	13024
272.066	17208
272.127	29861
272.187	11508
272.248	6774
272.308	6383
272.369	19645
272.429	11557
272.489	8378
272.550	9192
272.610	9194
272.671	6470
272.731	5905
272.791	7980
272.852	5250
272.912	4746
272.972	2374
273.033	2374
273.093	4434
273.153	5775
273.214	4438
273.274	4352
273.334	15346
273.394	29096
273.455	11858
273.515	11588
273.575	25331
273.635	11116
273.696	11712
273.756	25565
273.816	11184
273.876	6775
273.936	8114
273.997	14152
274.057	6458
274.117	4828
274.177	7205
274.237	34935
274.297	28185
274.358	14658
274.418	21787
274.478	17755
274.538	6745
274.598	4456
274.658	9732
274.718	13740
274.778	6467
274.838	4680
274.898	6960
274.958	17408
275.018	24557
275.078	17070
275.138	6535
275.198	4765
275.258	2682
275.318	3750
275.378	7150
275.438	9376
275.498	5594
275.558	8637
275.618	20664
275.678	18721
275.738	12055
275.798	9594
275.858	5414
275.918	3465
275.978	4532
276.038	4519
276.098	3600
276.157	6426
276.217	19797
276.277	9771
276.337	7008
276.397	4412
276.457	4376
276.517	3358
276.576	2825
276.636	3087
276.696	4316
276.756	11982
276.815	8269
276.875	3907
276.935	3915
276.995	4217
277.055	2731
277.114	3014
277.174	4676
277.234	14962
277.293	7327
277.353	3909
277.413	2812
277.472	2478
277.532	3177
277.592	4139
277.651	10185
277.711	18935
277.771	7142
277.830	23958
277.890	20744
277.950	12651
278.009	38223
278.069	14789
278.128	13705
278.188	19453
278.248	8610
278.307	20498
278.367	12921
278.426	4725
278.486	2616
278.545	3765
278.605	2748
278.664	3429
278.724	3581
278.783	10279
278.843	26697
278.902	9333
278.962	4866
279.021	5488
279.081	5580
279.140	5809
279.199	5436
279.259	6297
279.318	6984
279.378	9183
279.437	14297
279.496	48056
279.556	87006
279.615	63083
279.675	17815
279.734	13611
279.793	20421
279.853	41804
279.912	18220
279.971	10681
280.031	9225
280.090	18139
280.149	33233
280.208	16862
280.268	55710
280.327	55679
280.386	14142
280.445	14571
280.505	13067
280.564	5811
280.623	5838
280.682	9141
280.742	15411
280.801	5400
280.860	3794
280.919	3888
280.978	2910
281.037	2559
281.097	2195
281.156	3121
281.215	3070
281.274	4334
281.333	18106
281.392	13977
281.451	3697
281.510	3125
281.569	3216
281.628	2780
281.688	3221
281.747	3375
281.806	3381
281.865	2519
281.924	2428
281.983	2406
282.042	1473
282.101	2548
282.160	2184
282.219	2575
282.278	2899
282.337	10479
282.396	8620
282.454	3773
282.513	3328
282.572	15661
282.631	9190
282.690	3963
282.749	2466
282.808	4289
282.867	3224
282.926	3767
282.985	1989
283.043	1713
283.102	2410
283.161	2418
283.220	7130
283.279	17721
283.338	6023
283.396	2896
283.455	3183
283.514	3540
283.573	5988
283.631	4623
283.690	2732
283.749	2934
283.808	6378
283.866	7741
283.925	2436
283.984	2741
284.043	4030
284.101	4869
284.160	3442
284.219	4697
284.277	3971
284.336	5621
284.395	20944
284.453	18021
284.512	5668
284.570	7783
284.629	6764
284.688	5270
284.746	5089
284.805	7367
284.863	9311
284.922	12030
284.981	13989
285.039	19806
285.098	33168
285.156	75807
285.215	132065
285.273	129775
285.332	87452
285.390	46121
285.449	26696
285.507	18887
285.566	13081
285.624	10043
285.683	8836
285.741	7162
285.799	6538
285.858	6569
285.916	5392
285.975	3690
286.033	3857
286.091	3927
286.150	2578
286.208	3517
286.267	2505
286.325	4183
286.383	6553
286.442	6020
286.500	2218
286.558	3143
286.616	2352
286.675	4362
286.733	3652
286.791	3153
286.850	3359
286.908	5517
286.966	8714
287.024	3517
287.083	2336
287.141	2681
287.199	2579
287.257	5518
287.315	4029
287.374	4305
287.432	10111
287.490	7002
287.548	2965
287.606	3765
287.664	3243
287.723	4101
287.781	5922
287.839	4884
287.897	5253
287.955	8228
288.013	10758
288.071	20953
288.129	68410
288.187	170725
288.245	89328
288.303	32082
288.361	16798
288.419	11615
288.477	8353
288.535	6446
288.593	5033
288.651	4240
288.709	3608
288.767	3741
288.825	2691
288.883	2368
288.941	2980
288.999	2066
289.057	1816
289.115	2249
289.173	1795
289.231	2368
289.289	2353
289.346	1884
289.404	2907
289.462	5111
289.520	5170
289.578	3312
289.636	1878
289.694	2913
289.751	1288
289.809	1382
289.867	1655
289.925	3867
289.983	2879
290.040	2872
290.098	1650
290.156	2732
290.214	2762
290.271	1591
290.329	2153
290.387	1977
290.444	2244
290.502	440
290.560	1569
290.617	2229
290.675	2030
290.733	1742
290.790	2181
290.848	1993
290.906	2062
290.963	2751
291.021	2177
291.078	2356
291.136	1893
291.194	9881
291.251	20944
291.309	6035
291.366	2728
291.424	2517
291.481	2641
291.539	2407
291.596	2622
291.654	1701
291.711	1570
291.769	2109
291.826	4607
291.884	3157
291.941	1885
291.999	2069
292.056	2597
292.114	2525
292.171	1773
292.228	3168
292.286	2219
292.343	4882
292.401	5843
292.458	3960
292.515	3321
292.573	4110
292.630	3384
292.687	3747
292.745	3003
292.802	4147
292.859	12330
292.917	19344
292.974	10652
293.031	3869
293.089	2179
293.146	2223
293.203	2359
293.260	1940
293.318	2817
293.375	5462
293.432	3891
293.489	3567
293.546	3039
293.604	4133
293.661	10812
293.718	30165
293.775	16224
293.832	7441
293.889	6041
293.947	5814
294.004	5394
294.061	5167
294.118	9884
294.175	20331
294.232	27042
294.289	11233
294.346	5944
294.403	6213
294.460	4485
294.517	4089
294.574	2223
294.631	3803
294.688	4296
294.745	9082
294.802	35532
294.859	42338
294.916	16582
294.973	8844
295.030	5278
295.087	5229
295.144	3561
295.201	5110
295.258	3732
295.315	4786
295.372	12213
295.429	24995
295.486	10816
295.542	7371
295.599	18834
295.656	32781
295.713	19977
295.770	24699
295.827	9527
295.883	6262
295.940	3304
295.997	7109
296.054	6828
296.111	4168
296.167	3389
296.224	2792
296.281	1973
296.338	3671
296.394	2832
296.451	3848
296.508	10842
296.564	21397
296.621	13768
296.678	28417
296.734	40013
296.791	16164
296.848	8672
296.904	8459
296.961	17617
297.018	27135
297.074	21351
297.131	8727
297.187	5968
297.244	8760
297.301	25153
297.357	44512
297.414	17121
297.470	7150
297.527	3992
297.583	4606
297.640	3787
297.696	3645
297.753	2652
297.809	3099
297.866	2087
297.922	2287
297.979	2773
298.035	3378
298.092	4740
298.148	16306
298.204	14900
298.261	6835
298.317	12895
298.374	34464
298.430	19346
298.486	8033
298.543	6037
298.599	6072
298.656	7096
298.712	10443
298.768	26891
298.824	19799
298.881	6376
298.937	4913
298.993	5025
299.050	5338
299.106	4897
299.162	4189
299.218	4411
299.275	4191
299.331	5328
299.387	7681
299.443	28053
299.500	35117
299.556	17708
299.612	7776
299.668	6864
299.724	11650
299.780	13686
299.837	7608
299.893	8064
299.949	28046
300.005	32140
300.061	26185
300.117	44372
300.173	21624
300.229	9503
300.285	11788
300.341	12673
300.397	6828
300.453	5236
300.510	4332
300.566	5518
300.622	7242
300.678	21895
300.734	37617
300.790	27840
300.845	30201
300.901	20922
300.957	31748
301.013	21395
301.069	8582
301.125	6623
301.181	6096
301.237	4953
301.293	3341
301.349	3247
301.405	3340
301.461	3427
301.516	5020
301.572	4722
301.628	7861
301.684	7115
301.740	10433
301.796	17763
301.851	12778
301.907	20474
301.963	19477
302.019	26955
302.074	74596
302.130	74490
302.186	36778
302.242	15279
302.297	10042
302.353	9152
302.409	17147
302.464	15852
302.520	11106
302.576	26892
302.631	32475
302.687	18283
302.743	8377
302.798	5765
302.854	4160
302.910	4344
302.965	5767
303.021	9607
303.076	9165
303.132	10106
303.187	14692
303.243	7432
303.299	4620
303.354	3240
303.410	4013
303.465	3060
303.521	4230
303.576	3775
303.632	4804
303.687	6931
303.743	25158
303.798	21630
303.853	8295
303.909	5720
303.964	4899
304.020	7297
304.075	11119
304.130	9022
304.186	17194
304.241	17870
304.297	14557
304.352	8238
304.358	7987
304.407	5956
304.449	5966
304.463	5969
304.518	6735
304.539	6273
304.573	5543
304.629	5684
304.630	5700
304.684	6794
304.720	15232
304.739	19338
304.794	28762
304.811	24609
304.850	14751
304.902	7063
304.905	6579
304.960	5761
304.992	5463
305.015	5189
305.071	5527
305.083	5266
305.126	4375
305.173	3702
305.181	3613
305.236	3329
305.264	3535
305.292	3723
305.347	4694
305.354	4842
305.402	5817
305.445	5830
305.457	5789
305.512	7408
305.535	6980
305.567	6567
305.622	7488
305.626	7692
305.678	13273
305.716	25342
305.733	29134
305.788	31189
305.807	26426
305.843	19406
305.897	26823
305.898	26881
305.953	25659
305.988	17005
306.008	12655
306.063	9036
306.078	8286
306.118	6500
306.168	4714
306.173	4573
306.228	4009
306.259	3926
306.283	3945
306.338	3253
306.349	3525
306.393	4591
306.440	5509
306.448	5689
306.503	5592
306.530	5903
306.558	7585
306.613	14377
306.620	15452
306.668	21895
306.711	29056
306.723	29515
306.778	21916
306.801	16730
306.833	11767
306.888	6221
306.892	6048
306.943	4933
306.982	4762
306.997	4775
307.052	4570
307.072	4569
307.107	5024
307.162	6576
307.163	6590
307.217	8642
307.253	10389
307.272	10686
307.327	10356
307.343	9831
307.381	9289
307.434	8918
307.436	9176
307.491	16896
307.524	24700
307.546	26039
307.600	25376
307.614	22656
307.655	14792
307.704	8693
307.710	8624
307.765	10706
307.795	13288
307.819	15172
307.874	21105
307.885	21339
307.929	19612
307.975	18694
307.984	19901
308.038	28923
308.065	35372
308.093	58120
308.148	114532
308.156	125727
308.202	166224
308.246	187691
308.257	182205
308.312	111561
308.336	82083
308.366	63279
308.421	38811
308.426	36583
308.475	24287
308.517	17285
308.530	16087
308.585	14360
308.607	13530
308.639	13425
308.694	14332
308.697	14438
308.748	21441
308.787	28680
308.803	28343
308.857	22522
308.877	19847
308.912	19314
308.967	21248
308.967	21270
309.021	29771
309.058	36644
309.076	47383
309.130	84018
309.148	97886
309.185	150863
309.238	238931
309.239	239462
309.293	236111
309.328	217117
309.348	192453
309.402	107796
309.418	85849
309.457	63138
309.508	38977
309.511	38312
309.566	31102
309.598	27647
309.620	28050
309.674	31030
309.688	32003
309.729	30026
309.778	26042
309.783	25708
309.837	21177
309.868	19039
309.892	24531
309.946	38602
309.959	42848
310.001	50505
310.049	56241
310.055	54332
310.109	31616
310.139	19063
310.163	15609
310.218	10471
310.229	9571
310.272	8354
310.319	7666
310.326	7504
310.381	6027
310.409	5582
310.435	5748
310.489	5703
310.499	5764
310.543	6130
310.589	6271
310.598	6250
310.652	6317
310.679	6221
310.706	5861
310.760	5152
310.769	5015
310.814	4512
310.859	4273
310.868	4415
310.923	4886
310.948	5193
310.977	5620
311.031	6363
311.038	6494
311.085	5997
311.128	5127
311.139	5163
311.193	5497
311.218	5549
311.247	5377
311.301	5261
311.308	5220
311.356	5311
311.398	5426
311.410	5402
311.464	5184
311.488	5095
311.518	5108
311.572	5003
311.578	4997
311.626	6935
311.668	8609
311.680	8537
311.734	7978
311.758	7741
311.788	7416
311.842	6817
311.847	6738
311.896	9776
311.937	12445
311.950	12118
312.004	10520
312.027	9773
312.058	8294
312.112	5657
312.117	5388
312.165	6139
312.207	6775
312.297	9809
312.386	6281
312.476	8273
312.566	13163
312.656	5572
312.745	5600
312.835	6235
312.925	5971
313.015	5882
313.104	6108
313.194	5620
313.284	5480
313.374	8488
313.463	6275
313.553	4806
313.643	5375
313.732	5065
313.822	5270
313.912	5730
314.001	6848
314.091	8647
314.180	10036
314.270	8842
314.360	9212
314.449	7884
314.539	5233
314.628	6119
314.718	6620
314.808	7366
314.897	5906
314.987	5704
315.076	7744
315.166	8133
315.255	7463
315.345	8054
315.434	7644
315.524	7774
315.613	8410
315.703	10398
315.792	16417
315.881	38829
315.971	14628
316.060	15069
316.150	18077
316.239	16378
316.328	7538
316.418	6514
316.507	5758
316.597	8671
316.686	7751
316.775	10907
316.865	16880
316.954	6304
317.043	4617
317.133	6027
317.222	5140
317.311	5794
317.400	4450
317.490	8023
317.579	8051
317.668	7494
317.757	10064
317.847	26879
317.936	67245
318.025	26188
318.114	17901
318.203	11458
318.293	17932
318.382	31653
318.471	23795
318.560	35165
318.649	57720
318.738	11677
318.828	9248
318.917	9117
319.006	11617
319.095	27009
319.184	76031
319.273	35291
319.362	19158
319.451	7349
319.540	7514
319.629	17370
319.718	23026
319.807	12280
319.896	30294
319.985	88158
320.074	25277
320.163	10517
320.252	13159
320.341	13868
320.430	11448
320.519	14593
320.608	8318
320.697	8298
320.786	8326
320.875	9783
320.964	12543
321.053	17991
321.142	25647
321.230	24802
321.319	22614
321.408	43816
321.497	18590
321.586	19360
321.675	22322
321.764	19248
321.852	15531
321.941	27472
322.030	17480
322.119	23179
322.207	45030
322.296	28449
322.385	18188
322.474	22762
322.562	57045
322.651	26150
322.740	24028
322.829	31647
322.917	25080
323.006	16321
323.095	15515
323.183	11543
323.272	16902
323.361	31719
323.449	69353
323.538	23632
323.626	56723
323.715	26742
323.804	16642
323.892	47212
323.981	21859
324.069	10920
324.158	29375
324.246	19659
324.335	12960
324.424	17402
324.512	7715
324.601	11332
324.689	21051
324.778	32816
324.866	19905
324.954	7217
325.043	7461
325.131	12395
325.220	20322
325.308	20562
325.397	17745
325.485	10728
325.574	6873
325.662	6853
325.750	6735
325.839	7115
325.927	5518
326.015	7574
326.104	9430
326.192	10302
326.280	5445
326.369	6269
326.457	9599
326.545	14202
326.634	6482
326.722	4493
326.810	5962
326.898	5104
326.987	6894
327.075	13776
327.163	11748
327.251	7459
327.340	16125
327.428	17130
327.516	6270
327.604	7160
327.692	5322
327.781	6802
327.869	9680
327.957	6767
328.045	7230
328.133	5084
328.221	6932
328.309	6091
328.397	6476
328.485	7157
328.574	10304
328.662	29522
328.750	14399
328.838	6936
328.926	5778
329.014	5292
329.102	9325
329.190	20435
329.278	11244
329.366	5136
329.454	4898
329.542	5811
329.630	5691
329.718	6354
329.806	8475
329.893	10881
329.981	12607
330.069	24162
330.157	92912
330.245	192675
330.333	96115
330.421	22169
330.509	16554
330.597	38118
330.684	22099
330.772	10486
330.860	14011
330.948	17511
331.036	8302
331.123	3841
331.211	5391
331.299	6867
331.387	18204
331.475	23135
331.562	7258
331.650	5388
331.738	5827
331.825	7046
331.913	5032
332.001	4513
332.089	7244
332.176	12284
332.264	24882
332.352	16577
332.439	7466
332.527	5895
332.614	5997
332.702	6830
332.790	5948
332.877	13876
332.965	19645
333.052	7516
333.140	8207
333.228	12923
333.315	6164
333.403	6792
333.490	15192
333.578	11224
333.665	15385
333.753	8480
333.840	6191
333.928	7378
334.015	17735
334.103	33600
334.190	83940
334.278	20793
334.365	12553
334.452	10235
334.540	8963
334.627	10406
334.715	13390
334.802	25947
334.889	97808
334.977	72962
335.064	16322
335.151	9900
335.239	10111
335.326	13979
335.413	54088
335.501	53792
335.588	10400
335.675	9176
335.762	14022
335.850	19953
335.937	17710
336.024	39871
336.111	104049
336.199	39848
336.286	14122
336.373	10047
336.460	7061
336.547	6727
336.635	8084
336.722	6874
336.809	6767
336.896	10270
336.983	34176
337.070	71724
337.157	86802
337.245	59287
337.332	31441
337.419	6909
337.506	6030
337.593	8168
337.680	30011
337.767	63939
337.854	19215
337.941	21321
338.028	19815
338.115	8206
338.202	12128
338.289	21638
338.376	52378
338.463	18265
338.550	46252
338.637	36537
338.724	13903
338.811	14734
338.898	6353
338.984	5571
339.071	7045
339.158	7943
339.245	17916
339.332	11105
339.419	14812
339.506	10827
339.593	3455
339.679	5373
339.766	5056
339.853	8176
339.940	12665
340.027	5249
340.113	5842
340.200	8405
340.287	6035
340.374	7131
340.460	12073
340.547	5943
340.634	10959
340.720	34780
340.807	16149
340.894	4818
340.980	5190
341.067	4048
341.154	6142
341.240	9698
341.327	16606
341.414	7643
341.500	8205
341.587	5377
341.674	5648
341.760	13257
341.847	12829
341.933	5527
342.020	2549
342.106	3658
342.193	6021
342.279	8969
342.366	8267
342.452	11642
342.539	7629
342.625	18365
342.712	34845
342.798	14735
342.885	6401
342.971	3813
343.058	3579
343.144	3918
343.230	4603
343.317	5069
343.403	4350
343.490	3853
343.576	2924
343.662	4368
343.749	4893
343.835	6835
343.921	13383
344.008	75683
344.094	124949
344.180	26070
344.267	14024
344.353	43335
344.439	36191
344.525	17192
344.612	14324
344.698	12954
344.784	8509
344.870	5084
344.957	4413
345.043	7725
345.129	6301
345.215	10884
345.301	6579
345.387	4890
345.474	3440
345.560	4024
345.646	4995
345.732	5171
345.818	6464
345.904	5850
345.990	5189
346.076	6077
346.162	9608
346.249	4502
346.335	4498
346.421	5724
346.507	21448
346.593	53177
346.679	11568
346.765	5752
346.851	5908
346.937	5072
347.023	5710
347.108	5863
347.194	5077
347.280	5795
347.366	7449
347.452	23637
347.538	66888
347.624	49771
347.710	35803
347.796	6461
347.882	5095
347.967	5241
348.053	7331
348.139	5311
348.225	4220
348.311	4278
348.397	4101
348.482	6053
348.568	5799
348.654	5148
348.740	8560
348.825	8608
348.911	11425
348.997	36509
349.083	54120
349.168	9529
349.254	6537
349.340	5966
349.425	4002
349.511	6864
349.597	7785
349.682	14777
349.768	40121
349.854	17114
349.939	5745
350.025	4626
350.110	5690
350.196	4571
350.282	2695
350.367	3475
350.453	7120
350.538	6291
350.624	6726
350.709	6335
350.795	3628
350.880	3777
350.966	5721
351.051	6800
351.137	5159
351.222	4564
351.308	16300
351.393	34683
351.479	9198
351.564	4371
351.649	4850
351.735	3921
351.820	3633
351.906	4373
351.991	7155
352.076	26444
352.162	31052
352.247	8075
352.332	5868
352.418	11908
352.503	15398
352.588	53655
352.673	35354
352.759	9715
352.844	5389
352.929	6990
353.014	7651
353.100	8105
353.185	17083
353.270	17092
353.355	12833
353.441	5505
353.526	5410
353.611	12413
353.696	12901
353.781	8761
353.866	4247
353.952	6339
354.037	12392
354.122	25432
354.207	22087
354.292	8970
354.377	4688
354.462	5455
354.547	7163
354.632	6939
354.717	13321
354.802	19248
354.887	7179
354.972	4424
355.057	4764
355.142	3803
355.227	5933
355.312	9650
355.397	19261
355.482	39150
355.567	18085
355.652	14975
355.737	17327
355.822	50604
355.907	32020
355.991	7527
356.076	4891
356.161	4820
356.246	4583
356.331	5300
356.416	13992
356.501	76991
356.585	62413
356.670	11115
356.755	10395
356.840	15781
356.924	72949
357.009	170766
357.094	55298
357.179	15624
357.263	10207
357.348	11815
357.433	9832
357.517	9830
357.602	8200
357.687	7297
357.771	17582
357.856	37640
357.941	22118
358.025	51444
358.110	163469
358.195	65919
358.279	13015
358.364	11104
358.448	38476
358.533	88499
358.617	61927
358.702	60698
358.787	20919
358.871	14363
358.956	11842
359.040	4985
359.125	4862
359.209	6515
359.294	20361
359.378	27309
359.462	12192
359.547	7953
359.631	5377
359.716	4492
359.800	5558
359.885	8880
359.969	5404
360.053	6015
360.138	6172
360.222	7885
360.306	13022
360.391	10498
360.475	23530
360.559	39530
360.644	34829
360.728	24646
360.812	50889
360.896	101816
360.981	45128
361.065	23717
361.149	8001
361.233	7443
361.318	6660
361.402	7510
361.486	7271
361.570	5982
361.654	8412
361.739	19773
361.823	78091
361.907	97789
361.991	18713
362.075	15595
362.159	27726
362.243	23660
362.327	29616
362.411	31690
362.495	16460
362.580	9972
362.664	8012
362.748	10005
362.832	15191
362.916	27926
363.000	69302
363.084	129041
363.168	125112
363.252	32165
363.336	16737
363.420	21260
363.503	71105
363.587	66294
363.671	14228
363.755	11735
363.839	15729
363.923	10102
364.007	19238
364.091	21927
364.175	40330
364.258	120362
364.342	107747
364.426	117212
364.510	58975
364.594	29553
364.677	33778
364.761	97970
364.845	60414
364.929	24834
365.013	18507
365.096	17741
365.180	18977
365.264	36626
365.347	97169
365.431	38607
365.515	11199
365.598	5726
365.682	7936
365.766	13592
365.849	14288
365.933	7946
366.017	11611
366.100	8736
366.184	4667
366.267	5982
366.351	5342
366.435	4436
366.518	3735
366.602	5095
366.685	5530
366.769	6572
366.852	12334
366.936	17627
367.019	9468
367.103	9377
367.186	16631
367.270	6480
367.353	3564
367.436	5111
367.520	4982
367.603	7361
367.687	8611
367.770	14566
367.853	11104
367.937	32528
368.020	44698
368.104	10749
368.187	12951
368.270	16575
368.353	15802
368.437	20115
368.520	35565
368.603	23697
368.687	39336
368.770	59269
368.853	15295
368.936	16805
369.020	16125
369.103	6174
369.186	5664
369.269	5570
369.352	12007
369.436	13929
369.519	9441
369.602	5088
369.685	7492
369.768	5751
369.851	5497
369.934	3631
370.018	6906
370.101	11869
370.184	11486
370.267	9544
370.350	15779
370.433	22973
370.516	55850
370.599	59488
370.682	20171
370.765	35555
370.848	45991
370.931	74079
371.014	27560
371.097	6531
371.180	5976
371.263	4531
371.346	3220
371.429	5523
371.511	5106
371.594	9690
371.677	15870
371.760	17499
371.843	15740
371.926	73476
372.009	130402
372.091	42152
372.174	33935
372.257	67613
372.340	24353
372.423	24621
372.505	25831
372.588	11863
372.671	28704
372.754	73644
372.836	34720
372.919	35758
373.002	57192
373.085	17051
373.167	15514
373.250	37141
373.332	71730
373.415	106086
373.498	172810
373.580	67901
373.663	102615
373.746	111714
373.828	27472
373.911	14042
373.993	19492
374.076	61765
374.159	48670
374.241	25732
374.324	65097
374.406	41226
374.489	66208
374.571	144845
374.654	55722
374.736	36336
374.819	97263
374.901	134311
374.983	119719
375.066	22515
375.148	14620
375.231	55308
375.313	83876
375.395	29445
375.478	8818
375.560	7252
375.643	10284
375.725	36461
375.807	117013
375.890	80565
375.972	32287
376.054	22908
376.136	28017
376.219	14888
376.301	42561
376.383	95404
376.465	35945
376.548	24066
376.630	36065
376.712	84897
376.794	34632
376.877	6900
376.959	4132
377.041	6717
377.123	14940
377.205	15251
377.287	4157
377.369	5354
377.452	5160
377.534	5085
377.616	5578
377.698	4683
377.780	3587
377.862	5569
377.944	5933
378.026	3419
378.108	4522
378.190	4259
378.272	4112
378.354	3395
378.436	3558
378.518	9872
378.600	27513
378.682	23665
378.764	46266
378.846	33659
378.928	11891
379.010	15559
379.091	9287
379.173	4178
379.255	4624
379.337	7552
379.419	27263
379.501	62459
379.583	23707
379.664	8341
379.746	18385
379.828	48536
379.910	62362
379.991	49158
380.073	10240
380.155	6881
380.237	5830
380.318	5428
380.400	5663
380.482	11231
380.564	16293
380.645	20518
380.727	17979
380.809	9597
380.890	7185
380.972	5387
381.053	6234
381.135	7775
381.217	20106
381.298	46437
381.380	21312
381.461	23844
381.543	91955
381.624	94209
381.706	18858
381.787	12125
381.869	14145
381.951	47957
382.032	135831
382.113	78110
382.195	18903
382.276	17973
382.358	39362
382.439	79733
382.521	90407
382.602	120872
382.684	62516
382.765	109650
382.846	103810
382.928	104456
383.009	57604
383.090	57615
383.172	178318
383.253	217674
383.334	96767
383.416	115707
383.497	55293
383.578	28594
383.659	53345
383.741	180789
383.822	347645
383.903	166597
383.984	89485
384.066	144644
384.147	83639
384.228	20256
384.309	16491
384.390	12668
384.471	9942
384.553	10963
384.634	13597
384.715	13580
384.796	8555
384.877	13637
384.958	45805
385.039	47492
385.120	16713
385.201	10667
385.282	11610
385.363	12659
385.444	11569
385.525	23472
385.606	64600
385.687	48690
385.768	15115
385.849	22539
385.930	77623
386.011	107221
386.092	30310
386.173	10417
386.254	8979
386.335	9748
386.416	12532
386.496	33552
386.577	45823
386.658	18578
386.739	12300
386.820	13469
386.901	10317
386.981	9904
387.062	9873
387.143	16060
387.224	47109
387.304	39816
387.385	16764
387.466	13185
387.547	16374
387.627	12035
387.708	25438
387.789	82740
387.869	87466
387.950	24534
388.031	8935
388.111	10212
388.192	21692
388.273	26907
388.353	16096
388.434	10146
388.514	21661
388.595	74848
388.676	88824
388.756	44184
388.837	41887
388.917	24457
388.998	6958
389.078	7555
389.159	6727
389.239	5492
389.320	11121
389.400	8717
389.480	23088
389.561	46252
389.641	23174
389.722	10898
389.802	15074
389.883	25146
389.963	55075
390.043	32420
390.124	11841
390.204	22072
390.284	51991
390.365	34202
390.445	53075
390.525	112505
390.605	90794
390.686	27869
390.766	11201
390.846	7654
390.927	5753
391.007	6348
391.087	7953
391.167	8688
391.247	6215
391.328	10919
391.408	15460
391.488	11626
391.568	6149
391.648	8740
391.728	11454
391.808	10264
391.888	12664
391.969	30803
392.049	42824
392.129	21063
392.209	27310
392.289	54640
392.369	31981
392.449	30012
392.529	19667
392.609	17206
392.689	24249
392.769	57953
392.849	48104
392.929	45841
393.009	86538
393.089	71778
393.169	87293
393.248	269067
393.328	688757
393.408	643216
393.488	217757
393.568	71505
393.648	37757
393.728	25683
393.807	18683
393.887	17811
393.967	16436
394.047	18146
394.127	23531
394.206	41234
394.286	138406
394.366	411097
394.446	387196
394.525	119786
394.605	37633
394.685	29696
394.764	48930
394.844	71376
394.924	48505
395.003	18177
395.083	13458
395.163	11327
395.242	11925
395.322	11376
395.402	9130
395.481	15438
395.561	37735
395.640	79550
395.720	74176
395.799	92335
395.879	71085
395.958	63682
396.038	203475
396.117	516844
396.197	505127
396.276	201936
396.356	77519
396.435	52040
396.515	37679
396.594	41821
396.673	79482
396.753	271701
396.832	608231
396.912	427046
396.991	115685
397.070	38950
397.150	21896
397.229	18757
397.308	27968
397.388	44590
397.467	24717
397.546	10832
397.625	7062
397.705	10874
397.784	10795
397.863	6755
397.942	6726
398.022	8321
398.101	30318
398.180	66621
398.259	32108
398.338	11038
398.417	7849
398.497	6520
398.576	6995
398.655	5244
398.734	6471
398.813	7231
398.892	28825
398.971	71354
399.050	31597
399.129	5832
399.208	5009
399.287	5310
399.366	4395
399.445	5003
399.524	5134
399.603	3613
399.682	8817
399.761	28774
399.840	75798
399.919	52731
399.998	8598
400.077	3880
400.156	2815
400.235	6936
400.313	4216
400.392	6769
400.471	27630
400.550	36852
400.629	10462
400.708	6933
400.786	6961
400.865	17919
400.944	16590
401.023	8849
401.102	3484
401.180	3086
401.259	3889
401.338	4534
401.416	7007
401.495	5784
401.574	5740
401.652	3358
401.731	7565
401.810	7374
401.888	4363
401.967	2540
402.046	3977
402.124	6580
402.203	6697
402.281	5788
402.360	9372
402.438	22543
402.517	13482
402.596	6007
402.674	5360
402.753	3122
402.831	4272
402.910	7712
402.988	31205
403.066	79672
403.145	44368
403.223	33115
403.302	73645
403.380	57875
403.459	57486
403.537	23176
403.615	9012
403.694	2971
403.772	3816
403.850	3765
403.929	3424
404.007	4719
404.085	14369
404.164	16060
404.242	8459
404.320	21765
404.398	59526
404.477	69736
404.555	118900
404.633	94808
404.711	46944
404.789	28120
404.868	10593
404.946	5408
405.024	3316
405.102	4065
405.180	2666
405.258	2071
405.336	3462
405.415	3993
405.493	10593
405.571	11251
405.649	3730
405.727	3195
405.805	6827
405.883	7026
405.961	7981
406.039	7326
406.117	3753
406.195	7707
406.273	33086
406.351	93272
406.429	53197
406.507	10130
406.585	3652
406.663	5258
406.740	5749
406.818	5098
406.896	3659
406.974	5127
407.052	13078
407.130	60607
407.208	72547
407.285	14615
407.363	3388
407.441	3758
407.519	4231
407.596	5806
407.674	20211
407.752	58035
407.830	48154
407.907	15964
407.985	6871
408.063	3961
408.141	2479
408.218	7102
408.296	8129
408.373	7267
408.451	5194
408.529	4826
408.606	3438
408.684	2856
408.762	2375
408.839	2672
408.917	2521
408.994	3359
409.072	3154
409.149	4153
409.227	6947
409.304	7962
409.382	7620
409.459	8308
409.537	10931
409.614	9707
409.692	8775
409.769	8921
409.846	10880
409.924	14087
410.001	10777
410.079	8886
410.156	8553
410.233	7963
410.311	6332
410.388	4322
410.465	6070
410.543	5096
410.620	4712
410.697	4184
410.775	4809
410.852	2358
410.929	6961
411.006	7112
411.083	5546
411.161	11097
411.238	11652
411.315	5881
411.392	3082
411.469	6328
411.547	6948
411.624	2768
411.701	3989
411.778	4526
411.855	7757
411.932	4372
412.009	3357
412.086	3197
412.163	4114
412.240	5430
412.317	6883
412.394	5698
412.471	2540
412.548	2998
412.625	3150
412.702	5159
412.779	8423
412.856	5924
412.933	2463
413.010	2601
413.087	6308
413.164	25412
413.241	30334
413.318	7700
413.395	6706
413.471	8312
413.548	3390
413.625	3965
413.702	4226
413.779	3330
413.855	953
413.932	973
414.009	1397
414.086	2100
414.162	2469
414.239	6155
414.316	25711
414.393	47465
414.469	15252
414.546	2824
414.623	2471
414.699	2712
414.776	3859
414.853	2367
414.929	3156
415.006	3342
415.082	3469
415.159	3400
415.236	2835
415.312	2701
415.389	6399
415.465	6946
415.542	3949
415.618	2589
415.695	5454
415.771	3443
415.848	3359
415.924	3358
416.000	3088
416.077	3512
416.153	540
416.230	621
416.306	1905
416.383	2114
416.459	1898
416.535	1756
416.612	1735
416.688	2151
416.764	2217
416.841	1792
416.917	2270
416.993	2650
417.069	2956
417.146	5441
417.222	8549
417.298	4334
417.374	2517
417.451	3460
417.527	3479
417.603	3218
417.679	2934
417.755	3053
417.831	1365
417.908	2049
417.984	1994
418.060	1066
418.136	6048
418.212	7887
418.288	3250
418.364	2675
418.440	1938
418.516	5839
418.592	6868
418.668	11267
418.744	15053
418.820	10301
418.896	3848
418.972	1854
419.048	2955
419.124	7757
419.200	4668
419.276	2381
419.352	1233
419.428	2216
419.504	2576
419.579	4755
419.655	2626
419.731	3205
419.807	10888
419.883	16715
419.959	11499
420.034	5023
420.110	10754
420.186	31969
420.262	21786
420.337	5065
420.413	4343
420.489	2543
420.565	3360
420.640	3281
420.716	4553
420.792	1931
420.867	4513
420.943	3212
421.019	5723
421.094	5434
421.170	4208
421.245	3308
421.321	4839
421.397	5729
421.472	15156
421.548	32115
421.623	20299
421.699	8611
421.774	7968
421.850	8132
421.925	12322
422.001	12819
422.076	12969
422.152	16233
422.227	24314
422.302	31408
422.378	47743
422.453	87983
422.529	195267
422.604	373927
422.679	433785
422.755	350911
422.830	186985
422.905	86341
422.981	49082
423.056	32201
423.131	23479
423.207	18486
423.282	15863
423.357	17673
423.432	14094
423.508	14599
423.583	21150
423.658	15639
423.733	8270
423.808	8597
423.883	8774
423.959	8299
424.034	7193
424.109	6669
424.184	5276
424.259	4656
424.334	4423
424.409	3758
424.484	4147
424.559	4576
424.634	3252
424.709	4898
424.784	5623
424.859	3594
424.934	7179
425.009	23834
425.084	34027
425.159	12920
425.234	3872
425.309	3487
425.384	10362
425.459	14125
425.534	5708
425.609	2247
425.683	2521
425.758	3541
425.833	3114
425.908	5337
425.983	15997
426.058	34178
426.132	14564
426.207	3571
426.282	6587
426.357	5189
426.431	1904
426.506	3120
426.581	3836
426.655	2465
426.730	2778
426.805	2399
426.879	3183
426.954	3360
427.029	8089
427.103	39427
427.178	79626
427.253	32073
427.327	5771
427.402	9161
427.476	18952
427.551	9004
427.625	4813
427.700	3742
427.774	2618
427.849	3684
427.923	2232
427.998	2795
428.072	4628
428.147	11907
428.221	48960
428.296	119315
428.370	57697
428.444	9449
428.519	10963
428.593	17414
428.667	15099
428.742	18206
428.816	24649
428.890	87068
428.965	114459
429.039	35839
429.113	19386
429.188	6779
429.262	3543
429.336	7024
429.410	16921
429.485	12149
429.559	14615
429.633	10975
429.707	5653
429.781	20751
429.855	91336
429.930	114339
430.004	60149
430.078	76161
430.152	83449
430.226	160507
430.300	140191
430.374	25177
430.448	10970
430.522	32675
430.596	69714
430.670	52158
430.744	125965
430.818	141336
430.892	26775
430.966	5738
431.040	3583
431.114	1908
431.188	2332
431.262	1974
431.336	2081
431.410	9354
431.484	20366
431.557	11482
431.631	3439
431.705	6167
431.779	33761
431.853	109506
431.927	67029
432.000	9068
432.074	3570
432.148	4104
432.222	2780
432.295	2948
432.369	2107
432.443	6394
432.516	38698
432.590	75733
432.664	26254
432.737	3451
432.811	1185
432.885	721
432.958	1754
433.032	1210
433.106	559
433.179	1431
433.253	1126
433.326	925
433.400	1220
433.473	2329
433.547	545
433.620	1813
433.694	4021
433.767	3753
433.841	1595
433.914	2010
433.988	1508
434.061	1604
434.134	1493
434.208	864
434.281	403
434.355	1225
434.428	2219
434.501	1633
434.575	1146
434.648	1907
434.721	93
434.795	1131
434.868	1139
434.941	1406
435.014	376
435.088	1441
435.161	2103
435.234	4843
435.307	4753
435.381	3510
435.454	2677
435.527	4375
435.600	3918
435.673	5075
435.746	3726
435.819	3112
435.892	2486
435.966	1796
436.039	1700
436.112	1852
436.185	1570
436.258	1008
436.331	777
436.404	1345
436.477	317
436.550	741
436.623	984
436.696	1272
436.769	1928
436.842	1041
436.915	1751
436.987	2551
437.060	625
437.133	1622
437.206	597
437.279	1738
437.352	944
437.425	1236
437.498	2236
437.570	5330
437.643	4613
437.716	1224
437.789	1327
437.861	6060
437.934	12888
438.007	5845
438.080	1086
438.152	2752
438.225	8216
438.298	49007
438.370	102628
438.443	40155
438.516	11416
438.588	2485
438.661	1707
438.734	1373
438.806	2039
438.879	2819
438.951	4195
439.024	7119
439.096	2341
439.169	2284
439.241	1294
439.314	1344
439.386	3412
439.459	5389
439.531	6271
439.604	2532
439.676	1365
439.749	1488
439.821	734
439.893	1729
439.966	1531
440.038	2809
440.110	3076
440.183	1415
440.255	877
440.327	3905
440.400	23555
440.472	69246
440.544	37283
440.617	5314
440.689	4849
440.761	7601
440.833	10326
440.905	5837
440.978	1297
441.050	1167
441.122	1186
441.194	1422
441.266	933
441.338	1451
441.411	6019
441.483	24956
441.555	28802
441.627	6399
441.699	4656
441.771	4084
441.843	2049
441.915	1195
441.987	2103
442.059	1751
442.131	4319
442.203	5253
442.275	6040
442.347	6846
442.419	14895
442.491	70280
442.563	133239
442.635	53293
442.706	24898
442.778	15127
442.850	4039
442.922	2799
442.994	4142
443.066	5757
443.137	5470
443.209	6316
443.281	9889
443.353	22790
443.425	92757
443.496	249471
443.568	217014
443.640	75344
443.711	16881
443.783	7768
443.855	4500
443.926	3295
443.998	4151
444.070	4196
444.141	3776
444.213	5050
444.285	5973
444.356	4282
444.428	4201
444.499	2317
444.571	1412
444.642	1972
444.714	3078
444.785	5174
444.857	8057
444.928	14974
445.000	8616
445.071	11532
445.143	13533
445.214	11483
445.285	20961
445.357	59096
445.428	188349
445.500	327046
445.571	207320
445.642	109014
445.714	40806
445.785	26257
445.856	10016
445.928	7182
445.999	6854
446.070	4698
446.141	5721
446.213	6777
446.284	3674
446.355	3682
446.426	2698
446.497	3052
446.569	4653
446.640	6257
446.711	3724
446.782	1433
446.853	2710
446.924	3293
446.995	2343
447.066	3775
447.138	4749
447.209	3147
447.280	1621
447.351	757
447.422	1135
447.493	2322
447.564	3090
447.635	3210
447.706	1188
447.777	877
447.847	673
447.918	1189
447.989	3344
448.060	4624
448.131	9002
448.202	7903
448.273	4095
448.344	2016
448.414	2114
448.485	1155
448.556	851
448.627	1477
448.698	2289
448.768	1566
448.839	2439
448.910	5026
448.981	4287
449.051	2247
449.122	1474
449.193	1473
449.263	1885
449.334	1415
449.405	3406
449.475	5479
449.546	4268
449.616	6563
449.687	4306
449.758	3011
449.828	1464
449.899	1910
449.969	1612
450.040	1526
450.110	2692
450.181	2519
450.251	2195
450.322	2019
450.392	1819
450.463	1011
450.533	900
450.604	1552
450.674	871
450.744	2124
450.815	1143
450.885	1801
450.955	1988
451.026	1304
451.096	2140
451.166	2587
451.237	7652
451.307	14193
451.377	5468
451.447	786
451.518	1518
451.588	906
451.658	2341
451.728	4333
451.799	17362
451.869	14193
451.939	3245
452.009	1462
452.079	1764
452.149	2373
452.219	6311
452.289	17944
452.360	9804
452.430	3200
452.500	3269
452.570	3997
452.640	7296
452.710	17537
452.780	21265
452.850	14761
452.920	10154
452.990	5278
453.060	3762
453.129	4020
453.199	5636
453.269	26315
453.339	40367
453.409	54466
453.479	65619
453.549	90024
453.619	85880
453.688	27072
453.758	5532
453.828	2558
453.898	2012
453.968	1657
454.037	1752
454.087	1816
454.107	1837
454.168	1435
454.177	1370
454.247	1466
454.249	1486
454.316	1786
454.330	1759
454.386	1442
454.411	4618
454.456	9931
454.492	10419
454.525	10919
454.574	5775
454.595	3544
454.655	2531
454.665	2395
454.734	3744
454.736	3821
454.804	5477
454.817	7658
454.873	16450
454.898	15832
454.943	14735
454.979	9404
455.013	4705
455.060	3465
455.082	3019
455.141	4240
455.152	4430
455.221	13308
455.222	13464
455.291	22118
455.303	22860
455.360	25601
455.384	33874
455.430	47946
455.465	34434
455.499	22051
455.546	17269
455.569	14922
455.627	8714
455.638	7612
455.707	2234
455.708	2238
455.777	1991
455.789	2003
455.846	2001
455.869	1788
455.916	1442
455.950	1569
455.985	1561
456.031	1578
456.054	1626
456.112	2032
456.124	2122
456.193	1186
456.193	1173
456.262	2101
456.274	2130
456.332	2151
456.355	2011
456.401	1700
456.436	1535
456.470	1353
456.516	1085
456.540	908
456.597	1489
456.609	1633
456.678	1468
456.678	1463
456.747	1428
456.759	1343
456.817	820
456.840	693
456.886	569
456.920	1192
456.955	1788
457.001	2033
457.024	2095
457.082	2108
457.093	2146
457.162	2939
457.163	2946
457.232	3006
457.243	2875
457.301	2301
457.324	2011
457.370	1482
457.405	1617
457.439	1785
457.485	1312
457.508	1103
457.566	2357
457.577	2632
457.646	3397
457.647	3414
457.715	5487
457.727	6078
457.784	8698
457.808	11367
457.853	15423
457.889	17917
457.922	19303
457.969	14810
457.991	14107
458.050	14292
458.060	14242
458.129	24061
458.130	24302
458.198	28187
458.211	25533
458.267	14888
458.292	11061
458.336	7080
458.372	6553
458.405	7704
458.453	11487
458.474	13171
458.533	22140
458.543	23129
458.611	39992
458.614	40111
458.680	31000
458.694	25748
458.749	11834
458.775	9175
458.818	5469
458.855	4351
458.887	3578
458.936	2597
458.955	2361
459.016	2463
459.024	2513
459.093	2948
459.097	2974
459.162	2723
459.177	2632
459.230	2810
459.257	2982
459.299	2975
459.338	3058
459.368	3176
459.418	3517
459.437	3421
459.499	2579
459.505	2549
459.574	2300
459.579	2303
459.643	2429
459.659	2450
459.711	2502
459.740	2393
459.780	2311
459.820	2656
459.849	2909
459.900	2999
459.917	2944
459.981	3380
459.986	3394
460.054	2387
460.061	2404
460.123	3027
460.141	3192
460.191	3504
460.222	3583
460.260	3965
460.302	4547
460.328	4435
460.382	3791
460.397	3791
460.462	3521
460.465	3704
460.534	8821
460.543	9541
460.602	22227
460.623	27617
460.671	39939
460.703	56233
460.739	56214
460.783	42120
460.808	37143
460.864	10493
460.876	6934
460.944	3511
460.945	3463
461.013	2948
461.024	2868
461.081	3181
461.104	3286
461.150	2669
461.184	2336
461.218	2690
461.264	2782
461.286	2559
461.345	2385
461.355	2407
461.423	2483
461.425	2488
461.491	3123
461.505	3277
461.559	6057
461.585	7309
461.628	9889
461.665	13506
461.696	14802
461.745	17557
461.764	16172
461.825	5208
461.832	4834
461.901	3246
461.905	3272
461.969	2583
461.985	2393
462.037	3117
462.065	3532
462.105	3535
462.145	3797
462.173	5074
462.225	7346
462.241	7916
462.305	11208
462.310	10970
462.378	6606
462.385	5821
462.446	3249
462.465	2854
462.514	3145
462.545	3462
462.582	2984
462.625	2783
462.650	2943
462.705	2919
462.718	3052
462.785	3917
462.786	3927
462.854	4023
462.865	4263
462.922	5758
462.945	6198
462.990	5346
463.025	3775
463.058	2963
463.104	2522
463.126	2510
463.184	2565
463.194	2559
463.262	2469
463.264	2474
463.330	3390
463.344	3487
463.398	3764
463.424	4031
463.466	3605
463.504	3346
463.533	3457
463.583	3413
463.601	3538
463.663	3896
463.669	3984
463.737	5080
463.743	5199
463.805	8733
463.823	9664
463.873	12931
463.903	15527
463.940	16191
463.982	16868
464.008	14010
464.062	5947
464.076	5563
464.142	3696
464.144	3644
464.211	2757
464.221	2660
464.279	3299
464.301	3574
464.347	4339
464.381	4904
464.414	4960
464.461	4947
464.482	4874
464.540	4640
464.550	4552
464.617	4045
464.620	4014
464.685	4600
464.699	4776
464.753	6282
464.779	7053
464.820	7142
464.859	7252
464.888	7098
464.938	6658
464.956	6825
465.018	7557
465.023	7533
465.091	6866
465.098	6784
465.158	5746
465.177	5509
465.226	6109
465.257	6392
465.293	6477
465.336	6599
465.361	6956
465.416	7736
465.428	8372
465.495	11920
465.496	11963
465.563	16176
465.575	17043
465.631	20996
465.654	22672
465.698	14899
465.734	7582
465.765	6680
465.813	5564
465.833	5548
465.893	6034
465.900	6061
465.968	6212
465.972	6216
466.035	6136
466.052	6102
466.102	6770
466.131	7130
466.170	6680
466.210	6187
466.237	6470
466.290	7094
466.304	7138
466.369	7161
466.372	7176
466.439	7444
466.449	7477
466.506	8735
466.528	9214
466.573	12937
466.607	15674
466.641	20030
466.687	26131
466.708	27932
466.766	33137
466.775	30845
466.842	12787
466.845	11921
466.909	9818
466.925	9381
466.977	9601
467.004	9761
467.044	10147
467.083	10491
467.111	11087
467.163	12201
467.178	12322
467.242	12765
467.245	12729
467.312	11735
467.321	11593
467.379	11313
467.400	11188
467.446	11995
467.480	12551
467.559	10940
467.638	9448
467.717	9735
467.796	10213
467.875	10090
467.955	10649
468.034	17774
468.113	29682
468.192	40600
468.271	11293
468.350	9646
468.429	10491
468.508	10653
468.588	9809
468.667	9156
468.746	8928
468.825	8104
468.904	7614
468.983	9029
469.062	11549
469.141	14904
469.220	7483
469.299	7433
469.378	7941
469.456	10433
469.535	9122
469.614	8295
469.693	8055
469.772	11168
469.851	13645
469.930	9076
470.009	7892
470.088	7041
470.166	7550
470.245	8919
470.324	9470
470.403	8196
470.482	6992
470.560	6928
470.639	7241
470.718	8384
470.797	8098
470.875	9167
470.954	10715
471.033	11889
471.111	6454
471.190	6419
471.269	5940
471.347	6321
471.426	7243
471.505	7319
471.583	7969
471.662	8168
471.740	6521
471.819	7223
471.898	6699
471.976	7212
472.055	6400
472.133	6899
472.212	10172
472.290	10083
472.369	5808
472.447	7429
472.526	5271
472.604	6717
472.683	7260
472.761	6638
472.839	6332
472.918	6285
472.996	6934
473.075	7642
473.153	7123
473.231	6818
473.310	7319
473.388	7128
473.466	6581
473.545	8073
473.623	9150
473.701	8298
473.780	6802
473.858	5531
473.936	8365
474.014	7014
474.093	8254
474.171	12158
474.249	14245
474.327	8150
474.405	5430
474.484	5692
474.562	6758
474.640	6064
474.718	7281
474.796	7513
474.874	6853
474.952	6105
475.030	6564
475.108	6934
475.187	8244
475.265	9739
475.343	13559
475.421	15156
475.499	6824
475.577	7898
475.655	10974
475.733	16569
475.811	27878
475.889	22556
475.966	14196
476.044	7287
476.122	10503
476.200	11836
476.278	9343
476.356	6215
476.434	7588
476.512	8410
476.590	10752
476.667	9639
476.745	4964
476.823	7544
476.901	6370
476.979	6410
477.056	6414
477.134	6103
477.212	6224
477.290	6642
477.367	5737
477.445	5820
477.523	4777
477.601	5001
477.678	5422
477.756	6964
477.834	7762
477.911	5735
477.989	6099
478.066	5763
478.144	6993
478.222	9594
478.299	14172
478.377	13776
478.454	5717
478.532	4645
478.609	5558
478.687	5995
478.764	4803
478.842	5698
478.919	6405
478.997	5869
479.074	4607
479.152	6509
479.229	8286
479.307	4863
479.384	4867
479.461	4950
479.539	4796
479.616	5604
479.694	5900
479.771	5442
479.848	6299
479.926	7822
480.003	9648
480.080	5916
480.157	4970
480.235	4044
480.312	4773
480.389	5809
480.467	9423
480.544	11889
480.621	6837
480.698	6369
480.775	6810
480.853	6741
480.930	5192
481.007	6213
481.084	8243
481.161	8529
481.238	8420
481.315	5758
481.392	4925
481.470	5129
481.547	5106
481.624	5191
481.701	5109
481.778	5378
481.855	6505
481.932	10023
482.009	15892
482.086	10080
482.163	7186
482.240	12309
482.317	20293
482.393	14493
482.470	6426
482.547	5855
482.624	5758
482.701	5382
482.778	5117
482.855	4502
482.932	5264
483.009	5164
483.085	6443
483.162	7798
483.239	7937
483.316	5893
483.393	6077
483.469	4963
483.546	6731
483.623	6663
483.699	5717
483.776	5602
483.853	6552
483.930	11280
484.006	26614
484.083	42046
484.160	24032
484.236	34495
484.313	25396
484.389	17823
484.466	18041
484.543	16229
484.619	17325
484.696	18626
484.772	17516
484.849	18629
484.925	15928
485.002	14977
485.078	16796
485.155	16325
485.231	14699
485.308	14307
485.384	15147
485.461	19656
485.537	28158
485.614	31194
485.690	15707
485.766	15055
485.843	15249
485.919	17784
485.995	18565
486.072	13086
486.148	13283
486.224	12786
486.301	14009
486.377	16070
486.453	15724
486.530	15991
486.606	21769
486.682	22342
486.758	25312
486.835	29206
486.911	23169
486.987	35306
487.063	33353
487.139	37114
487.215	27946
487.292	18764
487.368	16262
487.444	18804
487.520	22918
487.596	23380
487.672	39171
487.748	86328
487.824	120544
487.900	51044
487.976	22678
488.052	19330
488.128	20355
488.204	15363
488.280	16396
488.356	19169
488.432	33260
488.508	45294
488.584	16636
488.660	12023
488.736	12820
488.812	12912
488.888	15941
488.964	21810
489.039	35221
489.115	48557
489.191	30065
489.267	14003
489.343	13322
489.418	11281
489.494	11397
489.570	9212
489.646	12847
489.722	11245
489.797	12150
489.873	20310
489.949	34841
490.024	28353
490.100	11060
490.176	10709
490.251	12646
490.327	14766
490.403	8807
490.478	10641
490.554	9819
490.629	9253
490.705	8642
490.781	10777
490.856	10306
490.932	11569
491.007	11028
491.083	10839
491.158	10565
491.234	15457
491.309	27375
491.385	26587
491.460	10463
491.536	11204
491.611	9299
491.686	9676
491.762	14821
491.837	22367
491.913	38160
491.988	49763
492.063	58231
492.139	19894
492.214	14448
492.289	8833
492.365	7956
492.440	10237
492.515	9754
492.590	10050
492.666	8462
492.741	13012
492.816	15889
492.891	9464
492.967	9841
493.042	7865
493.117	8961
493.192	9922
493.267	24947
493.342	67476
493.418	85962
493.493	13177
493.568	7501
493.643	7989
493.718	9347
493.793	12573
493.868	13790
493.943	8469
494.018	7497
494.093	6638
494.168	7794
494.243	6357
494.318	7514
494.393	7747
494.468	6750
494.543	6359
494.618	6636
494.693	7225
494.768	7830
494.842	7496
494.917	6117
494.992	6802
495.067	6141
495.142	5519
495.217	6966
495.292	7244
495.366	8963
495.441	8503
495.516	12110
495.591	17881
495.665	51539
495.740	98401
495.815	41080
495.890	10785
495.964	7209
496.039	12134
496.114	10020
496.188	12666
496.263	12308
496.338	9388
496.412	10062
496.487	11967
496.561	12069
496.636	12715
496.710	10508
496.785	12271
496.860	14205
496.934	11538
497.009	11899
497.083	11708
497.158	13365
497.232	14445
497.307	17161
497.381	16708
497.455	19992
497.530	22971
497.604	19451
497.679	21161
497.753	28922
497.827	35420
497.902	32253
497.976	39293
498.050	92391
498.125	251962
498.199	235702
498.273	46146
498.348	39428
498.422	34463
498.496	32361
498.570	28965
498.645	24467
498.719	22378
498.793	23956
498.867	30597
498.941	42436
499.016	121406
499.090	252846
499.164	83217
499.238	16874
499.312	13436
499.386	15412
499.460	14382
499.534	12937
499.609	16184
499.683	20202
499.757	21132
499.831	56794
499.905	176164
499.979	154579
500.053	24756
500.127	23228
500.201	15818
500.275	11603
500.349	11244
500.422	12216
500.496	17641
500.570	35943
500.644	104357
500.718	172996
500.792	34912
500.866	12305
500.940	15411
501.013	11484
501.087	12009
501.161	18594
501.235	25051
501.309	66459
501.382	161146
501.456	127745
501.530	31819
501.603	49294
501.677	19335
501.751	8233
501.825	12310
501.898	26092
501.972	61933
502.046	35697
502.119	11335
502.193	32202
502.266	66408
502.340	31326
502.413	33312
502.487	58937
502.561	30648
502.634	10661
502.708	9141
502.781	7424
502.855	8366
502.928	6079
503.002	6781
503.075	5647
503.149	6577
503.222	7245
503.295	7899
503.369	9219
503.442	15297
503.516	53420
503.589	116697
503.662	72612
503.736	25610
503.809	54692
503.882	48586
503.956	68988
504.029	65033
504.102	53626
504.175	65695
504.249	30048
504.322	16611
504.395	11577
504.468	8716
504.542	7775
504.615	6194
504.688	6318
504.761	4635
504.834	8009
504.907	8503
504.980	12743
505.053	6981
505.127	7782
505.200	11895
505.273	9996
505.346	6143
505.419	4894
505.492	6233
505.565	4967
505.638	5312
505.711	4517
505.784	3932
505.857	3862
505.930	6040
506.003	4455
506.076	7643
506.149	7555
506.221	8044
506.294	10893
506.367	30467
506.440	84510
506.513	42022
506.586	9395
506.659	6133
506.731	5620
506.804	5983
506.877	8228
506.950	6610
507.022	6430
507.095	5354
507.168	8389
507.241	5857
507.313	4301
507.386	4332
507.459	7173
507.531	3964
507.604	3572
507.677	5356
507.749	3766
507.822	7338
507.894	13119
507.967	16167
508.040	9841
508.112	9886
508.185	7425
508.257	6054
508.330	11657
508.402	7641
508.475	6904
508.547	7435
508.620	8984
508.692	12719
508.765	8188
508.837	5430
508.909	6416
508.982	5516
509.054	6479
509.127	6532
509.199	5521
509.271	5144
509.344	4853
509.416	5305
509.488	5782
509.560	6022
509.633	6484
509.705	7274
509.777	7781
509.849	9516
509.922	6212
509.994	6459
510.066	7555
510.138	7747
510.210	16940
510.283	13434
510.355	10412
510.427	9751
510.499	9342
510.571	8165
510.643	7084
510.715	13129
510.787	9422
510.859	9766
510.931	9630
511.003	11861
511.076	11445
511.148	7816
511.219	8578
511.291	14129
511.363	14568
511.435	7529
511.507	6863
511.579	7815
511.651	8532
511.723	7456
511.795	6816
511.867	6536
511.939	9828
512.010	17146
512.082	12803
512.154	7156
512.226	9168
512.298	13368
512.369	16364
512.441	11821
512.513	11326
512.585	8402
512.656	10446
512.728	9679
512.800	8306
512.871	8385
512.943	8309
513.015	7088
513.086	8085
513.158	9072
513.230	8430
513.301	11704
513.373	12628
513.444	7643
513.516	7053
513.588	6795
513.659	7576
513.731	8759
513.802	8057
513.874	16920
513.945	24011
514.016	9556
514.088	7773
514.159	7809
514.231	10980
514.302	14134
514.374	11137
514.445	11756
514.516	21601
514.588	15679
514.659	11287
514.730	19464
514.802	15797
514.873	13426
514.944	16203
515.016	13516
515.087	12108
515.158	16732
515.229	21386
515.301	15323
515.372	21955
515.443	15463
515.514	11355
515.585	9218
515.656	9942
515.728	8805
515.799	7527
515.870	9180
515.941	7697
516.012	7975
516.083	11562
516.154	11259
516.225	13018
516.296	12340
516.367	10421
516.438	10906
516.509	12418
516.580	18394
516.651	56333
516.722	149118
516.793	70351
516.864	18002
516.935	17920
517.006	17624
517.077	24155
517.148	56796
517.219	165536
517.289	236895
517.360	105696
517.431	35767
517.502	11501
517.573	11809
517.643	12805
517.714	13161
517.785	13624
517.856	11909
517.926	15843
517.997	15595
518.068	16039
518.138	19552
518.209	32008
518.280	128697
518.350	367234
518.421	139436
518.492	23351
518.562	17900
518.633	19758
518.703	21315
518.774	45817
518.845	94539
518.915	81977
518.986	31566
519.056	21601
519.127	28192
519.197	46235
519.268	100017
519.338	58996
519.408	16075
519.479	16009
519.549	12280
519.620	11473
519.690	8578
519.760	8100
519.831	8097
519.901	8249
519.971	8641
520.042	9437
520.112	9971
520.182	11081
520.253	10701
520.323	8852
520.393	13112
520.463	18923
520.534	12546
520.604	25843
520.674	12570
520.744	13114
520.814	27397
520.885	24721
520.955	42265
521.025	118573
521.095	40107
521.165	9733
521.235	8182
521.305	6711
521.375	8413
521.445	8448
521.515	8508
521.585	12145
521.655	9055
521.725	10033
521.795	8969
521.865	5708
521.935	12844
522.005	10445
522.075	7005
522.145	9394
522.215	8632
522.285	13237
522.355	17277
522.424	31560
522.494	24124
522.564	13923
522.634	24363
522.704	56817
522.774	21292
522.843	8099
522.913	8837
522.983	10427
523.053	6618
523.122	8049
523.192	10612
523.262	30164
523.331	27035
523.401	9094
523.471	6020
523.540	6763
523.610	4558
523.680	5951
523.749	7090
523.819	9481
523.888	8988
523.958	7147
524.027	7508
524.097	7389
524.166	6398
524.236	6378
524.305	8138
524.375	5903
524.444	5375
524.514	8940
524.583	7406
524.653	7959
524.722	9994
524.791	5631
524.861	8743
524.930	6443
524.999	6671
525.069	9685
525.138	7819
525.207	9606
525.277	7382
525.346	7872
525.415	8044
525.484	8842
525.554	8844
525.623	10972
525.692	11174
525.761	10767
525.830	12194
525.900	14742
525.969	20724
526.038	37139
526.107	81842
526.176	214037
526.245	162631
526.314	55404
526.383	113385
526.452	151742
526.522	252491
526.591	226325
526.660	51639
526.729	26784
526.797	30132
526.867	69454
526.935	262851
527.004	497657
527.073	265113
527.142	30243
527.211	14891
527.280	13272
527.349	11355
527.418	7733
527.487	8402
527.555	6418
527.624	6317
527.693	4362
527.762	6839
527.831	4401
527.899	6231
527.968	6696
528.037	4556
528.106	7915
528.174	11622
528.243	10682
528.312	14630
528.380	15866
528.449	5418
528.518	7236
528.586	3898
528.655	5599
528.723	4917
528.792	4306
528.861	4495
528.929	4921
528.998	5751
529.066	5156
529.135	7487
529.203	7147
529.272	7456
529.340	9367
529.409	9698
529.477	7990
529.545	8692
529.614	12495
529.682	11877
529.751	14091
529.819	16718
529.887	12555
529.956	10041
530.024	11839
530.092	8657
530.161	11518
530.229	13158
530.297	10201
530.365	10287
530.434	11519
530.502	10256
530.570	9690
530.638	7079
530.707	10127
530.775	11029
530.843	8669
530.911	10068
530.979	9931
531.047	10226
531.115	9984
531.183	9214
531.252	9886
531.320	8816
531.388	8865
531.456	10521
531.524	9234
531.592	11187
531.660	13820
531.728	9878
531.796	9815
531.864	9684
531.932	10778
532.000	10014
532.067	10940
532.135	11137
532.203	13188
532.271	13824
532.339	20131
532.407	32852
532.475	20603
532.542	13840
532.610	15309
532.678	18892
532.746	65411
532.814	122691
532.881	32452
532.949	14264
533.017	12043
533.084	10583
533.152	11406
533.220	11169
533.287	11421
533.355	10857
533.423	11187
533.490	9716
533.558	11123
533.625	11322
533.693	11577
533.761	12293
533.828	12019
533.896	11115
533.963	19718
534.031	21988
534.098	25646
534.166	16130
534.233	12340
534.300	13995
534.368	13749
534.435	11718
534.503	13541
534.570	13346
534.637	12789
534.705	13921
534.772	15905
534.840	30272
534.907	113845
534.974	121222
535.041	20099
535.109	14856
535.176	10946
535.243	10623
535.310	9916
535.378	9691
535.445	9432
535.512	9788
535.579	10290
535.646	9235
535.714	9945
535.781	11538
535.848	10524
535.915	13431
535.982	12489
536.049	12144
536.116	12260
536.183	10097
536.250	10874
536.317	10946
536.384	12077
536.451	13224
536.518	13182
536.585	9326
536.652	14901
536.719	15181
536.786	11667
536.853	10502
536.920	15336
536.987	19029
537.053	20554
537.120	72582
537.187	51120
537.254	9677
537.321	9504
537.388	9067
537.454	8044
537.521	8031
537.588	8626
537.654	11185
537.721	10147
537.788	12109
537.855	8969
537.921	9173
537.988	9331
538.055	9334
538.121	8578
538.188	8048
538.254	12270
538.321	17148
538.388	12306
538.454	9107
538.521	9815
538.587	7417
538.654	8570
538.720	8124
538.787	8671
538.853	9212
538.920	10514
538.986	10394
539.053	8924
539.119	9830
539.185	8631
539.252	11500
539.318	12289
539.385	12865
539.451	10233
539.517	11516
539.583	12026
539.650	24878
539.716	50045
539.782	13751
539.849	8523
539.915	9074
539.981	8600
540.047	10426
540.114	9044
540.180	11112
540.246	9061
540.312	12041
540.378	18573
540.444	18532
540.510	25815
540.576	55255
540.643	17552
540.709	7613
540.775	8916
540.841	8375
540.907	12924
540.973	17260
541.039	14174
541.105	12564
541.171	9598
541.237	8360
541.303	9850
541.369	11080
541.435	12090
541.500	16644
541.566	11053
541.632	7643
541.698	8158
541.764	9208
541.830	8500
541.896	7624
541.961	9361
542.027	8133
542.093	8987
542.159	9757
542.224	8910
542.290	14128
542.356	17938
542.421	18147
542.487	12310
542.553	10349
542.618	10955
542.684	8797
542.750	8479
542.815	10909
542.881	17991
542.947	53273
543.012	32098
543.078	8754
543.143	7827
543.209	9826
543.274	8186
543.340	10325
543.405	23128
543.471	27414
543.536	10334
543.602	9809
543.667	7630
543.732	9594
543.798	7936
543.863	9456
543.928	7351
543.994	7908
544.059	8843
544.124	8602
544.190	7851
544.255	9023
544.320	9497
544.386	8571
544.451	12584
544.516	11882
544.581	14653
544.646	37921
544.712	47213
544.777	12991
544.842	11821
544.907	12097
544.972	10706
545.037	11324
545.102	12269
545.168	11151
545.233	11274
545.298	13417
545.363	14076
545.428	14981
545.493	24202
545.558	40936
545.623	16842
545.688	11337
545.753	11624
545.818	11663
545.883	13342
545.947	11226
546.012	13827
546.077	13242
546.142	13252
546.207	13357
546.272	15897
546.337	14327
546.401	15076
546.466	13938
546.531	13419
546.596	15170
546.661	15557
546.725	15513
546.790	13992
546.855	15768
546.919	15598
546.984	17185
547.049	19240
547.113	22314
547.178	21223
547.243	25102
547.307	28354
547.372	30677
547.436	31857
547.501	29647
547.565	31711
547.630	31975
547.695	30730
547.759	31568
547.823	30696
547.888	28960
547.952	30549
548.017	32407
548.081	36868
548.146	37529
548.210	35401
548.274	33540
548.339	33638
548.403	30424
548.468	28483
548.532	29159
548.596	29107
548.660	29801
548.725	33169
548.789	36507
548.853	36102
548.917	33366
548.982	37945
549.046	32365
549.110	26538
549.174	27326
549.238	30240
549.303	32961
549.367	34186
549.431	32484
549.495	31077
549.559	30941
549.623	36385
549.687	39977
549.751	43610
549.815	44318
549.879	44810
549.943	41718
550.007	45588
550.071	44225
550.135	44311
550.199	39643
550.263	38904
550.327	38204
550.391	44325
550.455	42282
550.519	43427
550.582	47000
550.646	54890
550.710	56016
550.774	50147
550.838	51751
550.901	54333
550.965	58468
551.029	59742
551.093	67209
551.156	79318
551.220	103088
551.284	101614
551.347	74649
551.411	90483
551.475	83528
551.538	58302
551.602	52796
551.666	49154
551.729	46302
551.793	46285
551.856	45627
551.920	45912
551.983	44548
552.047	44461
552.110	44422
552.174	46334
552.237	45526
552.301	42276
552.364	40978
552.428	39704
552.491	40873
552.554	42457
552.618	42171
552.681	43916
552.745	43612
552.808	48208
552.871	51637
552.934	46908
552.998	44356
553.061	44013
553.124	41351
553.187	42754
553.251	44536
553.314	44585
553.377	48124
553.440	64977
553.503	139785
553.567	169417
553.630	56148
553.693	47323
553.756	47895
553.819	44107
553.882	44010
553.945	44186
554.008	43574
554.071	43020
554.134	44190
554.197	41724
554.260	40792
554.323	42657
554.386	41809
554.449	44089
554.512	43714
554.575	41229
554.638	41966
554.701	41239
554.764	41155
554.827	39638
554.889	38963
554.952	36230
555.015	35136
555.078	36903
555.141	37035
555.203	36074
555.266	36074
555.329	36426
555.391	34808
555.454	34871
555.517	35197
555.580	33353
555.642	30973
555.705	31162
555.768	31184
555.830	30504
555.893	29650
555.955	28373
556.018	27926
556.080	28894
556.143	29417
556.206	27927
556.268	28727
556.330	28224
556.393	28711
556.455	28493
556.518	31872
556.580	30467
556.643	25166
556.705	24250
556.767	24011
556.830	24454
556.892	25374
556.955	28538
557.017	24335
557.079	23980
557.142	23438
557.204	24910
557.266	33009
557.328	27806
557.391	21809
557.453	20653
557.515	21527
557.577	23768
557.639	22734
557.701	21118
557.764	21317
557.826	22205
557.888	23195
557.950	23847
558.012	26840
558.074	38547
558.136	91109
558.198	186517
558.260	59635
558.322	28746
558.384	29834
558.446	31909
558.508	34555
558.570	40208
558.632	53734
558.694	74007
558.756	117534
558.818	394349
558.880	756026
558.942	232016
559.003	202928
559.065	86500
559.127	38638
559.189	37350
559.251	42948
559.312	69073
559.374	193864
559.436	536133
559.498	212857
559.559	44298
559.621	36617
559.683	44870
559.744	86276
559.806	284297
559.868	339696
559.929	61389
559.991	42318
560.052	72783
560.114	188729
560.176	105060
560.237	117660
560.299	157579
560.360	34126
560.422	18737
560.483	17641
560.545	16685
560.606	15637
560.667	15474
560.729	14131
560.790	14246
560.852	14067
560.913	14341
560.974	13311
561.036	13766
561.097	13581
561.158	14297
561.220	14389
561.281	13468
561.342	13056
561.403	15394
561.465	18183
561.526	32165
561.587	34906
561.648	14407
561.709	12825
561.771	13226
561.832	12921
561.893	13360
561.954	12695
562.015	13060
562.076	12801
562.137	12182
562.198	13622
562.259	12975
562.320	13222
562.381	14042
562.442	16537
562.503	14451
562.564	13150
562.625	13422
562.686	13138
562.747	14118
562.808	12382
562.869	12786
562.930	15611
562.991	14573
563.051	13593
563.112	13583
563.173	12297
563.234	12270
563.294	12698
563.355	12676
563.416	12874
563.477	13344
563.537	12403
563.598	13075
563.659	13829
563.720	12341
563.780	12871
563.841	12840
563.901	13333
563.962	13178
564.023	12148
564.083	14143
564.144	13417
564.204	12999
564.265	13750
564.325	15542
564.386	26306
564.446	22085
564.507	13735
564.567	12638
564.628	13158
564.688	12698
564.749	13479
564.809	15049
564.869	16436
564.930	13692
564.990	14138
565.050	12583
565.111	13255
565.171	13442
565.231	12629
565.292	13800
565.352	13131
565.412	13589
565.472	14000
565.532	14764
565.593	14358
565.653	13260
565.713	14734
565.773	14966
565.833	16624
565.893	18437
565.953	15118
566.013	14862
566.074	16826
566.134	19190
566.194	25407
566.254	25838
566.314	20040
566.374	17618
566.434	18218
566.494	18479
566.554	19677
566.614	19488
566.673	19828
566.733	22351
566.793	22631
566.853	22974
566.913	23848
566.973	24841
567.033	25365
567.092	24855
567.152	24637
567.212	25194
567.272	25825
567.331	26949
567.391	27488
567.451	30859
567.511	33998
567.570	32633
567.630	27395
567.690	26198
567.749	27475
567.809	29588
567.868	31662
567.928	34507
567.988	41308
568.047	47493
568.107	58324
568.166	78841
568.226	114044
568.285	144715
568.345	134588
568.404	117264
568.464	103497
568.523	96702
568.582	95949
568.642	105779
568.701	129375
568.761	179443
568.820	246484
568.879	246524
568.939	204003
568.998	162123
569.057	129195
569.116	104770
569.176	85465
569.235	71787
569.294	61821
569.353	53876
569.413	47448
569.472	41784
569.531	37612
569.590	34078
569.649	32126
569.708	29015
569.767	28771
569.827	29879
569.886	25528
569.945	23063
570.004	22638
570.063	22249
570.122	21396
570.181	20580
570.240	22437
570.299	21534
570.358	21194
570.417	18886
570.475	17673
570.534	17501
570.593	17546
570.652	18152
570.711	17724
570.770	16574
570.829	17799
570.887	16185
570.946	16499
571.005	15990
571.064	14758
571.122	15194
571.181	16786
571.240	14225
571.299	14444
571.357	15464
571.416	16290
571.475	16897
571.533	15929
571.592	14653
571.650	15679
571.709	14414
571.768	13194
571.826	14268
571.885	14193
571.943	13792
572.002	13704
572.060	13647
572.119	13528
572.177	13916
572.236	13060
572.294	12902
572.352	13354
572.411	13590
572.469	13067
572.528	12726
572.586	13259
572.644	14475
572.703	16832
572.761	13108
572.819	11916
572.877	12226
572.936	11485
572.994	12176
573.052	12112
573.110	12740
573.169	12606
573.227	11371
573.285	12245
573.343	11957
573.401	12569
573.459	11731
573.517	12144
573.576	12717
573.634	12611
573.692	12347
573.750	12578
573.808	11593
573.866	13448
573.924	14999
573.982	14915
574.040	11670
574.098	11884
574.155	11815
574.213	12044
574.271	10897
574.329	12027
574.387	10500
574.445	11963
574.503	11414
574.560	10776
574.618	11216
574.676	10511
574.734	11433
574.792	11238
574.849	10905
574.907	11463
574.965	11188
575.022	10690
575.080	10947
575.138	11724
575.195	11002
575.253	10989
575.311	11635
575.368	11150
575.426	10481
575.483	11565
575.541	10482
575.598	11251
575.656	11397
575.713	10687
575.771	11240
575.828	10787
575.886	10906
575.943	11320
576.001	11656
576.058	10655
576.115	12371
576.173	13523
576.230	14131
576.287	13952
576.345	13661
576.402	12499
576.459	12875
576.517	12179
576.574	12398
576.631	12731
576.688	11765
576.746	12203
576.803	12145
576.860	11541
576.917	12131
576.974	11582
577.031	12178
577.089	11737
577.146	11552
577.203	11869
577.260	12446
577.317	13158
577.374	12552
577.431	12684
577.488	12217
577.545	12672
577.602	13441
577.659	12597
577.716	14086
577.773	14983
577.830	13480
577.886	12531
577.943	13013
578.000	12012
578.057	13423
578.114	15275
578.171	16375
578.227	18776
578.284	18064
578.341	16121
578.398	14927
578.454	15474
578.511	15532
578.568	15419
578.625	13376
578.681	12545
578.738	12918
578.794	13257
578.851	13710
578.908	13371
578.964	13767
579.021	13579
579.077	13158
579.134	13352
579.190	12161
579.247	12829
579.303	11881
579.360	11779
579.416	12978
579.473	13428
579.529	12536
579.586	13765
579.642	13402
579.698	13553
579.755	13938
579.811	14469
579.867	14979
579.924	14806
579.980	15402
580.036	17892
580.093	20484
580.149	27214
580.205	28741
580.261	23228
580.317	20150
580.374	19080
580.430	18051
580.486	17526
580.542	16774
580.598	14991
580.619	15310
580.654	15868
580.692	15473
580.710	15289
580.765	15299
580.767	15304
580.823	15247
580.838	15412
580.879	15862
580.911	15736
580.935	15647
580.984	15721
580.991	15747
581.047	16197
581.057	16380
581.103	17198
581.130	17792
581.159	18407
581.203	19270
581.215	19498
581.270	17723
581.276	17797
581.326	18492
581.349	18110
581.382	17523
581.422	17494
581.438	17504
581.494	17257
581.494	17271
581.550	18844
581.567	18466
581.606	17637
581.640	17479
581.661	17341
581.713	17996
581.717	18057
581.773	18571
581.786	18539
581.829	18412
581.859	18596
581.885	18817
581.932	18205
581.940	18045
581.996	19366
582.004	19079
582.052	17602
582.077	18237
582.107	18946
582.150	19193
582.163	19283
582.219	19087
582.223	19139
582.274	19763
582.296	20328
582.330	21180
582.368	20546
582.386	20308
582.441	20943
582.441	20940
582.497	21856
582.514	22064
582.552	22830
582.587	23389
582.608	23512
582.659	22422
582.663	22354
582.719	22138
582.732	22187
582.774	22321
582.805	22771
582.830	23231
582.877	24215
582.885	24372
582.941	25112
582.950	25343
582.996	26660
583.023	27692
583.052	28922
583.095	29858
583.107	30098
583.162	32640
583.168	32701
583.218	32562
583.240	32254
583.273	31445
583.313	29643
583.328	29147
583.384	29015
583.385	28985
583.439	27622
583.458	27354
583.494	27185
583.531	27150
583.549	27268
583.603	26611
583.605	26571
583.660	27916
583.676	27793
583.715	27895
583.748	27837
583.770	27819
583.820	28654
583.825	28731
583.881	28129
583.893	28281
583.936	28889
583.965	29258
583.991	29528
584.038	29279
584.046	29301
584.101	30273
584.110	30507
584.156	31522
584.183	31547
584.211	31660
584.255	31539
584.266	31464
584.321	32058
584.328	32112
584.376	33307
584.400	33698
584.431	33984
584.472	34283
584.486	34415
584.541	35611
584.545	35630
584.596	36583
584.617	36929
584.651	37601
584.689	37946
584.706	37915
584.761	38940
584.762	38917
584.816	39959
584.834	40574
584.871	41652
584.906	41559
584.926	41762
584.978	43576
584.980	43673
585.035	44401
585.051	44863
585.090	46206
585.123	47300
585.145	48066
585.195	49312
585.200	49603
585.254	52980
585.267	53993
585.309	57369
585.340	59890
585.364	61624
585.412	62364
585.419	62585
585.473	67545
585.484	68857
585.528	78246
585.556	88066
585.583	105073
585.628	146034
585.637	161100
585.692	286990
585.700	304811
585.747	372307
585.772	336294
585.801	233514
585.845	126071
585.856	112940
585.910	81948
585.917	78467
585.965	72670
585.989	70910
586.019	70254
586.061	69659
586.074	69870
586.128	70946
586.133	70889
586.183	71968
586.205	72331
586.237	72777
586.277	73348
586.292	73852
586.346	75558
586.349	75489
586.401	77043
586.421	77890
586.455	79367
586.493	81579
586.509	83716
586.564	91225
586.565	91354
586.618	106910
586.637	108022
586.672	101244
586.709	95923
586.727	95702
586.781	98457
586.781	98632
586.835	99618
586.853	100096
586.889	101541
586.925	102103
586.944	103379
586.996	107407
586.998	107736
587.052	113060
587.068	114226
587.106	117619
587.140	120688
587.161	122852
587.212	127222
587.215	127780
587.269	134405
587.284	136153
587.323	141434
587.356	145457
587.377	149229
587.427	157351
587.431	158304
587.485	167386
587.499	169574
587.539	178045
587.571	184252
587.593	188970
587.643	198379
587.648	200049
587.702	214844
587.715	218281
587.755	231553
587.786	240764
587.810	249265
587.858	265952
587.864	268716
587.917	292264
587.930	296951
587.971	318728
588.001	334665
588.025	350032
588.073	378660
588.079	383910
588.133	426189
588.145	434736
588.187	473161
588.217	500287
588.241	528919
588.288	582344
588.295	592344
588.348	668613
588.360	684479
588.402	764031
588.431	816981
588.456	875304
588.503	988085
588.510	1010370
588.564	1178829
588.575	1212994
588.617	1389864
588.646	1509608
588.671	1630944
588.718	1857966
588.725	1891294
588.778	2115952
588.789	2153145
588.832	2154881
588.861	2120572
588.886	1963981
588.932	1589785
588.939	1566963
588.993	1448040
589.004	1448421
589.047	1913638
589.075	2179580
589.100	2257430
589.147	2330890
589.154	2315956
589.207	2145656
589.218	2108500
589.261	2018354
589.290	1959802
589.314	1980618
589.361	2021871
589.368	2042082
589.421	2180606
589.433	2202651
589.475	2145155
589.504	2061489
589.528	1902663
589.576	1571975
589.582	1604880
589.635	1985830
589.647	2049413
589.689	2121820
589.718	2132850
589.742	1989966
589.790	1692044
589.795	1666108
589.849	1387602
589.861	1320989
589.902	1164544
589.932	1044872
589.955	982022
590.004	844142
590.009	836714
590.062	732375
590.075	705163
590.115	651080
590.146	606284
590.168	582968
590.218	525910
590.222	523918
590.275	478352
590.289	465221
590.328	441169
590.360	419471
590.381	408048
590.431	376512
590.435	376059
590.488	349478
590.503	340946
590.541	328826
590.574	316562
590.594	310475
590.645	292014
590.647	292383
590.700	277217
590.716	271792
590.753	263208
590.787	253978
590.806	250757
590.859	238828
590.859	239444
590.912	229321
590.930	225382
590.965	220373
591.001	213907
591.018	212260
591.071	205097
591.072	204345
591.124	197736
591.143	194336
591.177	191921
591.214	188115
591.230	187231
591.283	182410
591.285	181591
591.336	177397
591.356	174946
591.389	172343
591.427	167879
591.442	167048
591.495	161914
591.498	160988
591.547	157231
591.569	154682
591.600	153862
591.640	151755
591.653	151507
591.706	148047
591.711	147173
591.759	146559
591.782	145541
591.811	145945
591.853	145185
591.864	144787
591.917	140253
591.924	139088
591.969	137021
591.995	135166
592.022	135333
592.066	134301
592.075	134726
592.127	134440
592.137	133938
592.180	134780
592.208	134397
592.233	132270
592.279	126960
592.285	127313
592.338	126526
592.350	125895
592.390	123767
592.421	121397
592.443	121622
592.491	120719
592.495	121060
592.548	119832
592.562	119060
592.600	118144
592.633	116581
592.653	116753
592.704	115461
592.705	116086
592.775	113884
592.846	113979
592.916	111725
592.987	111542
593.058	109633
593.128	105744
593.199	104318
593.270	103999
593.341	103421
593.411	102772
593.482	102430
593.553	102196
593.623	100509
593.694	100661
593.764	101412
593.835	98095
593.906	97197
593.976	97840
594.047	98304
594.117	101979
594.188	101698
594.258	96799
594.329	95576
594.399	95620
594.470	97101
594.540	97450
594.611	95445
594.681	94931
594.751	95319
594.822	98230
594.892	97940
594.963	98406
595.033	100644
595.103	99791
595.174	101088
595.244	111217
595.314	116363
595.384	103652
595.455	100681
595.525	103176
595.595	104940
595.665	106326
595.736	103525
595.806	104073
595.876	103554
595.946	104328
596.016	104455
596.087	107530
596.157	109054
596.227	106718
596.297	112108
596.367	116693
596.437	121390
596.507	128553
596.577	134039
596.647	122187
596.717	122763
596.787	124359
596.857	123919
596.927	124804
596.997	124845
597.067	127115
597.137	132397
597.207	132767
597.277	130730
597.347	126527
597.417	124775
597.487	126407
597.557	128811
597.626	129252
597.696	131715
597.766	137203
597.836	141009
597.906	124455
597.975	120971
598.045	121291
598.115	126585
598.185	132463
598.254	142317
598.324	149292
598.394	150633
598.464	149631
598.533	144471
598.603	141380
598.672	138348
598.742	141546
598.812	140692
598.881	145124
598.951	143319
599.020	145715
599.090	149377
599.159	152351
599.229	147341
599.299	146834
599.368	151236
599.437	149602
599.507	143091
599.576	144816
599.646	145937
599.715	146028
599.785	144889
599.854	143329
599.924	145417
599.993	142426
600.062	144744
600.132	148563
600.201	155560
600.270	171105
600.340	175819
600.409	175244
600.478	175054
600.547	178931
600.617	173092
600.686	156578
600.755	150731
600.824	150397
600.894	149786
600.963	150817
601.032	153316
601.101	153610
601.170	153106
601.239	153999
601.308	158072
601.378	160686
601.447	160328
601.516	163485
601.585	168868
601.654	176578
601.723	175261
601.792	178623
601.861	186189
601.930	198038
601.999	201360
602.068	196976
602.137	203571
602.206	202944
602.275	203287
602.343	206373
602.412	207013
602.481	206784
602.550	207748
602.619	211190
602.688	211036
602.756	216363
602.825	214671
602.894	219354
602.963	216906
603.032	221329
603.100	222445
603.169	217402
603.238	226677
603.307	216023
603.375	215586
603.444	228637
603.513	211202
603.581	219697
603.650	229784
603.719	192960
603.787	186050
603.856	191096
603.924	194058
603.993	198159
604.061	201938
604.130	210955
604.198	212461
604.267	216139
604.335	221398
604.404	222766
604.472	227798
604.541	228346
604.609	233436
604.678	239874
604.746	244009
604.815	254930
604.883	244959
604.951	240930
605.020	249436
605.088	232299
605.156	222880
605.225	222568
605.293	222010
605.361	224960
605.429	220697
605.498	229531
605.566	225949
605.634	237243
605.702	236483
605.771	242535
605.839	246562
605.907	231925
605.975	238440
606.043	229074
606.111	223309
606.180	244368
606.248	226552
606.316	225794
606.384	238836
606.452	199997
606.520	173487
606.588	173932
606.656	172397
606.724	169612
606.792	160558
606.860	146470
606.928	135606
606.996	130227
607.064	129996
607.132	132976
607.200	140573
607.267	143650
607.335	146562
607.403	151108
607.471	144436
607.539	140780
607.607	141543
607.674	126232
607.742	127109
607.810	127005
607.878	126667
607.946	127717
608.013	132938
608.081	133826
608.149	136849
608.216	138069
608.284	143027
608.352	141051
608.419	142003
608.487	144615
608.555	136923
608.622	137948
608.690	142829
608.757	153116
608.825	157333
608.893	154523
608.960	152175
609.028	146630
609.095	150064
609.163	141480
609.230	128400
609.298	118990
609.365	123384
609.432	132940
609.500	143616
609.567	162411
609.635	183907
609.702	192901
609.769	186282
609.837	150946
609.904	132901
609.971	135612
610.039	151451
610.106	191559
610.173	334985
610.241	698891
610.308	522660
610.375	229284
610.442	155016
610.509	138551
610.577	134474
610.644	135031
610.711	139073
610.778	142184
610.845	147165
610.912	155544
610.980	163285
611.047	175745
611.114	164132
611.181	151703
611.248	150486
611.315	158291
611.382	162743
611.449	166152
611.516	169956
611.583	169242
611.650	170384
611.717	172950
611.784	176082
611.851	186595
611.918	200036
611.984	232207
612.051	318401
612.118	591369
612.185	1301899
612.252	967158
612.319	313167
612.386	234773
612.452	210318
612.519	200238
612.586	200517
612.653	197530
612.719	199460
612.786	191657
612.853	179367
612.919	174726
612.986	177306
613.053	169049
613.120	158785
613.186	154430
613.253	156363
613.319	153961
613.386	155511
613.453	158841
613.519	160305
613.586	161983
613.652	170585
613.719	165311
613.785	163773
613.852	162314
613.918	161183
613.985	166307
614.051	182087
614.118	216424
614.184	208093
614.250	163804
614.317	162738
614.383	160662
614.449	164162
614.516	162566
614.582	163722
614.648	161158
614.715	161081
614.781	158708
614.847	159306
614.914	158528
614.980	156701
615.046	155862
615.112	162677
615.179	164282
615.245	170095
615.311	183243
615.377	225901
615.443	248356
615.509	207792
615.575	188727
615.642	180069
615.708	183191
615.774	193545
615.840	211415
615.906	239783
615.972	310986
616.038	503503
616.104	853760
616.170	1592004
616.236	1465716
616.302	473549
616.368	307305
616.434	242326
616.500	215726
616.565	219544
616.631	254521
616.697	234086
616.763	233788
616.829	295940
616.895	462403
616.961	487050
617.026	283836
617.092	199164
617.158	181903
617.224	174957
617.289	161788
617.355	156493
617.421	154979
617.487	153623
617.552	146209
617.618	144263
617.684	143897
617.749	146250
617.815	140149
617.880	137007
617.946	138359
618.012	141678
618.077	144465
618.143	140089
618.208	140232
618.274	149096
618.339	151441
618.405	128249
618.470	129754
618.536	130332
618.601	130711
618.667	123936
618.732	118148
618.798	116363
618.863	116864
618.928	114870
618.994	117736
619.059	118431
619.124	126932
619.190	117982
619.255	115400
619.320	115261
619.386	115629
619.451	115184
619.516	112642
619.581	112855
619.647	118184
619.712	116760
619.777	113514
619.842	115192
619.907	117218
619.972	117970
620.038	116598
620.103	113945
620.168	113426
620.233	115637
620.298	116666
620.363	116529
620.428	119857
620.493	122474
620.558	122854
620.623	124787
620.688	124837
620.753	124234
620.818	124031
620.883	125843
620.948	126669
621.013	124713
621.078	125998
621.143	125057
621.207	128245
621.272	126431
621.337	124326
621.402	125589
621.467	128514
621.532	131554
621.596	126978
621.661	123016
621.726	122049
621.791	122198
621.855	123990
621.920	124865
621.985	126759
622.049	130925
622.114	129405
622.179	130197
622.243	130572
622.308	133245
622.373	137079
622.437	133981
622.502	128013
622.566	128633
622.631	126518
622.695	132186
622.760	130655
622.824	129733
622.889	130811
622.953	131577
623.018	146801
623.082	145401
623.147	136329
623.211	132505
623.276	132412
623.340	129567
623.404	126071
623.469	125516
623.533	126792
623.597	123121
623.662	125083
623.726	117029
623.790	112176
623.854	110570
623.919	112484
623.983	112053
624.047	113125
624.111	113344
624.176	115938
624.240	118164
624.304	123177
624.368	115499
624.432	115492
624.496	117305
624.560	120970
624.625	125489
624.689	122409
624.753	124631
624.817	117676
624.881	115587
624.945	108301
625.009	107569
625.073	106983
625.137	111552
625.201	118489
625.265	116970
625.329	109897
625.393	111792
625.456	109919
625.520	112017
625.584	116061
625.648	120964
625.712	135949
625.776	182524
625.839	187596
625.903	118333
625.967	99433
626.031	118160
626.095	144794
626.158	108392
626.222	86819
626.286	83771
626.349	79940
626.413	78506
626.477	77794
626.540	76436
626.604	75858
626.668	76284
626.731	74857
626.795	75732
626.858	75717
626.922	73209
626.986	71759
627.049	71044
627.113	74030
627.176	71894
627.240	70458
627.303	68937
627.366	69253
627.430	70151
627.493	68861
627.557	67266
627.620	71617
627.684	67980
627.747	70214
627.810	65214
627.874	61813
627.937	57983
628.000	62030
628.064	60855
628.127	54153
628.190	55573
628.253	53221
628.317	52835
628.380	51803
628.443	50258
628.506	50123
628.569	49342
628.632	46824
628.696	47826
628.759	47243
628.822	46142
628.885	44232
628.948	44328
629.011	44182
629.074	43600
629.137	41534
629.200	41582
629.263	44173
629.326	40858
629.389	41204
629.452	40671
629.515	41476
629.578	41324
629.641	41742
629.704	40825
629.767	40676
629.830	39746
629.892	39834
629.955	39908
630.018	41054
630.081	40874
630.144	43485
630.207	38631
630.269	41276
630.332	40074
630.395	38368
630.458	36237
630.520	34724
630.583	35499
630.646	36275
630.708	36221
630.771	36924
630.834	37595
630.896	36700
630.959	35649
631.021	36119
631.084	35794
631.146	38072
631.209	40667
631.272	35711
631.334	35817
631.397	37796
631.459	36959
631.522	37549
631.584	38454
631.646	39784
631.709	40140
631.771	42739
631.834	39164
631.896	36336
631.958	35036
632.021	36752
632.083	34528
632.145	35529
632.208	33957
632.270	36121
632.332	33692
632.395	34414
632.457	34741
632.519	33435
632.581	34961
632.643	32799
632.706	33624
632.768	31901
632.830	33765
632.892	33668
632.954	33017
633.016	34953
633.078	34308
633.141	32357
633.203	32221
633.265	33916
633.327	32690
633.389	32468
633.451	36299
633.513	35891
633.575	37066
633.637	35219
633.698	35796
633.760	34743
633.822	35889
633.884	35975
633.946	36242
634.008	36654
634.070	38240
634.132	42814
634.193	40541
634.255	40726
634.317	40707
634.379	41654
634.441	38315
634.502	36332
634.564	35393
634.626	34014
634.687	33004
634.749	32581
634.811	32586
634.873	30155
634.934	32101
634.996	32030
635.057	31596
635.119	32585
635.181	32529
635.242	34041
635.304	31740
635.365	34603
635.427	30848
635.488	32556
635.550	30808
635.611	33364
635.673	31656
635.734	35855
635.796	34428
635.857	37729
635.918	36962
635.980	39391
636.041	39619
636.102	41496
636.164	40275
636.225	40619
636.286	35895
636.348	36140
636.409	33502
636.470	31892
636.531	32508
636.593	32391
636.654	32646
636.715	30804
636.776	29802
636.838	29286
636.899	29952
636.960	29722
637.021	29011
637.082	28565
637.143	28059
637.204	27555
637.265	26936
637.326	27485
637.387	28617
637.448	26728
637.509	27131
637.570	27964
637.631	28084
637.692	25609
637.753	26396
637.814	27885
637.875	26607
637.936	28207
637.997	26583
638.058	27452
638.119	28282
638.179	26872
638.240	26117
638.301	26698
638.362	25666
638.423	25533
638.483	27458
638.544	24088
638.605	25346
638.666	24768
638.726	26675
638.787	26794
638.848	26059
638.908	25129
638.969	24869
639.030	24970
639.090	22743
639.151	24995
639.211	26145
639.272	28253
639.332	33943
639.393	27803
639.453	26416
639.514	26099
639.574	25456
639.635	24130
639.695	24517
639.756	23812
639.816	25147
639.877	25084
639.937	30734
639.997	34014
640.058	25586
640.118	22238
640.178	24206
640.239	23452
640.299	22880
640.359	22851
640.420	23209
640.480	25086
640.540	26302
640.600	26712
640.661	27507
640.721	26160
640.781	31634
640.841	29122
640.901	25442
640.961	24364
641.021	24935
641.082	25768
641.142	28644
641.202	26943
641.262	21545
641.322	23721
641.382	21923
641.442	23842
641.502	23061
641.562	23594
641.622	21845
641.682	23891
641.742	25524
641.802	25686
641.861	23694
641.921	22665
641.981	23664
642.041	23766
642.101	24411
642.161	20951
642.221	21017
642.280	21412
642.340	21350
642.400	20994
642.460	22479
642.519	21882
642.579	21356
642.639	23647
642.698	18903
642.758	23541
642.818	21989
642.877	21689
642.937	23016
642.997	24748
643.056	27259
643.116	22889
643.175	24086
643.235	22813
643.294	23747
643.354	25072
643.414	26569
643.473	30735
643.532	35236
643.592	44443
643.651	63756
643.711	106051
643.770	194900
643.830	449264
643.889	874389
643.948	250730
644.008	58286
644.067	36829
644.126	28811
644.186	27734
644.245	24888
644.304	22025
644.363	23623
644.423	20989
644.482	23929
644.541	23298
644.600	22003
644.659	27110
644.719	31355
644.778	42412
644.837	64863
644.896	123050
644.955	265548
645.014	98413
645.073	33436
645.132	26594
645.191	25307
645.250	23232
645.309	24383
645.368	24688
645.427	28682
645.486	41250
645.545	62882
645.604	27268
645.663	22468
645.722	21941
645.781	23755
645.840	25571
645.898	30701
645.957	40321
646.016	57842
646.075	99677
646.134	181882
646.192	459699
646.251	655247
646.310	122576
646.369	41419
646.427	33292
646.486	26937
646.545	23424
646.603	22126
646.662	21737
646.721	20163
646.779	20809
646.838	20693
646.896	25164
646.955	28885
647.014	40747
647.072	70750
647.131	173341
647.189	88991
647.248	23452
647.306	20184
647.365	18380
647.423	16306
647.481	17611
647.540	16407
647.598	16862
647.657	16967
647.715	17125
647.773	15256
647.832	17135
647.890	15339
647.948	15544
648.007	16718
648.065	14407
648.123	15527
648.181	18183
648.240	19373
648.298	17766
648.356	15469
648.414	16660
648.472	15303
648.531	15694
648.589	14822
648.647	14329
648.705	14593
648.763	14913
648.821	14906
648.879	15258
648.937	16971
648.995	19342
649.053	21945
649.111	32184
649.169	46973
649.227	79242
649.285	158976
649.343	424102
649.401	214864
649.459	48131
649.516	33739
649.574	27465
649.632	42579
649.690	50239
649.748	31898
649.806	41141
649.863	66445
649.921	124586
649.979	85100
650.037	20805
650.094	13488
650.152	14969
650.210	12855
650.268	14350
650.325	15502
650.383	15929
650.440	12384
650.498	13641
650.556	12289
650.613	12037
650.671	12461
650.728	12443
650.786	12184
650.843	15287
650.901	11653
650.958	11488
651.016	12012
651.073	11814
651.131	11193
651.188	10376
651.246	11552
651.303	9892
651.360	11077
651.418	10043
651.475	10389
651.532	9282
651.590	10782
651.647	9746
651.704	10439
651.762	10509
651.819	11279
651.876	9907
651.933	10451
651.990	11458
652.048	8730
652.105	10130
652.162	11003
652.219	9044
652.276	10430
652.333	10117
652.390	9214
652.448	10436
652.505	9957
652.562	11027
652.619	11262
652.676	17773
652.733	16290
652.790	10941
652.847	8650
652.904	9751
652.961	8646
653.017	9157
653.074	10094
653.131	10408
653.188	9451
653.245	9425
653.302	9252
653.359	8583
653.415	9924
653.472	8546
653.529	9977
653.586	8656
653.642	8317
653.699	10098
653.756	8485
653.813	9545
653.869	9531
653.926	9050
653.983	8566
654.039	8887
654.096	8488
654.152	8963
654.209	7890
654.266	9859
654.322	8478
654.379	10298
654.435	10007
654.492	10971
654.548	11865
654.605	15230
654.661	11682
654.717	9652
654.774	9417
654.830	9469
654.887	9570
654.943	8787
655.000	10288
655.056	10302
655.112	10200
655.168	8139
655.225	9644
655.281	10192
655.337	10913
655.394	12953
655.450	11964
655.506	11199
655.562	15044
655.618	14078
655.675	7599
655.731	8857
655.787	8476
655.843	9727
655.899	8066
655.955	8801
656.011	8832
656.067	6948
656.123	9663
656.179	9050
656.235	8839
656.291	7766
656.347	10310
656.403	9093
656.459	9403
656.515	9852
656.571	9135
656.627	9213
656.683	8387
656.739	9120
656.795	8154
656.850	8904
656.906	9691
656.962	10429
657.018	7791
657.074	9302
657.129	10644
657.185	13103
657.241	21370
657.297	14758
657.352	8783
657.408	8266
657.464	10140
657.519	7843
657.575	7327
657.630	8380
657.686	8134
657.742	8314
657.797	9401
657.853	7898
657.908	8770
657.964	6767
658.019	8766
658.075	8039
658.130	8894
658.186	7213
658.241	8320
658.297	7199
658.352	7658
658.407	8202
658.463	8321
658.518	8798
658.573	8197
658.629	7256
658.684	8915
658.739	9398
658.795	6936
658.850	8024
658.905	8218
658.960	7873
659.016	6946
659.071	8592
659.126	8361
659.181	9338
659.236	11239
659.291	12889
659.346	9544
659.401	9319
659.457	10854
659.512	13555
659.567	10108
659.622	7668
659.677	8215
659.732	7518
659.787	7510
659.842	8653
659.897	9312
659.952	8347
660.007	7853
660.061	7871
660.116	7299
660.171	7137
660.226	8359
660.281	8046
660.336	7483
660.391	8760
660.445	7860
660.500	8868
660.555	8567
660.610	7544
660.664	7124
660.719	8019
660.774	7390
660.828	8014
660.883	8363
660.938	8522
660.992	7175
661.047	7608
661.101	6771
661.156	7461
661.211	6583
661.265	7297
661.320	6967
661.374	7494
661.429	6769
661.483	7683
661.538	7249
661.592	7921
661.647	8987
661.701	9419
661.755	8088
661.810	7782
661.864	7075
661.919	7150
661.973	7793
662.027	7540
662.081	6395
662.136	7750
662.190	8054
662.244	7525
662.299	7558
662.353	7586
662.407	7058
662.461	7726
662.515	7755
662.569	7737
662.624	8137
662.678	7694
662.732	7056
662.786	7848
662.840	7697
662.894	7254
662.948	7392
663.002	6835
663.056	7397
663.110	6808
663.164	6878
663.218	7071
663.272	7038
663.326	7281
663.380	7233
663.434	7686
663.488	7427
663.542	8304
663.595	6890
663.649	6832
663.703	7426
663.757	6945
663.811	6860
663.864	7215
663.918	6970
663.972	7159
664.026	6416
664.079	7428
664.133	7569
664.187	6836
664.240	6404
664.294	7550
664.348	7858
664.401	7508
664.455	6307
664.508	6481
664.562	7481
664.615	7768
664.669	7313
664.722	6997
664.776	6593
664.829	6857
664.883	6615
664.936	6797
664.990	7531
665.043	7971
665.097	7400
665.150	8589
665.203	7232
665.257	7592
665.310	8151
665.363	6962
665.417	7005
665.470	8559
665.523	6771
665.576	7718
665.630	7502
665.683	7237
665.736	7340
665.789	7677
665.842	6925
665.895	7548
665.949	7292
666.002	6954
666.055	7941
666.108	8104
666.161	6811
666.214	7628
666.267	7686
666.320	8836
666.373	7880
666.426	8322
666.479	6957
666.532	7696
666.585	8746
666.638	8566
666.691	8190
666.744	8149
666.796	7776
666.849	8260
666.902	7643
666.955	7665
667.008	6961
667.060	6422
667.113	7496
667.166	7563
667.219	7942
667.271	6850
667.324	7358
667.377	8219
667.430	7377
667.482	8891
667.535	8157
667.587	8326
667.640	8182
667.693	8482
667.745	9653
667.798	11237
667.850	8133
667.903	8435
667.955	7341
668.008	7600
668.060	7851
668.113	8239
668.165	8274
668.218	7381
668.270	7354
668.322	8156
668.375	7215
668.427	8200
668.479	7178
668.532	7487
668.584	7192
668.636	7233
668.689	7173
668.741	6821
668.793	7324
668.845	7163
668.898	7534
668.950	7733
669.002	7582
669.054	7430
669.106	7665
669.158	8041
669.211	7825
669.263	8322
669.315	9375
669.367	9988
669.419	8354
669.471	9966
669.523	9399
669.575	10466
669.627	9403
669.679	8490
669.731	7533
669.783	9157
669.835	9091
669.886	9499
669.938	8232
669.990	8950
670.042	8252
670.094	8551
670.146	9694
670.197	10140
670.249	12101
670.301	14553
670.353	18750
670.404	24225
670.456	34603
670.508	53423
670.560	81781
670.611	135349
670.663	232792
670.715	510500
670.766	747222
670.818	271059
670.869	57148
670.921	29364
670.972	21076
671.024	16342
671.075	14040
671.127	11653
671.178	10302
671.230	11199
671.281	10305
671.333	9804
671.384	9983
671.436	12265
671.487	13055
671.538	15306
671.590	18195
671.641	25371
671.692	38897
671.744	62540
671.795	55290
671.846	28111
671.897	16376
671.949	12579
672.000	10329
672.051	10342
672.102	10046
672.153	7498
672.204	7719
672.256	7831
672.307	7787
672.358	7391
672.409	7267
672.460	7410
672.511	5869
672.562	6738
672.613	6238
672.664	6419
672.715	7471
672.766	6678
672.817	7368
672.868	5633
672.919	6726
672.970	5600
673.021	6285
673.071	5835
673.122	5923
673.173	6754
673.224	6244
673.275	6951
673.326	6138
673.376	6289
673.427	5908
673.478	6322
673.528	6017
673.579	6019
673.630	5663
673.680	6695
673.731	5777
673.782	5954
673.832	5910
673.883	5688
673.934	5094
673.984	5314
674.035	6577
674.085	6190
674.136	5613
674.186	6415
674.237	6694
674.287	8649
674.338	6638
674.388	5902
674.438	5699
674.489	6499
674.539	6332
674.589	7274
674.640	6521
674.690	6029
674.740	5490
674.791	6730
674.841	5687
674.891	6155
674.942	5452
674.992	5397
675.042	5243
675.092	5106
675.142	5252
675.193	4900
675.243	5374
675.293	5496
675.343	5413
675.393	6132
675.443	5312
675.493	5474
675.543	5209
675.593	5999
675.643	5629
675.693	5857
675.743	5839
675.793	5827
675.843	4849
675.893	5435
675.943	5487
675.993	4727
676.043	5293
676.093	5498
676.142	5095
676.192	5372
676.242	5612
676.292	4355
676.341	4365
676.391	4648
676.441	4354
676.491	4376
676.540	4963
676.590	4491
676.640	5164
676.689	4897
676.739	4330
676.789	4266
676.838	4053
676.888	4552
676.937	4709
676.987	4430
677.037	3779
677.086	4340
677.136	4341
677.185	4859
677.235	4129
677.284	5085
677.333	4807
677.383	3838
677.432	3930
677.482	3744
677.531	4388
677.580	4285
677.630	3698
677.679	3695
677.728	3785
677.778	4380
677.827	4380
677.876	4416
677.925	4523
677.975	4144
678.024	4588
678.073	4861
678.122	4974
678.171	5185
678.220	3880
678.269	5584
678.319	5574
678.368	4880
678.417	4885
678.466	4641
678.515	4382
678.564	4547
678.613	4929
678.662	3963
678.711	4851
678.760	4933
678.809	4413
678.857	3902
678.906	5264
678.955	5257
679.004	4600
679.053	5252
679.102	4927
679.151	4520
679.199	3949
679.248	4313
679.297	4486
679.346	4526
679.394	3622
679.443	5024
679.492	4072
679.540	4877
679.589	3987
679.638	4304
679.686	4689
679.735	4181
679.784	4085
679.832	5122
679.881	3803
679.929	4297
679.978	3234
680.026	3776
680.075	4459
680.123	3628
680.172	3395
680.220	4342
680.268	4028
680.317	3628
680.365	4049
680.414	3455
680.462	3972
680.510	5018
680.559	3903
680.607	4139
680.655	3584
680.703	4076
680.752	3627
680.800	3652
680.848	3670
680.896	3439
680.945	3943
680.993	3464
681.041	3657
681.089	4359
681.137	3287
681.185	4140
681.233	2982
681.258	3553
681.281	4037
681.329	3432
681.377	3743
681.380	3806
681.425	3853
681.473	5465
681.502	4903
681.521	4405
681.569	4994
681.617	4305
681.624	4413
681.665	4663
681.713	5193
681.745	5238
681.761	5182
681.809	4678
681.857	5549
681.867	5589
681.904	5501
681.952	5735
681.989	5480
682.000	5329
682.048	5464
682.096	5441
682.111	5656
682.143	5944
682.191	6063
682.233	6689
682.239	6723
682.286	6187
682.334	6591
682.354	6364
682.382	5948
682.430	6913
682.476	6301
682.477	6236
682.525	6632
682.572	6427
682.598	6086
682.620	5747
682.667	6189
682.715	6984
682.720	7048
682.763	7108
682.810	6964
682.841	7470
682.857	7633
682.905	7448
682.952	8554
682.963	8487
683.000	8117
683.047	7880
683.085	8352
683.095	8411
683.142	8237
683.190	7810
683.206	7993
683.237	8207
683.284	7888
683.328	8290
683.332	8278
683.379	9034
683.426	7722
683.449	8284
683.473	8814
683.521	8862
683.568	9373
683.571	9392
683.615	9001
683.662	9206
683.693	9348
683.709	9382
683.757	9320
683.804	9078
683.814	9211
683.851	9448
683.898	9671
683.936	9727
683.945	9714
683.992	9783
684.039	10190
684.057	10247
684.086	10272
684.133	10808
684.179	10931
684.180	10895
684.227	10485
684.274	10911
684.300	10907
684.321	10912
684.368	10140
684.415	11534
684.422	11407
684.462	10303
684.509	11230
684.543	11355
684.556	11400
684.603	11389
684.649	11329
684.665	11414
684.696	11462
684.743	12047
684.786	11806
684.790	11772
684.837	12165
684.883	13281
684.908	13434
684.930	13466
684.977	13751
685.023	14194
685.029	14141
685.070	13299
685.117	13399
685.150	13624
685.164	13768
685.210	13722
685.257	14636
685.272	14474
685.303	13913
685.350	14283
685.393	13859
685.396	13807
685.443	14284
685.490	15028
685.514	14700
685.536	14343
685.583	14600
685.629	14866
685.636	14861
685.675	14795
685.722	14786
685.757	14636
685.768	14578
685.815	14957
685.861	14962
685.878	15100
685.908	15258
685.954	15394
686.000	15448
686.000	15436
686.047	16084
686.093	16663
686.121	16378
686.139	16077
686.185	16130
686.232	16113
686.242	16100
686.278	15949
686.324	15645
686.363	15652
686.370	15692
686.416	16397
686.463	16614
686.484	16639
686.509	16562
686.555	16465
686.601	16696
686.606	16724
686.647	16832
686.693	16779
686.727	17017
686.739	17118
686.785	16860
686.831	17171
686.848	17086
686.877	16864
686.923	16486
686.969	16494
686.969	16493
687.015	17159
687.061	17538
687.090	17964
687.107	18078
687.153	17605
687.199	18001
687.211	17854
687.245	17571
687.291	17597
687.332	18127
687.336	18178
687.382	18244
687.428	18253
687.453	18354
687.474	18423
687.520	19210
687.565	18397
687.574	18407
687.611	18626
687.657	18970
687.695	19618
687.702	19808
687.748	20616
687.794	22254
687.816	22174
687.839	21456
687.885	20398
687.931	19679
687.937	19660
687.976	20025
688.022	19814
688.058	19571
688.067	19523
688.113	19526
688.158	19401
688.179	19366
688.204	19463
688.249	19388
688.295	20452
688.300	20432
688.340	20501
688.386	20262
688.421	20658
688.431	20715
688.477	20160
688.522	20637
688.542	20721
688.567	20983
688.613	20488
688.658	20960
688.663	20965
688.703	20987
688.749	20999
688.784	21019
688.794	21045
688.839	21380
688.884	21077
688.905	21164
688.930	21353
688.975	21211
689.020	21524
689.026	21520
689.065	21682
689.110	21740
689.146	21823
689.155	21903
689.201	22639
689.246	22691
689.267	22777
689.291	22706
689.336	22942
689.381	22547
689.388	22492
689.426	22379
689.471	22491
689.509	22344
689.516	22352
689.561	22488
689.606	22090
689.630	22240
689.651	22407
689.696	22564
689.741	22559
689.750	22558
689.785	22905
689.830	23356
689.871	23039
689.875	22998
689.920	23131
689.965	22850
689.992	22955
690.010	23250
690.054	23279
690.099	23636
690.112	23712
690.144	23862
690.189	23657
690.233	23948
690.233	23981
690.278	24394
690.323	24220
690.354	24190
690.367	24377
690.412	25119
690.457	25670
690.474	26116
690.501	26800
690.546	27035
690.590	27294
690.595	27335
690.635	28439
690.680	29626
690.716	30299
690.724	30871
690.769	33751
690.813	37432
690.836	38713
690.857	42593
690.902	51455
690.946	61127
690.957	63391
690.991	83547
691.035	112200
691.077	138008
691.080	138079
691.124	129403
691.168	122107
691.198	117420
691.213	109556
691.257	87066
691.301	64112
691.318	55219
691.346	51347
691.390	44777
691.434	38199
691.439	37458
691.478	35797
691.522	33544
691.559	31533
691.567	31439
691.611	30550
691.655	29806
691.680	29320
691.699	29418
691.743	29661
691.787	29850
691.800	29804
691.831	29728
691.875	29423
691.919	29659
691.921	29600
691.964	29064
692.008	28789
692.041	28293
692.052	28304
692.096	28102
692.139	28039
692.162	28058
692.183	28165
692.227	28027
692.271	27913
692.282	27907
692.315	28115
692.359	28126
692.402	28335
692.403	28389
692.447	28251
692.490	28272
692.523	28423
692.534	28600
692.578	28814
692.622	29021
692.643	28937
692.666	28922
692.709	29339
692.753	29757
692.763	29729
692.797	29825
692.840	29500
692.884	29810
692.884	29873
692.928	30115
692.971	30507
693.004	30598
693.015	30641
693.059	30845
693.102	30803
693.124	30802
693.146	31410
693.189	32442
693.233	33383
693.245	33740
693.276	35208
693.320	36293
693.363	37841
693.365	37812
693.407	40860
693.450	44681
693.485	47284
693.493	48717
693.537	55871
693.580	62853
693.605	66848
693.624	75531
693.667	96259
693.710	117283
693.725	124700
693.753	163186
693.797	224309
693.840	284974
693.845	291257
693.883	277368
693.926	260492
693.966	246420
693.970	241784
694.013	188501
694.056	135812
694.086	99420
694.099	94970
694.142	79883
694.185	64692
694.206	57477
694.229	54932
694.272	49903
694.315	44789
694.326	43355
694.358	42044
694.401	40209
694.444	38437
694.446	38269
694.487	37078
694.530	35693
694.566	34317
694.573	34285
694.616	33582
694.659	33039
694.686	32581
694.702	32727
694.745	32957
694.787	33350
694.806	33258
694.830	32948
694.873	32510
694.916	32259
694.926	32033
694.959	32026
695.002	32209
695.044	32228
695.046	32165
695.087	32204
695.130	32030
695.166	31711
695.172	31799
695.215	31799
695.258	32273
695.286	32307
695.301	32419
695.343	32398
695.386	32740
695.406	32746
695.428	32829
695.471	32812
695.514	32800
695.526	32671
695.556	33053
695.599	33846
695.641	34415
695.646	34415
695.684	34117
695.726	33565
695.766	32833
695.769	32901
695.811	33024
695.854	32932
695.886	32946
695.896	33030
695.938	32901
695.981	32789
696.005	32675
696.023	33089
696.065	33728
696.108	34674
696.125	34959
696.150	35233
696.192	35486
696.235	35551
696.245	35560
696.277	35889
696.319	36038
696.361	36149
696.365	36087
696.404	36679
696.446	37044
696.485	37330
696.488	37398
696.530	37080
696.572	36821
696.604	36416
696.614	36324
696.656	35766
696.698	35146
696.724	34594
696.740	34691
696.783	34817
696.825	34983
696.844	34969
696.867	35033
696.909	34770
696.951	34792
696.964	34700
696.992	34643
697.034	34352
697.076	33989
697.083	33875
697.118	34755
697.160	35606
697.202	36371
697.203	36304
697.244	35791
697.286	35175
697.323	34405
697.327	34532
697.369	35051
697.411	35512
697.442	35760
697.453	35798
697.494	35591
697.536	35337
697.562	35102
697.578	35218
697.620	35335
697.661	35424
697.682	35383
697.703	35680
697.744	36113
697.786	36541
697.801	36563
697.828	36702
697.869	36861
697.911	37018
697.921	36958
697.952	36649
697.994	36120
698.035	35595
698.040	35443
698.077	35876
698.118	36229
698.160	36598
698.160	36505
698.201	36684
698.243	36730
698.279	36701
698.284	36855
698.325	37371
698.367	37975
698.399	38257
698.408	38316
698.449	38180
698.491	38037
698.518	37860
698.532	38067
698.573	38379
698.614	38700
698.638	38771
698.656	38720
698.697	38379
698.738	38025
698.757	37769
698.779	38096
698.820	38515
698.862	38932
698.877	38991
698.903	39177
698.944	39299
698.985	39425
698.996	39358
699.026	39423
699.067	39368
699.116	39201
699.235	37891
699.354	38473
699.474	38483
699.593	38910
699.713	38385
699.832	38317
699.951	38812
700.070	37253
700.190	36954
700.309	36499
700.428	37410
700.547	36915
700.667	35948
700.786	36981
700.905	34812
701.024	35430
701.143	35474
701.262	35063
701.381	35230
701.500	36217
701.619	35212
701.738	34840
701.857	35076
701.976	33802
702.095	33513
702.214	36053
702.333	34877
702.452	35626
702.571	34349
702.690	34388
702.809	33352
702.928	33243
703.047	33560
703.165	32713
703.284	33048
703.403	31897
703.522	33012
703.640	32616
703.759	32574
703.878	35221
703.997	31859
704.115	33507
704.234	31624
704.353	31866
704.471	31772
704.590	30898
704.708	32200
704.827	31965
704.946	31096
705.064	30859
705.183	30835
705.301	35267
705.420	40501
705.538	37890
705.656	34579
705.775	37755
705.893	52376
706.012	59591
706.130	35832
706.249	34896
706.367	35434
706.485	35059
706.604	33218
706.722	34749
706.840	35890
706.958	40513
707.077	35732
707.195	33858
707.313	33561
707.431	32983
707.549	32323
707.668	31699
707.786	31945
707.904	31633
708.022	32691
708.140	30929
708.258	30997
708.376	31540
708.494	31533
708.612	33292
708.730	39744
708.848	38774
708.966	35064
709.084	34991
709.202	33599
709.320	33795
709.438	34898
709.556	34519
709.674	34902
709.791	33910
709.909	33163
710.027	33881
710.145	33386
710.263	33588
710.380	32667
710.498	33102
710.616	32755
710.733	31520
710.851	32321
710.969	33609
711.086	32211
711.204	30421
711.322	31411
711.439	30943
711.557	31353
711.674	31105
711.792	31214
711.909	33703
712.027	34158
712.144	31642
712.262	30596
712.379	32000
712.497	39583
712.614	40365
712.732	35737
712.849	33547
712.966	33419
713.084	36248
713.201	35568
713.318	35653
713.436	34020
713.553	35090
713.670	35990
713.787	35878
713.905	34101
714.022	34152
714.139	33661
714.256	36332
714.373	39916
714.490	52020
714.608	95630
714.725	329298
714.842	306782
714.959	48836
715.076	34800
715.193	33669
715.310	31638
715.427	31252
715.544	30521
715.661	31159
715.778	30994
715.895	32612
716.011	31695
716.128	29952
716.245	30086
716.362	30922
716.479	30686
716.596	28972
716.713	30542
716.829	29153
716.946	29205
717.063	29483
717.180	28321
717.296	28032
717.413	28709
717.530	28276
717.646	26809
717.763	28219
717.880	26897
717.996	26620
718.113	27305
718.229	27503
718.346	26005
718.462	26175
718.579	26889
718.695	29116
718.812	28377
718.928	27751
719.045	26117
719.161	25694
719.277	25953
719.394	26507
719.510	26652
719.626	26847
719.743	30451
719.859	31759
719.975	43523
720.092	110587
720.208	212158
720.324	44238
720.440	26974
720.557	27119
720.673	29695
720.789	33704
720.905	43988
721.021	29508
721.137	24821
721.253	25469
721.369	24925
721.486	25712
721.602	27274
721.718	23955
721.834	22997
721.950	24502
722.066	23575
722.181	23712
722.297	23961
722.413	23097
722.529	23707
722.645	22630
722.761	22784
722.877	23935
722.993	22680
723.108	22849
723.224	22998
723.340	22676
723.456	22348
723.571	22919
723.687	21954
723.803	23279
723.918	21368
724.034	21751
724.150	22028
724.265	22070
724.381	26716
724.497	27898
724.612	20379
724.728	21503
724.843	20564
724.959	21210
725.074	25626
725.190	27295
725.305	20798
725.421	20500
725.536	20861
725.651	20439
725.767	20266
725.882	20164
725.997	19816
726.113	20997
726.228	20451
726.343	20265
726.459	19516
726.574	20021
726.689	19324
726.804	19084
726.920	19250
727.035	20256
727.150	19952
727.265	19557
727.380	19071
727.495	19931
727.610	18972
727.725	20119
727.841	21721
727.956	31498
728.071	26361
728.186	20053
728.301	18165
728.416	19327
728.531	18386
728.645	17991
728.760	18358
728.875	17745
728.990	17652
729.105	17652
729.220	18546
729.335	18514
729.449	17258
729.564	18340
729.679	17379
729.794	18751
729.908	18514
730.023	18745
730.138	17584
730.253	17672
730.367	17073
730.482	18332
730.596	17953
730.711	17952
730.826	19940
730.940	20090
731.055	18570
731.169	18502
731.284	18178
731.398	17867
731.513	19240
731.627	19134
731.742	19956
731.856	21148
731.970	19369
732.085	20292
732.199	23786
732.313	29895
732.428	54061
732.542	119788
732.656	69112
732.771	26908
732.885	21787
732.999	21286
733.113	21290
733.227	22657
733.342	20079
733.456	20063
733.570	19055
733.684	19608
733.798	19653
733.912	18785
734.026	19539
734.140	18942
734.254	20150
734.368	22372
734.482	22510
734.596	19232
734.710	18909
734.824	18786
734.938	18282
735.052	18814
735.166	19532
735.280	19609
735.393	18302
735.507	17676
735.621	20009
735.735	21546
735.849	19776
735.962	19613
736.076	18805
736.190	18209
736.303	19503
736.417	19924
736.531	17872
736.644	18491
736.758	17804
736.872	18571
736.985	17115
737.099	17884
737.212	17716
737.326	17302
737.439	17407
737.553	17649
737.666	17823
737.780	16987
737.893	16769
738.007	17436
738.120	17651
738.233	17910
738.347	17473
738.460	17390
738.573	17574
738.687	16809
738.800	16249
738.913	17841
739.026	17958
739.140	16476
739.253	16421
739.366	16639
739.479	16175
739.592	15818
739.705	16142
739.818	17241
739.932	16872
740.045	16943
740.158	16188
740.271	17548
740.384	16845
740.497	16041
740.610	17157
740.723	16989
740.836	16440
740.949	15961
741.062	16745
741.174	16688
741.287	15746
741.400	15865
741.513	15332
741.626	15293
741.739	15451
741.851	15507
741.964	16512
742.077	14733
742.189	14904
742.302	15784
742.415	15403
742.527	16603
742.640	15390
742.753	15742
742.865	15761
742.978	15611
743.090	15516
743.203	16040
743.316	14756
743.428	15654
743.541	15799
743.653	15118
743.766	15546
743.878	15608
743.990	15641
744.103	15115
744.215	15281
744.327	14971
744.440	14594
744.552	17562
744.664	15158
744.777	15866
744.889	14809
745.001	15743
745.113	14771
745.226	15063
745.338	14435
745.450	15083
745.562	15371
745.674	14957
745.786	15236
745.898	15510
746.010	15232
746.122	14536
746.234	16005
746.347	15827
746.459	15062
746.570	14465
746.682	14244
746.794	15510
746.906	14662
747.018	15053
747.130	14752
747.242	14956
747.354	14584
747.466	15115
747.577	14066
747.689	14666
747.801	14603
747.913	14396
748.024	14519
748.136	14446
748.248	14912
748.359	14835
748.471	14234
748.583	14426
748.694	14554
748.806	16137
748.918	15423
749.029	15578
749.141	14802
749.252	15298
749.364	15144
749.475	15981
749.587	15179
749.698	14578
749.809	15014
749.921	15127
750.032	14451
750.144	13756
750.255	13839
750.366	14224
750.478	14542
750.589	14955
750.700	13509
750.811	15536
750.923	15853
751.034	16618
751.145	16468
751.256	14163
751.367	14240
751.479	14396
751.590	14120
751.701	15761
751.812	14105
751.923	15063
752.034	15100
752.145	14722
752.256	14528
752.367	15040
752.478	14458
752.589	15424
752.700	14973
752.811	14783
752.922	15155
753.032	14770
753.143	14268
753.254	14168
753.365	15499
753.476	14727
753.586	15221
753.697	15212
753.808	14883
753.919	14444
754.029	16046
754.140	14841
754.251	13864
754.361	14819
754.472	15276
754.582	15437
754.693	15448
754.804	15766
754.914	14689
755.025	15718
755.135	15112
755.246	16863
755.356	15034
755.466	16335
755.577	16194
755.687	16497
755.798	16456
755.908	16065
756.018	15456
756.129	16785
756.239	16493
756.349	16801
756.460	16297
756.570	17076
756.680	16351
756.790	17343
756.900	17608
757.011	18365
757.121	17108
757.231	16942
757.341	17619
757.451	17502
757.561	17527
757.671	17386
757.781	17975
757.891	18777
758.001	17474
758.111	19563
758.221	19206
758.331	19193
758.441	18726
758.551	19747
758.661	19561
758.771	20201
758.880	20341
758.990	21229
759.100	21241
759.210	20540
759.320	22013
759.429	20772
759.539	21574
759.649	22968
759.758	22425
759.868	23802
759.978	23186
760.087	24133
760.197	24020
760.307	24990
760.416	24583
760.526	24690
760.635	26516
760.745	26055
760.854	26634
760.964	27857
761.073	28309
761.182	28731
761.292	29479
761.401	29488
761.511	29619
761.620	30201
761.729	31993
761.839	32621
761.948	33415
762.057	33233
762.166	34042
762.276	34974
762.385	37711
762.494	38328
762.603	38793
762.712	40694
762.822	41301
762.931	43306
763.040	44751
763.149	47910
763.258	47893
763.367	49699
763.476	53023
763.585	55713
763.694	58503
763.803	60793
763.912	64321
764.021	67620
764.130	71312
764.238	76208
764.347	81677
764.456	89478
764.565	94824
764.674	103703
764.783	113387
764.891	123470
765.000	137800
765.109	155623
765.217	174936
765.326	201679
765.435	234694
765.543	276887
765.652	332950
765.761	406258
765.869	510380
765.978	640284
766.086	814423
766.195	1011750
766.303	1166325
766.412	953567
766.520	929154
766.629	1021371
766.737	919512
766.846	764520
766.954	618269
767.062	496706
767.171	399100
767.279	324730
767.387	267648
767.496	228762
767.604	198173
767.712	175331
767.820	156050
767.928	144671
768.037	132612
768.145	126550
768.253	119660
768.361	117242
768.469	118030
768.577	118698
768.685	123822
768.793	132130
768.901	143427
769.009	166216
769.117	196392
769.225	240382
769.333	315257
769.441	431694
769.549	618767
769.657	880163
769.765	1073009
769.873	877750
769.981	913730
770.088	802597
770.196	611367
770.304	455868
770.412	349584
770.519	277764
770.627	225834
770.735	187804
770.842	160473
770.950	139840
771.058	121789
771.165	110656
771.273	99988
771.380	91950
771.488	84301
771.595	79103
771.703	72116
771.810	68376
771.918	62566
772.025	60982
772.133	57194
772.240	53521
772.348	52894
772.455	50110
772.562	46502
772.670	45396
772.777	43952
772.884	42621
772.991	39805
773.099	39836
773.206	37832
773.313	36912
773.420	36418
773.528	34005
773.635	33573
773.742	32837
773.849	30794
773.956	31451
774.063	30789
774.170	29815
774.277	29902
774.384	28848
774.491	26989
774.598	27645
774.705	26409
774.812	27492
774.919	26544
775.026	26422
775.133	24943
775.239	25979
775.346	24328
775.453	24048
775.560	22926
775.667	24271
775.773	22645
775.880	22653
775.987	22116
776.093	22643
776.200	20748
776.307	20368
776.413	20431
776.520	20379
776.627	20372
776.733	19673
776.840	18697
776.946	21421
777.053	19114
777.159	19237
777.266	17700
777.372	18983
777.478	17804
777.585	18145
777.691	16895
777.798	17367
777.904	18482
778.010	19757
778.117	18606
778.223	17043
778.329	16226
778.435	16026
778.542	17690
778.648	16604
778.754	15637
778.860	16963
778.966	16239
779.072	16232
779.178	16423
779.284	15595
779.391	16664
779.497	18038
779.603	24030
779.708	32239
779.815	63192
779.920	197331
780.026	331795
780.132	79863
780.238	26488
780.344	20424
780.450	18694
780.556	15427
780.661	15306
780.767	15582
780.873	13400
780.979	13760
781.085	13678
781.190	12885
781.296	12914
781.402	13287
781.507	13655
781.613	12146
781.719	12161
781.824	13761
781.930	13002
782.035	12485
782.141	12569
782.246	11491
782.352	11419
782.457	11323
782.563	12280
782.668	11935
782.773	11170
782.879	11841
782.984	12053
783.090	12312
783.195	11642
783.300	11560
783.405	11249
783.511	10743
783.616	11765
783.721	11579
783.826	10103
783.932	11376
784.037	11059
784.142	11262
784.247	10679
784.352	11346
784.457	9991
784.562	10483
784.667	10197
784.772	10554
784.877	9994
784.982	10850
785.087	10328
785.192	10217
785.297	8973
785.402	9926
785.507	9592
785.611	9937
785.716	9656
785.821	9991
785.926	9282
786.031	10000
786.135	9563
786.240	9979
786.345	8033
786.450	9721
786.554	9554
786.659	9637
786.763	8678
786.868	10498
786.973	9160
787.077	9503
787.182	9152
787.286	9279
787.391	8845
787.495	8257
787.600	8342
787.704	8420
787.809	9346
787.913	8864
788.017	9385
788.122	9659
788.226	8810
788.330	8248
788.435	8133
788.539	8919
788.643	7744
788.747	8098
788.852	8040
788.956	7614
789.060	9050
789.164	9060
789.268	7274
789.372	9423
789.476	8687
789.580	8119
789.684	7631
789.788	8723
789.892	7820
789.996	8873
790.100	7920
790.204	8384
790.308	8268
790.412	8309
790.516	8295
790.620	7271
790.724	8767
790.828	7937
790.931	6883
791.035	9243
791.139	8042
791.242	6712
791.346	8801
791.450	7800
791.554	7723
791.657	7077
791.761	8328
791.864	8243
791.968	7831
792.072	7528
792.175	7394
792.279	7534
792.382	7748
792.486	7808
792.589	7290
792.693	7995
792.796	6760
792.899	8671
793.003	7585
793.106	6610
793.209	6921
793.313	8052
793.416	5776
793.519	8217
793.623	8039
793.726	8628
793.829	7632
793.932	7732
794.035	6625
794.138	8906
794.242	9197
794.345	11546
794.448	17012
794.551	33333
794.654	109619
794.757	210406
794.860	46807
794.963	13137
795.066	9433
795.169	8777
795.272	8211
795.375	8602
795.477	6579
795.580	7843
795.683	5795
795.786	7150
795.889	5884
795.991	7692
796.094	7342
796.197	5817
796.300	7680
796.402	6406
796.505	6118
796.608	6241
796.710	6449
796.813	6446
796.915	6594
797.018	6848
797.120	6375
797.223	5858
797.326	7310
797.428	7094
797.530	6115
797.633	6255
797.735	7379
797.838	6494
797.940	7164
798.042	6043
798.145	6352
798.247	6655
798.349	5855
798.452	6983
798.554	6363
798.656	4984
798.758	6620
798.860	5905
798.962	6236
799.065	6450
799.167	5646
799.269	6941
799.371	6332
799.473	6150
799.575	6157
799.677	6149
799.779	6454
799.881	5229
799.983	6750
800.085	6351
800.187	5338
800.289	4868
800.390	5225
800.492	6157
800.594	6051
800.696	5073
800.798	6113
800.899	5355
801.001	5544
801.103	5540
801.205	5493
801.306	6312
801.408	4312
801.509	5891
801.611	5121
801.713	6202
801.814	4221
801.916	6189
802.017	5069
802.119	4912
802.220	5204
802.322	3963
802.423	7580
802.525	4642
802.626	6011
802.727	5719
802.829	5964
802.930	3928
803.031	7119
803.133	4466
803.234	5052
803.335	4785
803.436	4483
803.538	4934
803.639	4737
803.740	5878
803.841	3738
803.942	5490
804.043	5479
804.144	4164
804.245	5170
804.346	4835
804.447	3868
804.548	5954
804.649	6085
804.750	5058
804.851	4557
804.952	4059
805.053	4569
805.154	4287
805.255	5587
805.355	5120
805.456	4275
805.557	4520
805.658	3982
805.758	4520
805.859	5197
805.960	4911
806.061	4035
806.161	4239
806.262	5076
806.362	4864
806.463	4841
806.564	5514
806.664	4667
806.765	5896
806.865	4645
806.966	4638
807.066	4092
807.166	5806
807.267	4814
807.367	4112
807.468	5385
807.568	4207
807.668	5081
807.769	4989
807.869	4193
807.969	4817
808.069	4144
808.170	4841
808.270	3536
808.370	5196
808.470	4786
808.570	4731
808.670	4017
808.770	4354
808.870	3938
808.970	5239
809.070	3508
809.170	3191
809.271	4645
809.370	4027
809.470	4687
809.570	4486
809.670	4302
809.770	4299
809.870	4790
809.970	3992
810.070	4359
810.169	5656
810.269	2224
810.369	5508
810.469	4030
810.568	4494
810.668	3586
810.768	4617
810.867	5130
810.967	4066
811.066	4188
811.166	4096
811.265	5147
811.365	3951
811.464	3123
811.564	4175
811.663	4265
811.763	3367
811.862	4706
811.962	5106
812.061	5021
812.160	3496
812.260	4687
812.359	4274
812.458	4569
812.557	8873
812.657	9163
812.756	6266
812.855	4871
812.954	5417
813.053	4659
813.153	5596
813.252	4032
813.351	5138
813.450	4502
813.549	4941
813.648	4708
813.747	4474
813.846	4527
813.945	5382
814.044	4846
814.143	5629
814.242	6047
814.341	4884
814.439	5556
814.538	5301
814.637	5104
814.736	4806
814.835	5850
814.933	4859
815.032	6185
815.131	6670
815.229	7960
815.328	8861
815.427	7778
815.525	7929
815.624	7523
815.722	7211
815.821	7957
815.919	7812
816.018	7473
816.116	8896
816.215	8287
816.313	9496
816.412	9194
816.510	9756
816.609	11000
816.707	10984
816.805	11067
816.904	10364
817.002	11356
817.100	13205
817.198	14064
817.296	14796
817.395	16178
817.493	19612
817.591	21955
817.689	27289
817.787	34065
817.885	50763
817.983	79555
818.081	143897
818.179	279607
818.277	488915
818.375	380730
818.473	207181
818.571	116405
818.669	80929
818.767	67495
818.865	65906
818.963	72516
819.061	96390
819.158	142463
819.256	243346
819.354	429903
819.452	590948
819.549	401030
819.647	251404
819.745	153190
819.842	101669
819.940	71242
820.038	53520
820.135	42459
820.233	35298
820.330	28281
820.428	23614
820.525	22578
820.623	19332
820.720	16549
820.818	16047
820.915	14705
821.012	14147
821.110	11330
821.207	13499
821.304	11054
821.402	11648
821.499	10970
821.596	10493
821.693	8859
821.791	10139
821.888	8653
821.985	11019
822.082	8407
822.179	9764
822.276	8897
822.373	7762
822.470	7752
822.567	8045
822.664	6289
822.761	7933
822.858	7346
822.955	6711
823.052	5926
823.149	6746
823.246	6560
823.343	6026
823.440	6808
823.536	6052
823.633	6124
823.730	5961
823.827	6090
823.923	5907
824.020	6647
824.117	5546
824.213	5293
824.310	6403
824.407	5437
824.503	5537
824.600	6209
824.696	5152
824.793	6572
824.889	5507
824.986	5646
825.082	5392
825.179	5606
825.275	4996
825.371	5308
825.468	5332
825.564	3847
825.660	5410
825.757	5817
825.853	5899
825.949	4203
826.045	4475
826.142	5053
826.238	5142
826.334	4955
826.430	3830
826.526	4344
826.622	3632
826.718	4787
826.814	5155
826.910	5114
827.006	4506
827.102	4569
827.198	5300
827.294	4374
827.390	5676
827.486	4931
827.582	3730
827.678	3682
827.774	5136
827.869	3572
827.965	4354
828.061	3682
828.157	4970
828.252	4007
828.348	3549
828.444	3763
828.539	3843
828.635	4067
828.731	5133
828.826	2950
828.922	3367
829.017	4489
829.113	4477
829.208	2785
829.304	3450
829.399	4985
829.495	3613
829.590	4876
829.685	3252
829.781	4993
829.876	4531
829.971	2893
830.066	3322
830.162	4321
830.257	4336
830.352	3810
830.447	5049
830.543	3554
830.638	2864
830.733	4573
830.828	3276
830.923	4690
831.018	3976
831.113	4183
831.208	3951
831.303	2927
831.398	4043
831.493	3089
831.588	5186
831.683	4377
831.778	4021
831.873	3535
831.967	4481
832.062	3676
832.157	3479
832.252	4419
832.346	4227
832.441	4059
832.536	4144
832.631	6561
832.725	4636
832.820	3957
832.914	3504
833.009	2757
833.104	3237
833.198	3418
833.293	3287
833.387	3748
833.482	4418
833.576	2671
833.670	4543
833.765	2895
833.859	3466
833.954	3100
834.048	4168
834.142	3234
834.237	3224
834.331	2813
834.425	3439
834.519	2535
834.613	3945
834.708	3215
834.802	4411
834.896	2396
834.990	2949
835.084	4184
835.178	3402
835.272	3221
835.366	3038
835.460	3812
835.554	3348
835.648	2171
835.742	2877
835.836	3686
835.930	2439
836.024	3868
836.117	4199
836.211	3411
836.305	3406
836.399	3702
836.493	2667
836.586	3936
836.680	2964
836.774	2223
836.867	3418
836.961	1746
837.055	2690
837.148	3690
837.242	3004
837.335	2781
837.429	3776
837.522	2717
837.616	3043
837.709	5260
837.803	2961
837.896	3009
837.989	3272
838.083	3780
838.176	4571
838.269	3531
838.363	3344
838.456	3900
838.549	3940
838.642	3599
838.735	5864
838.829	4439
838.922	2592
839.015	2997
839.108	2287
839.201	3345
839.294	2912
839.387	3192
839.480	2724
839.573	2700
839.666	3152
839.759	3253
839.852	2862
839.945	2869
840.038	2976
840.131	2272
840.223	2498
840.316	3256
840.409	3638
840.502	2256
840.594	4093
840.687	1924
840.780	2948
840.873	2924
840.965	3311
841.058	3288
841.150	4024
841.243	2670
841.336	4071
841.428	2574
841.521	2007
841.613	3025
841.706	3654
841.798	2360
841.890	4060
841.983	1504
842.075	3855
842.167	2777
842.260	2105
842.352	3833
842.444	4052
842.537	4601
842.629	5313
842.721	2613
842.813	3352
842.905	2036
842.997	3671
843.090	3109
843.182	3870
843.274	4170
843.366	8197
843.458	11117
843.550	8181
843.642	2363
843.734	3714
843.826	2836
843.918	2887
844.009	3541
844.101	2545
844.193	3138
844.285	2889
844.377	2333
844.469	3191
844.560	2227
844.652	2506
844.744	2902
844.835	3021
844.927	2560
845.019	2602
845.110	2658
845.202	3092
845.293	2834
845.385	2590
845.476	2198
845.568	2503
845.659	1887
845.751	3077
845.842	2174
845.934	2206
846.025	3072
846.116	3733
846.208	2638
846.299	1984
846.390	2575
846.482	2601
846.573	3153
846.664	3695
846.755	3584
846.846	3814
846.937	1027
847.029	2956
847.120	2708
847.211	2010
847.302	3443
847.393	2082
847.484	2653
847.575	1919
847.666	2470
847.757	2381
847.847	2980
847.938	3605
848.029	2930
848.120	2851
848.211	1347
848.302	2978
848.392	2139
848.483	2047
848.574	1996
848.664	1676
848.755	1888
848.846	3577
848.936	1521
849.027	3008
849.118	3405
849.208	2025
849.299	3192
849.389	3250
849.480	4536
849.570	5304
849.661	9345
849.751	13412
849.841	5282
849.932	2727
850.022	1520
850.112	2475
850.203	1295
850.293	2686
850.383	3193
850.474	2034
850.564	2363
850.654	1937
850.744	1840
850.834	2571
850.924	2352
851.014	3424
851.104	2167
851.194	1342
851.284	2957
851.374	2257
851.464	2214
851.554	2304
851.644	2982
851.734	4574
851.824	5471
851.914	9384
852.004	16009
852.094	16833
852.183	4997
852.273	2228
852.363	2507
852.452	2887
852.542	1982
852.632	1732
852.721	1779
852.811	1874
852.901	2404
852.990	3014
853.080	2019
853.169	2704
853.259	2446
853.348	1992
853.438	3191
853.527	2557
853.617	2076
853.706	5862
853.795	7908
853.885	16532
853.974	26746
854.063	49846
854.152	65932
854.242	22935
854.331	5075
854.420	2972
854.509	2857
854.598	2657
854.687	3549
854.777	2694
854.866	2661
854.955	2463
855.044	1224
855.133	2466
855.222	2781
855.311	1889
855.400	2608
855.488	2651
855.577	2175
855.666	2513
855.755	2448
855.844	3370
855.933	2611
856.021	2506
856.110	1925
856.199	2369
856.288	916
856.376	1538
856.465	1905
856.554	2860
856.642	1134
856.731	2355
856.819	2281
856.908	1726
856.996	2187
857.085	1779
857.173	1395
857.262	1965
857.350	1725
857.438	1768
857.527	2215
857.615	2317
857.703	1208
857.792	1623
857.880	2111
857.968	1726
858.056	2034
858.145	1884
858.233	1411
858.321	1885
858.409	2671
858.497	1700
858.585	1963
858.673	1828
858.761	1598
858.849	2322
858.937	1391
859.025	1990
859.113	1986
859.201	1608
859.289	2587
859.377	1655
859.465	1257
859.552	2154
859.640	1811
859.728	1430
859.816	1921
859.903	2766
859.991	1544
860.079	1899
860.166	2112
860.254	2239
860.342	1482
860.429	1221
860.517	963
860.604	2233
860.692	1257
860.779	2179
860.867	1768
860.954	2268
861.042	1959
861.129	1513
861.216	1324
861.304	2005
861.391	1708
861.478	2481
861.565	2417
861.653	2715
861.740	1644
861.827	2235
861.914	2197
862.001	1566
862.089	1167
862.176	2361
862.263	808
862.350	2535
862.437	1355
862.524	1739
862.611	1111
862.698	2160
862.785	1594
862.871	2205
862.958	1553
863.045	1641
863.132	1293
863.219	1626
863.306	450
863.392	2041
863.479	1901
863.566	2769
863.652	1304
863.739	2482
863.826	1873
863.912	2182
863.999	233
864.086	1730
864.172	1403
864.259	1602
864.345	859
864.432	2021
864.518	1599
864.604	2041
864.691	2458
864.777	2278
864.863	2872
864.950	3261
865.036	2617
865.122	4707
865.209	4648
865.295	4048
865.381	3498
865.467	4021
865.553	4868
865.639	5191
865.726	5515
865.812	10282
865.898	14686
865.984	21311
866.070	37786
866.156	34807
866.242	10188
866.328	4620
866.414	3842
866.499	4876
866.585	3544
866.671	4011
866.757	4182
866.843	3521
866.928	3164
867.014	3963
867.100	3608
867.186	3197
867.271	3226
867.357	4247
867.442	4083
867.528	3707
867.614	2975
867.699	3414
867.785	3686
867.870	4212
867.956	2799
868.041	3507
868.127	3702
868.212	3238
868.297	3704
868.383	3640
868.468	3813
868.553	4801
868.639	3891
868.724	6729
868.809	5666
868.894	3965
868.979	3702
869.065	3675
869.150	2812
869.235	3705
869.320	2479
869.405	1997
869.490	2523
869.575	3237
869.660	2960
869.745	3059
869.830	3074
869.915	2955
870.000	2771
870.085	3571
870.169	3024
870.254	3134
870.339	2894
870.424	3079
870.509	3128
870.593	3382
870.678	3166
870.763	2994
870.847	2798
870.932	3083
871.016	3184
871.101	2709
871.186	2689
871.270	4051
871.355	2219
871.439	2634
871.523	2354
871.608	1860
871.692	2260
871.777	3347
871.861	2393
871.945	2109
872.030	2994
872.114	2365
872.198	2352
872.282	2305
872.367	2821
872.451	2526
872.535	2754
872.619	3146
872.703	2013
872.787	2273
872.871	2469
872.955	1915
873.039	703
873.123	2535
873.207	2553
873.291	2807
873.375	1558
873.459	2429
873.543	1601
873.627	2117
873.711	2148
873.794	2929
873.878	2054
873.962	2136
874.045	2002
874.129	2033
874.137	2039
874.213	2096
874.245	1825
874.296	1387
874.352	1105
874.380	973
874.460	1469
874.464	1488
874.547	1722
874.568	1940
874.631	2588
874.676	2404
874.714	2263
874.784	2597
874.798	2659
874.881	2622
874.892	2515
874.965	1799
874.999	1809
875.048	1792
875.107	2030
875.131	2146
875.215	1719
875.215	1719
875.298	2301
875.323	2140
875.381	1780
875.430	2422
875.465	2887
875.538	2148
875.548	2041
875.631	1404
875.646	1399
875.714	1324
875.753	1334
875.798	1418
875.861	1215
875.881	1130
875.964	1965
875.968	1956
876.047	1871
876.076	1983
876.130	2192
876.183	2309
876.213	2354
876.291	2994
876.296	3036
876.379	1340
876.398	1383
876.462	1590
876.506	1649
876.545	1601
876.613	1350
876.628	1347
876.711	1563
876.721	1651
876.794	2104
876.828	1722
876.877	1266
876.935	1405
876.960	1461
877.043	1621
877.043	1622
877.125	1592
877.150	1711
877.208	1972
877.258	2024
877.291	2106
877.365	1833
877.374	1780
877.456	1399
877.472	1384
877.539	1473
877.579	1781
877.622	2031
877.687	1812
877.704	1763
877.787	1859
877.794	1849
877.869	1743
877.901	1312
877.952	627
878.008	944
878.034	1079
878.115	1319
878.117	1327
878.199	1393
878.222	1613
878.282	2055
878.329	1930
878.364	1902
878.437	1953
878.447	1911
878.529	1120
878.544	1035
878.611	976
878.651	1130
878.694	1312
878.758	1692
878.776	1783
878.858	1300
878.865	1295
878.941	944
878.972	700
879.023	527
879.078	952
879.105	1127
879.185	1379
879.187	1389
879.269	1512
879.292	1579
879.351	1315
879.399	1162
879.433	1235
879.506	1459
879.516	1451
879.598	1230
879.613	1251
879.680	1451
879.720	1410
879.762	1295
879.827	153
879.844	-104
879.926	512
879.933	546
880.007	975
880.040	1222
880.089	1613
880.147	1585
880.171	1501
880.253	2022
880.254	2022
880.335	1831
880.360	1911
880.417	2423
880.467	2943
880.499	3322
880.574	4230
880.580	4156
880.662	1820
880.680	1538
880.744	1386
880.787	976
880.825	583
880.893	399
880.907	494
880.989	1329
881.000	1437
881.070	1341
881.106	1033
881.152	827
881.213	1024
881.233	1065
881.315	827
881.319	833
881.396	1180
881.426	1280
881.478	1427
881.532	1503
881.559	1552
881.639	1216
881.641	1199
881.722	908
881.745	896
881.803	1290
881.852	1215
881.885	904
881.958	715
881.966	729
882.047	1026
882.064	1049
882.129	1041
882.171	1203
882.210	1665
882.277	2163
882.291	2128
882.372	1315
882.383	1269
882.454	1180
882.489	1102
882.535	950
882.596	964
882.616	1005
882.697	1249
882.702	1233
882.778	1178
882.808	1297
882.859	1257
882.914	1170
882.940	1068
883.020	914
883.021	914
883.102	628
883.127	760
883.183	1261
883.233	1243
883.264	969
883.339	485
883.345	485
883.426	404
883.445	504
883.507	1202
883.551	1414
883.587	1108
883.657	1095
883.668	1152
883.749	1296
883.763	1252
883.830	787
883.869	585
883.910	655
883.975	910
883.991	914
884.072	749
884.081	752
884.152	707
884.187	569
884.233	445
884.292	416
884.314	456
884.394	687
884.398	704
884.475	1038
884.504	1054
884.555	762
884.610	526
884.636	557
884.716	735
884.716	734
884.797	814
884.821	679
884.877	466
884.927	406
884.958	483
885.033	780
885.038	773
885.118	407
885.139	429
885.199	966
885.244	1284
885.279	1301
885.350	999
885.359	968
885.439	1229
885.456	1191
885.520	711
885.561	542
885.600	544
885.667	237
885.680	312
885.760	1390
885.773	1489
885.840	1356
885.878	1327
885.920	1069
885.984	670
886.000	688
886.080	786
886.089	805
886.160	796
886.195	751
886.240	757
886.300	632
886.320	621
886.400	962
886.406	975
886.480	990
886.511	932
886.560	865
886.616	917
886.640	1023
886.720	1402
886.722	1403
886.800	674
886.827	529
886.879	604
886.932	521
886.959	631
887.038	1181
887.039	1173
887.119	192
887.143	-22
887.198	668
887.248	1109
887.278	926
887.354	686
887.358	706
887.437	1005
887.459	1136
887.517	1280
887.564	1232
887.596	922
887.669	314
887.676	346
887.755	803
887.774	890
887.835	745
887.880	729
887.914	804
887.985	859
887.994	845
888.073	685
888.090	703
888.153	895
888.195	863
888.232	898
888.300	1149
888.311	1138
888.391	902
888.405	877
888.470	747
888.510	675
888.549	793
888.615	983
888.628	944
888.708	724
888.720	694
888.787	1078
888.825	1233
888.866	749
888.930	134
888.945	225
889.024	658
889.035	722
889.103	715
889.140	707
889.182	613
889.245	468
889.261	588
889.340	1220
889.349	1294
889.419	959
889.454	777
889.498	802
889.559	889
889.577	814
889.656	481
889.664	456
889.735	894
889.768	1104
889.814	999
889.873	867
889.978	489
890.083	461
890.187	955
890.292	590
890.397	450
890.501	852
890.606	880
890.710	1190
890.815	-118
890.919	1425
891.024	439
891.128	240
891.233	933
891.337	1151
891.442	597
891.546	111
891.650	1314
891.755	1078
891.859	939
891.963	732
892.068	1302
892.172	745
892.276	855
892.380	381
892.484	1172
892.589	1150
892.693	699
892.797	844
892.901	958
893.005	761
893.109	382
893.213	740
893.317	1131
893.421	9
893.525	-716
893.629	367
893.733	-59
893.837	123
893.941	675
894.045	1380
894.148	1324
894.252	2725
894.356	1712
894.460	961
894.564	661
894.667	496
894.771	-249
894.875	402
894.978	732
895.082	269
895.186	422
895.289	981
895.393	512
895.496	805
895.600	474
895.703	1248
895.807	842
895.910	635
896.014	-306
896.117	-64
896.221	302
896.324	682
896.427	-201
896.531	897
896.634	412
896.737	468
896.840	212
896.944	897
897.047	-32
897.150	1002
897.253	500
897.356	175
897.460	32
897.563	60
897.666	1067
897.769	-266
897.872	423
897.975	795
898.078	517
898.181	4
898.284	812
898.387	785
898.490	-7
898.593	391
898.695	801
898.798	-474
898.901	312
899.004	-290
899.107	185
899.209	776
899.312	248
899.415	-155
899.518	173
899.620	-482
899.723	874
899.826	1129
899.928	1320
900.031	491
900.133	-175
900.236	231
900.338	-25
900.441	748
900.543	-133
900.646	347
900.748	-31
900.851	-2
900.953	182
901.055	-16
901.158	679
901.260	800
901.362	495
901.465	-11
901.567	-550
901.669	-249
901.771	-35
901.873	677
901.976	831
902.078	35
902.180	86
902.282	548
902.384	312
902.486	-252
902.588	1232
902.690	676
902.792	368
902.894	-41
902.996	-161
903.098	694
903.200	289
903.302	370
903.404	479
903.505	525
903.607	559
903.709	835
903.811	66
903.913	467
904.014	676
904.116	614
904.218	296
904.319	271
904.421	297
904.523	-184
904.624	383
904.726	853
904.827	138
904.929	-665
905.030	886
905.132	168
905.233	13
905.335	-283
905.436	-272
905.537	492
905.639	-169
905.740	439
905.841	525
905.943	541
906.044	-437
906.145	417
906.247	-77
906.348	91
906.449	-55
906.550	26
906.651	161
906.752	-273
906.854	-848
906.955	427
907.056	-436
907.157	1027
907.258	201
907.359	-63
907.460	148
907.561	-16
907.662	398
907.762	-196
907.863	-362
907.964	-564
908.065	-209
908.166	433
908.267	634
908.367	-497
908.468	-442
908.569	1127
908.670	528
908.770	410
908.871	-22
908.971	575
909.072	714
909.173	379
909.273	299
909.374	520
909.474	-92
909.575	-506
909.675	-621
909.776	-236
909.876	-209
909.977	-427
910.077	174
910.177	117
910.278	-267
910.378	-152
910.478	-248
910.579	-89
910.679	185
910.779	582
910.879	-549
910.980	1109
911.080	-213
911.180	-276
911.280	-516
911.380	610
911.480	572
911.580	381
911.680	769
911.780	66
911.880	43
911.980	157
912.080	-281
912.180	395
912.280	390
912.380	159
912.480	198
912.580	-5
912.679	-463
912.779	157
912.879	879
912.979	215
913.078	-68
913.178	-189
913.278	-37
913.377	266
913.477	135
913.577	-402
913.676	410
913.776	604
913.875	-355
913.975	73
914.074	338
914.174	151
914.273	-97
914.373	97
914.472	349
914.572	613
914.671	-87
914.770	-264
914.870	470
914.969	66
915.068	-194
915.167	-77
915.267	37
915.366	149
915.465	-826
915.564	-263
915.663	-492
915.763	232
915.862	398
915.961	170
916.060	-219
916.159	108
916.258	-202
916.357	-137
916.456	-168
916.555	-10
916.654	48
916.752	385
916.851	-258
916.950	268
917.049	-483
917.148	180
917.247	142
917.345	226
917.444	-761
917.543	672
917.642	-391
917.740	27
917.839	239
917.937	725
918.036	427
918.135	-613
918.233	-773
918.332	-195
918.430	152
918.529	-593
918.627	-16
918.726	469
918.824	125
918.923	122
919.021	-16
919.119	213
919.218	-242
919.316	275
919.414	28
919.512	-1032
919.611	-139
919.709	507
919.807	13
919.905	651
920.003	169
920.102	441
920.200	-262
920.298	-389
920.396	82
920.494	-69
920.592	-23
920.690	753
920.788	637
920.886	564
920.984	-584
921.082	419
921.180	1019
921.277	707
921.375	-208
921.473	580
921.571	557
921.669	5
921.766	-172
921.864	424
921.962	173
922.060	303
922.157	528
922.255	-329
922.352	499
922.450	1157
922.548	341
922.645	414
922.743	668
922.840	20
922.938	1780
923.035	818
923.133	1935
923.230	1565
923.327	835
923.425	1354
923.522	813
923.619	834
923.717	474
923.814	2004
923.911	144
924.008	1664
924.106	778
924.203	564
924.300	194
924.397	1003
924.494	1112
924.591	1638
924.688	942
924.786	1644
924.883	1789
924.979	694
925.077	1050
925.173	1353
925.270	1597
925.367	848
925.464	1211
925.561	928
925.658	1234
925.755	1458
925.852	1342
925.948	894
926.045	1196
926.142	573
926.239	920
926.335	877
926.432	1216
926.529	1564
926.625	756
926.722	989
926.818	1103
926.915	1475
927.011	1283
927.108	755
927.204	1082
927.301	965
927.397	1359
927.494	547
927.590	1150
927.687	952
927.783	970
927.879	610
927.976	992
928.072	867
928.168	914
928.264	442
928.361	868
928.457	1100
928.553	-221
928.649	1271
928.745	769
928.841	232
928.937	773
929.033	394
929.129	1108
929.225	1133
929.321	377
929.417	1171
929.513	290
929.609	590
929.705	1109
929.801	1014
929.897	587
929.993	381
930.089	136
930.184	640
930.280	-12
930.376	1179
930.471	899
930.567	647
930.663	531
930.758	1260
930.854	317
930.950	296
931.045	86
931.141	1358
931.236	1040
931.332	903
931.427	449
931.523	874
931.618	773
931.714	-880
931.809	816
931.905	545
932.000	1523
932.095	585
932.191	436
932.286	376
932.381	-435
932.476	442
932.572	595
932.667	1178
932.762	318
932.857	334
932.952	398
933.047	824
933.142	892
933.237	234
933.332	400
933.427	600
933.522	403
933.617	519
933.712	596
933.807	608
933.902	1548
933.997	1421
934.092	305
934.187	536
934.282	247
934.376	1288
934.471	550
934.566	1211
934.661	539
934.755	544
934.850	560
934.945	670
935.039	6
935.134	631
935.228	-880
935.323	839
935.417	360
935.512	705
935.606	-339
935.701	1054
935.795	166
935.890	872
935.984	615
936.079	-148
936.173	817
936.267	81
936.362	-346
936.456	1050
936.550	1122
936.644	333
936.738	213
936.833	679
936.927	39
937.021	538
937.115	426
937.209	-212
937.303	1502
937.397	-276
937.491	387
937.585	786
937.679	-250
937.773	795
937.867	341
937.961	-246
938.055	267
938.149	1411
938.243	-231
938.337	331
938.430	832
938.524	330
938.618	-527
938.712	-262
938.805	227
938.899	-96
938.993	-638
939.086	678
939.180	-355
939.274	1142
939.367	702
939.461	557
939.554	227
939.648	327
939.741	270
939.835	219
939.928	529
940.022	1237
940.115	490
940.208	777
940.302	761
940.395	949
940.488	-1139
940.582	882
940.675	-288
940.768	509
940.861	-169
940.954	1218
941.048	-552
941.141	48
941.234	-501
941.327	1271
941.420	1476
941.513	1477
941.606	109
941.699	712
941.792	387
941.885	-341
941.978	478
942.071	-434
942.164	89
942.257	-373
942.349	-352
942.442	1068
942.535	-442
942.628	-134
942.721	-183
942.813	-217
942.906	407
942.999	-45
943.091	-333
943.184	704
943.277	-845
943.369	68
943.462	-112
943.554	883
943.647	-264
943.739	1043
943.832	626
943.924	-457
944.017	28
944.109	-574
944.201	180
944.294	392
944.386	428
944.478	-474
944.571	-309
944.663	19
944.755	-509
944.847	498
944.940	129
945.032	-693
945.124	-2
945.216	1448
945.308	-158
945.400	1216
945.492	54
945.584	-225
945.676	1028
945.768	-42
945.860	321
945.952	-210
946.044	857
946.136	-625
946.228	-27
946.320	-333
946.412	-180
946.503	145
946.595	1143
946.687	-152
946.779	-531
946.870	-28
946.962	10
947.054	-153
947.145	480
947.237	316
947.329	-681
947.420	-93
947.512	-272
947.603	-472
947.695	-192
947.786	-91
947.878	-764
947.969	-583
948.061	-247
948.152	189
948.243	-449
948.335	105
948.426	-757
948.517	581
948.609	-158
948.700	555
948.791	-738
948.882	-128
948.973	-74
949.065	227
949.156	44
949.247	103
949.338	-552
949.429	-1380
949.520	278
949.611	-2
949.702	-77
949.793	238
949.884	320
949.975	-970
950.066	-626
950.157	-1050
950.247	-416
950.338	-879
950.429	-1228
950.520	-351
950.611	-33
950.701	-231
950.792	53
950.883	313
950.973	17
951.064	242
951.155	-414
951.245	570
951.336	75
951.427	-721
951.517	255
951.608	105
951.698	275
951.788	-487
951.879	52
951.969	-276
952.060	128
952.150	-67
952.240	442
952.331	-1270
952.421	642
952.511	-54
952.602	-418
952.692	-782
952.782	226
952.872	-749
952.962	-626
953.052	62
953.143	-845
953.233	542
953.323	-351
953.413	226
953.503	-177
953.593	-63
953.683	-192
953.773	-1097
953.863	177
953.953	-198
954.042	-389
954.132	-490
954.222	936
954.312	29
954.402	31
954.492	-323
954.581	1582
954.671	-587
954.761	-1128
954.850	540
954.940	-142
955.030	157
955.119	-338
955.209	-753
955.298	-869
955.388	-540
955.477	909
955.567	-31
955.656	-100
955.746	1231
955.835	-890
955.925	-855
956.014	-1202
956.103	-30
956.193	-190
956.282	133
956.371	305
956.461	-508
956.550	-625
956.639	805
956.728	-195
956.817	59
956.906	-361
956.995	200
957.085	-102
957.174	-2
957.263	-334
957.352	-209
957.441	22
957.530	-79
957.619	4
957.708	-657
957.796	-429
957.885	444
957.974	-159
958.063	397
958.152	-1445
958.241	358
958.329	-95
958.418	401
958.507	-882
958.596	-27
958.684	-1043
958.773	213
958.861	-1170
958.950	458
959.039	77
959.127	208
959.216	860
959.304	-296
959.393	66
959.481	70
959.570	143
959.658	-36
959.746	308
959.835	875
959.923	1600
960.011	11
960.100	1101
960.188	160
960.276	-530
960.365	69
960.453	-172
960.541	-209
960.629	36
960.717	-680
960.805	-1265
960.893	134
960.981	-1288
961.069	935
961.158	-408
961.245	654
961.333	258
961.421	469
961.509	777
961.597	-493
961.685	-120
961.773	-55
961.861	-514
961.949	350
962.036	-1768
962.124	-363
962.212	-765
962.299	-595
962.387	-540
962.475	-854
962.562	-1043
962.650	137
962.738	-302
962.825	-969
962.913	-470
963.000	-675
963.088	-628
963.175	-751
963.263	-399
963.350	-182
963.438	-675
963.525	-180
963.612	1885
963.700	3035
963.787	7961
963.874	1999
963.962	-271
964.049	-42
964.136	-645
964.223	338
964.310	-773
964.398	-434
964.485	-880
964.572	-152
964.659	610
964.746	65
964.833	177
964.920	-206
965.007	-313
965.094	-640
965.181	-1344
965.268	-239
965.355	180
965.441	-676
965.528	-879
965.615	-349
965.702	-187
965.789	-1311
965.875	-292
965.962	-96
966.049	-970
966.136	-334
966.222	-1515
966.309	18
966.395	-718
966.482	-436
966.569	-270
966.655	-1018
966.742	-301
966.828	-1591
966.915	-572
967.001	-704
967.087	-1162
967.174	35
967.260	260
967.347	117
967.433	2158
967.519	4510
967.605	1209
967.692	-1003
967.778	-1465
967.864	302
967.950	-291
968.036	-549
968.123	-99
968.209	-349
968.295	-1750
968.381	1168
968.467	14
968.553	-1803
968.639	-155
968.725	-394
968.811	692
968.897	-94
968.983	-779
969.069	-1310
969.154	64
969.240	-636
969.326	-865
969.412	-1097
969.497	-770
969.583	-1294
969.669	145
969.755	2
969.840	-1614
969.926	139
970.012	-1203
970.097	629
970.183	-387
970.268	-1476
970.354	-141
970.439	896
970.525	3183
970.610	-585
970.696	251
970.781	-726
970.866	-1425
970.952	-263
971.037	-1430
971.122	-362
971.208	-77
971.293	126
971.378	-1318
971.463	-996
971.549	-496
971.634	-313
971.719	-590
971.804	-505
971.889	-321
971.974	-826
972.059	-1336
972.144	-1056
972.229	-1536
972.314	-1150
972.399	-917
972.484	-213
972.569	-385
972.654	-854
972.739	958
972.824	1189
972.908	-422
972.993	-732
973.078	-952
973.163	-1233
973.247	-706
973.332	-1674
973.417	438
973.501	-426
973.586	-578
973.671	-1170
973.755	-1322
973.840	461
973.924	-163
974.009	-132
974.093	-940
974.178	559
974.262	13
974.346	146
974.431	-1297
974.515	-358
974.600	-893
974.684	-697
974.768	-1210
974.852	-585
974.937	-1041
975.021	504
975.105	-550
975.189	-987
975.273	-793
975.358	-1757
975.442	-1336
975.526	-399
975.610	-834
975.694	-1654
975.778	-649
975.862	-389
975.946	-3085
976.030	295
976.114	-1047
976.198	-747
976.281	-726
976.365	-454
976.449	-1425
976.533	-537
976.617	-1486
976.700	-965
976.784	-732
976.868	-1321
976.951	189
977.035	157
977.119	-821
977.202	-992
977.286	-1135
977.369	-867
977.453	-937
977.536	-1529
977.620	-2010
977.703	-134
977.787	-1303
977.870	-845
977.953	-342
978.037	-1541
978.120	581
978.203	-546
978.287	466
978.370	-518
978.453	-524
978.536	-735
978.620	-331
978.703	-314
978.786	-736
978.869	-1216
978.952	-2030
979.035	958
979.118	-570
979.201	-797
979.284	-1001
979.367	-943
979.450	-317
979.533	-1310
979.616	-756
979.699	-670
979.782	-800
979.865	-881
979.948	-1706
980.030	-1347
980.113	-953
980.196	-1482
980.279	14
980.361	378
980.444	-1151
980.526	5
980.609	-807
980.692	-928
980.774	-284
980.857	-2067
980.939	444
981.022	-644
981.104	-1921
981.187	-1308
981.269	-562
981.352	-518
981.434	-1365
981.516	-1412
981.599	-476
981.681	-846
981.763	-1392
981.846	-582
981.928	-1098
982.010	-1369
982.092	-1667
982.174	-1362
982.256	-759
982.339	-1088
982.421	-913
982.503	-740
982.585	-2699
982.667	-1041
982.749	-918
982.831	-813
982.913	-1850
982.995	9
983.077	-1130
983.158	-552
983.240	-1809
983.322	-1133
983.404	-1352
983.486	-886
983.568	-420
983.649	-959
983.731	-166
983.813	-814
983.894	-869
983.976	-1017
984.058	-1368
984.139	94
984.221	-2467
984.302	210
984.384	-447
984.465	-2079
984.547	-970
984.628	-1481
984.710	-75
984.791	-1698
984.872	-1065
984.954	-1075
985.035	-1004
985.116	-872
985.198	-1478
985.279	-618
985.360	-1641
985.441	-780
985.522	-972
985.604	-1435
985.685	-2626
985.766	-340
985.847	-168
985.928	-1356
986.009	-1630
986.090	169
986.171	-777
986.252	-1259
986.333	-1942
986.414	-1129
986.495	-398
986.576	-767
986.656	-552
986.737	-659
986.818	-1554
986.899	-1320
986.980	-1199
987.060	-389
987.141	-1609
987.222	-557
987.302	-706
987.383	-1011
987.464	-598
987.544	-371
987.625	-485
987.705	327
987.786	-1084
987.866	-1348
987.947	-1277
988.027	-726
988.108	-1275
988.188	15
988.268	-917
988.349	-982
988.429	-1187
988.509	-812
988.589	-389
988.670	-2199
988.750	380
988.830	-1378
988.910	-881
988.990	-763
989.070	-1353
989.151	-1783
989.231	-1047
989.311	-516
989.391	-1198
989.471	86
989.551	-461
989.631	-580
989.711	-720
989.791	-1453
989.870	-1195
989.950	-623
990.030	-1531
990.110	-1072
990.190	-1826
990.269	-582
990.349	-1557
990.429	-851
990.509	-214
990.588	-1476
990.668	-336
990.747	-212
990.827	-1243
990.907	-161
990.986	-1232
991.066	-608
991.145	-1537
991.225	-934
991.304	-1499
991.383	-323
991.463	-1748
991.542	-1267
991.622	-1561
991.701	-912
991.780	-1224
991.859	-778
991.939	-1749
992.018	-1130
992.097	-709
992.176	-110
992.256	-946
992.335	-1460
992.414	-1129
992.493	-1755
992.572	-995
992.651	-158
992.730	-1742
992.809	-542
992.888	-1758
992.967	-1385
993.046	-1137
993.125	-1653
993.203	-1916
993.282	-1409
993.361	-530
993.440	-813
993.519	-2521
993.597	-634
993.676	-1379
993.755	-1013
993.834	-1723
993.912	-1336
993.991	-286
994.069	-2040
994.148	-1409
994.226	-986
994.305	-1487
994.384	-1554
994.462	-837
994.540	-1320
994.619	-1704
994.697	-1648
994.776	-1643
994.854	-822
994.932	-1417
995.011	-1075
995.089	-1479
995.167	-884
995.245	-946
995.324	-1755
995.402	-204
995.480	-1361
995.558	-1011
995.636	-2056
995.714	-1877
995.792	-602
995.870	-2029
995.948	-1021
996.026	-1199
996.104	-1622
996.182	-665
996.260	-1618
996.338	-1220
996.416	-2148
996.494	-1405
996.572	-175
996.649	-1737
996.727	-1745
996.805	-887
996.883	-1652
996.960	-1767
997.038	-651
997.116	-2024
997.193	-1872
997.271	-1122
997.348	-607
997.426	-1664
997.504	-1534
997.581	-1229
997.658	-667
997.736	-1877
997.813	-1894
997.891	-196
997.968	-1624
998.046	-1366
998.123	-1394
998.200	-1161
998.277	-1876
998.355	-841
998.432	-1549
998.509	-1718
998.586	-1390
998.663	-1226
998.741	-1641
998.818	-1150
998.895	-1716
998.972	-1301
999.049	-1172
999.126	-1810
999.203	-601
999.280	-898
999.357	-1856
999.434	-1883
999.511	-1290
999.587	-735
999.664	-2212
999.741	-1572
999.818	-1073
999.895	-1595
999.971	-2027
1000.048	-2205
1000.125	-601
1000.202	-1570
1000.278	-886
1000.355	-975
1000.431	-1724
1000.508	-1950
1000.584	-1085
1000.661	-1042
1000.738	-2001
1000.814	-1072
1000.890	-1545
1000.967	-1770
1001.043	-913
1001.120	-2266
1001.196	-727
1001.272	-1863
1001.349	-864
1001.425	-626
1001.501	-1421
1001.577	-2457
1001.654	-998
1001.730	-1688
1001.806	-921
1001.882	-1511
1001.958	-1296
1002.034	-868
1002.110	-1179
1002.186	-1970
1002.262	-2417
1002.338	-1334
1002.414	-1224
1002.490	-1571
1002.566	-1758
1002.642	-2017
1002.718	0
1002.794	-1575
1002.870	-2056
1002.945	-1876
1003.021	-727
1003.097	-1665
1003.173	-1003
1003.248	-2169
1003.324	-1229
1003.400	-1079
1003.475	-1195
1003.551	-2099
1003.626	-1511
1003.702	-1527
1003.777	-1809
1003.853	-1514
1003.928	-2068
1004.004	-1935
1004.079	-1131
1004.155	-1224
1004.230	-1993
1004.305	-913
1004.381	-1712
1004.456	-1435
1004.531	-1918
1004.607	-1470
1004.682	-1731
1004.757	-1609
1004.832	-1538
1004.907	-1790
1004.982	-1343
1005.057	-1312
1005.133	-1823
1005.208	-1456
1005.283	-1613
1005.358	-1804
1005.433	-1621
1005.508	-1695
1005.583	-2934
1005.657	-1834
1005.732	-1180
1005.807	-2432
1005.882	-1317
1005.957	-1838
1006.032	-1573
1006.106	-2168
1006.181	-1914
1006.256	-1940
1006.331	-2533
1006.405	-1985
1006.480	-1581
1006.554	-1425
1006.629	-1713
1006.704	-2562
1006.778	-1818
1006.853	-881
1006.927	-2192
1007.002	-2399
1007.076	-352
1007.150	-1346
1007.225	-1577
1007.299	-1831
1007.373	-1888
1007.448	-2194
1007.522	-1050
1007.596	-1492
1007.671	-1960
1007.745	-1671
1007.819	-1555
1007.893	-1311
1007.967	-850
1008.041	-2227
1008.115	-674
1008.190	-884
1008.264	-1825
1008.338	-3203
1008.412	-2254
1008.486	-1574
1008.560	-2099
1008.633	-2333
1008.707	-1644
1008.781	-1002
1008.855	-2155
1008.929	-1225
1009.003	-1699
1009.076	-1457
1009.150	-1340
1009.224	-1632
1009.298	-1481
1009.371	-1921
1009.445	-966
1009.519	-1875
1009.592	-2274
1009.666	-2072
1009.739	-2202
1009.813	-1748
1009.886	-1007
1009.960	-2465
1010.033	-1189
1010.107	-1333
1010.180	-2533
1010.253	-2481
1010.327	-2783
1010.400	-2271
1010.473	-1947
1010.547	-1263
1010.620	-1928
1010.693	-1144
1010.766	-1092
1010.840	-477
1010.913	-1741
1010.986	-2289
1011.059	-1643
1011.132	-1680
1011.205	-1290
1011.278	-2050
1011.351	-2406
1011.424	-1842
1011.497	-2290
1011.570	-1895
1011.643	-2732
1011.716	-2592
1011.789	-2217
1011.862	-1454
1011.934	-2187
1012.007	-2850
1012.080	-1657
1012.153	-1524
1012.225	-1492
1012.298	-2319
1012.371	-2446
1012.443	-1287
1012.516	-2156
1012.588	-2345
1012.661	-1689
1012.733	-2303
1012.806	-1662
1012.879	-2197
1012.951	-1543
1013.023	-1696
1013.096	-1867
1013.168	-2717
1013.241	-1145
1013.313	-1752
1013.385	-2051
1013.458	-2020
1013.530	-914
1013.602	-2349
1013.674	-1502
1013.746	-2187
1013.819	-1925
1013.891	-2288
1013.963	-1921
1014.035	-2331
1014.107	-1388
1014.179	-2399
1014.251	-1967
1014.323	-1757
1014.395	-930
1014.467	-1782
1014.539	-1091
1014.611	-1598
1014.683	-1585
1014.754	-2716
1014.826	-2500
1014.898	-1291
1014.970	-2329
1015.042	-1519
1015.113	-1607
1015.185	-1924
1015.257	-2065
1015.328	-1187
1015.400	-1535
1015.471	-2416
1015.543	-2257
1015.615	-1332
1015.686	-2071
1015.757	-2658
1015.829	-1397
1015.901	-2305
1015.972	-1626
1016.043	-1915
1016.115	-993
1016.186	-2024
1016.257	-2248
1016.328	-2021
1016.400	-1487
1016.471	-2204
1016.542	-1898
1016.613	-1675
1016.685	-1767
1016.756	-1731
1016.827	-1927
1016.898	-2608
1016.969	-1154
1017.040	-1949
1017.111	-2391
1017.182	-2213
1017.253	-2078
1017.324	-1881
1017.395	-1316
1017.466	-960
1017.537	-2445
1017.608	-2542
1017.678	-2279
1017.749	-1682
1017.820	-2184
1017.891	-2570
1017.961	-1958
1018.032	-1602
1018.103	-2134
1018.173	-1928
1018.244	-2012
1018.315	-2085
1018.385	-1891
1018.456	-1847
1018.526	-2774
1018.597	-2276
1018.667	-1598
1018.738	-2463
1018.808	-2046
1018.878	-1582
1018.949	-2046
1019.019	-1838
1019.089	-2015
1019.160	-2160
1019.230	-2698
1019.300	-1757
1019.371	-2765
1019.441	-1953
1019.511	-1667
1019.581	-2172
1019.651	-2047
1019.721	-1200
1019.791	-2483
1019.861	-1429
1019.931	-1878
1020.001	-1729
1020.071	-2764
1020.141	-1757
1020.211	-2258
1020.281	-1739
1020.351	-2433
1020.421	-1606
1020.491	-1846
1020.560	-2292
1020.630	-1896
1020.700	-2364
1020.770	-2315
1020.839	-2136
1020.909	-2160
1020.979	-2457
1021.048	-1771
1021.118	-2667
1021.187	-2647
1021.257	-2491
1021.326	-1312
1021.396	-2128
1021.465	-1647
1021.535	-2642
1021.604	-2634
1021.674	-2355
1021.743	-1934
1021.812	-2241
1021.882	-1733
1021.951	-2394
1022.020	-2180
1022.089	-1627
1022.159	-1493
1022.228	-2450
1022.297	-2544
1022.366	-2414
1022.435	-1695
1022.504	-1254
1022.573	-2436
1022.642	-2399
1022.711	-2771
1022.781	-2014
1022.849	-1458
1022.918	-2349
1022.987	-1435
1023.056	-2278
1023.125	-2413
1023.194	-1988
1023.263	-2419
1023.331	-1763
1023.400	-2497
1023.469	-2112
1023.538	-1870
1023.606	-2670
1023.675	-1844
1023.744	-2366
1023.812	-1796
1023.881	-1947
1023.949	-1788
1024.018	-2016
1024.086	-1933
1024.155	-2272
1024.223	-2432
1024.292	-1444
1024.360	-1940
1024.429	-1768
1024.497	-2474
1024.565	-2010
1024.634	-2429
1024.702	-1887
1024.770	-1968
1024.838	-1828
1024.907	-2190
1024.975	-2251
1025.043	-2428
1025.111	-2155
1025.179	-2047
1025.247	-2132
1025.315	-2091
1025.383	-1931
1025.451	-2213
1025.519	-2032
1025.587	-1603
1025.655	-1742
1025.723	-1861
1025.791	-1547
1025.859	-2235
1025.927	-1540
1025.995	-1867
1026.062	-1920
1026.130	-1770
1026.198	-2511
1026.266	-2403
1026.333	-1929
1026.401	-2168
1026.469	-2227
1026.536	-1929
1026.604	-2233
1026.671	-2127
1026.739	-1944
1026.806	-2723
1026.874	-2998
1026.941	-2516
1027.009	-2033
1027.076	-2435
1027.144	-1793
1027.211	-2398
1027.278	-3056
1027.345	-1656
1027.413	-2059
1027.480	-2869
1027.547	-2589
1027.614	-1735
1027.682	-1724
1027.749	-2920
1027.816	-2707
1027.883	-1928
1027.950	-2060
1028.017	-2463
1028.084	-1319
1028.151	-1961
1028.218	-2455
1028.285	-1807
1028.352	-2195
1028.419	-2491
1028.486	-2628
1028.553	-2634
1028.619	-2493
1028.686	-1844
1028.753	-2431
1028.820	-2640
1028.886	-2877
1028.953	-2364
1029.020	-2475
1029.086	-2063
1029.153	-2315
1029.220	-1954
1029.286	-2304
1029.353	-2019
1029.419	-2894
1029.486	-2843
1029.552	-2939
1029.619	-2444
1029.685	-2696
1029.751	-1609
1029.818	-1378
1029.884	-2815
1029.951	-1263
1030.017	-2712
1030.083	-2042
1030.149	-2149
1030.216	-2447
1030.282	-2698
1030.348	-2721
1030.414	-2176
1030.480	-3441
1030.546	-1857
1030.612	-2765
1030.678	-1902
1030.744	-2445
1030.810	-1829
1030.876	-1824
1030.942	-2310
1031.008	-2484
1031.074	-2381
1031.140	-2729
1031.206	-1655
1031.272	-2748
1031.337	-1636
1031.403	-2068
1031.469	-2397
1031.534	-2955
1031.600	-1377
1031.666	-2929
1031.731	-1663
1031.797	-2134
1031.863	-2240
1031.928	-2751
1031.994	-2771
1032.059	-1965
1032.125	-2452
1032.190	-3030
1032.256	-3437
1032.321	-1926
1032.386	-2468
1032.452	-2009
1032.517	-1620
1032.582	-1907
1032.647	-2070
1032.713	-2679
1032.778	-2556
1032.843	-2437
1032.908	-2096
1032.974	-2957
1033.039	-2426
1033.104	-2200
1033.169	-2067
1033.234	-2909
1033.299	-1884
1033.364	-2064
1033.429	-2208
1033.494	-2635
1033.559	-3012
1033.624	-2925
1033.688	-1897
1033.753	-2824
1033.818	-2745
1033.883	-2264
1033.948	-1931
1034.013	-2319
1034.077	-2366
1034.142	-1363
1034.207	-1404
1034.271	-1003
1034.336	-1072
1034.400	-1897
1034.465	-1410
1034.530	-1632
1034.594	-1995
1034.658	-2555
1034.723	-3137
1034.787	-2165
1034.852	-1294
1034.916	-2973
1034.981	-2497
1035.045	-2217
1035.109	-2607
1035.173	-1660
1035.238	-2523
1035.302	-2131
1035.366	-2526
1035.430	-2710
1035.495	-3141
1035.559	-2318
1035.623	-2514
1035.687	-2403
1035.751	-1732
1035.815	-1749
1035.879	-2306
1035.943	-2482
1036.007	-2569
1036.071	-2421
1036.135	-2272
1036.198	-2584
1036.262	-2570
1036.326	-1960
1036.390	-1663
1036.454	-2449
1036.517	-1497
1036.581	-2773
1036.645	-2447
1036.709	-2278
1036.772	-2279
1036.836	-2243
1036.900	-2341
1036.963	-2462
1037.026	-2063
1037.090	-3016
1037.154	-2201
1037.217	-2721
1037.280	-2726
1037.344	-2488
1037.407	-3057
1037.471	-1965
1037.534	-2129
1037.597	-2667
1037.661	-3280
1037.724	-2366
1037.787	-2202
1037.850	-1819
1037.913	-2674
1037.977	-1632
1038.040	-2073
1038.103	-2689
1038.166	-1631
1038.229	-2218
1038.292	-2204
1038.355	-2505
1038.418	-1695
1038.481	-2263
1038.544	-2050
1038.607	-1808
1038.670	-2205
1038.732	-2035
1038.795	-3191
1038.858	-2257
1038.921	-1648
1038.984	-2468
1039.046	-2474
1039.109	-2549
1039.172	-1838
1039.234	-2551
1039.297	-2037
1039.360	-2048
1039.422	-1865
1039.485	-2327
1039.547	-2390
1039.610	-2229
1039.672	-2422
1039.734	-3144
1039.797	-1896
1039.859	-2175
1039.922	-1892
1039.984	-2415
1040.046	-1691
1040.109	-2447
1040.171	-2442
1040.233	-2374
1040.295	-2690
1040.358	-2491
1040.420	-2144
1040.482	-2769
1040.544	-2679
1040.606	-2313
1040.668	-2417
1040.730	-2344
1040.792	-2543
1040.854	-3186
1040.916	-2447
1040.978	-2144
1041.040	-2068
1041.102	-1654
1041.164	-1764
1041.225	-2651
1041.287	-1873
1041.349	-1179
1041.411	-2733
1041.472	-1909
1041.534	-2620
1041.596	-2507
1041.657	-2186
1041.719	-2541
1041.781	-2087
1041.842	-3051
1041.904	-2265
1041.965	-2279
1042.027	-2077
1042.088	-2579
1042.150	-2077
1042.211	-1877
1042.272	-2450
1042.334	-2059
1042.395	-2295
1042.456	-2079
1042.518	-1699
1042.579	-1731
1042.640	-2732
1042.701	-3079
1042.763	-2947
1042.824	-1582
1042.885	-3040
1042.946	-2484
1043.007	-2392
1043.068	-2187
1043.129	-2093
1043.190	-3613
1043.251	-1881
1043.312	-2918
1043.373	-1843
1043.434	-2898
1043.495	-1227
1043.556	-2128
1043.616	-2388
1043.677	-2606
1043.738	-1681
1043.799	-1705
1043.859	-1349
1043.920	-2486
1043.981	-2824
1044.041	-2316
1044.102	-1301
1044.162	-2370
1044.223	-1978
1044.284	-3157
1044.344	-2031
1044.405	-2025
1044.465	-2150
1044.525	-1461
1044.586	-1471
1044.646	-2783
1044.707	-2715
1044.767	-2393
1044.827	-2246
1044.887	-2527
1044.948	-2297
1045.008	-2761
1045.068	-1836
1045.128	-2181
1045.188	-2968
1045.249	-1839
1045.309	-2370
1045.369	-2295
1045.429	-2080
1045.489	-2256
1045.549	-2173
1045.609	-2306
1045.669	-2260
1045.729	-1791
1045.789	-1562
1045.848	-2530
1045.908	-1789
1045.968	-967
1046.028	-2083
1046.088	-1622
1046.147	-2138
1046.207	-2206
1046.267	-1711
1046.326	-1839
1046.386	-1276
1046.446	-1584
1046.505	-1278
1046.565	-1745
1046.624	-1290
1046.684	-771
1046.743	-1130
1046.803	-1500
1046.862	-689
1046.922	0
