'Start Wavelength	183.907
'End Wavelength	1046.922
'Gate Delay	5.000
'Gate Width (ms)	1.050
'Laser Output Level	0.000
'X Position	0.000
'Y Position	0.000
'Z Position	0.000
'Grid Point Number	1.000
'Shot Number	100.000
183.907	558.000
183.977	-492.000
184.047	76
184.116	643
184.186	681
184.256	30
184.325	514
184.395	88
184.465	577
184.534	-197
184.604	218
184.674	453
184.743	-26
184.813	205
184.883	-283
184.952	-116
185.022	592
185.092	489
185.161	277
185.231	326
185.301	-15
185.370	1080
185.440	-10
185.509	-53
185.579	-188
185.649	223
185.718	798
185.788	504
185.857	100
185.927	273
185.996	368
186.066	457
186.136	347
186.205	50
186.275	464
186.344	535
186.414	335
186.483	-6
186.553	1046
186.622	1036
186.692	494
186.761	-160
186.831	205
186.900	-235
186.970	-333
187.039	674
187.109	1335
187.178	7
187.248	630
187.317	402
187.387	-252
187.456	5
187.526	1049
187.595	805
187.664	363
187.734	236
187.803	284
187.873	208
187.942	910
188.012	498
188.081	372
188.150	11
188.220	233
188.289	362
188.358	274
188.428	85
188.497	630
188.567	383
188.636	-167
188.705	22
188.775	509
188.844	-395
188.913	1122
188.983	589
189.052	68
189.121	-107
189.191	625
189.260	861
189.329	510
189.399	459
189.468	691
189.537	956
189.606	897
189.676	193
189.745	1028
189.814	1132
189.883	504
189.953	606
190.022	251
190.091	1479
190.161	2151
190.230	1322
190.299	317
190.368	1408
190.437	207
190.507	-366
190.576	836
190.645	-383
190.714	385
190.783	227
190.853	558
190.922	34
190.991	497
191.060	202
191.129	-205
191.198	896
191.268	-361
191.337	-121
191.406	1620
191.475	728
191.544	748
191.613	583
191.682	212
191.752	53
191.821	-259
191.890	919
191.959	128
192.028	493
192.097	509
192.166	946
192.235	-126
192.304	245
192.373	-346
192.442	1
192.511	217
192.580	164
192.650	-438
192.719	295
192.788	1330
192.857	146
192.926	637
192.995	627
193.064	424
193.133	1319
193.202	1315
193.271	1749
193.340	1543
193.409	2017
193.478	1626
193.547	1826
193.615	2781
193.684	3012
193.753	2302
193.822	2700
193.891	767
193.960	2247
194.029	437
194.098	182
194.167	-748
194.236	500
194.305	513
194.374	406
194.443	787
194.512	1649
194.580	1105
194.649	1208
194.718	1171
194.787	489
194.856	677
194.925	652
194.994	908
195.062	1301
195.131	1701
195.200	1944
195.269	2477
195.338	1677
195.407	814
195.475	435
195.544	1842
195.613	2355
195.682	822
195.751	1635
195.819	2396
195.888	1674
195.957	2060
196.026	2070
196.094	2536
196.163	2893
196.232	2371
196.301	1618
196.369	1392
196.438	1159
196.507	38
196.576	160
196.644	966
196.713	582
196.782	521
196.850	1340
196.919	1083
196.988	1156
197.056	268
197.125	731
197.194	1396
197.262	659
197.331	580
197.400	574
197.468	834
197.537	-108
197.606	815
197.674	1197
197.743	2392
197.812	588
197.880	2424
197.949	1628
198.017	2851
198.086	1576
198.155	762
198.223	1304
198.292	2604
198.360	1254
198.429	74
198.497	445
198.566	2021
198.635	3166
198.703	1267
198.772	1147
198.840	2284
198.909	3376
198.977	952
199.046	1140
199.114	878
199.183	1253
199.251	9
199.320	177
199.388	592
199.457	338
199.525	1884
199.594	868
199.662	599
199.731	1057
199.799	371
199.867	866
199.936	939
200.004	1463
200.073	1028
200.141	136
200.210	361
200.278	1176
200.346	1081
200.415	617
200.483	1048
200.552	806
200.620	309
200.688	1133
200.757	754
200.825	1361
200.893	1040
200.962	993
201.030	498
201.098	1340
201.167	892
201.235	767
201.303	954
201.372	783
201.440	873
201.508	1514
201.577	1043
201.645	977
201.713	1159
201.781	852
201.850	1174
201.918	1384
201.986	659
202.055	2029
202.123	901
202.191	1527
202.259	517
202.327	904
202.396	1366
202.464	1285
202.532	1772
202.600	5296
202.669	3330
202.737	1985
202.805	353
202.873	809
202.941	1095
203.009	960
203.078	1027
203.146	390
203.214	890
203.282	291
203.350	1448
203.418	759
203.487	716
203.555	1475
203.623	212
203.691	392
203.759	917
203.827	535
203.895	626
203.963	1262
204.031	1283
204.099	1058
204.168	1400
204.236	1277
204.304	1166
204.372	1139
204.440	1691
204.508	1187
204.576	985
204.644	1019
204.712	-5
204.780	1702
204.848	809
204.916	579
204.984	942
205.052	1069
205.120	1180
205.188	1326
205.256	859
205.324	539
205.392	1465
205.460	1373
205.528	257
205.596	1140
205.664	1483
205.732	1600
205.799	2233
205.867	5607
205.935	1633
206.003	1529
206.071	1107
206.139	826
206.207	649
206.275	247
206.343	751
206.411	1274
206.478	1525
206.546	1086
206.614	1138
206.682	1546
206.750	477
206.818	1371
206.885	910
206.953	1156
207.021	2241
207.089	1423
207.157	511
207.225	1087
207.292	634
207.360	1634
207.428	1322
207.496	674
207.563	1363
207.631	405
207.699	873
207.767	1778
207.834	834
207.902	451
207.970	1013
208.038	751
208.105	1297
208.173	739
208.241	1764
208.309	1655
208.376	1807
208.444	3559
208.512	1805
208.579	1287
208.647	1598
208.715	1048
208.782	1580
208.850	1577
208.918	1112
208.985	708
209.053	1596
209.120	1805
209.188	1856
209.256	1777
209.323	846
209.391	3206
209.459	2604
209.526	811
209.594	1057
209.661	1298
209.729	1126
209.796	2366
209.864	1513
209.932	11
209.999	2463
210.067	2184
210.134	2032
210.202	2081
210.269	3528
210.337	2939
210.404	2473
210.472	1954
210.539	1680
210.607	2193
210.674	3607
210.742	2733
210.809	1388
210.877	2366
210.944	3158
211.012	2393
211.079	3616
211.146	1768
211.214	1594
211.281	2095
211.349	2262
211.416	2025
211.484	2748
211.551	1891
211.618	1764
211.686	1940
211.753	1425
211.821	2249
211.888	1691
211.955	2292
212.023	1832
212.090	2036
212.157	1766
212.225	2209
212.292	3790
212.359	5893
212.427	14896
212.494	7273
212.561	2839
212.629	3364
212.696	2572
212.763	1929
212.831	1755
212.898	2799
212.965	1814
213.032	2613
213.100	2932
213.167	2966
213.234	3135
213.301	1863
213.369	1774
213.436	2149
213.503	1792
213.570	2583
213.638	2365
213.705	2103
213.772	1115
213.839	2549
213.906	3418
213.973	3275
214.041	2281
214.108	2444
214.175	3168
214.242	2958
214.309	2258
214.376	2567
214.444	2716
214.511	2552
214.578	2920
214.645	2350
214.712	2805
214.779	2685
214.846	1745
214.913	3680
214.980	3596
215.048	4245
215.115	4671
215.182	4939
215.249	3959
215.316	3170
215.383	2452
215.450	3096
215.517	2563
215.584	2310
215.651	1824
215.718	1919
215.785	3889
215.852	3959
215.919	5435
215.986	4550
216.053	2676
216.120	2292
216.187	2894
216.254	4709
216.321	2924
216.388	3487
216.455	4508
216.522	3482
216.589	5262
216.656	9073
216.722	7995
216.789	4881
216.856	4314
216.923	3959
216.990	4040
217.057	3704
217.124	6073
217.191	4320
217.258	6588
217.324	7145
217.391	6611
217.458	5375
217.525	4128
217.592	3465
217.659	2265
217.725	3883
217.792	5571
217.859	5367
217.926	2312
217.993	1676
218.059	2382
218.126	1597
218.193	1638
218.260	1511
218.327	1856
218.393	2502
218.460	2544
218.527	810
218.594	1681
218.660	5070
218.727	6697
218.794	2458
218.860	2554
218.927	1943
218.994	1966
219.061	2674
219.127	3843
219.194	5689
219.261	3267
219.327	1570
219.394	2598
219.461	1509
219.527	1434
219.594	2587
219.661	2317
219.727	1107
219.794	1850
219.860	1238
219.927	1856
219.994	3550
220.060	6906
220.127	4362
220.193	2618
220.260	2601
220.326	4213
220.393	8230
220.460	9995
220.526	6240
220.593	4027
220.659	3837
220.726	4470
220.792	8597
220.859	9464
220.925	13522
220.992	16689
221.058	15361
221.125	12837
221.191	9827
221.258	4356
221.324	4329
221.391	3636
221.457	2364
221.524	2183
221.590	3214
221.657	9303
221.723	7047
221.789	5786
221.856	6066
221.922	2891
221.989	2633
222.055	1772
222.121	1494
222.188	3059
222.254	1842
222.321	1152
222.387	1732
222.453	1461
222.520	1155
222.586	1436
222.652	1988
222.719	1804
222.785	1816
222.851	1766
222.918	1092
222.984	1193
223.050	2042
223.116	1450
223.183	2550
223.249	1633
223.315	433
223.382	1709
223.448	1155
223.514	1347
223.580	1021
223.647	617
223.713	754
223.779	603
223.845	939
223.911	1782
223.978	759
224.044	1129
224.110	1341
224.176	1258
224.242	996
224.309	-123
224.375	1602
224.441	1598
224.507	1278
224.573	933
224.639	2549
224.705	656
224.772	1957
224.838	1036
224.904	2880
224.970	1753
225.036	1692
225.102	2697
225.168	2685
225.234	2429
225.300	2118
225.366	1757
225.432	1660
225.499	1697
225.565	2091
225.631	3128
225.697	2365
225.763	2477
225.829	3954
225.895	3429
225.961	6337
226.027	5126
226.093	3843
226.159	4951
226.225	7318
226.291	16350
226.357	27730
226.423	16477
226.489	9322
226.554	6636
226.620	5506
226.686	8608
226.752	14317
226.818	16945
226.884	34645
226.950	31038
227.016	13388
227.082	8025
227.148	7632
227.214	8549
227.279	6802
227.345	5155
227.411	3936
227.477	3413
227.543	4948
227.609	7617
227.674	5646
227.740	4078
227.806	4969
227.872	2402
227.938	3518
228.003	8037
228.069	3827
228.135	1495
228.201	2363
228.267	2452
228.332	4529
228.398	5702
228.464	3415
228.530	1107
228.595	1592
228.661	1566
228.727	6985
228.792	6546
228.858	3635
228.924	3050
228.990	4957
229.055	4472
229.121	6615
229.187	2927
229.252	3598
229.318	2049
229.384	3800
229.449	4883
229.515	1015
229.581	398
229.646	4396
229.712	4602
229.777	8826
229.843	9754
229.909	6881
229.974	6483
230.040	6298
230.105	3874
230.171	4626
230.236	5235
230.302	7573
230.368	7836
230.433	4363
230.499	3630
230.564	5383
230.630	3767
230.695	2330
230.761	2979
230.826	1085
230.892	6216
230.957	2134
231.023	2541
231.088	2043
231.154	1630
231.219	2772
231.284	4557
231.350	5293
231.415	2302
231.481	2354
231.546	850
231.612	2741
231.677	2282
231.742	1019
231.808	3301
231.873	2136
231.939	1090
232.004	5647
232.069	5945
232.135	2284
232.200	1679
232.265	2030
232.331	1577
232.396	1187
232.461	809
232.527	1617
232.592	1147
232.657	1859
232.723	7639
232.788	5925
232.853	2583
232.918	2255
232.984	1820
233.049	2217
233.114	6223
233.179	7069
233.245	8391
233.310	11096
233.375	2920
233.440	3918
233.506	3488
233.571	2874
233.636	2819
233.701	3179
233.766	6842
233.832	10770
233.897	5916
233.962	5978
234.027	8073
234.092	5954
234.157	5319
234.222	3826
234.288	6475
234.353	20476
234.418	23462
234.483	13038
234.548	8119
234.613	5903
234.678	6507
234.743	7205
234.808	24110
234.873	16325
234.938	7299
235.004	5002
235.069	5320
235.134	4131
235.199	4365
235.264	3423
235.329	2762
235.394	3988
235.459	6958
235.524	6504
235.589	4482
235.654	3263
235.719	2284
235.784	3669
235.849	4829
235.913	13837
235.978	15358
236.043	17581
236.108	7078
236.173	6306
236.238	8070
236.303	3766
236.368	4139
236.433	8062
236.498	14998
236.563	9054
236.627	14754
236.692	44153
236.757	37412
236.822	17701
236.887	16442
236.952	11836
237.017	8119
237.081	11155
237.146	11715
237.211	20853
237.276	42201
237.341	69973
237.405	38798
237.470	18716
237.535	16444
237.600	8538
237.664	6980
237.729	5694
237.794	7804
237.859	14832
237.923	14053
237.988	8137
238.053	12501
238.118	13145
238.182	28277
238.247	26625
238.312	17254
238.376	12626
238.441	9975
238.506	8717
238.570	4240
238.635	5578
238.700	4689
238.764	4372
238.829	12478
238.893	16453
238.958	8374
239.023	7916
239.087	5257
239.152	6724
239.216	4353
239.281	4738
239.346	3634
239.410	4463
239.475	6092
239.539	27796
239.604	22423
239.668	7322
239.733	4904
239.797	4841
239.862	6295
239.926	18769
239.991	9747
240.055	4721
240.120	4973
240.184	6268
240.249	4577
240.313	4640
240.378	5647
240.442	18796
240.507	27387
240.571	9564
240.635	13510
240.700	18033
240.764	6907
240.829	5722
240.893	3415
240.957	4598
241.022	15609
241.086	29398
241.151	15777
241.215	5600
241.279	9360
241.344	17489
241.408	8483
241.472	5558
241.537	6147
241.601	5127
241.665	3831
241.730	4009
241.794	6212
241.858	4531
241.922	5722
241.987	5519
242.051	4163
242.115	3494
242.179	4586
242.244	3748
242.308	6553
242.372	6419
242.436	7486
242.501	5929
242.565	4702
242.629	3903
242.693	4327
242.757	4076
242.822	4598
242.886	6062
242.950	6567
243.014	6688
243.078	7832
243.142	8518
243.206	6094
243.271	7158
243.335	5600
243.399	8119
243.463	19761
243.527	53152
243.591	20132
243.655	11669
243.719	7076
243.783	8011
243.847	11729
243.911	14190
243.975	24024
244.040	19565
244.104	9759
244.168	7352
244.232	13754
244.296	18359
244.360	13520
244.424	10738
244.488	9465
244.552	8243
244.615	5885
244.679	6236
244.743	8785
244.807	9351
244.871	6876
244.935	6528
244.999	5126
245.063	7368
245.127	8495
245.191	9997
245.255	10381
245.319	11404
245.383	11342
245.446	9342
245.510	7256
245.574	8876
245.638	8808
245.702	7942
245.766	18301
245.829	12138
245.893	9643
245.957	7259
246.021	9278
246.085	9647
246.149	12413
246.212	25632
246.276	35487
246.340	18797
246.404	14798
246.467	13194
246.531	19316
246.595	13325
246.659	13158
246.722	13361
246.786	17088
246.850	14937
246.913	19111
246.977	8898
247.041	9493
247.104	11844
247.168	10296
247.232	24342
247.295	45450
247.359	25466
247.423	12823
247.486	23170
247.550	16685
247.614	12962
247.677	18339
247.741	12434
247.804	9581
247.868	12449
247.932	22262
247.995	44865
248.059	20703
248.122	11489
248.186	14996
248.249	23961
248.313	64633
248.376	72668
248.440	49081
248.503	21357
248.567	19307
248.630	25905
248.694	34893
248.757	40808
248.821	70650
248.884	50776
248.948	46252
249.011	60531
249.075	81854
249.138	75593
249.202	35100
249.265	23768
249.328	29441
249.392	21072
249.455	17027
249.519	12379
249.582	17428
249.645	25836
249.709	18403
249.772	12438
249.835	12773
249.899	15788
249.962	11912
250.025	12536
250.089	27777
250.152	43447
250.215	23154
250.279	16999
250.342	16465
250.405	15831
250.468	12993
250.532	17289
250.595	22768
250.658	49696
250.721	79067
250.785	37744
250.848	23920
250.911	15538
250.974	14015
251.038	20059
251.101	41663
251.164	23996
251.227	26718
251.290	20789
251.354	23595
251.417	67173
251.480	68830
251.543	45057
251.606	113759
251.669	90980
251.732	43281
251.795	53499
251.859	49029
251.922	81298
251.985	55174
252.048	25115
252.111	23185
252.174	22958
252.237	43461
252.300	83425
252.363	77762
252.426	113009
252.489	61572
252.552	42691
252.615	30640
252.678	30468
252.741	60318
252.804	62797
252.867	106980
252.930	89880
252.993	60263
253.056	37790
253.119	32653
253.182	23778
253.245	30640
253.308	28925
253.371	35804
253.434	34030
253.497	30966
253.559	48012
253.622	38939
253.685	55320
253.748	61315
253.811	28408
253.874	34384
253.937	34343
254.000	25676
254.062	36894
254.125	51778
254.188	48389
254.251	45143
254.314	24348
254.376	42511
254.439	47932
254.502	46454
254.565	38801
254.628	64645
254.690	50176
254.753	29657
254.816	25406
254.878	26338
254.941	37252
255.004	39300
255.067	22144
255.129	25768
255.192	14177
255.255	13017
255.317	16764
255.380	12859
255.443	10346
255.505	9886
255.568	9813
255.631	11278
255.693	11226
255.756	9971
255.819	8605
255.881	8521
255.944	8512
256.006	8166
256.069	9070
256.132	8561
256.194	12449
256.257	32921
256.319	25101
256.382	23665
256.444	11860
256.507	8813
256.569	8007
256.632	9160
256.694	15936
256.757	27209
256.819	70235
256.882	31287
256.944	16896
257.007	15269
257.069	19468
257.132	12909
257.194	8913
257.257	8146
257.319	9583
257.381	9152
257.444	21971
257.506	77286
257.569	96705
257.631	58168
257.693	34696
257.756	17943
257.818	19869
257.880	11925
257.943	11192
258.005	10023
258.067	8893
258.130	9877
258.192	13735
258.254	34484
258.317	19019
258.379	10971
258.441	24125
258.503	24254
258.566	30572
258.628	41961
258.690	12798
258.753	13452
258.815	29511
258.877	16626
258.939	9217
259.001	7970
259.064	8310
259.126	12195
259.188	19609
259.250	11200
259.312	13337
259.375	29737
259.437	23440
259.499	10440
259.561	8424
259.623	10434
259.685	10330
259.747	11025
259.809	28133
259.872	56026
259.934	76597
259.996	75753
260.058	24206
260.120	11883
260.182	9962
260.244	8565
260.306	7655
260.368	9654
260.430	9526
260.492	19127
260.554	32479
260.616	25537
260.678	41396
260.740	60193
260.802	18788
260.864	16948
260.926	13295
260.988	13153
261.050	12344
261.112	26442
261.174	59465
261.236	45915
261.298	17108
261.359	27115
261.421	41244
261.483	14977
261.545	12097
261.607	8774
261.669	8894
261.731	19907
261.793	48231
261.854	23849
261.916	15543
261.978	13050
262.040	14621
262.102	12085
262.164	22251
262.225	18625
262.287	10688
262.349	26470
262.411	22192
262.472	10884
262.534	19694
262.596	42116
262.658	14550
262.719	10799
262.781	13267
262.843	39940
262.904	18888
262.966	13527
263.028	16311
263.090	51737
263.151	120093
263.213	47652
263.275	33440
263.336	14620
263.398	11596
263.459	8659
263.521	10747
263.583	24659
263.644	18551
263.706	9592
263.767	7189
263.829	6743
263.891	5648
263.952	5985
264.014	5802
264.075	12146
264.137	28827
264.198	16665
264.260	7737
264.321	7737
264.383	18343
264.444	44154
264.506	14464
264.567	9520
264.629	14941
264.690	31818
264.752	15072
264.813	10762
264.875	7981
264.936	8894
264.998	7150
265.059	6094
265.120	7190
265.182	10895
265.243	36036
265.305	38127
265.366	11627
265.427	8979
265.489	8256
265.550	4728
265.611	8923
265.673	10361
265.734	7432
265.795	6306
265.857	6153
265.918	7090
265.979	13223
266.040	56621
266.102	51330
266.163	19830
266.224	20151
266.286	12757
266.347	7986
266.408	8904
266.469	10586
266.530	9018
266.592	7064
266.653	18226
266.714	32188
266.775	11292
266.836	8045
266.898	6922
266.959	13728
267.020	10234
267.081	7812
267.142	7110
267.203	5490
267.264	5665
267.326	8045
267.387	6351
267.448	5628
267.509	6126
267.570	6528
267.631	6684
267.692	4834
267.753	6582
267.814	5849
267.875	13501
267.936	32788
267.997	16743
268.058	15988
268.119	10359
268.180	10965
268.241	9205
268.302	7506
268.363	7160
268.424	9670
268.485	8979
268.546	7666
268.607	5524
268.668	5499
268.729	5948
268.790	7221
268.851	9718
268.912	21291
268.972	29851
269.033	17428
269.094	7999
269.155	6967
269.216	6186
269.277	8720
269.338	7293
269.398	6937
269.459	9624
269.520	14730
269.581	20036
269.642	26265
269.702	17170
269.763	11477
269.824	9188
269.885	11154
269.945	19931
270.006	8582
270.067	5997
270.128	6035
270.188	5768
270.249	8115
270.310	6295
270.370	6636
270.431	7849
270.492	5630
270.553	8087
270.613	21073
270.674	36507
270.734	17567
270.795	9479
270.856	15211
270.916	15124
270.977	8795
271.038	11959
271.098	13797
271.159	18918
271.219	20094
271.280	8865
271.340	8362
271.401	11704
271.462	32774
271.522	19367
271.583	10690
271.643	11993
271.704	9730
271.764	12627
271.825	27155
271.885	73786
271.946	96132
272.006	38782
272.066	43910
272.127	71727
272.187	24986
272.248	16494
272.308	16130
272.369	46313
272.429	31911
272.489	29004
272.550	32775
272.610	31629
272.671	26862
272.731	22493
272.791	42519
272.852	24628
272.912	20298
272.972	12174
273.033	11615
273.093	21926
273.153	20294
273.214	13617
273.274	14741
273.334	39074
273.394	76890
273.455	41824
273.515	34316
273.575	71693
273.635	35659
273.696	44916
273.756	75479
273.816	37133
273.876	23416
273.936	40981
273.997	73930
274.057	23843
274.117	18816
274.177	26295
274.237	90655
274.297	85566
274.358	70615
274.418	61695
274.478	54372
274.538	25755
274.598	21641
274.658	63689
274.718	87027
274.778	37830
274.838	21752
274.898	39530
274.958	117887
275.018	85511
275.078	56096
275.138	30193
275.198	17694
275.258	14057
275.318	19291
275.378	34928
275.438	37383
275.498	24764
275.558	46366
275.618	94199
275.678	60086
275.738	40607
275.798	35934
275.858	19985
275.918	12802
275.978	15976
276.038	15968
276.098	11982
276.157	24125
276.217	68040
276.277	34541
276.337	26910
276.397	16250
276.457	20341
276.517	13769
276.576	10928
276.636	10320
276.696	20881
276.756	40514
276.815	34512
276.875	17154
276.935	21155
276.995	18502
277.055	10954
277.114	11009
277.174	15454
277.234	49089
277.293	26571
277.353	16693
277.413	11449
277.472	13523
277.532	14537
277.592	13767
277.651	34006
277.711	63998
277.771	26985
277.830	75831
277.890	69389
277.950	43769
278.009	100637
278.069	45582
278.128	44305
278.188	68003
278.248	34324
278.307	66050
278.367	46275
278.426	19380
278.486	13695
278.545	11173
278.605	9773
278.664	9879
278.724	12493
278.783	28334
278.843	71963
278.902	26524
278.962	17856
279.021	21069
279.081	22291
279.140	23331
279.199	20386
279.259	17920
279.318	17931
279.378	21639
279.437	38113
279.496	106834
279.556	265585
279.615	238041
279.675	81653
279.734	47244
279.793	66572
279.853	84576
279.912	36614
279.971	22660
280.031	20947
280.090	30581
280.149	53519
280.208	55093
280.268	185279
280.327	210858
280.386	67006
280.445	50639
280.505	51762
280.564	26065
280.623	21631
280.682	28845
280.742	45904
280.801	18333
280.860	13207
280.919	11964
280.978	11892
281.037	11803
281.097	10630
281.156	11235
281.215	10569
281.274	13438
281.333	45216
281.392	41349
281.451	12608
281.510	10482
281.569	9967
281.628	9141
281.688	7570
281.747	11358
281.806	12547
281.865	8611
281.924	8097
281.983	11747
282.042	7440
282.101	7888
282.160	8527
282.219	7798
282.278	10476
282.337	32514
282.396	26713
282.454	10699
282.513	14079
282.572	50096
282.631	35892
282.690	12630
282.749	10641
282.808	14464
282.867	14165
282.926	15713
282.985	9067
283.043	7691
283.102	8253
283.161	12497
283.220	25084
283.279	53606
283.338	19808
283.396	12623
283.455	13663
283.514	13664
283.573	23927
283.631	18981
283.690	11466
283.749	11083
283.808	24436
283.866	32497
283.925	14008
283.984	11905
284.043	16882
284.101	20820
284.160	13328
284.219	17864
284.277	15718
284.336	23858
284.395	68783
284.453	60890
284.512	23700
284.570	32699
284.629	29510
284.688	23039
284.746	25240
284.805	27512
284.863	35175
284.922	44732
284.981	49389
285.039	65172
285.098	108746
285.156	209673
285.215	270056
285.273	262761
285.332	234906
285.390	140124
285.449	89858
285.507	61730
285.566	46667
285.624	36194
285.683	29630
285.741	23214
285.799	22545
285.858	21878
285.916	20765
285.975	16417
286.033	13058
286.091	11288
286.150	11397
286.208	11470
286.267	15898
286.325	15875
286.383	27607
286.442	24068
286.500	11313
286.558	9849
286.616	9762
286.675	15924
286.733	16208
286.791	14010
286.850	16574
286.908	20826
286.966	35401
287.024	15973
287.083	10724
287.141	8856
287.199	11128
287.257	19218
287.315	14431
287.374	15381
287.432	34081
287.490	25912
287.548	15681
287.606	12042
287.664	10284
287.723	17846
287.781	25207
287.839	12166
287.897	13289
287.955	13987
288.013	17030
288.071	33114
288.129	99921
288.187	265458
288.245	131432
288.303	44699
288.361	27271
288.419	26047
288.477	19788
288.535	13162
288.593	11198
288.651	11633
288.709	9042
288.767	10661
288.825	11873
288.883	9161
288.941	7831
288.999	9727
289.057	9172
289.115	9868
289.173	10122
289.231	12142
289.289	13715
289.346	12339
289.404	14247
289.462	24556
289.520	27731
289.578	14830
289.636	8168
289.694	6617
289.751	5940
289.809	7361
289.867	8392
289.925	12885
289.983	17293
290.040	8473
290.098	6371
290.156	11129
290.214	16687
290.271	11752
290.329	6934
290.387	6111
290.444	7116
290.502	5564
290.560	7272
290.617	8317
290.675	9922
290.733	9059
290.790	12953
290.848	9389
290.906	13499
290.963	13384
291.021	11577
291.078	11447
291.136	12382
291.194	27659
291.251	65561
291.309	24591
291.366	10725
291.424	10072
291.481	11853
291.539	9167
291.596	9656
291.654	7634
291.711	8055
291.769	11952
291.826	30452
291.884	22625
291.941	11467
291.999	10837
292.056	14871
292.114	17041
292.171	11103
292.228	12253
292.286	16645
292.343	34330
292.401	46863
292.458	31538
292.515	19665
292.573	20261
292.630	20901
292.687	23047
292.745	16671
292.802	19876
292.859	42329
292.917	72627
292.974	53151
293.031	20894
293.089	12881
293.146	12180
293.203	10662
293.260	9547
293.318	12205
293.375	18398
293.432	12769
293.489	10392
293.546	10663
293.604	17441
293.661	40137
293.718	92611
293.775	62526
293.832	35198
293.889	24572
293.947	23018
294.004	18683
294.061	19489
294.118	34555
294.175	64692
294.232	73008
294.289	34929
294.346	18565
294.403	17361
294.460	20299
294.517	18464
294.574	15008
294.631	13616
294.688	16381
294.745	35471
294.802	102006
294.859	123850
294.916	58494
294.973	34576
295.030	33352
295.087	31937
295.144	20010
295.201	16600
295.258	15916
295.315	19345
295.372	45454
295.429	83509
295.486	46404
295.542	27612
295.599	44676
295.656	78535
295.713	60925
295.770	77359
295.827	37538
295.883	20401
295.940	21450
295.997	38441
296.054	42987
296.111	23059
296.167	14062
296.224	11324
296.281	11091
296.338	11723
296.394	12643
296.451	16748
296.508	38474
296.564	72841
296.621	57957
296.678	85615
296.734	129732
296.791	61102
296.848	33816
296.904	35667
296.961	72414
297.018	94875
297.074	74194
297.131	34338
297.187	24734
297.244	33825
297.301	73047
297.357	133289
297.414	61340
297.470	26125
297.527	19457
297.583	16995
297.640	20428
297.696	16975
297.753	13708
297.809	11664
297.866	9552
297.922	10193
297.979	12282
298.035	15395
298.092	23836
298.148	50781
298.204	58631
298.261	35471
298.317	43432
298.374	102116
298.430	76706
298.486	46597
298.543	38614
298.599	30661
298.656	29112
298.712	40992
298.768	71881
298.824	47503
298.881	22646
298.937	15954
298.993	15556
299.050	24834
299.106	23412
299.162	18179
299.218	20333
299.275	14917
299.331	17170
299.387	28893
299.443	82951
299.500	96503
299.556	40616
299.612	23349
299.668	21108
299.724	17091
299.780	14783
299.837	17697
299.893	28240
299.949	75520
300.005	100887
300.061	85237
300.117	125953
300.173	75851
300.229	38732
300.285	44990
300.341	58483
300.397	33453
300.453	20492
300.510	17695
300.566	18646
300.622	19756
300.678	28595
300.734	68451
300.790	81974
300.845	95120
300.901	65034
300.957	78815
301.013	75539
301.069	35843
301.125	25590
301.181	31217
301.237	22883
301.293	17435
301.349	14522
301.405	15138
301.461	15166
301.516	19581
301.572	23207
301.628	40609
301.684	40947
301.740	44174
301.796	69482
301.851	53186
301.907	77901
301.963	86229
302.019	104397
302.074	226189
302.130	254766
302.186	139089
302.242	60138
302.297	39813
302.353	36878
302.409	61534
302.464	63527
302.520	53563
302.576	106242
302.631	129599
302.687	89488
302.743	41583
302.798	23348
302.854	19291
302.910	20941
302.965	27635
303.021	49424
303.076	53297
303.132	60604
303.187	74673
303.243	43594
303.299	23010
303.354	17622
303.410	16118
303.465	15102
303.521	16133
303.576	16466
303.632	20490
303.687	31489
303.743	77165
303.798	78173
303.853	38488
303.909	22728
303.964	21773
304.020	32632
304.075	56229
304.130	51133
304.186	85869
304.241	94116
304.297	75636
304.352	42916
304.358	40932
304.407	24864
304.449	22220
304.463	21346
304.518	23467
304.539	23250
304.573	22935
304.629	22288
304.630	22473
304.684	31405
304.720	51259
304.739	61269
304.794	98739
304.811	87245
304.850	60103
304.902	32188
304.905	30372
304.960	20370
304.992	18918
305.015	17890
305.071	16991
305.083	16326
305.126	13918
305.173	12512
305.181	12289
305.236	11593
305.264	13385
305.292	15240
305.347	20037
305.354	20209
305.402	21196
305.445	20108
305.457	19843
305.512	25709
305.535	27860
305.567	30687
305.622	29539
305.626	30106
305.678	41761
305.716	69984
305.733	80691
305.788	104682
305.807	93217
305.843	72584
305.897	77511
305.898	77515
305.953	85223
305.988	63615
306.008	51445
306.063	34016
306.078	31501
306.118	25195
306.168	18533
306.173	17923
306.228	13646
306.259	12967
306.283	12517
306.338	12077
306.349	12336
306.393	13457
306.440	14311
306.448	14469
306.503	15732
306.530	18022
306.558	22380
306.613	47516
306.620	51931
306.668	78433
306.711	92470
306.723	94378
306.778	79580
306.801	64262
306.833	45617
306.888	24898
306.892	24179
306.943	16748
306.982	15022
306.997	14414
307.052	13895
307.072	14125
307.107	15418
307.162	19993
307.163	20133
307.217	31418
307.253	37108
307.272	38974
307.327	43617
307.343	40178
307.381	32575
307.434	28932
307.436	29145
307.491	45541
307.524	67969
307.546	76951
307.600	80717
307.614	71992
307.655	45965
307.704	26473
307.710	25028
307.765	25404
307.795	30656
307.819	35365
307.874	59029
307.885	58312
307.929	47453
307.975	31886
307.984	30221
308.038	31161
308.065	36048
308.093	51144
308.148	95440
308.156	107338
308.202	168005
308.246	210315
308.257	211428
308.312	133125
308.336	106081
308.366	85324
308.421	63426
308.426	60755
308.475	38122
308.517	26782
308.530	24172
308.585	20664
308.607	20133
308.639	20213
308.694	22630
308.697	23029
308.748	36851
308.787	56161
308.803	58647
308.857	50943
308.877	43189
308.912	33558
308.967	27874
308.967	27951
309.021	35037
309.058	43537
309.076	51425
309.130	84926
309.148	99415
309.185	151240
309.238	233454
309.239	233797
309.293	269402
309.328	254202
309.348	228901
309.402	127417
309.418	102854
309.457	72584
309.508	49116
309.511	48160
309.566	45007
309.598	46518
309.620	53066
309.674	77064
309.688	84127
309.729	84427
309.778	71098
309.783	69609
309.837	51546
309.868	43754
309.892	48704
309.946	68195
309.959	76741
310.001	97645
310.049	113564
310.055	111090
310.109	71670
310.139	46836
310.163	35851
310.218	22238
310.229	20916
310.272	17725
310.319	14554
310.326	13969
310.381	12002
310.409	11132
310.435	10718
310.489	9941
310.499	9996
310.543	10415
310.589	10926
310.598	10821
310.652	11234
310.679	10971
310.706	9878
310.760	7602
310.769	7312
310.814	6497
310.859	6171
310.868	6163
310.923	6511
310.948	6734
310.977	7514
311.031	9617
311.038	10008
311.085	10252
311.128	9411
311.139	9048
311.193	7637
311.218	7081
311.247	6703
311.301	6169
311.308	6167
311.356	6372
311.398	6673
311.410	6505
311.464	5905
311.488	5609
311.518	6026
311.572	7012
311.578	7196
311.626	9068
311.668	11062
311.680	11127
311.734	10910
311.758	10985
311.788	10584
311.842	10005
311.847	10023
311.896	13164
311.937	16190
311.950	15839
312.004	14613
312.027	14062
312.058	11758
312.112	7905
312.117	7597
312.165	7033
312.207	6711
312.297	10479
312.386	8381
312.476	8836
312.566	17890
312.656	7499
312.745	5595
312.835	6496
312.925	7792
313.015	6625
313.104	7567
313.194	4944
313.284	6032
313.374	8068
313.463	7497
313.553	4882
313.643	4903
313.732	4133
313.822	4622
313.912	5245
314.001	6832
314.091	8559
314.180	12134
314.270	10301
314.360	11952
314.449	9448
314.539	5616
314.628	4687
314.718	7624
314.808	9085
314.897	5124
314.987	5625
315.076	8804
315.166	11455
315.255	10250
315.345	9744
315.434	9746
315.524	8261
315.613	11106
315.703	12135
315.792	10815
315.881	6757
315.971	9432
316.060	19778
316.150	29796
316.239	29178
316.328	10388
316.418	5361
316.507	6302
316.597	9456
316.686	7771
316.775	13788
316.865	28758
316.954	6540
317.043	4400
317.133	5894
317.222	5736
317.311	5155
317.400	5034
317.490	10402
317.579	10121
317.668	6010
317.757	9129
317.847	11036
317.936	14888
318.025	23460
318.114	11972
318.203	11595
318.293	21781
318.382	37888
318.471	28789
318.560	36001
318.649	63055
318.738	14765
318.828	12213
318.917	12716
319.006	16231
319.095	37585
319.184	83339
319.273	53094
319.362	26861
319.451	10311
319.540	11465
319.629	27155
319.718	37144
319.807	17276
319.896	34351
319.985	100788
320.074	37263
320.163	12566
320.252	20492
320.341	17117
320.430	15663
320.519	20641
320.608	11182
320.697	8981
320.786	10633
320.875	13504
320.964	19863
321.053	29317
321.142	42796
321.230	37584
321.319	34655
321.408	66157
321.497	26852
321.586	27711
321.675	32978
321.764	29724
321.852	22693
321.941	42613
322.030	24860
322.119	32762
322.207	68653
322.296	45183
322.385	23504
322.474	30136
322.562	81518
322.651	38135
322.740	32989
322.829	40085
322.917	43823
323.006	25783
323.095	21617
323.183	15368
323.272	25043
323.361	41914
323.449	100839
323.538	37085
323.626	77724
323.715	42963
323.804	22573
323.892	76238
323.981	40691
324.069	14330
324.158	40465
324.246	35342
324.335	18225
324.424	24846
324.512	10512
324.601	12470
324.689	13584
324.778	18158
324.866	27839
324.954	9245
325.043	10437
325.131	20500
325.220	33989
325.308	36962
325.397	28202
325.485	16551
325.574	5797
325.662	5835
325.750	7459
325.839	5837
325.927	5987
326.015	7574
326.104	13244
326.192	17858
326.280	7282
326.369	6952
326.457	12795
326.545	21252
326.634	8579
326.722	4497
326.810	5938
326.898	4890
326.987	7296
327.075	19852
327.163	19129
327.251	6856
327.340	4525
327.428	5607
327.516	4332
327.604	5406
327.692	6785
327.781	8171
327.869	15011
327.957	9864
328.045	8542
328.133	5382
328.221	7891
328.309	6985
328.397	6490
328.485	8761
328.574	14762
328.662	42475
328.750	20335
328.838	8546
328.926	5236
329.014	6101
329.102	10434
329.190	25823
329.278	15350
329.366	3921
329.454	4525
329.542	3694
329.630	3769
329.718	4604
329.806	6622
329.893	6438
329.981	5868
330.069	3614
330.157	5898
330.245	8726
330.333	6419
330.421	5741
330.509	17402
330.597	54664
330.684	30147
330.772	11377
330.860	16552
330.948	21373
331.036	8719
331.123	3940
331.211	4152
331.299	7190
331.387	19237
331.475	30383
331.562	9651
331.650	4886
331.738	6841
331.825	9308
331.913	4781
332.001	4835
332.089	7987
332.176	18421
332.264	40750
332.352	29886
332.439	9925
332.527	6818
332.614	6505
332.702	8462
332.790	7529
332.877	20059
332.965	38935
333.052	10977
333.140	12758
333.228	25082
333.315	8200
333.403	8614
333.490	25318
333.578	20702
333.665	28287
333.753	13000
333.840	6432
333.928	9393
334.015	25914
334.103	36287
334.190	95632
334.278	22970
334.365	9679
334.452	5757
334.540	5426
334.627	7978
334.715	12944
334.802	25069
334.889	119552
334.977	97521
335.064	11532
335.151	6554
335.239	8122
335.326	12095
335.413	51197
335.501	61977
335.588	10960
335.675	6555
335.762	9999
335.850	16387
335.937	10283
336.024	29168
336.111	116042
336.199	40215
336.286	7983
336.373	4310
336.460	3785
336.547	4300
336.635	7364
336.722	6910
336.809	6235
336.896	12458
336.983	36464
337.070	81873
337.157	101210
337.245	79584
337.332	51760
337.419	8230
337.506	5866
337.593	8327
337.680	29605
337.767	78504
337.854	24761
337.941	29684
338.028	33184
338.115	10891
338.202	15210
338.289	27437
338.376	85225
338.463	28016
338.550	48303
338.637	45862
338.724	20824
338.811	28027
338.898	6455
338.984	4735
339.071	8421
339.158	10279
339.245	26112
339.332	14699
339.419	22277
339.506	18136
339.593	4394
339.679	6139
339.766	5541
339.853	10588
339.940	19087
340.027	6855
340.113	7789
340.200	11294
340.287	8073
340.374	12207
340.460	16265
340.547	7048
340.634	16953
340.720	50829
340.807	23466
340.894	4712
340.980	6325
341.067	5483
341.154	6338
341.240	12831
341.327	24061
341.414	5881
341.500	5696
341.587	6103
341.674	6838
341.760	19871
341.847	20835
341.933	6279
342.020	3386
342.106	3272
342.193	8307
342.279	13707
342.366	11748
342.452	16268
342.539	11287
342.625	29057
342.712	52901
342.798	21622
342.885	7477
342.971	3504
343.058	3151
343.144	3483
343.230	3579
343.317	3814
343.403	3468
343.490	2991
343.576	2894
343.662	5174
343.749	5665
343.835	7634
343.921	17834
344.008	86614
344.094	151171
344.180	34954
344.267	19247
344.353	57272
344.439	56449
344.525	26546
344.612	11702
344.698	12418
344.784	7069
344.870	4786
344.957	5740
345.043	10145
345.129	9730
345.215	17464
345.301	7852
345.387	4031
345.474	3095
345.560	4091
345.646	6219
345.732	5233
345.818	5667
345.904	5926
345.990	7256
346.076	6617
346.162	13150
346.249	5752
346.335	4150
346.421	6488
346.507	25109
346.593	66766
346.679	15036
346.765	6145
346.851	5857
346.937	4927
347.023	5293
347.108	7031
347.194	5358
347.280	4244
347.366	6492
347.452	24848
347.538	82171
347.624	65775
347.710	51751
347.796	9366
347.882	5766
347.967	4875
348.053	7837
348.139	4563
348.225	4146
348.311	4481
348.397	3582
348.482	8033
348.568	7959
348.654	3155
348.740	2210
348.825	2820
348.911	11875
348.997	44037
349.083	69466
349.168	12082
349.254	4972
349.340	4829
349.425	4408
349.511	7852
349.597	9314
349.682	21592
349.768	56580
349.854	21481
349.939	6384
350.025	3936
350.110	4878
350.196	2717
350.282	2256
350.367	4178
350.453	10081
350.538	9792
350.624	8556
350.709	6880
350.795	5157
350.880	5048
350.966	6121
351.051	8814
351.137	7112
351.222	6704
351.308	23265
351.393	49521
351.479	9550
351.564	4303
351.649	5543
351.735	2698
351.820	3667
351.906	4199
351.991	8852
352.076	38300
352.162	43715
352.247	9935
352.332	7613
352.418	12331
352.503	22087
352.588	87976
352.673	57670
352.759	15119
352.844	7054
352.929	9962
353.014	10967
353.100	7188
353.185	11416
353.270	23902
353.355	19275
353.441	7027
353.526	8861
353.611	22693
353.696	22071
353.781	13521
353.866	5409
353.952	8810
354.037	25511
354.122	47334
354.207	39800
354.292	12121
354.377	6927
354.462	6202
354.547	9260
354.632	8367
354.717	10673
354.802	9803
354.887	5387
354.972	4851
355.057	4489
355.142	4848
355.227	7958
355.312	14920
355.397	36548
355.482	71347
355.567	29709
355.652	27031
355.737	25919
355.822	65862
355.907	45469
355.991	9916
356.076	5783
356.161	5173
356.246	4572
356.331	6963
356.416	20002
356.501	98427
356.585	82574
356.670	14654
356.755	11555
356.840	18971
356.924	82991
357.009	221674
357.094	77560
357.179	24582
357.263	14397
357.348	17730
357.433	16490
357.517	14946
357.602	10787
357.687	7902
357.771	14405
357.856	28656
357.941	20898
358.025	66175
358.110	201613
358.195	87915
358.279	18278
358.364	19140
358.448	61704
358.533	131229
358.617	93129
358.702	87600
358.787	33236
358.871	23864
358.956	17118
359.040	5466
359.125	4770
359.209	6223
359.294	16479
359.378	21072
359.462	16932
359.547	9715
359.631	6780
359.716	5188
359.800	5767
359.885	11811
359.969	7014
360.053	5264
360.138	5492
360.222	12482
360.306	21972
360.391	14960
360.475	29350
360.559	50495
360.644	51886
360.728	32320
360.812	61381
360.896	130143
360.981	67803
361.065	34514
361.149	11308
361.233	10815
361.318	8942
361.402	9131
361.486	8449
361.570	6541
361.654	11595
361.739	30378
361.823	102545
361.907	120234
361.991	23234
362.075	21025
362.159	41021
362.243	24577
362.327	15673
362.411	12716
362.495	10949
362.580	7143
362.664	4035
362.748	3346
362.832	4018
362.916	5474
363.000	19970
363.084	88221
363.168	140171
363.252	35926
363.336	15855
363.420	25408
363.503	74571
363.587	77578
363.671	17507
363.755	14788
363.839	18507
363.923	8499
364.007	21954
364.091	19840
364.175	27999
364.258	103670
364.342	46249
364.426	15361
364.510	12348
364.594	19040
364.677	35116
364.761	119500
364.845	75851
364.929	38858
365.013	29266
365.096	26437
365.180	26383
365.264	33190
365.347	108454
365.431	45796
365.515	16380
365.598	8898
365.682	7682
365.766	15283
365.849	18685
365.933	11780
366.017	13237
366.100	9355
366.184	4836
366.267	6813
366.351	5191
366.435	5032
366.518	4070
366.602	4131
366.685	6074
366.769	7297
366.852	15899
366.936	26755
367.019	13904
367.103	11211
367.186	20594
367.270	6360
367.353	3637
367.436	4989
367.520	4867
367.603	8758
367.687	16398
367.770	24293
367.853	14893
367.937	43765
368.020	60009
368.104	17657
368.187	22413
368.270	28957
368.353	24466
368.437	30895
368.520	65159
368.603	42752
368.687	56425
368.770	84104
368.853	23762
368.936	27685
369.020	23170
369.103	8667
369.186	7207
369.269	7774
369.352	20576
369.436	24676
369.519	14764
369.602	6461
369.685	10064
369.768	9538
369.851	7349
369.934	5079
370.018	11241
370.101	23935
370.184	16460
370.267	13381
370.350	24959
370.433	35177
370.516	68769
370.599	64076
370.682	29007
370.765	61099
370.848	65515
370.931	102292
371.014	36997
371.097	9747
371.180	7566
371.263	4794
371.346	3431
371.429	5820
371.511	7355
371.594	16155
371.677	22853
371.760	24476
371.843	23298
371.926	92033
372.009	163746
372.091	56973
372.174	49771
372.257	89760
372.340	34701
372.423	35398
372.505	36333
372.588	18557
372.671	46120
372.754	107598
372.836	47689
372.919	40937
373.002	74643
373.085	26068
373.167	24323
373.250	55091
373.332	98466
373.415	133869
373.498	223878
373.580	84182
373.663	108262
373.746	123981
373.828	34833
373.911	18966
373.993	22963
374.076	72163
374.159	63721
374.241	38478
374.324	97686
374.406	58211
374.489	84115
374.571	188436
374.654	74479
374.736	48054
374.819	125688
374.901	176264
374.983	151953
375.066	28799
375.148	15079
375.231	58793
375.313	104594
375.395	40465
375.478	9940
375.560	8080
375.643	13412
375.725	49427
375.807	153523
375.890	115213
375.972	59648
376.054	35162
376.136	52988
376.219	24367
376.301	54834
376.383	124573
376.465	48243
376.548	40842
376.630	48781
376.712	115484
376.794	47318
376.877	8080
376.959	6160
377.041	8345
377.123	18248
377.205	18841
377.287	4904
377.369	4639
377.452	5950
377.534	4584
377.616	6260
377.698	5508
377.780	5050
377.862	6304
377.944	6226
378.026	3360
378.108	4347
378.190	4580
378.272	4843
378.354	2815
378.436	3947
378.518	14130
378.600	40539
378.682	35980
378.764	69341
378.846	45028
378.928	18729
379.010	25822
379.091	11862
379.173	5552
379.255	6224
379.337	10917
379.419	39430
379.501	89175
379.583	32163
379.664	13457
379.746	31659
379.828	73879
379.910	92046
379.991	67589
380.073	13328
380.155	10545
380.237	7090
380.318	5590
380.400	7863
380.482	18846
380.564	25714
380.645	24142
380.727	22222
380.809	14388
380.890	10721
380.972	6626
381.053	7291
381.135	10476
381.217	30669
381.298	71118
381.380	32591
381.461	35002
381.543	124705
381.624	125693
381.706	26594
381.787	16803
381.869	19654
381.951	63158
382.032	184674
382.113	106643
382.195	29147
382.276	20599
382.358	46277
382.439	107802
382.521	120201
382.602	160605
382.684	84854
382.765	155211
382.846	159328
382.928	220904
383.009	119056
383.090	88366
383.172	296878
383.253	413296
383.334	160328
383.416	157187
383.497	75047
383.578	42899
383.659	79234
383.741	253971
383.822	573532
383.903	296172
383.984	135606
384.066	205556
384.147	114781
384.228	28532
384.309	23613
384.390	15769
384.471	12677
384.553	14243
384.634	22818
384.715	20987
384.796	10512
384.877	17529
384.958	66535
385.039	71759
385.120	26757
385.201	13368
385.282	17128
385.363	17158
385.444	14476
385.525	32145
385.606	85502
385.687	61019
385.768	18350
385.849	29051
385.930	100920
386.011	134315
386.092	35470
386.173	10757
386.254	8720
386.335	9829
386.416	13120
386.496	46911
386.577	65742
386.658	25002
386.739	15851
386.820	14482
386.901	12645
386.981	10338
387.062	6566
387.143	19584
387.224	67977
387.304	53996
387.385	20371
387.466	13886
387.547	17294
387.627	10922
387.708	30428
387.789	117748
387.869	120738
387.950	28924
388.031	6030
388.111	7120
388.192	23170
388.273	34082
388.353	18460
388.434	11171
388.514	27605
388.595	98863
388.676	119832
388.756	64648
388.837	68421
388.917	35254
388.998	7398
389.078	7743
389.159	6710
389.239	6750
389.320	14625
389.400	11232
389.480	29077
389.561	68185
389.641	29211
389.722	15663
389.802	24425
389.883	33881
389.963	77013
390.043	45109
390.124	16931
390.204	31706
390.284	78754
390.365	43018
390.445	47798
390.525	75986
390.605	64007
390.686	31343
390.766	10275
390.846	6361
390.927	4805
391.007	5695
391.087	6569
391.167	5271
391.247	4610
391.328	13767
391.408	20170
391.488	12083
391.568	3747
391.648	11331
391.728	15107
391.808	14137
391.888	17521
391.969	39738
392.049	57578
392.129	24002
392.209	33479
392.289	71685
392.369	35834
392.449	33926
392.529	19558
392.609	14385
392.689	21769
392.769	69923
392.849	48703
392.929	38617
393.009	92506
393.089	48269
393.169	12980
393.248	28686
393.328	129377
393.408	122588
393.488	23163
393.568	10613
393.648	6671
393.728	5408
393.807	3934
393.887	5148
393.967	5374
394.047	8466
394.127	10975
394.206	18244
394.286	67342
394.366	267032
394.446	263580
394.525	58316
394.605	15101
394.685	18473
394.764	49290
394.844	77777
394.924	48698
395.003	15325
395.083	10689
395.163	9749
395.242	8318
395.322	8125
395.402	4696
395.481	9474
395.561	35948
395.640	88078
395.720	53697
395.799	84499
395.879	60796
395.958	26997
396.038	94503
396.117	348670
396.197	353021
396.276	109695
396.356	40162
396.435	30936
396.515	17857
396.594	18413
396.673	22142
396.753	44414
396.832	132773
396.912	135936
396.991	49136
397.070	13125
397.150	7728
397.229	4941
397.308	3330
397.388	4253
397.467	3730
397.546	3700
397.625	2751
397.705	9981
397.784	10407
397.863	3943
397.942	2689
398.022	4899
398.101	27859
398.180	78682
398.259	40187
398.338	11514
398.417	8367
398.497	4654
398.576	6715
398.655	2875
398.734	2845
398.813	4171
398.892	26849
398.971	83588
399.050	36862
399.129	4128
399.208	2496
399.287	3127
399.366	3075
399.445	2388
399.524	3974
399.603	3087
399.682	14029
399.761	33849
399.840	91155
399.919	62242
399.998	8825
400.077	1974
400.156	3596
400.235	5990
400.313	3644
400.392	10019
400.471	43212
400.550	57219
400.629	14609
400.708	7336
400.786	7166
400.865	22318
400.944	24897
401.023	10134
401.102	1770
401.180	2169
401.259	3184
401.338	5229
401.416	9342
401.495	6034
401.574	5093
401.652	3988
401.731	7251
401.810	4786
401.888	2363
401.967	1464
402.046	3069
402.124	8182
402.203	10445
402.281	4552
402.360	7143
402.438	26887
402.517	18466
402.596	6348
402.674	4940
402.753	3313
402.831	2493
402.910	5207
402.988	21149
403.066	61288
403.145	31478
403.223	19755
403.302	47121
403.380	34411
403.459	31626
403.537	12680
403.615	5336
403.694	548
403.772	1646
403.850	1854
403.929	970
404.007	2818
404.085	7880
404.164	7641
404.242	4645
404.320	14280
404.398	48276
404.477	69838
404.555	157622
404.633	115566
404.711	40157
404.789	20912
404.868	5736
404.946	2357
405.024	1510
405.102	1938
405.180	1714
405.258	1576
405.336	3778
405.415	3233
405.493	10067
405.571	6847
405.649	2227
405.727	2547
405.805	6517
405.883	4538
405.961	6210
406.039	7807
406.117	2656
406.195	9336
406.273	47045
406.351	134905
406.429	67978
406.507	13305
406.585	4989
406.663	7355
406.740	9755
406.818	6227
406.896	3546
406.974	4913
407.052	16989
407.130	89380
407.208	99910
407.285	17752
407.363	3985
407.441	3955
407.519	3401
407.596	5626
407.674	8788
407.752	8547
407.830	18887
407.907	13549
407.985	4881
408.063	2708
408.141	1407
408.218	7405
408.296	5177
408.373	4494
408.451	6947
408.529	5227
408.606	2450
408.684	991
408.762	463
408.839	595
408.917	168
408.994	1224
409.072	1122
409.149	824
409.227	3382
409.304	2752
409.382	982
409.459	139
409.537	2698
409.614	2374
409.692	871
409.769	1054
409.846	2851
409.924	5757
410.001	3900
410.079	2654
410.156	2645
410.233	1623
410.311	637
410.388	1995
410.465	4697
410.543	3572
410.620	1968
410.697	3836
410.775	4878
410.852	201
410.929	5535
411.006	7123
411.083	4907
411.161	14022
411.238	12587
411.315	5787
411.392	3039
411.469	6639
411.547	7410
411.624	2527
411.701	1991
411.778	6506
411.855	13457
411.932	4694
412.009	1938
412.086	2047
412.163	4201
412.240	5564
412.317	7714
412.394	5846
412.471	1711
412.548	2232
412.625	2702
412.702	5590
412.779	11439
412.856	5654
412.933	1235
413.010	2237
413.087	9120
413.164	43501
413.241	50950
413.318	12233
413.395	10535
413.471	12327
413.548	5157
413.625	4256
413.702	5463
413.779	2813
413.855	1216
413.932	1289
414.009	180
414.086	776
414.162	2144
414.239	8275
414.316	44121
414.393	78862
414.469	22588
414.546	3023
414.623	1608
414.699	2681
414.776	5247
414.853	2219
414.929	3378
415.006	2570
415.082	3879
415.159	3198
415.236	3115
415.312	3994
415.389	11453
415.465	14005
415.542	5317
415.618	3625
415.695	9454
415.771	5997
415.848	6054
415.924	4054
416.000	3214
416.077	1495
416.153	-736
416.230	-493
416.306	745
416.383	768
416.459	1417
416.535	186
416.612	582
416.688	742
416.764	931
416.841	757
416.917	1600
416.993	2188
417.069	4576
417.146	6651
417.222	8006
417.298	4899
417.374	2164
417.451	4185
417.527	6606
417.603	6511
417.679	4508
417.755	3646
417.831	1329
417.908	1478
417.984	1819
418.060	2533
418.136	14267
418.212	14826
418.288	4281
418.364	2332
418.440	3928
418.516	7308
418.592	11665
418.668	24028
418.744	33342
418.820	20176
418.896	5099
418.972	1102
419.048	4718
419.124	14700
419.200	8598
419.276	1278
419.352	134
419.428	1723
419.504	4405
419.579	4803
419.655	3704
419.731	6041
419.807	24438
419.883	37134
419.959	20807
420.034	6268
420.110	16639
420.186	55426
420.262	34810
420.337	7389
420.413	5065
420.489	1472
420.565	2028
420.640	1407
420.716	2595
420.792	454
420.867	2483
420.943	2301
421.019	9239
421.094	4960
421.170	1378
421.245	-168
421.321	1340
421.397	1283
421.472	1458
421.548	3943
421.623	7067
421.699	3835
421.774	4112
421.850	3464
421.925	9425
422.001	5663
422.076	1464
422.152	4037
422.227	9474
422.302	4889
422.378	6332
422.453	7991
422.529	13843
422.604	53107
422.679	122858
422.755	67408
422.830	15856
422.905	3494
422.981	1485
423.056	1160
423.131	1029
423.207	1600
423.282	6351
423.357	18018
423.432	9260
423.508	11960
423.583	31523
423.658	19204
423.733	5719
423.808	7245
423.883	9660
423.959	4650
424.034	3212
424.109	642
424.184	549
424.259	132
424.334	176
424.409	284
424.484	1688
424.559	2907
424.634	1468
424.709	6695
424.784	7954
424.859	4388
424.934	12430
425.009	48596
425.084	66435
425.159	20974
425.234	3594
425.309	2407
425.384	9034
425.459	10805
425.534	4347
425.609	3354
425.683	2018
425.758	1407
425.833	2984
425.908	7089
425.983	32999
426.058	72862
426.132	30127
426.207	6080
426.282	8333
426.357	7530
426.431	2592
426.506	3091
426.581	3234
426.655	2675
426.730	2690
426.805	2721
426.879	3849
426.954	4219
427.029	14591
427.103	69966
427.178	133097
427.253	53545
427.327	8096
427.402	10125
427.476	21509
427.551	8402
427.625	5275
427.700	4539
427.774	1831
427.849	4062
427.923	1484
427.998	2192
428.072	2657
428.147	8915
428.221	23701
428.296	25222
428.370	7698
428.444	4962
428.519	12021
428.593	23982
428.667	20681
428.742	24572
428.816	18947
428.890	31529
428.965	34235
429.039	22385
429.113	28453
429.188	10953
429.262	3451
429.336	12613
429.410	36154
429.485	22006
429.559	21038
429.633	16690
429.707	4834
429.781	12708
429.855	52134
429.930	75300
430.004	65418
430.078	104326
430.152	71032
430.226	23201
430.300	15028
430.374	3572
430.448	6544
430.522	32727
430.596	95044
430.670	54185
430.744	78163
430.818	120391
430.892	32145
430.966	6755
431.040	3740
431.114	550
431.188	2468
431.262	1307
431.336	2693
431.410	11651
431.484	36847
431.557	24311
431.631	3875
431.705	1231
431.779	2633
431.853	10442
431.927	7969
432.000	1167
432.074	2084
432.148	4268
432.222	5115
432.295	2414
432.369	2805
432.443	8990
432.516	60587
432.590	134293
432.664	52324
432.737	8674
432.811	2272
432.885	-286
432.958	1928
433.032	748
433.106	73
433.179	369
433.253	1481
433.326	943
433.400	145
433.473	166
433.547	151
433.620	2443
433.694	10025
433.767	7964
433.841	2847
433.914	755
433.988	668
434.061	996
434.134	1390
434.208	-41
434.281	-115
434.355	454
434.428	1296
434.501	715
434.575	801
434.648	1891
434.721	882
434.795	574
434.868	548
434.941	-235
435.014	-571
435.088	270
435.161	3205
435.234	8867
435.307	11936
435.381	4156
435.454	1735
435.527	1699
435.600	1155
435.673	-218
435.746	464
435.819	1186
435.892	720
435.966	-95
436.039	896
436.112	1683
436.185	46
436.258	-296
436.331	-992
436.404	-472
436.477	-196
436.550	-712
436.623	194
436.696	1265
436.769	3025
436.842	2357
436.915	3343
436.987	5972
437.060	2453
437.133	402
437.206	190
437.279	1302
437.352	1156
437.425	810
437.498	2613
437.570	11576
437.643	12527
437.716	3096
437.789	1536
437.861	9977
437.934	29306
438.007	14479
438.080	2167
438.152	3635
438.225	13027
438.298	78688
438.370	193102
438.443	98042
438.516	31757
438.588	8460
438.661	2061
438.734	2598
438.806	5045
438.879	5814
438.951	8783
439.024	15385
439.096	6374
439.169	1833
439.241	980
439.314	1106
439.386	5809
439.459	11681
439.531	17481
439.604	9034
439.676	1759
439.749	394
439.821	277
439.893	1102
439.966	2148
440.038	5348
440.110	6836
440.183	3537
440.255	2538
440.327	6374
440.400	38300
440.472	138982
440.544	101042
440.617	19503
440.689	12669
440.761	17717
440.833	29580
440.905	19583
440.978	3769
441.050	30
441.122	1692
441.194	1032
441.266	453
441.338	1010
441.411	8980
441.483	52608
441.555	80409
441.627	23720
441.699	10621
441.771	11796
441.843	3925
441.915	1163
441.987	210
442.059	1241
442.131	3725
442.203	8514
442.275	11292
442.347	9208
442.419	3298
442.491	4899
442.563	10181
442.635	17859
442.706	40622
442.778	41210
442.850	8694
442.922	1999
442.994	4387
443.066	9868
443.137	8106
443.209	2991
443.281	4334
443.353	7796
443.425	14628
443.496	17253
443.568	15097
443.640	8249
443.711	6107
443.783	4155
443.855	4210
443.926	890
443.998	3091
444.070	6850
444.141	6892
444.213	12710
444.285	18958
444.356	15178
444.428	12194
444.499	4580
444.571	1070
444.642	561
444.714	4436
444.785	12081
444.857	15219
444.928	31245
445.000	25428
445.071	19524
445.143	28650
445.214	13696
445.285	14091
445.357	42559
445.428	45498
445.500	49572
445.571	57331
445.642	27483
445.714	28215
445.785	54596
445.856	26829
445.928	18009
445.999	18173
446.070	13213
446.141	11901
446.213	15622
446.284	9481
446.355	7966
446.426	6695
446.497	4736
446.569	10676
446.640	23856
446.711	21854
446.782	7253
446.853	8328
446.924	12282
446.995	8423
447.066	6626
447.138	14007
447.209	10432
447.280	2924
447.351	1236
447.422	1575
447.493	4873
447.564	10968
447.635	18143
447.706	10521
447.777	2716
447.847	1135
447.918	1382
447.989	6980
448.060	11654
448.131	25823
448.202	32352
448.273	22163
448.344	11316
448.414	4161
448.485	4697
448.556	3447
448.627	1919
448.698	1920
448.768	714
448.839	3899
448.910	12128
448.981	17222
449.051	7048
449.122	3397
449.193	1447
449.263	2555
449.334	2077
449.405	6559
449.475	20970
449.546	20163
449.616	14974
449.687	16822
449.758	5197
449.828	1396
449.899	734
449.969	1846
450.040	1507
450.110	4636
450.181	8271
450.251	3184
450.322	1828
450.392	2583
450.463	2667
450.533	1575
450.604	2582
450.674	2798
450.744	2238
450.815	1798
450.885	2385
450.955	1507
451.026	1944
451.096	2505
451.166	5690
451.237	15193
451.307	42607
451.377	28957
451.447	4869
451.518	2702
451.588	2392
451.658	3661
451.728	7862
451.799	38556
451.869	61559
451.939	20899
452.009	4686
452.079	3160
452.149	3336
452.219	11150
452.289	46746
452.360	55405
452.430	13716
452.500	7058
452.570	9773
452.640	9809
452.710	23616
452.780	51576
452.850	47905
452.920	49330
452.990	20707
453.060	9150
453.129	13576
453.199	18109
453.269	45751
453.339	122665
453.409	199631
453.479	168074
453.549	258937
453.619	292960
453.688	166978
453.758	29873
453.828	9037
453.898	6146
453.968	6129
454.037	4861
454.087	3939
454.107	3500
454.168	3514
454.177	3455
454.247	2855
454.249	2936
454.316	3709
454.330	4628
454.386	7384
454.411	15102
454.456	25331
454.492	37535
454.525	48218
454.574	30364
454.595	22979
454.655	8813
454.665	6714
454.734	9837
454.736	10472
454.804	23572
454.817	31021
454.873	53373
454.898	61839
454.943	74335
454.979	53468
455.013	36280
455.060	21579
455.082	17008
455.141	21002
455.152	20834
455.221	45598
455.222	46740
455.291	82656
455.303	82023
455.360	80071
455.384	94128
455.430	117941
455.465	110591
455.499	102544
455.546	79488
455.569	64636
455.627	51928
455.638	50735
455.707	15752
455.708	15773
455.777	8500
455.789	8457
455.846	7809
455.869	7147
455.916	6151
455.950	7152
455.985	7503
456.031	8473
456.054	8797
456.112	7310
456.124	7185
456.193	6696
456.193	6614
456.262	10812
456.274	11745
456.332	14455
456.355	15942
456.401	15642
456.436	13693
456.470	12305
456.516	8362
456.540	6870
456.597	6070
456.609	5850
456.678	5874
456.678	5825
456.747	5467
456.759	5408
456.817	5041
456.840	5000
456.886	4962
456.920	5528
456.955	6500
457.001	7487
457.024	9161
457.082	14522
457.093	15332
457.162	23322
457.163	23498
457.232	24323
457.243	23344
457.301	15385
457.324	11183
457.370	7470
457.405	7313
457.439	7189
457.485	7273
457.508	7431
457.566	8572
457.577	8760
457.646	9321
457.647	9398
457.715	11762
457.727	12162
457.784	11487
457.808	10562
457.853	10576
457.889	12217
457.922	13520
457.969	14566
457.991	15128
458.050	18128
458.060	17937
458.129	16103
458.130	16092
458.198	12429
458.211	11953
458.267	10122
458.292	9270
458.336	9365
458.372	10147
458.405	11389
458.453	12775
458.474	13986
458.533	19250
458.543	19943
458.611	26607
458.614	26941
458.680	21923
458.694	19965
458.749	14747
458.775	12139
458.818	10515
458.855	10244
458.887	10425
458.936	11470
458.955	11643
459.016	11949
459.024	12072
459.093	14100
459.097	14250
459.162	18047
459.177	18905
459.230	22372
459.257	25048
459.299	25504
459.338	25009
459.368	26129
459.418	28255
459.437	26315
459.499	19508
459.505	19344
459.574	15482
459.579	15420
459.643	14766
459.659	14470
459.711	15461
459.740	16232
459.780	17969
459.820	20502
459.849	20809
459.900	21291
459.917	21003
459.981	20037
459.986	19938
460.054	17057
460.061	16909
460.123	19775
460.141	20586
460.191	26974
460.222	31732
460.260	34775
460.302	39605
460.328	34715
460.382	21522
460.397	21175
460.462	16758
460.465	16605
460.534	17061
460.543	17133
460.602	22158
460.623	24270
460.671	30572
460.703	35351
460.739	33445
460.783	30792
460.808	27755
460.864	18308
460.876	18269
460.944	18745
460.945	18736
461.013	20749
461.024	21092
461.081	25336
461.104	27324
461.150	24599
461.184	22599
461.218	22103
461.264	19462
461.286	19385
461.345	20816
461.355	20782
461.423	20803
461.425	20804
461.491	23543
461.505	24172
461.559	48483
461.585	60112
461.628	97855
461.665	133595
461.696	146619
461.745	176590
461.764	151542
461.825	54497
461.832	54193
461.901	32313
461.905	32104
461.969	27809
461.985	27012
462.037	23710
462.065	21215
462.105	25732
462.145	31391
462.173	47201
462.225	76816
462.241	85969
462.305	127369
462.310	123343
462.378	62820
462.385	54236
462.446	36013
462.465	30832
462.514	26460
462.545	26474
462.582	25116
462.625	23038
462.650	22424
462.705	21371
462.718	22568
462.785	28626
462.786	28948
462.854	47965
462.865	51220
462.922	63869
462.945	69663
462.990	49949
463.025	31835
463.058	28149
463.104	21830
463.126	21513
463.184	22870
463.194	23372
463.262	27247
463.264	27396
463.330	27460
463.344	27320
463.398	30060
463.424	31173
463.466	33195
463.504	35625
463.533	35559
463.583	34931
463.601	37067
463.663	43874
463.669	45458
463.737	63939
463.743	65704
463.805	96852
463.823	105740
463.873	156702
463.903	188178
463.940	198056
463.982	212675
464.008	168389
464.062	67084
464.076	62511
464.142	29886
464.144	29615
464.211	27465
464.221	27512
464.279	30215
464.301	31476
464.347	36295
464.381	39634
464.414	45048
464.461	52379
464.482	54333
464.540	60189
464.550	58204
464.617	43225
464.620	42597
464.685	45982
464.699	46950
464.753	46128
464.779	45822
464.820	44079
464.859	41694
464.888	44198
464.938	48558
464.956	49514
465.018	53642
465.023	52484
465.091	36129
465.098	34260
465.158	34209
465.177	34367
465.226	34914
465.257	35252
465.293	39658
465.336	44736
465.361	50866
465.416	64662
465.428	69645
465.495	96307
465.496	96844
465.563	156786
465.575	166987
465.631	201027
465.654	216142
465.698	127509
465.734	51459
465.765	44184
465.813	31060
465.833	29932
465.893	29882
465.900	29851
465.968	29571
465.972	29494
466.035	29349
466.052	29255
466.102	29952
466.131	30260
466.170	31065
466.210	31845
466.237	32150
466.290	32503
466.304	33045
466.369	35215
466.372	35389
466.439	38508
466.449	38889
466.506	45048
466.528	47293
466.573	75313
466.607	96224
466.641	153095
466.687	231836
466.708	258344
466.766	331240
466.775	304543
466.842	99235
466.845	89271
466.909	55700
466.925	47828
466.977	43557
467.004	41605
467.044	41966
467.083	42190
467.111	44159
467.163	47661
467.178	49120
467.242	54695
467.245	54897
467.312	56720
467.321	56844
467.379	56476
467.400	56167
467.446	64496
467.480	70296
467.559	59560
467.638	48287
467.717	53311
467.796	67847
467.875	86021
467.955	67926
468.034	101092
468.113	249308
468.192	369702
468.271	82885
468.350	41989
468.429	41992
468.508	40800
468.588	41639
468.667	48100
468.746	51436
468.825	51276
468.904	47572
468.983	64085
469.062	114910
469.141	146354
469.220	50596
469.299	45398
469.378	49319
469.456	46030
469.535	44620
469.614	48341
469.693	56486
469.772	81030
469.851	123168
469.930	80237
470.009	47080
470.088	44862
470.166	46645
470.245	59890
470.324	71115
470.403	59033
470.482	51553
470.560	48462
470.639	61493
470.718	80104
470.797	57405
470.875	65845
470.954	101230
471.033	113125
471.111	40234
471.190	35865
471.269	35723
471.347	37223
471.426	43377
471.505	49347
471.583	43284
471.662	40196
471.740	38209
471.819	39319
471.898	37253
471.976	38133
472.055	39160
472.133	49491
472.212	71436
472.290	78482
472.369	45467
472.447	36446
472.526	35168
472.604	39007
472.683	45921
472.761	53327
472.839	48144
472.918	42586
472.996	45335
473.075	57516
473.153	52839
473.231	43411
473.310	58610
473.388	57528
473.466	48233
473.545	58894
473.623	94580
473.701	96515
473.780	42742
473.858	37171
473.936	40974
474.014	41301
474.093	51623
474.171	90481
474.249	130369
474.327	78461
474.405	36398
474.484	39834
474.562	44742
474.640	42306
474.718	44527
474.796	42257
474.874	35170
474.952	32707
475.030	33923
475.108	33962
475.187	34671
475.265	36609
475.343	49911
475.421	56463
475.499	39999
475.577	46420
475.655	68344
475.733	159798
475.811	289599
475.889	254242
475.966	159925
476.044	42803
476.122	51126
476.200	58564
476.278	52488
476.356	44297
476.434	46870
476.512	54388
476.590	66673
476.667	59417
476.745	46725
476.823	49359
476.901	49131
476.979	51345
477.056	45658
477.134	47831
477.212	49711
477.290	48056
477.367	40352
477.445	40394
477.523	41624
477.601	43609
477.678	44218
477.756	58591
477.834	68619
477.911	42220
477.989	41900
478.066	42608
478.144	51653
478.222	48307
478.299	60981
478.377	58142
478.454	38190
478.532	37911
478.609	48443
478.687	54247
478.764	41334
478.842	48857
478.919	61779
478.997	54757
479.074	41104
479.152	55774
479.229	73867
479.307	46634
479.384	33349
479.461	34108
479.539	44129
479.616	56603
479.694	47642
479.771	51758
479.848	57374
479.926	84208
480.003	89218
480.080	43022
480.157	38750
480.235	42255
480.312	43030
480.389	52276
480.467	96292
480.544	120151
480.621	56483
480.698	53634
480.775	64324
480.853	64130
480.930	46653
481.007	48005
481.084	56764
481.161	56318
481.238	56988
481.315	42409
481.392	41341
481.470	43906
481.547	42976
481.624	43397
481.701	43357
481.778	46609
481.855	53471
481.932	86562
482.009	156603
482.086	101021
482.163	44084
482.240	50266
482.317	71120
482.393	62433
482.470	45902
482.547	49396
482.624	43066
482.701	49708
482.778	47379
482.855	36790
482.932	37248
483.009	38210
483.085	43396
483.162	54493
483.239	50708
483.316	38153
483.393	36788
483.469	39278
483.546	53805
483.623	59158
483.699	43813
483.776	47639
483.853	56173
483.930	82572
484.006	216412
484.083	358106
484.160	113189
484.236	100963
484.313	89828
484.389	73495
484.466	63326
484.543	61355
484.619	63679
484.696	66474
484.772	84031
484.849	98538
484.925	66959
485.002	63170
485.078	75472
485.155	81851
485.231	64793
485.308	62923
485.384	71412
485.461	98573
485.537	208338
485.614	252492
485.690	78396
485.766	67568
485.843	84820
485.919	157266
485.995	171319
486.072	64447
486.148	59498
486.224	59764
486.301	69541
486.377	92483
486.453	96209
486.530	74676
486.606	77998
486.682	94934
486.758	161095
486.835	205887
486.911	154036
486.987	288796
487.063	362784
487.139	505139
487.215	307196
487.292	94313
487.368	66392
487.444	77797
487.520	104065
487.596	78307
487.672	70108
487.748	128046
487.824	178097
487.900	77586
487.976	65263
488.052	89798
488.128	128876
488.204	101380
488.280	71746
488.356	91010
488.432	241466
488.508	393590
488.584	120003
488.660	77834
488.736	77610
488.812	89286
488.888	118739
488.964	180102
489.039	489888
489.115	766794
489.191	402241
489.267	83062
489.343	69216
489.418	54778
489.494	50409
489.570	49653
489.646	56294
489.722	56810
489.797	62489
489.873	117166
489.949	290055
490.024	232277
490.100	59823
490.176	57449
490.251	96800
490.327	145545
490.403	68471
490.478	47918
490.554	41230
490.629	43843
490.705	46857
490.781	54346
490.856	60378
490.932	73719
491.007	83699
491.083	69640
491.158	60924
491.234	86200
491.309	222275
491.385	224886
491.460	66731
491.536	71387
491.611	67700
491.686	83057
491.762	128618
491.837	322963
491.913	532406
491.988	715213
492.063	895483
492.139	216921
492.214	109502
492.289	50813
492.365	54512
492.440	69347
492.515	74456
492.590	63375
492.666	52134
492.741	84561
492.816	135218
492.891	66678
492.967	44702
493.042	45971
493.117	45030
493.192	50095
493.267	80347
493.342	215227
493.418	283910
493.493	66910
493.568	41260
493.643	44800
493.718	69511
493.793	130218
493.868	153772
493.943	89935
494.018	52408
494.093	45868
494.168	46876
494.243	39870
494.318	35584
494.393	35350
494.468	36006
494.543	42197
494.618	58996
494.693	47580
494.768	44109
494.842	44178
494.917	36995
494.992	43652
495.067	38818
495.142	39218
495.217	46936
495.292	51907
495.366	65394
495.441	91979
495.516	117529
495.591	173287
495.665	644081
495.740	1524379
495.815	562262
495.890	95735
495.964	69729
496.039	63601
496.114	59143
496.188	59430
496.263	60763
496.338	59879
496.412	71349
496.487	84001
496.561	101980
496.636	104254
496.710	68437
496.785	80540
496.860	90221
496.934	66338
497.009	67709
497.083	58384
497.158	58453
497.232	77544
497.307	102513
497.381	67643
497.455	85748
497.530	124705
497.604	72373
497.679	75908
497.753	132277
497.827	167164
497.902	117103
497.976	130887
498.050	310452
498.125	1190761
498.199	1205222
498.273	241644
498.348	168239
498.422	122665
498.496	127882
498.570	116518
498.645	73474
498.719	76240
498.793	102216
498.867	183344
498.941	223460
499.016	514925
499.090	1357153
499.164	476795
499.238	74497
499.312	67991
499.386	97299
499.460	81756
499.534	71872
499.609	91867
499.683	151085
499.757	134237
499.831	251784
499.905	956067
499.979	889507
500.053	203186
500.127	226443
500.201	182240
500.275	96174
500.349	85833
500.422	99105
500.496	165945
500.570	375543
500.644	656338
500.718	1060378
500.792	248832
500.866	84691
500.940	115547
501.013	96223
501.087	101142
501.161	186292
501.235	235571
501.309	421146
501.382	1057266
501.456	887086
501.530	251691
501.603	407355
501.677	150441
501.751	73657
501.825	90846
501.898	163261
501.972	474543
502.046	284326
502.119	97000
502.193	227337
502.266	526088
502.340	238878
502.413	233228
502.487	470380
502.561	282654
502.634	90710
502.708	82850
502.781	74626
502.855	54711
502.928	46401
503.002	46801
503.075	46636
503.149	54952
503.222	55994
503.295	63864
503.369	77839
503.442	108056
503.516	352435
503.589	907795
503.662	565361
503.736	180648
503.809	427373
503.882	322983
503.956	439195
504.029	376358
504.102	160293
504.175	137733
504.249	56171
504.322	68543
504.395	69651
504.468	49462
504.542	52534
504.615	40598
504.688	38204
504.761	44812
504.834	60710
504.907	84359
504.980	150786
505.053	68849
505.127	91854
505.200	92387
505.273	90054
505.346	52080
505.419	43881
505.492	37729
505.565	32114
505.638	32114
505.711	35519
505.784	36523
505.857	35032
505.930	37919
506.003	38687
506.076	43478
506.149	64856
506.221	84814
506.294	66007
506.367	175383
506.440	582987
506.513	307054
506.586	91155
506.659	54692
506.731	47810
506.804	65886
506.877	108810
506.950	59393
507.022	39073
507.095	63712
507.168	78823
507.241	50414
507.313	39793
507.386	56312
507.459	88231
507.531	50999
507.604	41107
507.677	37191
507.749	32880
507.822	52074
507.894	100174
507.967	87440
508.040	42772
508.112	34952
508.185	37499
508.257	45456
508.330	76185
508.402	42424
508.475	41275
508.547	43484
508.620	45386
508.692	83997
508.765	44321
508.837	31758
508.909	30566
508.982	35280
509.054	48180
509.127	37675
509.199	30720
509.271	29529
509.344	27928
509.416	29618
509.488	33492
509.560	34301
509.633	42879
509.705	57387
509.777	51180
509.849	86705
509.922	52860
509.994	32258
510.066	30584
510.138	31618
510.210	43583
510.283	44453
510.355	40636
510.427	37345
510.499	34166
510.571	34858
510.643	42201
510.715	90082
510.787	79929
510.859	43528
510.931	60098
511.003	85685
511.076	71448
511.148	36266
511.219	38332
511.291	76672
511.363	90586
511.435	35847
511.507	30080
511.579	30927
511.651	30970
511.723	30379
511.795	30288
511.867	33486
511.939	48097
512.010	126487
512.082	91278
512.154	44083
512.226	38157
512.298	48481
512.369	77906
512.441	62442
512.513	80241
512.585	54303
512.656	50313
512.728	62763
512.800	38328
512.871	38865
512.943	38779
513.015	33264
513.086	41409
513.158	50660
513.230	57578
513.301	109362
513.373	129644
513.444	55621
513.516	39049
513.588	41924
513.659	52875
513.731	80197
513.802	68281
513.874	165916
513.945	331830
514.016	83908
514.088	42969
514.159	54350
514.231	76298
514.302	80601
514.374	45500
514.445	51785
514.516	130089
514.588	88145
514.659	54801
514.730	122300
514.802	86757
514.873	47776
514.944	38413
515.016	43248
515.087	61406
515.158	83891
515.229	110071
515.301	35151
515.372	33516
515.443	31520
515.514	29964
515.585	29246
515.656	31178
515.728	30951
515.799	32413
515.870	38481
515.941	41639
516.012	39752
516.083	47787
516.154	65104
516.225	113413
516.296	90186
516.367	65773
516.438	73388
516.509	95734
516.580	125596
516.651	322599
516.722	1193347
516.793	577206
516.864	145780
516.935	129936
517.006	126190
517.077	179068
517.148	409809
517.219	906173
517.289	1428288
517.360	679374
517.431	214396
517.502	69763
517.573	62228
517.643	60609
517.714	62014
517.785	62054
517.856	67730
517.926	79006
517.997	88738
518.068	103785
518.138	128128
518.209	171476
518.280	542018
518.350	1933983
518.421	811652
518.492	126106
518.562	81731
518.633	80257
518.703	62170
518.774	70310
518.845	92543
518.915	87418
518.986	80048
519.056	104798
519.127	240307
519.197	356868
519.268	668820
519.338	358289
519.408	113052
519.479	162863
519.549	114333
519.620	63922
519.690	46387
519.760	48239
519.831	56614
519.901	57512
519.971	41895
520.042	50383
520.112	67329
520.182	79918
520.253	91729
520.323	53076
520.393	69655
520.463	99059
520.534	76089
520.604	143568
520.674	71442
520.744	81313
520.814	177801
520.885	155365
520.955	177907
521.025	662692
521.095	232079
521.165	57021
521.235	54415
521.305	47929
521.375	43949
521.445	54588
521.515	90215
521.585	97178
521.655	94964
521.725	74172
521.795	58003
521.865	43042
521.935	73270
522.005	65193
522.075	43562
522.145	48148
522.215	62520
522.285	89017
522.355	124824
522.424	249908
522.494	204277
522.564	100348
522.634	222935
522.704	655585
522.774	215506
522.843	63233
522.913	62053
522.983	90258
523.053	63225
523.122	60612
523.192	99665
523.262	407826
523.331	365224
523.401	62995
523.471	40953
523.540	48649
523.610	34983
523.680	34069
523.749	36438
523.819	49468
523.888	51483
523.958	34157
524.027	39825
524.097	45181
524.166	41476
524.236	56869
524.305	46713
524.375	40493
524.444	35713
524.514	37975
524.583	41591
524.653	57002
524.722	63900
524.791	40886
524.861	38573
524.930	35465
524.999	45264
525.069	68980
525.138	50359
525.207	64143
525.277	40304
525.346	45124
525.415	36997
525.484	39624
525.554	50870
525.623	45271
525.692	33398
525.761	36785
525.830	32429
525.900	32612
525.969	47945
526.038	48579
526.107	44207
526.176	70104
526.245	69288
526.314	104392
526.383	97868
526.452	75758
526.522	118709
526.591	225710
526.660	322175
526.729	122696
526.797	100543
526.867	229914
526.935	1019925
527.004	788307
527.073	295605
527.142	59647
527.211	46009
527.280	62652
527.349	72489
527.418	34955
527.487	36533
527.555	34793
527.624	30604
527.693	30068
527.762	31810
527.831	31548
527.899	33515
527.968	36033
528.037	39874
528.106	55395
528.174	122834
528.243	83734
528.312	133404
528.380	184812
528.449	52212
528.518	33527
528.586	26870
528.655	28301
528.723	27805
528.792	30312
528.861	37475
528.929	31239
528.998	28050
529.066	24809
529.135	26226
529.203	25822
529.272	26642
529.340	28117
529.409	32010
529.477	31104
529.545	45319
529.614	48065
529.682	54788
529.751	62547
529.819	57974
529.887	42173
529.956	30375
530.024	33180
530.092	28763
530.161	42488
530.229	90291
530.297	41275
530.365	27271
530.434	24421
530.502	24829
530.570	25695
530.638	24860
530.707	32545
530.775	34924
530.843	26476
530.911	25741
530.979	24603
531.047	25653
531.115	26960
531.183	26997
531.252	27925
531.320	29730
531.388	27224
531.456	27111
531.524	25733
531.592	28537
531.660	33176
531.728	29564
531.796	27521
531.864	28106
531.932	31507
532.000	31701
532.067	35067
532.135	39532
532.203	46351
532.271	51636
532.339	99863
532.407	327279
532.475	163172
532.542	65506
532.610	65738
532.678	89429
532.746	354411
532.814	910285
532.881	234822
532.949	49553
533.017	38724
533.084	32702
533.152	30786
533.220	33564
533.287	43751
533.355	30177
533.423	28738
533.490	27569
533.558	28756
533.625	31818
533.693	35005
533.761	33970
533.828	37510
533.896	41341
533.963	99489
534.031	117080
534.098	156778
534.166	60372
534.233	30710
534.300	32846
534.368	34622
534.435	29675
534.503	29266
534.570	31567
534.637	27974
534.705	26653
534.772	27430
534.840	30062
534.907	41995
534.974	43613
535.041	33538
535.109	46587
535.176	28491
535.243	25541
535.310	33907
535.378	31229
535.445	24902
535.512	23269
535.579	26624
535.646	26164
535.714	26935
535.781	29997
535.848	30855
535.915	35264
535.982	34619
536.049	35076
536.116	37720
536.183	36640
536.250	38628
536.317	40587
536.384	53115
536.451	94928
536.518	96167
536.585	59229
536.652	77695
536.719	130140
536.786	99157
536.853	65829
536.920	104634
536.987	185871
537.053	148836
537.120	498143
537.187	387373
537.254	50554
537.321	39542
537.388	37802
537.454	30763
537.521	27934
537.588	27905
537.654	32062
537.721	32849
537.788	34650
537.855	30038
537.921	35571
537.988	37589
538.055	35867
538.121	39356
538.188	46548
538.254	88249
538.321	211033
538.388	106295
538.454	41449
538.521	33322
538.587	30480
538.654	30779
538.720	30865
538.787	30692
538.853	36884
538.920	53960
538.986	55791
539.053	43358
539.119	45144
539.185	42840
539.252	53642
539.318	104167
539.385	56539
539.451	45218
539.517	44542
539.583	56696
539.650	154088
539.716	409143
539.782	97502
539.849	44530
539.915	41533
539.981	47422
540.047	67134
540.114	52277
540.180	51226
540.246	53811
540.312	83504
540.378	196742
540.444	175564
540.510	159193
540.576	451955
540.643	121784
540.709	40945
540.775	37630
540.841	39720
540.907	57957
540.973	85642
541.039	90276
541.105	103533
541.171	48062
541.237	40785
541.303	42433
541.369	52649
541.435	83373
541.500	173177
541.566	95563
541.632	40703
541.698	34200
541.764	32820
541.830	32695
541.896	34058
541.961	34660
542.027	35540
542.093	37935
542.159	41291
542.224	50992
542.290	77581
542.356	166031
542.421	188825
542.487	66677
542.553	46677
542.618	49617
542.684	42210
542.750	45317
542.815	53286
542.881	101875
542.947	393109
543.012	252021
543.078	44127
543.143	38118
543.209	41188
543.274	43475
543.340	52965
543.405	148673
543.471	233638
543.536	46042
543.602	36836
543.667	34681
543.732	30977
543.798	29909
543.863	30302
543.928	28629
543.994	27951
544.059	31397
544.124	30542
544.190	31315
544.255	34236
544.320	37224
544.386	43875
544.451	71192
544.516	85891
544.581	74462
544.646	242122
544.712	354617
544.777	60716
544.842	49826
544.907	52832
544.972	43036
545.037	42012
545.102	47538
545.168	49330
545.233	52424
545.298	55670
545.363	66321
545.428	75737
545.493	149218
545.558	346092
545.623	114873
545.688	50898
545.753	45181
545.818	42095
545.883	43817
545.947	42056
546.012	49764
546.077	53067
546.142	47715
546.207	50859
546.272	80809
546.337	84116
546.401	50989
546.466	44431
546.531	42587
546.596	50037
546.661	48715
546.725	42733
546.790	38620
546.855	38782
546.919	37903
546.984	41024
547.049	44933
547.113	54719
547.178	43304
547.243	49151
547.307	52618
547.372	68130
547.436	73600
547.501	44403
547.565	49806
547.630	77072
547.695	71251
547.759	75468
547.823	57181
547.888	41049
547.952	41178
548.017	44245
548.081	58551
548.146	87803
548.210	62236
548.274	40668
548.339	39259
548.403	38389
548.468	35842
548.532	38209
548.596	39377
548.660	41267
548.725	47778
548.789	65905
548.853	62426
548.917	48372
548.982	76951
549.046	74073
549.110	43177
549.174	40447
549.238	38010
549.303	35221
549.367	39999
549.431	39405
549.495	38565
549.559	38260
549.623	40446
549.687	54392
549.751	90839
549.815	53350
549.879	43343
549.943	40891
550.007	45371
550.071	49502
550.135	75918
550.199	56583
550.263	45882
550.327	56369
550.391	80893
550.455	48618
550.519	45382
550.582	50441
550.646	83024
550.710	81299
550.774	46183
550.838	44432
550.901	46649
550.965	48128
551.029	50648
551.093	59100
551.156	78334
551.220	175439
551.284	167586
551.347	82237
551.411	228244
551.475	228488
551.538	51472
551.602	43509
551.666	40957
551.729	39434
551.793	40423
551.856	41057
551.920	41292
551.983	40561
552.047	38847
552.110	37588
552.174	38121
552.237	39257
552.301	38059
552.364	37550
552.428	40099
552.491	39338
552.554	43357
552.618	42332
552.681	43503
552.745	47112
552.808	69666
552.871	92941
552.934	59712
552.998	46860
553.061	49776
553.124	45819
553.187	44449
553.251	48435
553.314	51643
553.377	49319
553.440	63225
553.503	148571
553.567	230665
553.630	60947
553.693	42904
553.756	42486
553.819	37949
553.882	39884
553.945	39012
554.008	36174
554.071	35502
554.134	36860
554.197	36865
554.260	36647
554.323	46979
554.386	44499
554.449	39448
554.512	37458
554.575	37216
554.638	42172
554.701	39721
554.764	35213
554.827	36297
554.889	34707
554.952	33329
555.015	35029
555.078	35372
555.141	34714
555.203	32865
555.266	35761
555.329	38967
555.391	37222
555.454	44935
555.517	44301
555.580	34106
555.642	32170
555.705	34426
555.768	35989
555.830	36112
555.893	33624
555.955	35598
556.018	38109
556.080	36704
556.143	35972
556.206	38772
556.268	44813
556.330	46081
556.393	44579
556.455	43322
556.518	78176
556.580	77443
556.643	39652
556.705	38776
556.767	38972
556.830	42849
556.892	56271
556.955	111637
557.017	65646
557.079	42532
557.142	43146
557.204	60071
557.266	156869
557.328	111516
557.391	41714
557.453	36851
557.515	39367
557.577	62310
557.639	59400
557.701	35050
557.764	32594
557.826	34264
557.888	37586
557.950	34271
558.012	33725
558.074	35209
558.136	41990
558.198	52422
558.260	43728
558.322	42140
558.384	42548
558.446	47564
558.508	51842
558.570	69982
558.632	157528
558.694	224939
558.756	72928
558.818	89499
558.880	157148
558.942	59857
559.003	54150
559.065	38600
559.127	35377
559.189	36365
559.251	39093
559.312	37552
559.374	52816
559.436	108380
559.498	62296
559.559	37398
559.621	38466
559.683	44271
559.744	64659
559.806	107609
559.868	101357
559.929	52477
559.991	50221
560.052	52348
560.114	64559
560.176	54432
560.237	64922
560.299	89498
560.360	50356
560.422	44703
560.483	46071
560.545	43288
560.606	43586
560.667	42440
560.729	41664
560.790	41302
560.852	42439
560.913	43571
560.974	41905
561.036	43080
561.097	45128
561.158	46656
561.220	48781
561.281	51235
561.342	54053
561.403	63286
561.465	90275
561.526	238456
561.587	289283
561.648	72002
561.709	50275
561.771	47824
561.832	46782
561.893	46871
561.954	43442
562.015	42816
562.076	43591
562.137	45053
562.198	45530
562.259	45162
562.320	47528
562.381	57466
562.442	92008
562.503	64872
562.564	45832
562.625	44002
562.686	43634
562.747	54034
562.808	46447
562.869	46682
562.930	58950
562.991	54606
563.051	49260
563.112	47272
563.173	45749
563.234	44467
563.294	43409
563.355	47581
563.416	49137
563.477	45782
563.537	48131
563.598	51314
563.659	49050
563.720	50451
563.780	52755
563.841	55333
563.901	48033
563.962	46115
564.023	48573
564.083	49235
564.144	50770
564.204	49155
564.265	49889
564.325	60788
564.386	116717
564.446	95593
564.507	47006
564.567	44452
564.628	46376
564.688	45435
564.749	47143
564.809	54748
564.869	64017
564.930	47676
564.990	43439
565.050	44725
565.111	43906
565.171	42878
565.231	43507
565.292	41483
565.352	42285
565.412	44975
565.472	48942
565.532	52315
565.593	47341
565.653	44335
565.713	47305
565.773	50481
565.833	67617
565.893	83616
565.953	49910
566.013	45598
566.074	50576
566.134	65891
566.194	108137
566.254	108512
566.314	64814
566.374	46771
566.434	46297
566.494	44426
566.554	43269
566.614	43080
566.673	43488
566.733	47251
566.793	47838
566.853	49143
566.913	44773
566.973	46192
567.033	50895
567.092	53435
567.152	46659
567.212	46440
567.272	48256
567.331	50858
567.391	45755
567.451	50372
567.511	72966
567.570	71015
567.630	42824
567.690	42063
567.749	42182
567.809	41751
567.868	46425
567.928	48244
567.988	52149
568.047	43767
568.107	42217
568.166	43194
568.226	42845
568.285	48037
568.345	44853
568.404	43951
568.464	42812
568.523	43602
568.582	46506
568.642	49142
568.701	47814
568.761	48995
568.820	54707
568.879	58119
568.939	70881
568.998	52872
569.057	43062
569.116	42650
569.176	39611
569.235	38649
569.294	40889
569.353	39405
569.413	42056
569.472	42708
569.531	40345
569.590	39995
569.649	38594
569.708	39825
569.767	43808
569.827	60672
569.886	49244
569.945	36927
570.004	40141
570.063	41474
570.122	48054
570.181	51160
570.240	54495
570.299	56712
570.358	58654
570.417	43972
570.475	41418
570.534	45836
570.593	48000
570.652	49357
570.711	50618
570.770	44026
570.829	48577
570.887	50024
570.946	56745
571.005	42267
571.064	41348
571.122	44603
571.181	52134
571.240	43730
571.299	39496
571.357	44785
571.416	47610
571.475	53620
571.533	54108
571.592	42957
571.650	46843
571.709	39614
571.768	39313
571.826	38261
571.885	35639
571.943	36358
572.002	39291
572.060	41563
572.119	34305
572.177	36029
572.236	35260
572.294	34977
572.352	36057
572.411	35627
572.469	35038
572.528	35573
572.586	38034
572.644	45564
572.703	60769
572.761	44973
572.819	37558
572.877	35592
572.936	34312
572.994	34443
573.052	35485
573.110	39643
573.169	38268
573.227	34286
573.285	33559
573.343	34825
573.401	35700
573.459	33391
573.517	33588
573.576	34387
573.634	34295
573.692	38574
573.750	34502
573.808	34121
573.866	38858
573.924	51609
573.982	47853
574.040	36928
574.098	34359
574.155	32886
574.213	32784
574.271	33658
574.329	34850
574.387	31462
574.445	31098
574.503	30310
574.560	29073
574.618	30194
574.676	29817
574.734	31153
574.792	32326
574.849	31144
574.907	30373
574.965	30285
575.022	29392
575.080	31421
575.138	32691
575.195	35414
575.253	35611
575.311	40437
575.368	31587
575.426	30720
575.483	30203
575.541	30444
575.598	30083
575.656	33847
575.713	33399
575.771	30119
575.828	30852
575.886	32717
575.943	34792
576.001	37263
576.058	36171
576.115	38652
576.173	46951
576.230	54986
576.287	61301
576.345	45297
576.402	36423
576.459	36403
576.517	37395
576.574	44217
576.631	43346
576.688	38356
576.746	35547
576.803	36164
576.860	34918
576.917	35001
576.974	34752
577.031	33823
577.089	34518
577.146	35191
577.203	36554
577.260	38122
577.317	40707
577.374	47315
577.431	43951
577.488	39234
577.545	34894
577.602	35157
577.659	35628
577.716	35181
577.773	38069
577.830	34981
577.886	35212
577.943	33552
578.000	34755
578.057	40057
578.114	37451
578.171	37995
578.227	43943
578.284	43040
578.341	40044
578.398	40176
578.454	42366
578.511	46025
578.568	49857
578.625	44028
578.681	36236
578.738	33752
578.794	33470
578.851	34145
578.908	35017
578.964	37650
579.021	37379
579.077	35522
579.134	32684
579.190	32168
579.247	32167
579.303	32100
579.360	31534
579.416	32183
579.473	31407
579.529	30604
579.586	31490
579.642	33496
579.698	34401
579.755	35418
579.811	34230
579.867	33813
579.924	34094
579.980	35720
580.036	37421
580.093	41456
580.149	50772
580.205	54455
580.261	47745
580.317	44166
580.374	46105
580.430	50554
580.486	45806
580.542	38941
580.598	38505
580.619	38319
580.654	38045
580.692	37097
580.710	36702
580.765	35496
580.767	35503
580.823	35086
580.838	35240
580.879	35800
580.911	35018
580.935	34531
580.984	33556
580.991	33471
581.047	34354
581.057	34552
581.103	35607
581.130	36554
581.159	37627
581.203	38431
581.215	38689
581.270	38889
581.276	38683
581.326	36943
581.349	36543
581.382	36179
581.422	36098
581.438	36064
581.494	38614
581.494	38561
581.550	36562
581.567	37297
581.606	38929
581.640	37343
581.661	36415
581.713	36233
581.717	36264
581.773	34877
581.786	34680
581.829	33994
581.859	34558
581.885	35166
581.932	34380
581.940	34261
581.996	35770
582.004	35615
582.052	34736
582.077	33991
582.107	33244
582.150	34101
582.163	34366
582.219	35166
582.223	35106
582.274	34713
582.296	35389
582.330	36500
582.368	36828
582.386	36976
582.441	33917
582.441	33926
582.497	33773
582.514	33828
582.552	34239
582.587	35422
582.608	36032
582.659	34496
582.663	34373
582.719	33719
582.732	33380
582.774	32447
582.805	33533
582.830	34533
582.877	33361
582.885	33172
582.941	34032
582.950	34037
582.996	34041
583.023	34914
583.052	36110
583.095	37459
583.107	37885
583.162	41611
583.168	41790
583.218	42756
583.240	41638
583.273	39641
583.313	37153
583.328	36328
583.384	35642
583.385	35604
583.439	34303
583.458	33833
583.494	33205
583.531	32432
583.549	32059
583.603	32357
583.605	32358
583.660	32372
583.676	32027
583.715	31236
583.748	32626
583.770	33582
583.820	33887
583.825	33911
583.881	32331
583.893	32340
583.936	32105
583.965	31384
583.991	30888
584.038	30783
584.046	30743
584.101	32126
584.110	31994
584.156	31292
584.183	30649
584.211	29937
584.255	29668
584.266	29566
584.321	27576
584.328	27861
584.376	30353
584.400	30298
584.431	30099
584.472	29751
584.486	29571
584.541	29307
584.545	29281
584.596	29091
584.617	29810
584.651	31038
584.689	31604
584.706	31729
584.761	31822
584.762	31830
584.816	31504
584.834	31639
584.871	31388
584.906	31097
584.926	31113
584.978	31187
584.980	31188
585.035	31763
585.051	32315
585.090	33409
585.123	33762
585.145	33904
585.195	34068
585.200	34151
585.254	35145
585.267	35777
585.309	37808
585.340	41008
585.364	42740
585.412	37342
585.419	36487
585.473	33801
585.484	33723
585.528	34423
585.556	35500
585.583	36484
585.628	36802
585.637	36874
585.692	43297
585.700	44211
585.747	48927
585.772	44596
585.801	39004
585.845	35736
585.856	35006
585.910	35509
585.917	35472
585.965	35448
585.989	35310
586.019	34966
586.061	35330
586.074	35541
586.128	36321
586.133	36682
586.183	40088
586.205	40638
586.237	41366
586.277	40465
586.292	39939
586.346	38759
586.349	38773
586.401	38607
586.421	39195
586.455	40385
586.493	43879
586.509	46774
586.564	60722
586.565	61583
586.618	99598
586.637	96422
586.672	77045
586.709	52234
586.727	42408
586.781	36901
586.781	36865
586.835	36974
586.853	36652
586.889	35891
586.925	35522
586.944	35470
586.996	36456
586.998	36454
587.052	37183
587.068	37319
587.106	37497
587.140	37355
587.161	37071
587.212	37648
587.215	37673
587.269	38478
587.284	38608
587.323	38642
587.356	38666
587.377	38571
587.427	38744
587.431	38740
587.485	38673
587.499	38847
587.539	39564
587.571	40118
587.593	40055
587.643	40197
587.648	40243
587.702	40151
587.715	40545
587.755	41636
587.786	41962
587.810	41794
587.858	40812
587.864	40783
587.917	42730
587.930	43342
587.971	45651
588.001	46765
588.025	46661
588.073	44820
588.079	44765
588.133	45798
588.145	46344
588.187	48525
588.217	50119
588.241	51211
588.288	53964
588.295	54433
588.348	59927
588.360	61148
588.402	65648
588.431	68808
588.456	71323
588.503	77907
588.510	78977
588.564	89191
588.575	91931
588.617	101930
588.646	108679
588.671	116484
588.718	135293
588.725	140038
588.778	188386
588.789	202726
588.832	320922
588.861	424686
588.886	603771
588.932	1017497
588.939	1058438
588.993	1315737
589.004	1299456
589.047	747224
589.075	423828
589.100	296890
589.147	154940
589.154	148855
589.207	122046
589.218	117709
589.261	115539
589.290	116480
589.314	120681
589.361	135053
589.368	141214
589.421	204002
589.433	222787
589.475	403965
589.504	559802
589.528	741378
589.576	1119157
589.582	1093821
589.635	603450
589.647	504362
589.689	247341
589.718	117043
589.742	99860
589.790	74926
589.795	74148
589.849	71996
589.861	73102
589.902	79278
589.932	78119
589.955	69656
590.004	50720
590.009	49829
590.062	47023
590.075	46271
590.115	44444
590.146	43650
590.168	43729
590.218	43962
590.222	43913
590.275	44440
590.289	44485
590.328	44364
590.360	43904
590.381	43146
590.431	42164
590.435	42133
590.488	42737
590.503	42947
590.541	42889
590.574	42652
590.594	42480
590.645	42171
590.647	42094
590.700	41566
590.716	41389
590.753	41024
590.787	40802
590.806	40507
590.859	40115
590.859	40064
590.912	39484
590.930	39536
590.965	40105
591.001	40576
591.018	40527
591.071	40829
591.072	40877
591.124	40694
591.143	40740
591.177	41077
591.214	41591
591.230	42235
591.283	44629
591.285	44777
591.336	45579
591.356	46127
591.389	45653
591.427	44335
591.442	43646
591.495	41566
591.498	41486
591.547	40498
591.569	40239
591.600	40134
591.640	39935
591.653	40092
591.706	41186
591.711	41368
591.759	42475
591.782	43242
591.811	45015
591.853	47609
591.864	46693
591.917	41648
591.924	41052
591.969	41271
591.995	41573
592.022	41777
592.066	42268
592.075	42732
592.127	46052
592.137	46810
592.180	50213
592.208	52177
592.233	49015
592.279	42984
592.285	42619
592.338	40469
592.350	40026
592.390	39723
592.421	39627
592.443	39477
592.491	39281
592.495	39267
592.548	39783
592.562	39975
592.600	40164
592.633	40434
592.653	39848
592.704	38257
592.705	38484
592.775	39075
592.846	38319
592.916	39499
592.987	41303
593.058	40531
593.128	37656
593.199	37447
593.270	36749
593.341	37996
593.411	38133
593.482	36084
593.553	37550
593.623	35489
593.694	36013
593.764	38929
593.835	36179
593.906	35921
593.976	34696
594.047	37601
594.117	43188
594.188	41994
594.258	34060
594.329	33367
594.399	34861
594.470	33369
594.540	33286
594.611	34257
594.681	32831
594.751	34113
594.822	36288
594.892	35775
594.963	36472
595.033	36918
595.103	38324
595.174	38735
595.244	51131
595.314	59956
595.384	37186
595.455	34979
595.525	37073
595.595	36861
595.665	35889
595.736	36057
595.806	35905
595.876	35076
595.946	33065
596.016	32794
596.087	34113
596.157	34249
596.227	34560
596.297	34938
596.367	35627
596.437	39103
596.507	47995
596.577	56305
596.647	38665
596.717	34076
596.787	34057
596.857	34079
596.927	32431
596.997	33739
597.067	35121
597.137	38966
597.207	36864
597.277	34867
597.347	33430
597.417	33550
597.487	35884
597.557	37158
597.626	36341
597.696	37855
597.766	43470
597.836	53494
597.906	38634
597.975	34152
598.045	31981
598.115	32471
598.185	33094
598.254	33824
598.324	34468
598.394	34411
598.464	33627
598.533	33205
598.603	32594
598.672	31856
598.742	31245
598.812	30757
598.881	31258
598.951	31223
599.020	28949
599.090	28837
599.159	29885
599.229	29270
599.299	29040
599.368	29638
599.437	29045
599.507	30585
599.576	31971
599.646	34028
599.715	36162
599.785	30974
599.854	32733
599.924	35002
599.993	33743
600.062	31512
600.132	30635
600.201	31370
600.270	32598
600.340	30716
600.409	29176
600.478	29779
600.547	30086
600.617	32062
600.686	31640
600.755	30706
600.824	31671
600.894	31012
600.963	28853
601.032	29138
601.101	30107
601.170	29650
601.239	29387
601.308	31234
601.378	30469
601.447	29589
601.516	29333
601.585	29416
601.654	31767
601.723	29928
601.792	30354
601.861	30544
601.930	38064
601.999	33474
602.068	29224
602.137	30999
602.206	30759
602.275	30739
602.343	33491
602.412	34163
602.481	28653
602.550	27106
602.619	28615
602.688	29096
602.756	29175
602.825	27158
602.894	28049
602.963	27331
603.032	27181
603.100	26154
603.169	28214
603.238	28434
603.307	27134
603.375	26508
603.444	27870
603.513	26609
603.581	25604
603.650	26228
603.719	25331
603.787	24550
603.856	26908
603.924	27445
603.993	27286
604.061	24854
604.130	25652
604.198	26096
604.267	25911
604.335	25768
604.404	24991
604.472	24793
604.541	25585
604.609	24474
604.678	24411
604.746	24956
604.815	24740
604.883	25401
604.951	25134
605.020	24870
605.088	25288
605.156	25153
605.225	24568
605.293	24225
605.361	25086
605.429	24081
605.498	24996
605.566	25077
605.634	25483
605.702	24559
605.771	25463
605.839	24387
605.907	23809
605.975	24223
606.043	25137
606.111	25220
606.180	26966
606.248	31802
606.316	35888
606.384	27127
606.452	31716
606.520	33963
606.588	26023
606.656	22280
606.724	22430
606.792	22794
606.860	22261
606.928	20278
606.996	21221
607.064	19988
607.132	21254
607.200	21282
607.267	22144
607.335	22147
607.403	21292
607.471	22023
607.539	21474
607.607	21134
607.674	20565
607.742	23702
607.810	22884
607.878	21008
607.946	20900
608.013	21122
608.081	21942
608.149	21991
608.216	21001
608.284	21326
608.352	21331
608.419	23515
608.487	32885
608.555	24298
608.622	20438
608.690	20670
608.757	21144
608.825	21360
608.893	23062
608.960	27344
609.028	30765
609.095	34099
609.163	23798
609.230	21993
609.298	22598
609.365	21072
609.432	21794
609.500	23683
609.567	23996
609.635	23682
609.702	22635
609.769	23307
609.837	26302
609.904	23805
609.971	22593
610.039	26394
610.106	32047
610.173	43524
610.241	81132
610.308	143219
610.375	107466
610.442	35927
610.509	24533
610.577	23450
610.644	22704
610.711	22899
610.778	24001
610.845	22831
610.912	24239
610.980	28936
611.047	42580
611.114	29873
611.181	20838
611.248	20498
611.315	21658
611.382	20511
611.449	19940
611.516	20141
611.583	21030
611.650	20114
611.717	20600
611.784	20543
611.851	21706
611.918	23524
611.984	22414
612.051	23741
612.118	29021
612.185	42893
612.252	34069
612.319	21214
612.386	19970
612.452	20942
612.519	24687
612.586	33301
612.653	26224
612.719	19781
612.786	19887
612.853	18824
612.919	19070
612.986	19416
613.053	18779
613.120	18839
613.186	17497
613.253	20396
613.319	18614
613.386	19541
613.453	19979
613.519	24034
613.586	28829
613.652	41634
613.719	33480
613.785	28176
613.852	21105
613.918	20178
613.985	24031
614.051	35292
614.118	73640
614.184	72309
614.250	23128
614.317	19697
614.383	18555
614.449	17486
614.516	19077
614.582	20112
614.648	17975
614.715	17882
614.781	18559
614.847	19901
614.914	21227
614.980	20553
615.046	18956
615.112	17790
615.179	18774
615.245	18868
615.311	18287
615.377	18683
615.443	19273
615.509	20472
615.575	19770
615.642	19745
615.708	21248
615.774	22310
615.840	25818
615.906	27491
615.972	26894
616.038	29032
616.104	39599
616.170	60592
616.236	53293
616.302	30659
616.368	26709
616.434	25151
616.500	26867
616.565	26844
616.631	26341
616.697	24587
616.763	24991
616.829	26426
616.895	29261
616.961	29352
617.026	26515
617.092	24293
617.158	25244
617.224	24255
617.289	25635
617.355	26628
617.421	28028
617.487	27911
617.552	26190
617.618	24541
617.684	24037
617.749	26887
617.815	24841
617.880	24307
617.946	24926
618.012	25484
618.077	26112
618.143	25279
618.208	25945
618.274	26562
618.339	27992
618.405	27004
618.470	28149
618.536	28483
618.601	33068
618.667	32665
618.732	30688
618.798	29539
618.863	29963
618.928	29353
618.994	32352
619.059	34958
619.124	45256
619.190	36158
619.255	30040
619.320	30967
619.386	29983
619.451	28484
619.516	28431
619.581	30504
619.647	28847
619.712	28279
619.777	29753
619.842	29556
619.907	29813
619.972	28822
620.038	30328
620.103	28771
620.168	28039
620.233	28048
620.298	27758
620.363	27948
620.428	28609
620.493	29406
620.558	28527
620.623	27939
620.688	27484
620.753	27022
620.818	26775
620.883	27467
620.948	27288
621.013	26696
621.078	29403
621.143	28659
621.207	32231
621.272	31274
621.337	32126
621.402	36046
621.467	45782
621.532	47035
621.596	38555
621.661	36093
621.726	34061
621.791	34396
621.855	35035
621.920	37285
621.985	37723
622.049	41271
622.114	39272
622.179	38534
622.243	40836
622.308	38826
622.373	39888
622.437	40070
622.502	37656
622.566	37284
622.631	38507
622.695	38838
622.760	38715
622.824	38436
622.889	38724
622.953	41318
623.018	54353
623.082	52116
623.147	38472
623.211	37410
623.276	37990
623.340	33923
623.404	34969
623.469	35195
623.533	35641
623.597	34562
623.662	34077
623.726	34561
623.790	35320
623.854	35539
623.919	36228
623.983	34917
624.047	35719
624.111	34409
624.176	35019
624.240	38570
624.304	41018
624.368	35236
624.432	34947
624.496	35155
624.560	37602
624.625	38464
624.689	33566
624.753	33116
624.817	33191
624.881	32200
624.945	32572
625.009	33098
625.073	33268
625.137	34807
625.201	40976
625.265	41145
625.329	33961
625.393	33718
625.456	33698
625.520	32664
625.584	36978
625.648	42656
625.712	59971
625.776	123550
625.839	140197
625.903	61888
625.967	39336
626.031	57694
626.095	82169
626.158	38325
626.222	29285
626.286	29665
626.349	28918
626.413	28998
626.477	33222
626.540	28954
626.604	28930
626.668	29088
626.731	29000
626.795	31671
626.858	31569
626.922	28630
626.986	29290
627.049	26579
627.113	28027
627.176	27079
627.240	27425
627.303	27900
627.366	28420
627.430	27550
627.493	28371
627.557	29928
627.620	29385
627.684	27527
627.747	27569
627.810	26832
627.874	27441
627.937	25815
628.000	29696
628.064	30527
628.127	25926
628.190	27520
628.253	27859
628.317	25277
628.380	25521
628.443	26059
628.506	28025
628.569	25800
628.632	24152
628.696	25280
628.759	24817
628.822	24762
628.885	24399
628.948	24343
629.011	26359
629.074	25129
629.137	23671
629.200	24442
629.263	27514
629.326	22657
629.389	24630
629.452	24655
629.515	26343
629.578	24319
629.641	25510
629.704	25860
629.767	26817
629.830	24701
629.892	24386
629.955	23356
630.018	26563
630.081	25698
630.144	29615
630.207	24661
630.269	27669
630.332	26659
630.395	24333
630.458	22545
630.520	23236
630.583	23410
630.646	21775
630.708	22239
630.771	21174
630.834	21658
630.896	21264
630.959	21154
631.021	20725
631.084	22044
631.146	23540
631.209	24880
631.272	20888
631.334	20702
631.397	20140
631.459	19669
631.522	20797
631.584	20957
631.646	20971
631.709	20501
631.771	25994
631.834	21185
631.896	20461
631.958	18456
632.021	20678
632.083	19252
632.145	22710
632.208	20446
632.270	20321
632.332	19641
632.395	19481
632.457	21013
632.519	19706
632.581	20334
632.643	19058
632.706	19203
632.768	17820
632.830	19956
632.892	18985
632.954	18708
633.016	20990
633.078	18667
633.141	18367
633.203	19049
633.265	19010
633.327	18141
633.389	17579
633.451	21074
633.513	23408
633.575	22605
633.637	23155
633.698	20374
633.760	19039
633.822	17287
633.884	18605
633.946	17476
634.008	18121
634.070	18318
634.132	23478
634.193	19801
634.255	17562
634.317	17075
634.379	17988
634.441	16971
634.502	16647
634.564	16514
634.626	16823
634.687	17035
634.749	18404
634.811	16637
634.873	15179
634.934	15177
634.996	16915
635.057	15967
635.119	16194
635.181	16665
635.242	17387
635.304	14732
635.365	17376
635.427	16480
635.488	16164
635.550	15559
635.611	16942
635.673	15166
635.734	18551
635.796	16924
635.857	17888
635.918	15385
635.980	17048
636.041	15471
636.102	16184
636.164	14973
636.225	15550
636.286	14752
636.348	16292
636.409	15257
636.470	14999
636.531	15243
636.593	17798
636.654	17471
636.715	14905
636.776	13690
636.838	13834
636.899	15152
636.960	14814
637.021	14413
637.082	15294
637.143	14795
637.204	13248
637.265	13849
637.326	14258
637.387	14574
637.448	12787
637.509	14582
637.570	15323
637.631	14339
637.692	13197
637.753	12376
637.814	14683
637.875	13578
637.936	15017
637.997	12801
638.058	14390
638.119	15011
638.179	13793
638.240	13116
638.301	13542
638.362	13472
638.423	13878
638.483	14100
638.544	12593
638.605	13628
638.666	12843
638.726	14591
638.787	14948
638.848	13149
638.908	13675
638.969	13561
639.030	13479
639.090	12086
639.151	12760
639.211	14210
639.272	17303
639.332	25461
639.393	16260
639.453	12209
639.514	13062
639.574	12127
639.635	12199
639.695	13882
639.756	11668
639.816	13617
639.877	15535
639.937	21559
639.997	26777
640.058	13503
640.118	12416
640.178	11915
640.239	11714
640.299	10664
640.359	11478
640.420	11448
640.480	11813
640.540	10534
640.600	11845
640.661	11516
640.721	11536
640.781	14997
640.841	11497
640.901	13024
640.961	12792
641.021	12965
641.082	12765
641.142	16893
641.202	14863
641.262	9704
641.322	12274
641.382	10587
641.442	12259
641.502	11343
641.562	12739
641.622	11161
641.682	12415
641.742	10547
641.802	12645
641.861	13099
641.921	12897
641.981	13508
642.041	13710
642.101	17115
642.161	12179
642.221	10653
642.280	11741
642.340	10385
642.400	10595
642.460	13000
642.519	10364
642.579	10574
642.639	12367
642.698	8913
642.758	12421
642.818	10620
642.877	11732
642.937	11891
642.997	14536
643.056	17831
643.116	12206
643.175	13103
643.235	10068
643.294	10912
643.354	10763
643.414	10749
643.473	11725
643.532	9268
643.592	11142
643.651	11669
643.711	13118
643.770	14820
643.830	21095
643.889	34554
643.948	15749
644.008	10590
644.067	9935
644.126	8954
644.186	9811
644.245	10465
644.304	8782
644.363	11740
644.423	8393
644.482	9972
644.541	9801
644.600	8239
644.659	10776
644.719	9722
644.778	10799
644.837	10444
644.896	12603
644.955	14249
645.014	13218
645.073	14459
645.132	10984
645.191	10471
645.250	10109
645.309	10218
645.368	9103
645.427	10390
645.486	9137
645.545	10285
645.604	9118
645.663	9822
645.722	10018
645.781	9589
645.840	9457
645.898	8949
645.957	10324
646.016	9022
646.075	10450
646.134	12009
646.192	19263
646.251	24539
646.310	10804
646.369	9179
646.427	8801
646.486	7974
646.545	9412
646.603	8831
646.662	9366
646.721	8082
646.779	7525
646.838	7689
646.896	9794
646.955	9096
647.014	9777
647.072	9138
647.131	10765
647.189	8384
647.248	8519
647.306	8536
647.365	9615
647.423	7870
647.481	10119
647.540	7062
647.598	8947
647.657	7397
647.715	8870
647.773	8155
647.832	9919
647.890	7495
647.948	8744
648.007	10135
648.065	8842
648.123	9382
648.181	11304
648.240	12936
648.298	11372
648.356	8781
648.414	9797
648.472	10040
648.531	10217
648.589	8344
648.647	8909
648.705	8108
648.763	9265
648.821	8794
648.879	8473
648.937	8949
648.995	9108
649.053	8847
649.111	9616
649.169	10138
649.227	10815
649.285	11769
649.343	18583
649.401	18861
649.459	29471
649.516	23939
649.574	16604
649.632	34576
649.690	41453
649.748	17539
649.806	20048
649.863	28734
649.921	13897
649.979	8894
650.037	9083
650.094	7444
650.152	9519
650.210	7227
650.268	8904
650.325	8009
650.383	7561
650.440	7185
650.498	8232
650.556	7772
650.613	7891
650.671	7627
650.728	8366
650.786	7905
650.843	8003
650.901	6212
650.958	7264
651.016	7598
651.073	7978
651.131	7014
651.188	7550
651.246	8131
651.303	7263
651.360	8736
651.418	7811
651.475	7857
651.532	6416
651.590	8239
651.647	6522
651.704	7868
651.762	7879
651.819	6728
651.876	7674
651.933	7220
651.990	8180
652.048	6009
652.105	7550
652.162	7415
652.219	7177
652.276	7620
652.333	8230
652.390	6335
652.448	7574
652.505	7630
652.562	7835
652.619	9703
652.676	14926
652.733	15307
652.790	7874
652.847	5759
652.904	7653
652.961	6621
653.017	6540
653.074	7809
653.131	7840
653.188	6352
653.245	6618
653.302	6912
653.359	7080
653.415	6498
653.472	7130
653.529	7047
653.586	6219
653.642	6355
653.699	7636
653.756	6433
653.813	6746
653.869	6718
653.926	5008
653.983	6339
654.039	6977
654.096	6256
654.152	7664
654.209	5550
654.266	7259
654.322	6173
654.379	8339
654.435	8429
654.492	8011
654.548	11285
654.605	15788
654.661	9823
654.717	7724
654.774	7462
654.830	7248
654.887	7088
654.943	7603
655.000	7579
655.056	8245
655.112	7777
655.168	7331
655.225	7446
655.281	8939
655.337	10423
655.394	14787
655.450	11664
655.506	10501
655.562	15548
655.618	12769
655.675	6563
655.731	8182
655.787	6961
655.843	8297
655.899	5085
655.955	7199
656.011	6693
656.067	6348
656.123	7263
656.179	7669
656.235	8031
656.291	5607
656.347	8209
656.403	7556
656.459	7780
656.515	8188
656.571	8605
656.627	8271
656.683	8024
656.739	7492
656.795	7144
656.850	7527
656.906	9301
656.962	8246
657.018	6217
657.074	7080
657.129	7384
657.185	7318
657.241	7275
657.297	6435
657.352	7331
657.408	6538
657.464	8530
657.519	7870
657.575	6467
657.630	7961
657.686	7004
657.742	7069
657.797	7048
657.853	7131
657.908	8387
657.964	7201
658.019	7926
658.075	7981
658.130	7086
658.186	6606
658.241	7687
658.297	6491
658.352	6571
658.407	6965
658.463	6374
658.518	7515
658.573	7022
658.629	6277
658.684	6720
658.739	7201
658.795	5526
658.850	7145
658.905	7129
658.960	6892
659.016	6308
659.071	7711
659.126	7119
659.181	7489
659.236	12434
659.291	12470
659.346	8874
659.401	10318
659.457	10927
659.512	13635
659.567	9890
659.622	7916
659.677	6530
659.732	6536
659.787	7626
659.842	8243
659.897	10296
659.952	8531
660.007	6766
660.061	7431
660.116	6695
660.171	6688
660.226	7282
660.281	8008
660.336	6446
660.391	7257
660.445	6622
660.500	8009
660.555	6344
660.610	6304
660.664	7166
660.719	7429
660.774	7569
660.828	8231
660.883	8194
660.938	8062
660.992	6815
661.047	7305
661.101	5907
661.156	6801
661.211	6410
661.265	6833
661.320	6651
661.374	6986
661.429	6430
661.483	7879
661.538	6867
661.592	6481
661.647	6725
661.701	7383
661.755	7424
661.810	8266
661.864	6654
661.919	7059
661.973	6968
662.027	6887
662.081	6900
662.136	6603
662.190	7687
662.244	7563
662.299	7392
662.353	6972
662.407	6952
662.461	8196
662.515	7983
662.569	7934
662.624	8492
662.678	7570
662.732	7578
662.786	6617
662.840	7257
662.894	7796
662.948	7460
663.002	6915
663.056	7124
663.110	6865
663.164	7611
663.218	7593
663.272	7436
663.326	7889
663.380	7755
663.434	7815
663.488	7110
663.542	8131
663.595	7714
663.649	7742
663.703	7712
663.757	7476
663.811	7295
663.864	7475
663.918	7209
663.972	7577
664.026	7076
664.079	6310
664.133	7736
664.187	6934
664.240	6815
664.294	6333
664.348	7541
664.401	7575
664.455	6728
664.508	7518
664.562	8069
664.615	7409
664.669	6528
664.722	7740
664.776	7430
664.829	7398
664.883	7838
664.936	7244
664.990	7356
665.043	8283
665.097	9020
665.150	10180
665.203	7942
665.257	8535
665.310	8590
665.363	8486
665.417	8882
665.470	8045
665.523	7998
665.576	9114
665.630	8078
665.683	7915
665.736	8859
665.789	8587
665.842	8081
665.895	8431
665.949	8236
666.002	7572
666.055	6787
666.108	9654
666.161	8519
666.214	8799
666.267	8233
666.320	10270
666.373	9270
666.426	8679
666.479	8181
666.532	9156
666.585	9438
666.638	10361
666.691	8961
666.744	9274
666.796	9098
666.849	8931
666.902	8538
666.955	7831
667.008	7349
667.060	7692
667.113	6954
667.166	8269
667.219	9055
667.271	7648
667.324	8332
667.377	7882
667.430	8034
667.482	10469
667.535	9758
667.587	9910
667.640	8714
667.693	9580
667.745	13016
667.798	15340
667.850	9294
667.903	9684
667.955	8242
668.008	8056
668.060	10183
668.113	11047
668.165	10069
668.218	10262
668.270	9938
668.322	9502
668.375	9142
668.427	10074
668.479	8682
668.532	8689
668.584	9399
668.636	8695
668.689	9713
668.741	8800
668.793	8982
668.845	8814
668.898	9599
668.950	9146
669.002	9329
669.054	10346
669.106	8989
669.158	9716
669.211	9292
669.263	10585
669.315	11688
669.367	12043
669.419	10416
669.471	10459
669.523	9541
669.575	10772
669.627	9773
669.679	9085
669.731	9370
669.783	9997
669.835	10613
669.886	10023
669.938	9982
669.990	9655
670.042	10228
670.094	10384
670.146	10624
670.197	12115
670.249	13598
670.301	15671
670.353	19129
670.404	23924
670.456	33817
670.508	49771
670.560	77866
670.611	130781
670.663	225343
670.715	503950
670.766	745363
670.818	276150
670.869	59999
670.921	32116
670.972	23615
671.024	19037
671.075	15784
671.127	14802
671.178	11512
671.230	11996
671.281	11930
671.333	10415
671.384	11475
671.436	12981
671.487	11949
671.538	12200
671.590	11483
671.641	12924
671.692	12145
671.744	13684
671.795	13605
671.846	10774
671.897	11409
671.949	10811
672.000	9822
672.051	10801
672.102	11116
672.153	10546
672.204	10171
672.256	10689
672.307	10516
672.358	10946
672.409	10927
672.460	10025
672.511	10106
672.562	9985
672.613	10133
672.664	10381
672.715	9757
672.766	10527
672.817	9410
672.868	8999
672.919	9418
672.970	10073
673.021	9602
673.071	8378
673.122	9523
673.173	9396
673.224	9532
673.275	9380
673.326	8851
673.376	10313
673.427	8973
673.478	9627
673.528	9637
673.579	8819
673.630	8713
673.680	10074
673.731	9199
673.782	8253
673.832	8689
673.883	9596
673.934	9170
673.984	8818
674.035	9394
674.085	9795
674.136	9136
674.186	9778
674.237	10621
674.287	14652
674.338	10795
674.388	8779
674.438	8482
674.489	8305
674.539	9658
674.589	9466
674.640	9885
674.690	9188
674.740	9629
674.791	11373
674.841	9843
674.891	10234
674.942	9940
674.992	9473
675.042	8910
675.092	8571
675.142	8655
675.193	9983
675.243	8655
675.293	9668
675.343	10001
675.393	9200
675.443	9050
675.493	8270
675.543	8275
675.593	10378
675.643	8472
675.693	8846
675.743	8783
675.793	8988
675.843	9156
675.893	9832
675.943	8472
675.993	9433
676.043	9618
676.093	8804
676.142	7269
676.192	9633
676.242	8383
676.292	8633
676.341	9145
676.391	9701
676.441	7545
676.491	8405
676.540	7881
676.590	7959
676.640	8184
676.689	8432
676.739	8083
676.789	7831
676.838	7666
676.888	8600
676.937	8135
676.987	7313
677.037	7641
677.086	7225
677.136	8469
677.185	8004
677.235	6629
677.284	6533
677.333	7586
677.383	7456
677.432	7261
677.482	8230
677.531	7751
677.580	7674
677.630	8035
677.679	7114
677.728	7640
677.778	8253
677.827	7243
677.876	7327
677.925	7249
677.975	7417
678.024	7685
678.073	8195
678.122	8348
678.171	8898
678.220	7745
678.269	9267
678.319	9253
678.368	8132
678.417	8363
678.466	9245
678.515	9257
678.564	9046
678.613	8014
678.662	8719
678.711	8792
678.760	8715
678.809	7897
678.857	8128
678.906	9074
678.955	8723
679.004	9221
679.053	8750
679.102	8271
679.151	9072
679.199	8608
679.248	7961
679.297	8589
679.346	8815
679.394	7872
679.443	8253
679.492	8265
679.540	8156
679.589	8478
679.638	8951
679.686	7304
679.735	7938
679.784	8001
679.832	8225
679.881	7607
679.929	7386
679.978	6936
680.026	7334
680.075	8496
680.123	7182
680.172	7403
680.220	7791
680.268	8313
680.317	7806
680.365	7716
680.414	7061
680.462	6870
680.510	8034
680.559	6187
680.607	6624
680.655	6862
680.703	7838
680.752	7407
680.800	6734
680.848	6981
680.896	7243
680.945	6604
680.993	7299
681.041	6748
681.089	6821
681.137	6177
681.185	5996
681.233	6668
681.258	7285
681.281	7760
681.329	7538
681.377	6449
681.380	6639
681.425	8038
681.473	9455
681.502	8981
681.521	8441
681.569	10131
681.617	9426
681.624	9543
681.665	9452
681.713	10048
681.745	10483
681.761	10529
681.809	9378
681.857	10369
681.867	10546
681.904	10735
681.952	10912
681.989	10557
682.000	10307
682.048	11634
682.096	10648
682.111	10741
682.143	10601
682.191	11516
682.233	12166
682.239	12153
682.286	12336
682.334	12000
682.354	11917
682.382	11602
682.430	12938
682.476	12003
682.477	11882
682.525	12693
682.572	12702
682.598	12516
682.620	12271
682.667	13089
682.715	14176
682.720	14258
682.763	13956
682.810	14444
682.841	14702
682.857	14698
682.905	13879
682.952	14636
682.963	14783
683.000	14863
683.047	15589
683.085	15944
683.095	15951
683.142	14860
683.190	14875
683.206	15233
683.237	15644
683.284	15845
683.328	15947
683.332	15869
683.379	16541
683.426	15819
683.449	15837
683.473	15750
683.521	17432
683.568	17688
683.571	17671
683.615	16320
683.662	17671
683.693	17990
683.709	18058
683.757	18439
683.804	17773
683.814	17973
683.851	18417
683.898	19503
683.936	19291
683.945	19168
683.992	19115
684.039	19950
684.057	20116
684.086	20180
684.133	20698
684.179	20322
684.180	20234
684.227	20912
684.274	20897
684.300	21418
684.321	21777
684.368	20927
684.415	21767
684.422	21801
684.462	21391
684.509	20771
684.543	20832
684.556	20905
684.603	20727
684.649	21671
684.665	21914
684.696	22213
684.743	22922
684.786	22967
684.790	22949
684.837	23767
684.883	24828
684.908	25408
684.930	25712
684.977	26701
685.023	26449
685.029	26459
685.070	25414
685.117	25205
685.150	25192
685.164	25454
685.210	27631
685.257	28171
685.272	28382
685.303	28100
685.350	27449
685.393	27525
685.396	27529
685.443	28378
685.490	30161
685.514	30148
685.536	29770
685.583	29568
685.629	29522
685.636	29489
685.675	28934
685.722	28917
685.757	28531
685.768	28547
685.815	30230
685.861	30848
685.878	30817
685.908	30582
685.954	30458
686.000	31889
686.000	31906
686.047	33886
686.093	36200
686.121	37383
686.139	36790
686.185	34724
686.232	32965
686.242	32724
686.278	32399
686.324	31443
686.363	30403
686.370	30340
686.416	29789
686.463	31540
686.484	31368
686.509	31089
686.555	31387
686.601	31247
686.606	31258
686.647	31112
686.693	31659
686.727	31515
686.739	31528
686.785	31790
686.831	31834
686.848	31973
686.877	31794
686.923	31263
686.969	30401
686.969	30396
687.015	31249
687.061	31649
687.090	32488
687.107	32748
687.153	31762
687.199	31970
687.211	31705
687.245	31527
687.291	33605
687.332	34080
687.336	34103
687.382	35353
687.428	35340
687.453	35189
687.474	34506
687.520	33374
687.565	32799
687.574	32499
687.611	32279
687.657	32763
687.695	33175
687.702	33291
687.748	33956
687.794	34681
687.816	34590
687.839	33995
687.885	33866
687.931	32257
687.937	32218
687.976	33236
688.022	34184
688.058	35341
688.067	35540
688.113	35801
688.158	35388
688.179	35548
688.204	35695
688.249	35949
688.295	36538
688.300	36544
688.340	37336
688.386	38594
688.421	38265
688.431	37944
688.477	37560
688.522	37586
688.542	37453
688.567	37525
688.613	37297
688.658	37367
688.663	37290
688.703	37256
688.749	38128
688.784	37939
688.794	37825
688.839	37533
688.884	37373
688.905	37409
688.930	37577
688.975	37417
689.020	37661
689.026	37632
689.065	38157
689.110	38522
689.146	38886
689.155	38823
689.201	38370
689.246	37781
689.267	37630
689.291	37954
689.336	38187
689.381	38659
689.388	38619
689.426	38650
689.471	39028
689.509	39307
689.516	39319
689.561	39002
689.606	38556
689.630	38429
689.651	38713
689.696	39339
689.741	39806
689.750	39873
689.785	39946
689.830	39967
689.871	39251
689.875	39221
689.920	39157
689.965	39479
689.992	39178
690.010	39353
690.054	40343
690.099	40950
690.112	41151
690.144	41555
690.189	41144
690.233	41388
690.233	41441
690.278	41514
690.323	41457
690.354	41545
690.367	42146
690.412	43396
690.457	45504
690.474	46160
690.501	46649
690.546	46992
690.590	47472
690.595	47522
690.635	49970
690.680	51601
690.716	53354
690.724	54508
690.769	60556
690.813	66316
690.836	68920
690.857	75466
690.902	90497
690.946	105759
690.957	109277
690.991	141550
691.035	185470
691.077	227520
691.080	228377
691.124	230449
691.168	233935
691.198	236699
691.213	223791
691.257	185123
691.301	145835
691.318	130666
691.346	119365
691.390	99808
691.434	80390
691.439	78144
691.478	73066
691.522	67239
691.559	61899
691.567	61648
691.611	59682
691.655	57534
691.680	56303
691.699	55723
691.743	54180
691.787	52651
691.800	51968
691.831	51939
691.875	52534
691.919	52820
691.921	52742
691.964	53284
692.008	53598
692.041	53737
692.052	53626
692.096	52762
692.139	51794
692.162	51329
692.183	51395
692.227	51118
692.271	51259
692.282	51116
692.315	51322
692.359	51364
692.402	51493
692.403	51584
692.447	51104
692.490	51280
692.523	51191
692.534	51503
692.578	52088
692.622	52600
692.643	52870
692.666	52620
692.709	51836
692.753	50773
692.763	50530
692.797	51052
692.840	51365
692.884	51621
692.884	51729
692.928	53062
692.971	54243
693.004	54784
693.015	54949
693.059	55564
693.102	56273
693.124	56348
693.146	57319
693.189	59195
693.233	61120
693.245	61557
693.276	64271
693.320	67578
693.363	71014
693.365	71003
693.407	76869
693.450	83148
693.485	87710
693.493	90331
693.537	103351
693.580	116239
693.605	123651
693.624	138285
693.667	171974
693.710	206508
693.725	218665
693.753	283141
693.797	383358
693.840	484532
693.845	495332
693.883	499860
693.926	503329
693.966	507654
693.970	499711
694.013	406389
694.056	313021
694.086	248253
694.099	236340
694.142	196825
694.185	156855
694.206	137629
694.229	130414
694.272	116178
694.315	101754
694.326	97818
694.358	93238
694.401	86738
694.444	80141
694.446	79662
694.487	77048
694.530	73468
694.566	70589
694.573	70040
694.616	65424
694.659	61084
694.686	57907
694.702	57689
694.745	57000
694.787	56141
694.806	55616
694.830	55603
694.873	55771
694.916	55690
694.926	55485
694.959	54604
695.002	53754
695.044	52537
695.046	52380
695.087	53280
695.130	53864
695.166	54409
695.172	54505
695.215	54199
695.258	53859
695.286	53479
695.301	53496
695.343	53488
695.386	53138
695.406	52841
695.428	52365
695.471	51456
695.514	50281
695.526	49897
695.556	50180
695.599	50414
695.641	50424
695.646	50347
695.684	50614
695.726	50216
695.766	50160
695.769	50289
695.811	50519
695.854	50558
695.886	50390
695.896	50390
695.938	50036
695.981	49535
696.005	49209
696.023	49482
696.065	49836
696.108	50319
696.125	50313
696.150	50824
696.192	51509
696.235	52088
696.245	52163
696.277	52627
696.319	53071
696.361	53586
696.365	53480
696.404	53699
696.446	53970
696.485	54003
696.488	54096
696.530	53738
696.572	53104
696.604	52732
696.614	52732
696.656	51969
696.698	51311
696.724	50681
696.740	50583
696.783	50175
696.825	49838
696.844	49469
696.867	49729
696.909	50111
696.951	50428
696.964	50387
696.992	50228
697.034	49831
697.076	49521
697.083	49344
697.118	49830
697.160	50199
697.202	50588
697.203	50473
697.244	50106
697.286	49572
697.323	48914
697.327	48974
697.369	48406
697.411	47831
697.442	47360
697.453	47785
697.494	48903
697.536	50147
697.562	50745
697.578	50829
697.620	50741
697.661	50625
697.682	50435
697.703	51199
697.744	52489
697.786	53949
697.801	54244
697.828	54333
697.869	54368
697.911	54382
697.921	54253
697.952	53190
697.994	51549
698.035	50012
698.040	49685
698.077	49655
698.118	49527
698.160	49374
698.160	49245
698.201	48940
698.243	48460
698.279	47954
698.284	48168
698.325	48989
698.367	49807
698.399	50291
698.408	50133
698.449	48830
698.491	47549
698.518	46578
698.532	47003
698.573	47881
698.614	48806
698.638	49188
698.656	49356
698.697	49461
698.738	49569
698.757	49494
698.779	49915
698.820	50452
698.862	50996
698.877	51066
698.903	51593
698.944	52219
698.985	52847
698.996	52884
699.026	52805
699.067	52507
699.116	52015
699.235	48939
699.354	47532
699.474	49691
699.593	56816
699.713	53384
699.832	49238
699.951	50602
700.070	47391
700.190	47075
700.309	49398
700.428	52424
700.547	48957
700.667	48469
700.786	53897
700.905	46653
701.024	52119
701.143	49293
701.262	43312
701.381	44341
701.500	47175
701.619	49484
701.738	44947
701.857	43152
701.976	42295
702.095	42389
702.214	46642
702.333	46961
702.452	43888
702.571	41851
702.690	42036
702.809	42188
702.928	40499
703.047	42960
703.165	40513
703.284	40650
703.403	41824
703.522	47079
703.640	46315
703.759	52909
703.878	69972
703.997	45469
704.115	40927
704.234	39759
704.353	39673
704.471	40016
704.590	38356
704.708	38601
704.827	38335
704.946	41269
705.064	44966
705.183	41374
705.301	51796
705.420	73955
705.538	65839
705.656	59013
705.775	67672
705.893	127656
706.012	157345
706.130	62355
706.249	56982
706.367	57586
706.485	60270
706.604	57601
706.722	57725
706.840	64726
706.958	59421
707.077	53730
707.195	53234
707.313	50967
707.431	50706
707.549	50826
707.668	51396
707.786	51208
707.904	49644
708.022	48666
708.140	48994
708.258	47680
708.376	49654
708.494	49586
708.612	55871
708.730	77558
708.848	73251
708.966	65996
709.084	62960
709.202	60448
709.320	63684
709.438	64441
709.556	63437
709.674	61574
709.791	62501
709.909	60875
710.027	61743
710.145	59933
710.263	61512
710.380	61321
710.498	60047
710.616	58525
710.733	59067
710.851	59371
710.969	62021
711.086	59499
711.204	58060
711.322	57425
711.439	57668
711.557	58880
711.674	57231
711.792	57996
711.909	64573
712.027	68646
712.144	55912
712.262	56507
712.379	62575
712.497	87053
712.614	88874
712.732	73467
712.849	68822
712.966	74443
713.084	84493
713.201	75628
713.318	72861
713.436	70861
713.553	71279
713.670	70861
713.787	77760
713.905	76497
714.022	67716
714.139	66779
714.256	67929
714.373	66999
714.490	67270
714.608	67228
714.725	90211
714.842	89595
714.959	63668
715.076	60934
715.193	58702
715.310	58849
715.427	60042
715.544	57992
715.661	58933
715.778	59711
715.895	65691
716.011	64271
716.128	59790
716.245	60223
716.362	64100
716.479	66657
716.596	57644
716.713	57794
716.829	55499
716.946	56714
717.063	52818
717.180	53464
717.296	52857
717.413	53734
717.530	54227
717.646	53348
717.763	53608
717.880	51914
717.996	51761
718.113	53193
718.229	51415
718.346	49580
718.462	51682
718.579	58005
718.695	82240
718.812	72137
718.928	70746
719.045	54894
719.161	47682
719.277	46143
719.394	46545
719.510	51035
719.626	48857
719.743	56062
719.859	49570
719.975	48877
720.092	53718
720.208	59494
720.324	51929
720.440	49698
720.557	56500
720.673	73222
720.789	102854
720.905	207556
721.021	78418
721.137	48681
721.253	49433
721.369	49526
721.486	55454
721.602	73155
721.718	46762
721.834	42278
721.950	46260
722.066	42168
722.181	42703
722.297	43756
722.413	41450
722.529	42095
722.645	40711
722.761	40023
722.877	41959
722.993	39089
723.108	42167
723.224	39230
723.340	41971
723.456	37189
723.571	40781
723.687	37452
723.803	38418
723.918	37855
724.034	40178
724.150	39711
724.265	44947
724.381	84975
724.497	103810
724.612	39277
724.728	36362
724.843	37605
724.959	43553
725.074	80111
725.190	90282
725.305	41572
725.421	39079
725.536	33715
725.651	35103
725.767	34134
725.882	33383
725.997	33011
726.113	33810
726.228	33046
726.343	34010
726.459	30033
726.574	35633
726.689	31414
726.804	32101
726.920	33458
727.035	33926
727.150	33449
727.265	32950
727.380	34074
727.495	32027
727.610	31028
727.725	35248
727.841	41526
727.956	79235
728.071	63462
728.186	33164
728.301	28498
728.416	31225
728.531	29953
728.645	28801
728.760	30164
728.875	30600
728.990	28424
729.105	29620
729.220	29899
729.335	30313
729.449	27492
729.564	26571
729.679	26947
729.794	26987
729.908	31075
730.023	29913
730.138	24963
730.253	26177
730.367	25858
730.482	26160
730.596	26385
730.711	28589
730.826	24858
730.940	25088
731.055	27236
731.169	25974
731.284	24682
731.398	25864
731.513	29034
731.627	28301
731.742	31044
731.856	33246
731.970	24415
732.085	25077
732.199	25019
732.313	24198
732.428	24557
732.542	29605
732.656	25923
732.771	23441
732.885	22728
732.999	24798
733.113	26633
733.227	25430
733.342	22859
733.456	23588
733.570	21778
733.684	23543
733.798	23481
733.912	22413
734.026	21165
734.140	22572
734.254	25725
734.368	44891
734.482	55555
734.596	23088
734.710	22762
734.824	22084
734.938	21147
735.052	23489
735.166	26370
735.280	23519
735.393	22856
735.507	23224
735.621	30927
735.735	57375
735.849	26940
735.962	22224
736.076	23639
736.190	23925
736.303	32536
736.417	43284
736.531	22459
736.644	23664
736.758	19267
736.872	20143
736.985	19540
737.099	20782
737.212	20284
737.326	20170
737.439	19644
737.553	20616
737.666	19235
737.780	19919
737.893	18870
738.007	19463
738.120	18005
738.233	20404
738.347	18325
738.460	19086
738.573	20501
738.687	20622
738.800	20059
738.913	25162
739.026	20935
739.140	23941
739.253	22102
739.366	19093
739.479	18185
739.592	18400
739.705	17904
739.818	19847
739.932	18259
740.045	19399
740.158	18644
740.271	19190
740.384	18069
740.497	18479
740.610	19253
740.723	19715
740.836	20177
740.949	20728
741.062	24928
741.174	22738
741.287	18748
741.400	18608
741.513	18336
741.626	20117
741.739	19085
741.851	18853
741.964	18821
742.077	17957
742.189	19322
742.302	19165
742.415	17290
742.527	17240
742.640	18182
742.753	17556
742.865	17067
742.978	17094
743.090	18696
743.203	18601
743.316	17707
743.428	16746
743.541	17980
743.653	16728
743.766	17053
743.878	18587
743.990	24421
744.103	23458
744.215	17618
744.327	19072
744.440	19709
744.552	30165
744.664	18696
744.777	18185
744.889	16524
745.001	17065
745.113	16794
745.226	16643
745.338	16886
745.450	17845
745.562	17629
745.674	17235
745.786	17278
745.898	17521
746.010	17486
746.122	17862
746.234	16718
746.347	16602
746.459	17256
746.570	16104
746.682	16574
746.794	16622
746.906	16602
747.018	16684
747.130	16773
747.242	17627
747.354	17066
747.466	17974
747.577	16596
747.689	17710
747.801	15700
747.913	15982
748.024	15551
748.136	16860
748.248	16282
748.359	16849
748.471	16598
748.583	17323
748.694	20434
748.806	25397
748.918	23375
749.029	20011
749.141	19029
749.252	19175
749.364	20943
749.475	34373
749.587	25112
749.698	18302
749.809	16081
749.921	16676
750.032	16404
750.144	16299
750.255	15681
750.366	17399
750.478	15858
750.589	17325
750.700	17525
750.811	18013
750.923	21031
751.034	36322
751.145	35008
751.256	18518
751.367	16751
751.479	17316
751.590	16095
751.701	17207
751.812	16563
751.923	17071
752.034	16570
752.145	16248
752.256	17169
752.367	16321
752.478	16309
752.589	17907
752.700	16440
752.811	16890
752.922	17360
753.032	18147
753.143	20115
753.254	17256
753.365	17341
753.476	17084
753.586	16962
753.697	17370
753.808	16720
753.919	17505
754.029	17142
754.140	17217
754.251	18192
754.361	18263
754.472	17956
754.582	18970
754.693	18343
754.804	17586
754.914	17090
755.025	17495
755.135	17846
755.246	18636
755.356	17918
755.466	19384
755.577	18598
755.687	18245
755.798	18319
755.908	18556
756.018	18953
756.129	19590
756.239	18943
756.349	19368
756.460	19013
756.570	20210
756.680	20276
756.790	21008
756.900	21380
757.011	20459
757.121	20617
757.231	20913
757.341	21211
757.451	22143
757.561	21087
757.671	20443
757.781	20486
757.891	22555
758.001	22765
758.111	22638
758.221	23186
758.331	25107
758.441	24321
758.551	29296
758.661	28128
758.771	24316
758.880	26128
758.990	25426
759.100	25963
759.210	26072
759.320	26283
759.429	27188
759.539	27482
759.649	26934
759.758	27609
759.868	29455
759.978	27931
760.087	29867
760.197	28816
760.307	30175
760.416	29697
760.526	30413
760.635	32112
760.745	32895
760.854	32974
760.964	34433
761.073	34674
761.182	34150
761.292	35441
761.401	39241
761.511	38076
761.620	39479
761.729	40036
761.839	42990
761.948	43049
762.057	44668
762.166	43618
762.276	44790
762.385	46040
762.494	47565
762.603	49698
762.712	53181
762.822	54961
762.931	58590
763.040	57700
763.149	62471
763.258	63888
763.367	67038
763.476	70942
763.585	74053
763.694	77745
763.803	82436
763.912	86917
764.021	92581
764.130	97262
764.238	106133
764.347	110851
764.456	120697
764.565	131893
764.674	141184
764.783	154387
764.891	169656
765.000	188161
765.109	211368
765.217	237361
765.326	275125
765.435	320172
765.543	376513
765.652	453089
765.761	556551
765.869	699204
765.978	915474
766.086	1212738
766.195	1626677
766.303	1945031
766.412	1367383
766.520	1357671
766.629	1785729
766.737	1510225
766.846	1142564
766.954	863575
767.062	667164
767.171	536075
767.279	422762
767.387	343134
767.496	290308
767.604	250482
767.712	220167
767.820	198381
767.928	180533
768.037	167691
768.145	159656
768.253	152418
768.361	148580
768.469	151152
768.577	152136
768.685	161444
768.793	172568
768.901	186897
769.009	217591
769.117	257973
769.225	319154
769.333	415483
769.441	578934
769.549	855046
769.657	1323840
769.765	1719521
769.873	1260690
769.981	1520367
770.088	1248044
770.196	847966
770.304	601086
770.412	453071
770.519	357196
770.627	288998
770.735	242232
770.842	206229
770.950	180991
771.058	158059
771.165	142351
771.273	127806
771.380	116488
771.488	106620
771.595	98258
771.703	90769
771.810	85662
771.918	79569
772.025	76096
772.133	69688
772.240	67297
772.348	62980
772.455	62402
772.562	57173
772.670	55030
772.777	53022
772.884	50173
772.991	49979
773.099	48566
773.206	45678
773.313	45202
773.420	42462
773.528	39775
773.635	40326
773.742	39302
773.849	37700
773.956	36499
774.063	35932
774.170	35027
774.277	34724
774.384	33982
774.491	33503
774.598	33751
774.705	32617
774.812	36485
774.919	31639
775.026	32605
775.133	30487
775.239	29699
775.346	29068
775.453	27925
775.560	28248
775.667	28720
775.773	28121
775.880	29162
775.987	26441
776.093	26141
776.200	25136
776.307	24574
776.413	24471
776.520	24176
776.627	24070
776.733	24049
776.840	22225
776.946	23182
777.053	23186
777.159	23809
777.266	20973
777.372	23591
777.478	20733
777.585	21957
777.691	20758
777.798	21345
777.904	23970
778.010	31471
778.117	25703
778.223	21691
778.329	20468
778.435	20885
778.542	20169
778.648	19618
778.754	19695
778.860	19833
778.966	20703
779.072	21421
779.178	20752
779.284	20589
779.391	22144
779.497	26355
779.603	37576
779.708	56948
779.815	119655
779.920	382995
780.026	623632
780.132	173581
780.238	52722
780.344	32934
780.450	27345
780.556	24006
780.661	21480
780.767	20185
780.873	17759
780.979	18739
781.085	17347
781.190	17063
781.296	16152
781.402	16291
781.507	14414
781.613	14843
781.719	14662
781.824	15970
781.930	15370
782.035	15589
782.141	14283
782.246	14298
782.352	14725
782.457	14581
782.563	14698
782.668	14145
782.773	14503
782.879	15149
782.984	14991
783.090	16753
783.195	19514
783.300	16900
783.405	14675
783.511	13869
783.616	13860
783.721	15037
783.826	12426
783.932	14336
784.037	13250
784.142	13367
784.247	12708
784.352	13684
784.457	12600
784.562	13211
784.667	13157
784.772	12489
784.877	12737
784.982	12293
785.087	12471
785.192	12982
785.297	12461
785.402	12117
785.507	12030
785.611	12454
785.716	12327
785.821	12050
785.926	11469
786.031	12201
786.135	11728
786.240	11831
786.345	10704
786.450	12252
786.554	10949
786.659	11429
786.763	10620
786.868	11450
786.973	12084
787.077	11672
787.182	10337
787.286	11339
787.391	10349
787.495	11054
787.600	10785
787.704	10751
787.809	10427
787.913	10696
788.017	10617
788.122	11069
788.226	10170
788.330	9673
788.435	10161
788.539	10201
788.643	8674
788.747	10563
788.852	9515
788.956	9634
789.060	10065
789.164	10184
789.268	9576
789.372	9665
789.476	10004
789.580	9634
789.684	8354
789.788	10512
789.892	9159
789.996	11109
790.100	9220
790.204	10236
790.308	10015
790.412	11661
790.516	12643
790.620	12751
790.724	10287
790.828	10222
790.931	9192
791.035	11365
791.139	11509
791.242	8993
791.346	10665
791.450	9090
791.554	9531
791.657	8991
791.761	9633
791.864	9797
791.968	8970
792.072	10143
792.175	9948
792.279	9802
792.382	9257
792.486	10084
792.589	10575
792.693	10478
792.796	8284
792.899	9521
793.003	9753
793.106	8702
793.209	8716
793.313	10813
793.416	7656
793.519	11040
793.623	13711
793.726	17860
793.829	10741
793.932	11265
794.035	10334
794.138	12829
794.242	13902
794.345	20763
794.448	32084
794.551	69699
794.654	216119
794.757	399827
794.860	105172
794.963	27470
795.066	15789
795.169	14111
795.272	10808
795.375	10171
795.477	9074
795.580	9611
795.683	7725
795.786	9291
795.889	7959
795.991	9725
796.094	10808
796.197	9555
796.300	9541
796.402	7817
796.505	7254
796.608	8322
796.710	8064
796.813	7366
796.915	7729
797.018	7914
797.120	6882
797.223	6356
797.326	8561
797.428	6850
797.530	8155
797.633	8285
797.735	9608
797.838	16080
797.940	14347
798.042	6946
798.145	7001
798.247	8207
798.349	6302
798.452	7295
798.554	6323
798.656	5214
798.758	6994
798.860	7084
798.962	6128
799.065	6883
799.167	6026
799.269	8549
799.371	8269
799.473	8570
799.575	9370
799.677	11413
799.779	10416
799.881	12935
799.983	9443
800.085	6600
800.187	6531
800.289	6221
800.390	6926
800.492	7173
800.594	7225
800.696	7497
800.798	6557
800.899	5927
801.001	6014
801.103	6052
801.205	6003
801.306	7000
801.408	5745
801.509	5412
801.611	6357
801.713	6623
801.814	4926
801.916	6323
802.017	6347
802.119	6346
802.220	6263
802.322	5581
802.423	11943
802.525	8951
802.626	6563
802.727	6397
802.829	6203
802.930	4688
803.031	7835
803.133	6231
803.234	5040
803.335	6024
803.436	5247
803.538	5963
803.639	4284
803.740	6044
803.841	5160
803.942	6241
804.043	5695
804.144	5285
804.245	5445
804.346	6055
804.447	6005
804.548	9461
804.649	10334
804.750	6213
804.851	4755
804.952	4883
805.053	5515
805.154	4590
805.255	5223
805.355	5603
805.456	5259
805.557	4958
805.658	4529
805.758	6166
805.859	5563
805.960	4966
806.061	4288
806.161	5206
806.262	5356
806.362	5540
806.463	4981
806.564	6247
806.664	5273
806.765	9251
806.865	7386
806.966	6145
807.066	5199
807.166	6414
807.267	6079
807.367	4964
807.468	5397
807.568	3995
807.668	6018
807.769	5642
807.869	4719
807.969	5194
808.069	5230
808.170	4878
808.270	4167
808.370	7190
808.470	7689
808.570	6253
808.670	4796
808.770	4806
808.870	3416
808.970	5919
809.070	4156
809.170	4873
809.271	4441
809.370	4845
809.470	4391
809.570	4496
809.670	3218
809.770	4813
809.870	4879
809.970	4208
810.070	4693
810.169	5835
810.269	2371
810.369	5084
810.469	3954
810.568	4599
810.668	4480
810.768	4439
810.867	4755
810.967	4098
811.066	4296
811.166	3838
811.265	4901
811.365	4486
811.464	4239
811.564	4268
811.663	5279
811.763	3202
811.862	4326
811.962	5077
812.061	4026
812.160	4727
812.260	4557
812.359	6197
812.458	7100
812.557	16098
812.657	23262
812.756	10961
812.855	5969
812.954	5622
813.053	4939
813.153	5055
813.252	3770
813.351	4868
813.450	3648
813.549	3837
813.648	4274
813.747	4098
813.846	4364
813.945	4042
814.044	4115
814.143	4311
814.242	4151
814.341	3568
814.439	4793
814.538	4432
814.637	3816
814.736	4050
814.835	4740
814.933	4562
815.032	4160
815.131	4363
815.229	3811
815.328	4273
815.427	3407
815.525	4406
815.624	3522
815.722	4306
815.821	3599
815.919	3801
816.018	3408
816.116	5079
816.215	4002
816.313	4202
816.412	3626
816.510	4284
816.609	4759
816.707	3540
816.805	3577
816.904	3600
817.002	4035
817.100	5163
817.198	4597
817.296	3724
817.395	3840
817.493	4876
817.591	3629
817.689	5344
817.787	4160
817.885	5806
817.983	7068
818.081	12052
818.179	23347
818.277	56309
818.375	54416
818.473	17873
818.571	8602
818.669	7577
818.767	6370
818.865	6691
818.963	6756
819.061	8778
819.158	11498
819.256	22495
819.354	48898
819.452	114524
819.549	80994
819.647	23812
819.745	10570
819.842	8639
819.940	6911
820.038	5976
820.135	4727
820.233	5667
820.330	5202
820.428	3704
820.525	5069
820.623	3799
820.720	4338
820.818	4908
820.915	4248
821.012	5800
821.110	3856
821.207	4657
821.304	3068
821.402	4420
821.499	3897
821.596	5019
821.693	4062
821.791	6283
821.888	6639
821.985	15432
822.082	11696
822.179	5567
822.276	3693
822.373	3677
822.470	3125
822.567	3568
822.664	2169
822.761	4336
822.858	2537
822.955	3176
823.052	3738
823.149	3837
823.246	3195
823.343	3686
823.440	4551
823.536	3479
823.633	3413
823.730	3418
823.827	3747
823.923	3023
824.020	3985
824.117	4191
824.213	2746
824.310	3597
824.407	3794
824.503	4066
824.600	3685
824.696	3950
824.793	3591
824.889	3584
824.986	3560
825.082	3076
825.179	3777
825.275	3541
825.371	2900
825.468	4315
825.564	2801
825.660	3621
825.757	2938
825.853	4460
825.949	2867
826.045	3023
826.142	2382
826.238	3655
826.334	3706
826.430	3287
826.526	3336
826.622	3101
826.718	3241
826.814	3245
826.910	3446
827.006	3560
827.102	2819
827.198	4050
827.294	1996
827.390	3204
827.486	4107
827.582	2611
827.678	2201
827.774	3878
827.869	2546
827.965	4872
828.061	3005
828.157	3784
828.252	2783
828.348	2347
828.444	3194
828.539	2076
828.635	2878
828.731	4286
828.826	2235
828.922	3494
829.017	3136
829.113	3872
829.208	2829
829.304	3645
829.399	4307
829.495	2322
829.590	4062
829.685	2012
829.781	3458
829.876	3200
829.971	3022
830.066	3296
830.162	2302
830.257	3049
830.352	2086
830.447	4783
830.543	4355
830.638	2974
830.733	3924
830.828	3907
830.923	3612
831.018	3707
831.113	3577
831.208	3706
831.303	3454
831.398	3238
831.493	2618
831.588	3138
831.683	2036
831.778	3638
831.873	2345
831.967	4353
832.062	1831
832.157	2067
832.252	3637
832.346	4040
832.441	5589
832.536	7942
832.631	16201
832.725	13551
832.820	3180
832.914	3375
833.009	3773
833.104	5000
833.198	5269
833.293	3429
833.387	4228
833.482	3472
833.576	2307
833.670	3023
833.765	2987
833.859	2599
833.954	3954
834.048	3578
834.142	3042
834.237	2525
834.331	2133
834.425	3338
834.519	1939
834.613	4480
834.708	3104
834.802	3729
834.896	2137
834.990	3433
835.084	2599
835.178	3769
835.272	3485
835.366	2593
835.460	3383
835.554	3066
835.648	3519
835.742	2962
835.836	3008
835.930	2285
836.024	3948
836.117	4794
836.211	4312
836.305	7586
836.399	9890
836.493	3853
836.586	3517
836.680	2554
836.774	2729
836.867	4093
836.961	3030
837.055	2930
837.148	1969
837.242	3787
837.335	2557
837.429	3181
837.522	3061
837.616	5662
837.709	10557
837.803	9718
837.896	5053
837.989	4863
838.083	7687
838.176	15317
838.269	14614
838.363	5501
838.456	4295
838.549	7514
838.642	10234
838.735	19671
838.829	8667
838.922	3557
839.015	2621
839.108	2644
839.201	3183
839.294	3622
839.387	3648
839.480	5087
839.573	6071
839.666	9810
839.759	3239
839.852	2318
839.945	2728
840.038	3877
840.131	2894
840.223	3191
840.316	3420
840.409	3161
840.502	1857
840.594	4005
840.687	2144
840.780	3665
840.873	2728
840.965	4450
841.058	8007
841.150	13840
841.243	10279
841.336	4180
841.428	3503
841.521	2659
841.613	3356
841.706	5077
841.798	2847
841.890	2662
841.983	2553
842.075	4017
842.167	3467
842.260	3964
842.352	5946
842.444	8408
842.537	16495
842.629	23616
842.721	6380
842.813	4051
842.905	2594
842.997	4079
843.090	4363
843.182	9175
843.274	16442
843.366	35016
843.458	66944
843.550	42869
843.642	7873
843.734	5357
843.826	7125
843.918	5955
844.009	3145
844.101	3259
844.193	3436
844.285	3456
844.377	3738
844.469	3714
844.560	2688
844.652	2865
844.744	3017
844.835	4107
844.927	2951
845.019	5356
845.110	4645
845.202	3332
845.293	3284
845.385	3176
845.476	3594
845.568	3958
845.659	2680
845.751	3304
845.842	1959
845.934	2447
846.025	2297
846.116	4085
846.208	2648
846.299	3338
846.390	3868
846.482	4441
846.573	5435
846.664	6710
846.755	10104
846.846	9040
846.937	2343
847.029	2836
847.120	3293
847.211	2910
847.302	3455
847.393	2520
847.484	3243
847.575	3179
847.666	2983
847.757	2443
847.847	2634
847.938	3114
848.029	1748
848.120	2885
848.211	2798
848.302	2102
848.392	2268
848.483	3718
848.574	2760
848.664	2965
848.755	2744
848.846	2670
848.936	2574
849.027	3251
849.118	2218
849.208	2670
849.299	3328
849.389	3302
849.480	3014
849.570	3311
849.661	4244
849.751	5029
849.841	2818
849.932	3122
850.022	2624
850.112	3598
850.203	3269
850.293	2937
850.383	2378
850.474	2245
850.564	1935
850.654	3788
850.744	2615
850.834	3237
850.924	3488
851.014	4036
851.104	3061
851.194	3993
851.284	5060
851.374	6995
851.464	3901
851.554	4134
851.644	4993
851.734	8446
851.824	7798
851.914	6715
852.004	11718
852.094	12687
852.183	4630
852.273	3618
852.363	2959
852.452	3431
852.542	2789
852.632	3043
852.721	2693
852.811	2635
852.901	3023
852.990	3364
853.080	2563
853.169	2434
853.259	2637
853.348	2117
853.438	2211
853.527	3497
853.617	2285
853.706	3446
853.795	3733
853.885	6007
853.974	5671
854.063	9346
854.152	10898
854.242	5119
854.331	2531
854.420	3344
854.509	2882
854.598	3739
854.687	4407
854.777	4251
854.866	3725
854.955	2442
855.044	2403
855.133	2234
855.222	2082
855.311	1993
855.400	2700
855.488	3329
855.577	1809
855.666	3490
855.755	4939
855.844	6799
855.933	7334
856.021	4072
856.110	2388
856.199	2789
856.288	1762
856.376	2967
856.465	1946
856.554	2693
856.642	1180
856.731	3186
856.819	3029
856.908	3322
856.996	2963
857.085	2702
857.173	2349
857.262	2161
857.350	2195
857.438	2922
857.527	2007
857.615	3107
857.703	3075
857.792	2319
857.880	1505
857.968	2334
858.056	3204
858.145	3588
858.233	2179
858.321	3142
858.409	3036
858.497	2528
858.585	1344
858.673	3083
858.761	2133
858.849	2289
858.937	1824
859.025	3142
859.113	2232
859.201	1787
859.289	2798
859.377	2596
859.465	2471
859.552	1803
859.640	1696
859.728	3183
859.816	2925
859.903	2578
859.991	1396
860.079	2470
860.166	2010
860.254	2317
860.342	2517
860.429	2266
860.517	2013
860.604	2238
860.692	2418
860.779	2556
860.867	2216
860.954	2662
861.042	2696
861.129	4034
861.216	2529
861.304	1715
861.391	2773
861.478	2828
861.565	2799
861.653	3277
861.740	1733
861.827	3121
861.914	2384
862.001	2098
862.089	2439
862.176	2422
862.263	1692
862.350	1805
862.437	1887
862.524	2130
862.611	1681
862.698	2686
862.785	2311
862.871	2291
862.958	2039
863.045	1075
863.132	1844
863.219	2658
863.306	706
863.392	2118
863.479	1473
863.566	1937
863.652	1894
863.739	2647
863.826	1566
863.912	1698
863.999	1483
864.086	2645
864.172	1087
864.259	2349
864.345	1788
864.432	2373
864.518	2081
864.604	2140
864.691	1408
864.777	1729
864.863	1442
864.950	1695
865.036	1530
865.122	2868
865.209	2352
865.295	2763
865.381	1736
865.467	2020
865.553	1801
865.639	2317
865.726	2040
865.812	4739
865.898	5815
865.984	9032
866.070	15684
866.156	13179
866.242	2952
866.328	2671
866.414	1501
866.499	2669
866.585	1738
866.671	2265
866.757	2373
866.843	2890
866.928	668
867.014	1467
867.100	2394
867.186	2948
867.271	3485
867.357	6705
867.442	7029
867.528	4020
867.614	1597
867.699	2477
867.785	2395
867.870	2775
867.956	2918
868.041	2923
868.127	3573
868.212	4832
868.297	3249
868.383	2914
868.468	5556
868.553	8889
868.639	10679
868.724	22307
868.809	20164
868.894	4641
868.979	2301
869.065	3163
869.150	2369
869.235	2002
869.320	554
869.405	2080
869.490	1139
869.575	2181
869.660	1592
869.745	2091
869.830	662
869.915	1165
870.000	1339
870.085	1847
870.169	825
870.254	2046
870.339	787
870.424	1083
870.509	1264
870.593	1380
870.678	1214
870.763	2243
870.847	1983
870.932	1760
871.016	1755
871.101	2130
871.186	1646
871.270	1616
871.355	552
871.439	1654
871.523	569
871.608	1809
871.692	1214
871.777	2032
871.861	1717
871.945	1474
872.030	1363
872.114	1376
872.198	379
872.282	771
872.367	1639
872.451	1064
872.535	1320
872.619	1500
872.703	1118
872.787	1517
872.871	1113
872.955	1494
873.039	1239
873.123	624
873.207	1729
873.291	1787
873.375	2000
873.459	1768
873.543	1215
873.627	1474
873.711	1245
873.794	1711
873.878	174
873.962	584
874.045	1250
874.129	701
874.137	688
874.213	554
874.245	846
874.296	1324
874.352	1035
874.380	890
874.460	1178
874.464	1191
874.547	557
874.568	711
874.631	1155
874.676	1447
874.714	1705
874.784	1816
874.798	1829
874.881	2132
874.892	2018
874.965	1286
874.999	1303
875.048	1301
875.107	1098
875.131	1015
875.215	1823
875.215	1822
875.298	1702
875.323	1486
875.381	975
875.430	1284
875.465	1538
875.538	1723
875.548	1729
875.631	2215
875.646	1936
875.714	681
875.753	1215
875.798	1782
875.861	1020
875.881	805
875.964	2057
875.968	2046
876.047	1779
876.076	1894
876.130	2140
876.183	1562
876.213	1226
876.291	2530
876.296	2626
876.379	568
876.398	1086
876.462	2698
876.506	2146
876.545	1666
876.613	1849
876.628	1885
876.711	951
876.721	999
876.794	1400
876.828	1349
876.877	1246
876.935	1365
876.960	1459
877.043	1457
877.043	1458
877.125	1618
877.150	1610
877.208	1661
877.258	2196
877.291	2578
877.365	2011
877.374	1924
877.456	1889
877.472	1798
877.539	1576
877.579	1732
877.622	1785
877.687	2104
877.704	2220
877.787	1423
877.794	1448
877.869	1738
877.901	2015
877.952	2385
878.008	1896
878.034	1704
878.115	1469
878.117	1465
878.199	563
878.222	1038
878.282	2204
878.329	1898
878.364	1622
878.437	1937
878.447	2004
878.529	1390
878.544	1498
878.611	1803
878.651	1365
878.694	1065
878.758	1273
878.776	1237
878.858	1574
878.865	1568
878.941	1880
878.972	1752
879.023	1441
879.078	1076
879.105	1041
879.185	2545
879.187	2559
879.269	2287
879.292	2009
879.351	1698
879.399	1371
879.433	1056
879.506	1392
879.516	1469
879.598	1842
879.613	1781
879.680	1266
879.720	1351
879.762	1471
879.827	1339
879.844	1304
879.926	1465
879.933	1474
880.007	1784
880.040	2102
880.089	2352
880.147	3035
880.171	3575
880.253	6764
880.254	6788
880.335	9588
880.360	10100
880.417	12249
880.467	18041
880.499	22202
880.574	26773
880.580	26557
880.662	10533
880.680	8486
880.744	3622
880.787	2399
880.825	1820
880.893	1314
880.907	1247
880.989	1501
881.000	1467
881.070	1260
881.106	1137
881.152	1088
881.213	1420
881.233	1463
881.315	899
881.319	921
881.396	1842
881.426	1857
881.478	1402
881.532	1353
881.559	1447
881.639	910
881.641	896
881.722	1591
881.745	1414
881.803	1094
881.852	1266
881.885	1218
881.958	1143
881.966	1188
882.047	2530
882.064	2594
882.129	3370
882.171	4278
882.210	5584
882.277	8566
882.291	8664
882.372	4904
882.383	4589
882.454	2174
882.489	1519
882.535	1576
882.596	1299
882.616	1168
882.697	608
882.702	600
882.778	1218
882.808	1549
882.859	1568
882.914	1254
882.940	1327
883.020	1831
883.021	1830
883.102	1324
883.127	1192
883.183	1367
883.233	1278
883.264	1043
883.339	1252
883.345	1284
883.426	948
883.445	1024
883.507	1081
883.551	973
883.587	1318
883.657	2119
883.668	2178
883.749	2022
883.763	2081
883.830	1564
883.869	1094
883.910	860
883.975	657
883.991	727
884.072	849
884.081	903
884.152	880
884.187	821
884.233	1040
884.292	1278
884.314	1332
884.394	1145
884.398	1168
884.475	1215
884.504	1009
884.555	780
884.610	762
884.636	842
884.716	1043
884.716	1046
884.797	1069
884.821	1052
884.877	885
884.927	762
884.958	943
885.033	1404
885.038	1390
885.118	1001
885.139	905
885.199	839
885.244	934
885.279	1164
885.350	1321
885.359	1298
885.439	1265
885.456	1198
885.520	636
885.561	583
885.600	902
885.667	1163
885.680	1210
885.760	1560
885.773	1583
885.840	1033
885.878	919
885.920	1116
885.984	1013
886.000	990
886.080	1207
886.089	1198
886.160	1117
886.195	1312
886.240	1528
886.300	1483
886.320	1568
886.400	2163
886.406	2192
886.480	2207
886.511	2348
886.560	3228
886.616	3784
886.640	3401
886.720	2211
886.722	2175
886.800	1652
886.827	1689
886.879	1557
886.932	1132
886.959	1429
887.038	2418
887.039	2412
887.119	1458
887.143	1249
887.198	1519
887.248	1670
887.278	1454
887.354	794
887.358	821
887.437	1468
887.459	1655
887.517	1272
887.564	969
887.596	1100
887.669	1319
887.676	1310
887.755	1238
887.774	1200
887.835	1556
887.880	1955
887.914	1857
887.985	1499
887.994	1464
888.073	1118
888.090	1055
888.153	942
888.195	922
888.232	996
888.300	1081
888.311	1101
888.391	1165
888.405	1200
888.470	1134
888.510	1039
888.549	893
888.615	775
888.628	879
888.708	1378
888.720	1469
888.787	1164
888.825	939
888.866	1124
888.930	1508
888.945	1467
889.024	1223
889.035	1195
889.103	1417
889.140	1499
889.182	1459
889.245	1469
889.261	1390
889.340	1003
889.349	962
889.419	1152
889.454	1259
889.498	1097
889.559	888
889.577	951
889.656	1253
889.664	1288
889.735	1435
889.768	1507
889.814	1479
889.873	1440
889.978	1533
890.083	1514
890.187	1975
890.292	1053
890.397	1949
890.501	942
890.606	2093
890.710	1265
890.815	1571
890.919	921
891.024	1620
891.128	1488
891.233	2545
891.337	500
891.442	954
891.546	1340
891.650	1344
891.755	90
891.859	2566
891.963	2106
892.068	2103
892.172	1078
892.276	1513
892.380	1607
892.484	1867
892.589	1245
892.693	1417
892.797	2316
892.901	1702
893.005	1507
893.109	1291
893.213	1353
893.317	1421
893.421	2202
893.525	1726
893.629	749
893.733	852
893.837	1226
893.941	1780
894.045	1417
894.148	1978
894.252	2697
894.356	2369
894.460	1655
894.564	2513
894.667	1313
894.771	1663
894.875	911
894.978	1172
895.082	878
895.186	1065
895.289	1377
895.393	2267
895.496	806
895.600	558
895.703	506
895.807	1367
895.910	1319
896.014	1640
896.117	851
896.221	1505
896.324	36
896.427	1264
896.531	1320
896.634	1512
896.737	1786
896.840	1526
896.944	1699
897.047	1140
897.150	1059
897.253	841
897.356	1944
897.460	1554
897.563	1110
897.666	1389
897.769	1332
897.872	1623
897.975	2446
898.078	1243
898.181	1342
898.284	1406
898.387	1943
898.490	2388
898.593	1619
898.695	1391
898.798	668
898.901	1618
899.004	1793
899.107	1306
899.209	584
899.312	1354
899.415	1028
899.518	2006
899.620	895
899.723	2105
899.826	3522
899.928	7861
900.031	2133
900.133	1373
900.236	1072
900.338	1015
900.441	1520
900.543	2630
900.646	487
900.748	1352
900.851	894
900.953	1290
901.055	2235
901.158	2397
901.260	1717
901.362	1254
901.465	1379
901.567	1619
901.669	1583
901.771	660
901.873	1616
901.976	1157
902.078	1377
902.180	1474
902.282	947
902.384	1781
902.486	904
902.588	1584
902.690	1830
902.792	1494
902.894	1129
902.996	1220
903.098	973
903.200	835
903.302	1824
903.404	1217
903.505	978
903.607	1309
903.709	1099
903.811	1914
903.913	816
904.014	1441
904.116	1270
904.218	2518
904.319	1458
904.421	1276
904.523	1277
904.624	1842
904.726	2327
904.827	689
904.929	1158
905.030	1648
905.132	1390
905.233	1248
905.335	838
905.436	1432
905.537	925
905.639	876
905.740	1326
905.841	1677
905.943	981
906.044	2178
906.145	1260
906.247	1434
906.348	1655
906.449	1230
906.550	518
906.651	1866
906.752	1260
906.854	954
906.955	1090
907.056	2114
907.157	1227
907.258	1869
907.359	1380
907.460	910
907.561	1349
907.662	1662
907.762	1294
907.863	1830
907.964	2211
908.065	1948
908.166	1360
908.267	1064
908.367	1230
908.468	1173
908.569	1010
908.670	2480
908.770	4159
908.871	3851
908.971	2139
909.072	2784
909.173	1347
909.273	996
909.374	1098
909.474	1853
909.575	1593
909.675	1439
909.776	1125
909.876	1854
909.977	1947
910.077	2249
910.177	1044
910.278	2626
910.378	903
910.478	1651
910.579	1075
910.679	1215
910.779	1157
910.879	1106
910.980	331
911.080	951
911.180	890
911.280	1753
911.380	1253
911.480	1339
911.580	1823
911.680	1638
911.780	2046
911.880	2421
911.980	1311
912.080	1615
912.180	1371
912.280	1192
912.380	1293
912.480	1191
912.580	1097
912.679	1549
912.779	916
912.879	900
912.979	1311
913.078	991
913.178	731
913.278	1414
913.377	1407
913.477	1428
913.577	1479
913.676	2135
913.776	1469
913.875	1463
913.975	2116
914.074	1146
914.174	1392
914.273	1471
914.373	1093
914.472	1609
914.572	1021
914.671	2046
914.770	788
914.870	1588
914.969	620
915.068	1323
915.167	1409
915.267	1543
915.366	1170
915.465	729
915.564	1211
915.663	1265
915.763	1006
915.862	1644
915.961	1324
916.060	1632
916.159	2036
916.258	905
916.357	1050
916.456	1743
916.555	1226
916.654	2411
916.752	1533
916.851	1347
916.950	1546
917.049	1229
917.148	865
917.247	1837
917.345	1094
917.444	843
917.543	1398
917.642	1366
917.740	971
917.839	1595
917.937	1548
918.036	1181
918.135	1400
918.233	1020
918.332	1167
918.430	919
918.529	1559
918.627	791
918.726	1660
918.824	1871
918.923	1269
919.021	1685
919.119	268
919.218	1528
919.316	1041
919.414	1753
919.512	1208
919.611	1054
919.709	1260
919.807	1478
919.905	1951
920.003	1655
920.102	1771
920.200	1214
920.298	590
920.396	1326
920.494	1953
920.592	1341
920.690	362
920.788	1950
920.886	1504
920.984	1804
921.082	997
921.180	2683
921.277	1342
921.375	1667
921.473	1597
921.571	2085
921.669	945
921.766	1197
921.864	1360
921.962	1256
922.060	1250
922.157	1055
922.255	1538
922.352	1947
922.450	1286
922.548	1705
922.645	1006
922.743	1039
922.840	1119
922.938	2075
923.035	1316
923.133	1646
923.230	1554
923.327	1611
923.425	863
923.522	1738
923.619	1793
923.717	727
923.814	1651
923.911	2016
924.008	1208
924.106	1477
924.203	1804
924.300	1417
924.397	857
924.494	1711
924.591	1624
924.688	1653
924.786	1002
924.883	1905
924.979	1551
925.077	1275
925.173	886
925.270	1725
925.367	828
925.464	2531
925.561	1542
925.658	2780
925.755	2383
925.852	2512
925.948	1986
926.045	1847
926.142	1132
926.239	1618
926.335	2157
926.432	2401
926.529	1311
926.625	1949
926.722	868
926.818	1476
926.915	1544
927.011	997
927.108	1211
927.204	2143
927.301	1332
927.397	1048
927.494	1202
927.590	1391
927.687	1188
927.783	1732
927.879	1485
927.976	1260
928.072	975
928.168	1216
928.264	919
928.361	1928
928.457	841
928.553	1733
928.649	1420
928.745	2110
928.841	1172
928.937	1653
929.033	1736
929.129	1923
929.225	908
929.321	1043
929.417	1314
929.513	1373
929.609	742
929.705	663
929.801	1133
929.897	1198
929.993	545
930.089	1070
930.184	1224
930.280	1125
930.376	1260
930.471	1007
930.567	2198
930.663	1534
930.758	1219
930.854	1103
930.950	588
931.045	1551
931.141	1471
931.236	2255
931.332	1318
931.427	1953
931.523	746
931.618	2339
931.714	1178
931.809	2495
931.905	1595
932.000	1514
932.095	1897
932.191	1939
932.286	1107
932.381	1460
932.476	1191
932.572	2007
932.667	962
932.762	2036
932.857	925
932.952	1215
933.047	1065
933.142	930
933.237	1147
933.332	1957
933.427	1354
933.522	1856
933.617	1042
933.712	1339
933.807	1000
933.902	671
933.997	817
934.092	1036
934.187	1483
934.282	1154
934.376	1486
934.471	1031
934.566	633
934.661	1060
934.755	1071
934.850	1301
934.945	1167
935.039	1597
935.134	2124
935.228	1213
935.323	491
935.417	1470
935.512	537
935.606	791
935.701	1092
935.795	1557
935.890	1447
935.984	1555
936.079	689
936.173	1348
936.267	765
936.362	1001
936.456	1001
936.550	1478
936.644	1268
936.738	1266
936.833	1375
936.927	1880
937.021	2404
937.115	1028
937.209	-386
937.303	2024
937.397	1159
937.491	1704
937.585	1969
937.679	946
937.773	1315
937.867	272
937.961	959
938.055	1131
938.149	1079
938.243	1337
938.337	901
938.430	902
938.524	1254
938.618	1667
938.712	336
938.805	1133
938.899	1612
938.993	950
939.086	1283
939.180	1199
939.274	1981
939.367	740
939.461	1058
939.554	740
939.648	936
939.741	631
939.835	636
939.928	1543
940.022	1920
940.115	1710
940.208	1198
940.302	1476
940.395	1457
940.488	457
940.582	1980
940.675	1170
940.768	1187
940.861	887
940.954	1440
941.048	1080
941.141	1059
941.234	2181
941.327	1764
941.420	3049
941.513	1368
941.606	1629
941.699	1051
941.792	763
941.885	1123
941.978	949
942.071	916
942.164	898
942.257	1250
942.349	1486
942.442	904
942.535	417
942.628	1111
942.721	1201
942.813	-233
942.906	1865
942.999	1465
943.091	777
943.184	2183
943.277	697
943.369	979
943.462	276
943.554	1452
943.647	1307
943.739	1743
943.832	1331
943.924	79
944.017	1476
944.109	746
944.201	899
944.294	920
944.386	1498
944.478	865
944.571	1427
944.663	1546
944.755	983
944.847	1423
944.940	1028
945.032	37
945.124	1380
945.216	1711
945.308	1238
945.400	927
945.492	1105
945.584	710
945.676	1220
945.768	1002
945.860	1315
945.952	1197
946.044	1615
946.136	642
946.228	1100
946.320	815
946.412	1032
946.503	403
946.595	2111
946.687	229
946.779	700
946.870	419
946.962	1310
947.054	637
947.145	795
947.237	914
947.329	1705
947.420	404
947.512	1216
947.603	1327
947.695	1103
947.786	-376
947.878	831
947.969	190
948.061	1141
948.152	628
948.243	1189
948.335	995
948.426	476
948.517	728
948.609	1270
948.700	712
948.791	1761
948.882	927
948.973	579
949.065	960
949.156	738
949.247	307
949.338	1666
949.429	986
949.520	664
949.611	291
949.702	1391
949.793	595
949.884	2582
949.975	860
950.066	631
950.157	98
950.247	1273
950.338	1117
950.429	724
950.520	1296
950.611	2293
950.701	1069
950.792	1485
950.883	1858
950.973	1997
951.064	1392
951.155	995
951.245	1189
951.336	1402
951.427	219
951.517	1481
951.608	1196
951.698	457
951.788	732
951.879	355
951.969	410
952.060	448
952.150	809
952.240	1417
952.331	-1141
952.421	1694
952.511	964
952.602	1000
952.692	508
952.782	1939
952.872	1118
952.962	1256
953.052	796
953.143	787
953.233	835
953.323	1396
953.413	859
953.503	1008
953.593	729
953.683	758
953.773	-222
953.863	1217
953.953	778
954.042	1328
954.132	749
954.222	1537
954.312	1080
954.402	717
954.492	1016
954.581	4307
954.671	2231
954.761	297
954.850	2235
954.940	1074
955.030	842
955.119	941
955.209	286
955.298	-40
955.388	1257
955.477	1311
955.567	728
955.656	1433
955.746	937
955.835	1494
955.925	431
956.014	878
956.103	829
956.193	1199
956.282	619
956.371	1688
956.461	1900
956.550	1317
956.639	1289
956.728	747
956.817	1163
956.906	1431
956.995	1554
957.085	878
957.174	1265
957.263	1346
957.352	743
957.441	2183
957.530	1341
957.619	1084
957.708	455
957.796	1192
957.885	1097
957.974	977
958.063	1498
958.152	1304
958.241	1424
958.329	1161
958.418	1308
958.507	636
958.596	1786
958.684	1717
958.773	2149
958.861	1040
958.950	1458
959.039	2101
959.127	1531
959.216	1030
959.304	1204
959.393	1506
959.481	1576
959.570	2121
959.658	2085
959.746	2559
959.835	2526
959.923	4604
960.011	2295
960.100	2037
960.188	2104
960.276	519
960.365	1053
960.453	1288
960.541	376
960.629	1701
960.717	1562
960.805	1002
960.893	1764
960.981	1418
961.069	1654
961.158	1358
961.245	1142
961.333	1101
961.421	757
961.509	1597
961.597	940
961.685	1137
961.773	980
961.861	1303
961.949	553
962.036	821
962.124	1135
962.212	1980
962.299	591
962.387	1102
962.475	1036
962.562	328
962.650	957
962.738	1408
962.825	1168
962.913	1260
963.000	333
963.088	1362
963.175	859
963.263	1855
963.350	914
963.438	789
963.525	816
963.612	4528
963.700	7906
963.787	22111
963.874	10581
963.962	2119
964.049	2253
964.136	1071
964.223	775
964.310	869
964.398	489
964.485	1239
964.572	2186
964.659	3762
964.746	3483
964.833	1589
964.920	458
965.007	1084
965.094	1136
965.181	1180
965.268	1497
965.355	-4
965.441	332
965.528	134
965.615	770
965.702	719
965.789	528
965.875	935
965.962	1109
966.049	970
966.136	1145
966.222	790
966.309	1571
966.395	760
966.482	698
966.569	-159
966.655	775
966.742	397
966.828	1005
966.915	1105
967.001	1274
967.087	754
967.174	1964
967.260	2578
967.347	2549
967.433	6673
967.519	15193
967.605	6009
967.692	813
967.778	599
967.864	1055
967.950	1334
968.036	189
968.123	1037
968.209	560
968.295	37
968.381	1847
968.467	744
968.553	-190
968.639	1829
968.725	875
968.811	2634
968.897	2960
968.983	1125
969.069	234
969.154	1106
969.240	1122
969.326	389
969.412	588
969.497	820
969.583	469
969.669	1808
969.755	851
969.840	657
969.926	295
970.012	998
970.097	641
970.183	1504
970.268	663
970.354	2084
970.439	3540
970.525	9942
970.610	3692
970.696	1194
970.781	1166
970.866	-622
970.952	1005
971.037	230
971.122	852
971.208	345
971.293	1063
971.378	224
971.463	43
971.549	1516
971.634	760
971.719	1660
971.804	1186
971.889	2719
971.974	829
972.059	1185
972.144	392
972.229	837
972.314	609
972.399	923
972.484	99
972.569	1374
972.654	1259
972.739	4908
972.824	4914
972.908	2236
972.993	167
973.078	248
973.163	-52
973.247	584
973.332	-287
973.417	1805
973.501	429
973.586	1131
973.671	1089
973.755	1947
973.840	1828
973.924	959
974.009	322
974.093	1232
974.178	2395
974.262	3429
974.346	4047
974.431	1253
974.515	299
974.600	863
974.684	835
974.768	-323
974.852	570
974.937	308
975.021	599
975.105	965
975.189	584
975.273	1087
975.358	130
975.442	138
975.526	817
975.610	92
975.694	-400
975.778	1490
975.862	264
975.946	-1202
976.030	1777
976.114	1187
976.198	-154
976.281	198
976.365	653
976.449	912
976.533	537
976.617	284
976.700	284
976.784	1187
976.868	585
976.951	2853
977.035	1951
977.119	152
977.202	-26
977.286	816
977.369	197
977.453	396
977.536	-705
977.620	185
977.703	669
977.787	-70
977.870	1140
977.953	1575
978.037	-587
978.120	2129
978.203	2337
978.287	4636
978.370	1590
978.453	695
978.536	69
978.620	1980
978.703	3044
978.786	1427
978.869	5
978.952	-683
979.035	526
979.118	557
979.201	-254
979.284	674
979.367	-480
979.450	-204
979.533	-262
979.616	275
979.699	-124
979.782	694
979.865	-584
979.948	49
980.030	-211
980.113	697
980.196	-112
980.279	816
980.361	148
980.444	-348
980.526	678
980.609	742
980.692	-204
980.774	-51
980.857	-630
980.939	922
981.022	-76
981.104	794
981.187	-754
981.269	702
981.352	-277
981.434	251
981.516	-61
981.599	868
981.681	-436
981.763	169
981.846	-586
981.928	-161
982.010	-534
982.092	-871
982.174	650
982.256	304
982.339	487
982.421	-328
982.503	291
982.585	537
982.667	-27
982.749	-324
982.831	62
982.913	-910
982.995	149
983.077	508
983.158	1826
983.240	-421
983.322	56
983.404	1145
983.486	-802
983.568	370
983.649	-675
983.731	-193
983.813	-680
983.894	239
983.976	-340
984.058	-130
984.139	691
984.221	0
984.302	272
984.384	-220
984.465	-710
984.547	721
984.628	-868
984.710	335
984.791	-224
984.872	66
984.954	-13
985.035	116
985.116	-1289
985.198	205
985.279	506
985.360	-514
985.441	285
985.522	653
985.604	-669
985.685	-1058
985.766	386
985.847	732
985.928	-845
986.009	136
986.090	155
986.171	689
986.252	-493
986.333	-17
986.414	-361
986.495	-387
986.576	-660
986.656	24
986.737	149
986.818	156
986.899	-528
986.980	722
987.060	553
987.141	-361
987.222	433
987.302	-301
987.383	188
987.464	319
987.544	88
987.625	593
987.705	1302
987.786	106
987.866	10
987.947	300
988.027	-678
988.108	-328
988.188	453
988.268	282
988.349	-580
988.429	-625
988.509	-775
988.589	-356
988.670	-1129
988.750	1819
988.830	816
988.910	917
988.990	-448
989.070	34
989.151	-10
989.231	-554
989.311	46
989.391	391
989.471	340
989.551	-186
989.631	-148
989.711	960
989.791	-847
989.870	-468
989.950	156
990.030	-134
990.110	-349
990.190	-602
990.269	-364
990.349	-468
990.429	-581
990.509	468
990.588	-853
990.668	430
990.747	0
990.827	-20
990.907	682
990.986	-678
991.066	221
991.145	-467
991.225	315
991.304	320
991.383	-638
991.463	-598
991.542	276
991.622	-248
991.701	-1027
991.780	163
991.859	-980
991.939	0
992.018	-861
992.097	-313
992.176	-408
992.256	-686
992.335	-1392
992.414	337
992.493	403
992.572	119
992.651	557
992.730	-1130
992.809	378
992.888	-107
992.967	-752
993.046	-11
993.125	-938
993.203	-113
993.282	-35
993.361	284
993.440	-928
993.519	-535
993.597	13
993.676	-725
993.755	-421
993.834	-15
993.912	-1079
993.991	981
994.069	-478
994.148	261
994.226	-704
994.305	1141
994.384	-1295
994.462	851
994.540	-618
994.619	-236
994.697	-373
994.776	-1059
994.854	76
994.932	359
995.011	-439
995.089	288
995.167	112
995.245	-196
995.324	-554
995.402	137
995.480	-655
995.558	586
995.636	-963
995.714	-334
995.792	536
995.870	-998
995.948	92
996.026	383
996.104	-1559
996.182	369
996.260	-314
996.338	-339
996.416	-1123
996.494	-363
996.572	565
996.649	-684
996.727	195
996.805	426
996.883	-572
996.960	9
997.038	279
997.116	323
997.193	-238
997.271	278
997.348	-873
997.426	-87
997.504	-1277
997.581	527
997.658	205
997.736	-1179
997.813	-1188
997.891	569
997.968	-556
998.046	-416
998.123	283
998.200	43
998.277	-1545
998.355	299
998.432	-1369
998.509	-625
998.586	-193
998.663	-684
998.741	-272
998.818	-89
998.895	-1474
998.972	-599
999.049	-269
999.126	-701
999.203	-652
999.280	-518
999.357	-1247
999.434	-590
999.511	-624
999.587	-422
999.664	-446
999.741	332
999.818	779
999.895	-155
999.971	-478
1000.048	366
1000.125	51
1000.202	-1092
1000.278	373
1000.355	-263
1000.431	-396
1000.508	-296
1000.584	-355
1000.661	117
1000.738	-705
1000.814	-521
1000.890	312
1000.967	-427
1001.043	253
1001.120	-222
1001.196	-231
1001.272	-849
1001.349	551
1001.425	-142
1001.501	-842
1001.577	-957
1001.654	-447
1001.730	-431
1001.806	-399
1001.882	-900
1001.958	-472
1002.034	-718
1002.110	-317
1002.186	-743
1002.262	-933
1002.338	-1009
1002.414	-174
1002.490	-202
1002.566	-596
1002.642	-722
1002.718	-185
1002.794	154
1002.870	-853
1002.945	-1044
1003.021	-264
1003.097	-357
1003.173	-402
1003.248	10
1003.324	-1432
1003.400	87
1003.475	-953
1003.551	109
1003.626	-1580
1003.702	-1517
1003.777	-308
1003.853	-1691
1003.928	-1084
1004.004	-176
1004.079	-618
1004.155	-1019
1004.230	-1832
1004.305	84
1004.381	-1084
1004.456	-452
1004.531	-446
1004.607	-515
1004.682	-689
1004.757	-242
1004.832	-1275
1004.907	-1144
1004.982	-494
1005.057	-761
1005.133	-186
1005.208	-115
1005.283	-492
1005.358	36
1005.433	-1138
1005.508	-261
1005.583	-722
1005.657	-164
1005.732	386
1005.807	-629
1005.882	-577
1005.957	-800
1006.032	-30
1006.106	-1050
1006.181	-809
1006.256	-391
1006.331	-1258
1006.405	-326
1006.480	3
1006.554	-153
1006.629	-339
1006.704	-428
1006.778	-957
1006.853	119
1006.927	-1198
1007.002	26
1007.076	-186
1007.150	-919
1007.225	-1135
1007.299	54
1007.373	-1644
1007.448	-1419
1007.522	-756
1007.596	-596
1007.671	-1450
1007.745	-239
1007.819	-1138
1007.893	-1155
1007.967	193
1008.041	-1365
1008.115	175
1008.190	-935
1008.264	-768
1008.338	-1227
1008.412	-911
1008.486	-744
1008.560	-1321
1008.633	-1115
1008.707	-1272
1008.781	95
1008.855	-1114
1008.929	-678
1009.003	-676
1009.076	-772
1009.150	393
1009.224	-658
1009.298	-1040
1009.371	-1099
1009.445	35
1009.519	-1093
1009.592	-1473
1009.666	-225
1009.739	-545
1009.813	-1650
1009.886	306
1009.960	-1370
1010.033	-689
1010.107	-164
1010.180	-1433
1010.253	-1376
1010.327	-961
1010.400	-730
1010.473	-768
1010.547	86
1010.620	-926
1010.693	-436
1010.766	-766
1010.840	-586
1010.913	-1219
1010.986	-924
1011.059	-672
1011.132	17
1011.205	-87
1011.278	-714
1011.351	-645
1011.424	-1141
1011.497	-1226
1011.570	-1193
1011.643	-1246
1011.716	-550
1011.789	-990
1011.862	-119
1011.934	-1348
1012.007	-1287
1012.080	-853
1012.153	-1019
1012.225	-263
1012.298	-1650
1012.371	-1433
1012.443	-794
1012.516	-1918
1012.588	-522
1012.661	-697
1012.733	-846
1012.806	-658
1012.879	-1108
1012.951	-261
1013.023	-266
1013.096	-645
1013.168	-1628
1013.241	-478
1013.313	402
1013.385	-562
1013.458	-877
1013.530	-1175
1013.602	-1277
1013.674	-377
1013.746	-1383
1013.819	-1811
1013.891	-579
1013.963	-1481
1014.035	-493
1014.107	-733
1014.179	83
1014.251	-768
1014.323	-808
1014.395	-1111
1014.467	-307
1014.539	-594
1014.611	-1828
1014.683	-618
1014.754	-117
1014.826	-1353
1014.898	-1025
1014.970	-2265
1015.042	-187
1015.113	-614
1015.185	-927
1015.257	-2515
1015.328	-520
1015.400	-897
1015.471	-550
1015.543	-1873
1015.615	-718
1015.686	-1449
1015.757	-972
1015.829	-624
1015.901	-797
1015.972	-1233
1016.043	-995
1016.115	-1061
1016.186	-483
1016.257	-1146
1016.328	-701
1016.400	-870
1016.471	-899
1016.542	-1339
1016.613	-1422
1016.685	-1264
1016.756	-606
1016.827	-1527
1016.898	-1218
1016.969	-697
1017.040	-1247
1017.111	-1084
1017.182	-1107
1017.253	-1142
1017.324	-429
1017.395	-777
1017.466	-1258
1017.537	-1850
1017.608	-761
1017.678	-1463
1017.749	-1942
1017.820	166
1017.891	-1156
1017.961	-1310
1018.032	-1165
1018.103	-659
1018.173	-562
1018.244	-1246
1018.315	-903
1018.385	-720
1018.456	-1486
1018.526	-1150
1018.597	-1144
1018.667	-1541
1018.738	-1162
1018.808	-1180
1018.878	-805
1018.949	-1371
1019.019	-848
1019.089	-1044
1019.160	-260
1019.230	-1000
1019.300	-172
1019.371	-1002
1019.441	-383
1019.511	-767
1019.581	-737
1019.651	-1016
1019.721	-550
1019.791	-696
1019.861	-1448
1019.931	-1023
1020.001	-594
1020.071	-958
1020.141	-1272
1020.211	-694
1020.281	-1490
1020.351	-1311
1020.421	-530
1020.491	-242
1020.560	-856
1020.630	-822
1020.700	-1055
1020.770	-1207
1020.839	-586
1020.909	-741
1020.979	-1475
1021.048	-1192
1021.118	-1283
1021.187	-1060
1021.257	-237
1021.326	-1212
1021.396	-796
1021.465	-1454
1021.535	-894
1021.604	-1713
1021.674	-831
1021.743	-1505
1021.812	-488
1021.882	-1038
1021.951	-1292
1022.020	-1345
1022.089	-871
1022.159	-1301
1022.228	-417
1022.297	-1562
1022.366	-1440
1022.435	-1177
1022.504	-1476
1022.573	-1143
1022.642	-1082
1022.711	-1554
1022.781	-739
1022.849	-646
1022.918	-1276
1022.987	-1140
1023.056	-1212
1023.125	-1078
1023.194	-419
1023.263	-412
1023.331	-197
1023.400	-1532
1023.469	-1259
1023.538	-1486
1023.606	-801
1023.675	-1506
1023.744	-1528
1023.812	-1866
1023.881	-1577
1023.949	-1269
1024.018	90
1024.086	-1456
1024.155	-993
1024.223	-1383
1024.292	-1138
1024.360	-1411
1024.429	-1238
1024.497	-1174
1024.565	-630
1024.634	-1357
1024.702	-879
1024.770	-863
1024.838	-1125
1024.907	-902
1024.975	-917
1025.043	-840
1025.111	-587
1025.179	-730
1025.247	-874
1025.315	-1910
1025.383	-1413
1025.451	-1338
1025.519	-1330
1025.587	-1214
1025.655	-382
1025.723	-1160
1025.791	-850
1025.859	-1421
1025.927	-183
1025.995	-1457
1026.062	-731
1026.130	-1272
1026.198	-1319
1026.266	-1136
1026.333	-160
1026.401	-808
1026.469	-438
1026.536	-596
1026.604	-679
1026.671	-996
1026.739	-1594
1026.806	-490
1026.874	-915
1026.941	-1161
1027.009	-640
1027.076	-1190
1027.144	-1008
1027.211	-1203
1027.278	-656
1027.345	-1600
1027.413	-259
1027.480	-1684
1027.547	-1520
1027.614	-854
1027.682	-368
1027.749	-1122
1027.816	-1010
1027.883	-1254
1027.950	-854
1028.017	-1153
1028.084	105
1028.151	-1457
1028.218	-1036
1028.285	-940
1028.352	-1141
1028.419	-1094
1028.486	-1258
1028.553	-864
1028.619	-1561
1028.686	-1534
1028.753	-1388
1028.820	-1533
1028.886	-1650
1028.953	-1375
1029.020	-1528
1029.086	-2014
1029.153	-1116
1029.220	-1739
1029.286	-168
1029.353	-403
1029.419	-1558
1029.486	-892
1029.552	-1259
1029.619	-2010
1029.685	-811
1029.751	-828
1029.818	290
1029.884	-1795
1029.951	-50
1030.017	-1728
1030.083	-867
1030.149	-893
1030.216	-1064
1030.282	-1445
1030.348	-974
1030.414	-1380
1030.480	-943
1030.546	-931
1030.612	-641
1030.678	-1562
1030.744	-894
1030.810	-1328
1030.876	-767
1030.942	-1007
1031.008	-940
1031.074	-997
1031.140	-1163
1031.206	-410
1031.272	-1330
1031.337	-741
1031.403	-814
1031.469	-1225
1031.534	-600
1031.600	-1392
1031.666	-654
1031.731	-1811
1031.797	-257
1031.863	-1575
1031.928	-760
1031.994	-2010
1032.059	-1191
1032.125	-1680
1032.190	-1255
1032.256	-1414
1032.321	-1807
1032.386	-1164
1032.452	256
1032.517	-1363
1032.582	-718
1032.647	-1557
1032.713	-1881
1032.778	-687
1032.843	-594
1032.908	-964
1032.974	-103
1033.039	-1233
1033.104	-561
1033.169	-1184
1033.234	-1349
1033.299	-1082
1033.364	-241
1033.429	-1102
1033.494	-496
1033.559	-1519
1033.624	-1081
1033.688	-278
1033.753	-1011
1033.818	-910
1033.883	-462
1033.948	-939
1034.013	-894
1034.077	-1420
1034.142	-1074
1034.207	-914
1034.271	-435
1034.336	90
1034.400	-192
1034.465	-790
1034.530	323
1034.594	-862
1034.658	-520
1034.723	-1286
1034.787	-895
1034.852	-1344
1034.916	-872
1034.981	-1925
1035.045	-1279
1035.109	-1227
1035.173	-1168
1035.238	-1090
1035.302	-656
1035.366	-1257
1035.430	-756
1035.495	-1125
1035.559	-341
1035.623	-1629
1035.687	-1253
1035.751	-823
1035.815	-1918
1035.879	-1020
1035.943	-1041
1036.007	-1669
1036.071	-514
1036.135	-770
1036.198	-1295
1036.262	-1017
1036.326	-608
1036.390	-611
1036.454	-1109
1036.517	-746
1036.581	-23
1036.645	256
1036.709	935
1036.772	-980
1036.836	-428
1036.900	-1180
1036.963	-1210
1037.026	-1120
1037.090	-1636
1037.154	-1371
1037.217	-595
1037.280	-1610
1037.344	-686
1037.407	-1600
1037.471	-1226
1037.534	-844
1037.597	-1564
1037.661	-1602
1037.724	-492
1037.787	-1867
1037.850	-1018
1037.913	-1785
1037.977	-466
1038.040	-1326
1038.103	-489
1038.166	-1000
1038.229	-328
1038.292	-2196
1038.355	-1262
1038.418	-1643
1038.481	-884
1038.544	-862
1038.607	-487
1038.670	-1993
1038.732	-1743
1038.795	-1522
1038.858	-924
1038.921	-799
1038.984	-898
1039.046	-2093
1039.109	-1890
1039.172	-1616
1039.234	-954
1039.297	-1700
1039.360	-1337
1039.422	-1073
1039.485	-1454
1039.547	-1315
1039.610	-640
1039.672	-1378
1039.734	-1468
1039.797	-998
1039.859	-480
1039.922	-1491
1039.984	-1234
1040.046	-1190
1040.109	-971
1040.171	-1988
1040.233	-1399
1040.295	-1641
1040.358	-1026
1040.420	-1312
1040.482	-1765
1040.544	-1719
1040.606	-757
1040.668	-1165
1040.730	-1083
1040.792	-812
1040.854	-812
1040.916	-1495
1040.978	-1039
1041.040	-855
1041.102	-1681
1041.164	-2225
1041.225	-1600
1041.287	-982
1041.349	-1316
1041.411	-1379
1041.472	-1094
1041.534	-1199
1041.596	-333
1041.657	-1457
1041.719	-1144
1041.781	-1664
1041.842	-1652
1041.904	-1300
1041.965	-639
1042.027	-983
1042.088	-1130
1042.150	-1420
1042.211	-501
1042.272	-1431
1042.334	-1375
1042.395	-1770
1042.456	-1332
1042.518	-1235
1042.579	-849
1042.640	-1736
1042.701	-1099
1042.763	-1372
1042.824	-1620
1042.885	-1528
1042.946	-1262
1043.007	-2110
1043.068	-1231
1043.129	-1684
1043.190	-547
1043.251	-787
1043.312	-1595
1043.373	-1754
1043.434	-1578
1043.495	-1320
1043.556	-1190
1043.616	-1426
1043.677	-1221
1043.738	-1814
1043.799	-1229
1043.859	-1681
1043.920	-979
1043.981	-1203
1044.041	-538
1044.102	-1132
1044.162	-1220
1044.223	-2404
1044.284	-1010
1044.344	-407
1044.405	-969
1044.465	-1179
1044.525	-1255
1044.586	-851
1044.646	-779
1044.707	-800
1044.767	-725
1044.827	-1484
1044.887	-1756
1044.948	-1093
1045.008	-319
1045.068	-729
1045.128	-805
1045.188	-1705
1045.249	-289
1045.309	-1155
1045.369	-775
1045.429	-1172
1045.489	-757
1045.549	-1307
1045.609	-920
1045.669	-2084
1045.729	-943
1045.789	-1236
1045.848	-1046
1045.908	-881
1045.968	-1086
1046.028	-1034
1046.088	-208
1046.147	-1088
1046.207	-448
1046.267	-1253
1046.326	-353
1046.386	-362
1046.446	-490
1046.505	-509
1046.565	-28
1046.624	201
1046.684	-554
1046.743	-450
1046.803	-696
1046.862	491
1046.922	0
