'Start Wavelength	183.907
'End Wavelength	1046.922
'Gate Delay	5.000
'Gate Width (ms)	1.050
'Laser Output Level	0.000
'X Position	0.000
'Y Position	0.000
'Z Position	0.000
'Grid Point Number	1.000
'Shot Number	100.000
183.907	-452.000
183.977	-370.000
184.047	-119
184.116	-14
184.186	387
184.256	-266
184.325	20
184.395	-510
184.465	667
184.534	-441
184.604	247
184.674	-278
184.743	-660
184.813	227
184.883	-170
184.952	-21
185.022	-641
185.092	-26
185.161	-1
185.231	273
185.301	-161
185.370	662
185.440	-731
185.509	418
185.579	-704
185.649	732
185.718	275
185.788	245
185.857	-422
185.927	-407
185.996	-25
186.066	545
186.136	-553
186.205	363
186.275	57
186.344	600
186.414	-14
186.483	61
186.553	378
186.622	1022
186.692	-392
186.761	222
186.831	-165
186.900	-305
186.970	330
187.039	1027
187.109	994
187.178	117
187.248	209
187.317	203
187.387	-48
187.456	576
187.526	1078
187.595	1119
187.664	262
187.734	298
187.803	190
187.873	901
187.942	1303
188.012	1156
188.081	826
188.150	824
188.220	1071
188.289	696
188.358	-555
188.428	613
188.497	-12
188.567	860
188.636	233
188.705	1017
188.775	236
188.844	395
188.913	133
188.983	269
189.052	413
189.121	549
189.191	1042
189.260	992
189.329	1075
189.399	999
189.468	995
189.537	84
189.606	171
189.676	667
189.745	1193
189.814	1642
189.883	383
189.953	676
190.022	1126
190.091	3469
190.161	4360
190.230	2125
190.299	630
190.368	1064
190.437	-76
190.507	1101
190.576	820
190.645	536
190.714	449
190.783	763
190.853	1690
190.922	941
190.991	207
191.060	845
191.129	-538
191.198	964
191.268	695
191.337	835
191.406	322
191.475	391
191.544	-318
191.613	1258
191.682	160
191.752	1465
191.821	575
191.890	282
191.959	711
192.028	467
192.097	620
192.166	866
192.235	-78
192.304	605
192.373	478
192.442	448
192.511	392
192.580	969
192.650	973
192.719	961
192.788	730
192.857	1659
192.926	508
192.995	1402
193.064	2117
193.133	2908
193.202	3179
193.271	2831
193.340	1349
193.409	1730
193.478	1758
193.547	2968
193.615	3190
193.684	3971
193.753	2017
193.822	1927
193.891	1234
193.960	1448
194.029	675
194.098	1407
194.167	635
194.236	1645
194.305	1059
194.374	602
194.443	583
194.512	1100
194.580	466
194.649	1060
194.718	1503
194.787	1084
194.856	729
194.925	1849
194.994	597
195.062	1289
195.131	1310
195.200	1461
195.269	1389
195.338	965
195.407	951
195.475	619
195.544	2148
195.613	1337
195.682	923
195.751	306
195.819	1212
195.888	1645
195.957	2084
196.026	2581
196.094	1698
196.163	2021
196.232	1533
196.301	1278
196.369	1123
196.438	1334
196.507	999
196.576	296
196.644	379
196.713	824
196.782	276
196.850	1117
196.919	408
196.988	1282
197.056	33
197.125	1364
197.194	1220
197.262	1772
197.331	403
197.400	1312
197.468	190
197.537	875
197.606	949
197.674	2167
197.743	4118
197.812	1938
197.880	3568
197.949	2957
198.017	3659
198.086	3101
198.155	1221
198.223	2103
198.292	4686
198.360	1734
198.429	1324
198.497	1692
198.566	2400
198.635	5590
198.703	1738
198.772	2613
198.840	5585
198.909	6330
198.977	1812
199.046	2274
199.114	2007
199.183	1495
199.251	259
199.320	2109
199.388	577
199.457	1163
199.525	877
199.594	1021
199.662	1020
199.731	1288
199.799	1469
199.867	1949
199.936	809
200.004	1772
200.073	1036
200.141	944
200.210	642
200.278	1347
200.346	2431
200.415	2180
200.483	2427
200.552	1763
200.620	849
200.688	1489
200.757	907
200.825	1686
200.893	1152
200.962	1952
201.030	516
201.098	1706
201.167	1105
201.235	2051
201.303	956
201.372	2163
201.440	1627
201.508	1165
201.577	1279
201.645	1583
201.713	982
201.781	1025
201.850	1627
201.918	1014
201.986	330
202.055	2736
202.123	333
202.191	536
202.259	1320
202.327	1579
202.396	1175
202.464	1961
202.532	1608
202.600	5834
202.669	2555
202.737	1667
202.805	874
202.873	1878
202.941	1564
203.009	1909
203.078	1096
203.146	1888
203.214	1255
203.282	1958
203.350	1334
203.418	1260
203.487	1215
203.555	1773
203.623	1261
203.691	2606
203.759	1224
203.827	1472
203.895	1235
203.963	2533
204.031	1339
204.099	2237
204.168	1224
204.236	1763
204.304	1066
204.372	1797
204.440	2167
204.508	1657
204.576	872
204.644	1268
204.712	1316
204.780	2182
204.848	1480
204.916	1531
204.984	1733
205.052	2519
205.120	1313
205.188	1897
205.256	1665
205.324	2443
205.392	1605
205.460	1757
205.528	2117
205.596	2316
205.664	1789
205.732	2196
205.799	5547
205.867	10217
205.935	3122
206.003	3895
206.071	1625
206.139	2839
206.207	2365
206.275	2830
206.343	2296
206.411	2551
206.478	1805
206.546	1883
206.614	1906
206.682	2024
206.750	1760
206.818	3320
206.885	3202
206.953	1028
207.021	2180
207.089	1957
207.157	1064
207.225	2557
207.292	1691
207.360	2728
207.428	1974
207.496	1782
207.563	2058
207.631	1371
207.699	1488
207.767	2015
207.834	991
207.902	2284
207.970	2091
208.038	2581
208.105	1725
208.173	2575
208.241	3373
208.309	3556
208.376	3290
208.444	5828
208.512	3328
208.579	1507
208.647	2406
208.715	3209
208.782	2252
208.850	2288
208.918	2251
208.985	3137
209.053	2812
209.120	2771
209.188	1910
209.256	2541
209.323	1844
209.391	3544
209.459	3004
209.526	2514
209.594	2469
209.661	1744
209.729	2240
209.796	2875
209.864	2535
209.932	1863
209.999	2472
210.067	3035
210.134	3010
210.202	3135
210.269	3563
210.337	4030
210.404	2234
210.472	3083
210.539	2982
210.607	2550
210.674	3335
210.742	2961
210.809	3137
210.877	3624
210.944	4131
211.012	3024
211.079	4529
211.146	3108
211.214	2330
211.281	3838
211.349	2765
211.416	4003
211.484	3609
211.551	3138
211.618	3023
211.686	3603
211.753	2608
211.821	3454
211.888	2849
211.955	3420
212.023	2756
212.090	3484
212.157	3466
212.225	4391
212.292	6541
212.359	11449
212.427	28024
212.494	15509
212.561	5557
212.629	4717
212.696	4320
212.763	4477
212.831	3077
212.898	3765
212.965	2915
213.032	4095
213.100	4044
213.167	3686
213.234	3834
213.301	3655
213.369	3400
213.436	2970
213.503	2658
213.570	4065
213.638	3656
213.705	2435
213.772	1937
213.839	4111
213.906	5737
213.973	4134
214.041	2650
214.108	3845
214.175	2617
214.242	2988
214.309	3470
214.376	4265
214.444	3208
214.511	4550
214.578	3149
214.645	4219
214.712	3473
214.779	4503
214.846	3042
214.913	4824
214.980	5011
215.048	4587
215.115	5342
215.182	4863
215.249	3658
215.316	3615
215.383	3750
215.450	3143
215.517	3027
215.584	3106
215.651	2803
215.718	3122
215.785	3913
215.852	2988
215.919	4092
215.986	4110
216.053	2468
216.120	2941
216.187	3353
216.254	3344
216.321	2955
216.388	4311
216.455	4202
216.522	4483
216.589	4426
216.656	7424
216.722	7627
216.789	5581
216.856	5875
216.923	6067
216.990	4710
217.057	5352
217.124	5892
217.191	6109
217.258	7037
217.324	8135
217.391	8208
217.458	6845
217.525	4954
217.592	5831
217.659	3185
217.725	5016
217.792	6138
217.859	7018
217.926	3042
217.993	3388
218.059	2977
218.126	3466
218.193	3410
218.260	3253
218.327	2469
218.393	3740
218.460	2741
218.527	2085
218.594	3819
218.660	5579
218.727	5815
218.794	2517
218.860	2505
218.927	1868
218.994	2221
219.061	1529
219.127	2526
219.194	5484
219.261	2943
219.327	1813
219.394	2686
219.461	1850
219.527	1737
219.594	4210
219.661	3152
219.727	2260
219.794	2507
219.860	2454
219.927	3316
219.994	4756
220.060	7237
220.127	6016
220.193	4408
220.260	5422
220.326	6830
220.393	10841
220.460	12994
220.526	10180
220.593	6914
220.659	7757
220.726	7128
220.792	15915
220.859	14658
220.925	17287
220.992	22498
221.058	21180
221.125	20210
221.191	15881
221.258	6727
221.324	6292
221.391	4412
221.457	3863
221.524	3537
221.590	6090
221.657	17000
221.723	12577
221.789	11100
221.856	11405
221.922	5206
221.989	4324
222.055	3965
222.121	2833
222.188	4944
222.254	3065
222.321	2477
222.387	2671
222.453	2345
222.520	1534
222.586	1081
222.652	3223
222.719	1379
222.785	3076
222.851	2205
222.918	2910
222.984	2745
223.050	2606
223.116	1029
223.183	3318
223.249	1038
223.315	1787
223.382	1515
223.448	2492
223.514	1078
223.580	1953
223.647	1864
223.713	1254
223.779	2206
223.845	1803
223.911	1544
223.978	415
224.044	2332
224.110	2230
224.176	2007
224.242	3069
224.309	728
224.375	1677
224.441	1789
224.507	1813
224.573	981
224.639	2801
224.705	1344
224.772	2472
224.838	1121
224.904	2988
224.970	2269
225.036	2082
225.102	1678
225.168	2648
225.234	2643
225.300	3295
225.366	1696
225.432	2939
225.499	2241
225.565	2730
225.631	2872
225.697	2479
225.763	3082
225.829	4874
225.895	4564
225.961	7203
226.027	5898
226.093	6372
226.159	7641
226.225	10119
226.291	21942
226.357	33880
226.423	18919
226.489	11111
226.554	7260
226.620	7145
226.686	9375
226.752	14903
226.818	22490
226.884	42338
226.950	37796
227.016	17280
227.082	9419
227.148	7118
227.214	6742
227.279	6402
227.345	4291
227.411	5273
227.477	3896
227.543	6772
227.609	7694
227.674	5641
227.740	3758
227.806	4109
227.872	3228
227.938	4469
228.003	6416
228.069	4092
228.135	3238
228.201	2893
228.267	2969
228.332	3719
228.398	3509
228.464	3592
228.530	2151
228.595	3102
228.661	2676
228.727	5217
228.792	4629
228.858	3239
228.924	1868
228.990	5889
229.055	3075
229.121	4691
229.187	1828
229.252	3437
229.318	1951
229.384	3143
229.449	3453
229.515	1998
229.581	987
229.646	3761
229.712	3259
229.777	7039
229.843	8180
229.909	5749
229.974	4630
230.040	5581
230.105	3348
230.171	5446
230.236	6937
230.302	9481
230.368	7723
230.433	4568
230.499	4112
230.564	4835
230.630	2891
230.695	4178
230.761	3402
230.826	2205
230.892	4934
230.957	3261
231.023	1630
231.088	3976
231.154	3231
231.219	4318
231.284	5047
231.350	6434
231.415	2879
231.481	3607
231.546	2361
231.612	3300
231.677	1680
231.742	1511
231.808	3917
231.873	2859
231.939	1353
232.004	6866
232.069	5983
232.135	3674
232.200	2887
232.265	2584
232.331	2082
232.396	2403
232.461	929
232.527	2166
232.592	2772
232.657	3780
232.723	7343
232.788	5825
232.853	2807
232.918	2744
232.984	2115
233.049	2499
233.114	6423
233.179	6678
233.245	9303
233.310	14297
233.375	3440
233.440	3541
233.506	3500
233.571	3359
233.636	2119
233.701	2917
233.766	7820
233.832	12068
233.897	3909
233.962	3816
234.027	4759
234.092	4285
234.157	3883
234.222	4775
234.288	6933
234.353	25767
234.418	23390
234.483	11890
234.548	8331
234.613	5703
234.678	6070
234.743	7152
234.808	26750
234.873	18274
234.938	7689
235.004	5301
235.069	4488
235.134	4365
235.199	3859
235.264	3511
235.329	3588
235.394	4664
235.459	6851
235.524	6166
235.589	4627
235.654	4088
235.719	2490
235.784	4754
235.849	4653
235.913	14725
235.978	15894
236.043	20721
236.108	6504
236.173	6133
236.238	7307
236.303	3838
236.368	4809
236.433	9271
236.498	18696
236.563	11880
236.627	18720
236.692	55393
236.757	47763
236.822	22973
236.887	17626
236.952	13202
237.017	10267
237.081	12791
237.146	14846
237.211	29131
237.276	53955
237.341	85707
237.405	50780
237.470	20964
237.535	16653
237.600	10277
237.664	8546
237.729	6962
237.794	8198
237.859	18962
237.923	15914
237.988	9903
238.053	12407
238.118	14309
238.182	31525
238.247	32199
238.312	16549
238.376	10953
238.441	8388
238.506	8521
238.570	3004
238.635	5486
238.700	3904
238.764	4617
238.829	14377
238.893	20555
238.958	7770
239.023	6627
239.087	4218
239.152	5801
239.216	4361
239.281	4228
239.346	3402
239.410	4317
239.475	5875
239.539	32299
239.604	26654
239.668	8664
239.733	5236
239.797	5702
239.862	10679
239.926	26818
239.991	11009
240.055	5870
240.120	4313
240.184	4621
240.249	3625
240.313	4853
240.378	5007
240.442	19736
240.507	32115
240.571	10701
240.635	13878
240.700	20514
240.764	6481
240.829	5018
240.893	3545
240.957	5093
241.022	16225
241.086	34713
241.151	16981
241.215	5494
241.279	7999
241.344	18314
241.408	8151
241.472	5877
241.537	6831
241.601	5344
241.665	4073
241.730	3662
241.794	5668
241.858	4683
241.922	4736
241.987	4824
242.051	3912
242.115	3617
242.179	4038
242.244	3600
242.308	5425
242.372	6260
242.436	7501
242.501	6346
242.565	3560
242.629	3419
242.693	4844
242.757	3723
242.822	4577
242.886	5440
242.950	5739
243.014	6305
243.078	5846
243.142	6587
243.206	6260
243.271	8178
243.335	7060
243.399	10952
243.463	31029
243.527	85357
243.591	28602
243.655	12678
243.719	6850
243.783	8802
243.847	11935
243.911	17103
243.975	17604
244.040	13192
244.104	7746
244.168	6159
244.232	7754
244.296	11632
244.360	13310
244.424	9228
244.488	8576
244.552	7948
244.615	5287
244.679	5834
244.743	7131
244.807	6608
244.871	4623
244.935	4899
244.999	4058
245.063	4357
245.127	5983
245.191	9396
245.255	9137
245.319	7429
245.383	6030
245.446	5975
245.510	4079
245.574	5133
245.638	5412
245.702	4546
245.766	12635
245.829	9464
245.893	7328
245.957	6132
246.021	6269
246.085	6646
246.149	8683
246.212	18923
246.276	25331
246.340	12576
246.404	8208
246.467	9292
246.531	12864
246.595	10918
246.659	8468
246.722	7542
246.786	9122
246.850	10086
246.913	12208
246.977	6643
247.041	6145
247.104	7829
247.168	7222
247.232	17012
247.295	35570
247.359	18667
247.423	7923
247.486	16272
247.550	10387
247.614	8510
247.677	10817
247.741	7861
247.804	5907
247.868	9941
247.932	14332
247.995	35080
248.059	14506
248.122	7206
248.186	10816
248.249	16968
248.313	51412
248.376	55743
248.440	36053
248.503	14157
248.567	12619
248.630	17031
248.694	21925
248.757	26499
248.821	55797
248.884	35922
248.948	31206
249.011	45223
249.075	66747
249.138	57506
249.202	23157
249.265	16340
249.328	27237
249.392	17061
249.455	11719
249.519	9912
249.582	11488
249.645	19680
249.709	16288
249.772	15253
249.835	12455
249.899	15765
249.962	10034
250.025	9524
250.089	20904
250.152	31156
250.215	16330
250.279	12329
250.342	13491
250.405	14056
250.468	11703
250.532	15838
250.595	22648
250.658	74995
250.721	123337
250.785	47284
250.848	23923
250.911	15437
250.974	13575
251.038	18663
251.101	36582
251.164	23789
251.227	22945
251.290	20387
251.354	28023
251.417	104483
251.480	110869
251.543	73590
251.606	181458
251.669	145597
251.732	58681
251.795	54640
251.859	53432
251.922	122121
251.985	74342
252.048	30392
252.111	23111
252.174	22436
252.237	34502
252.300	70728
252.363	76431
252.426	152222
252.489	68557
252.552	40390
252.615	28024
252.678	28201
252.741	55326
252.804	72408
252.867	156952
252.930	97873
252.993	52725
253.056	29844
253.119	22197
253.182	18056
253.245	30883
253.308	25440
253.371	26472
253.434	23016
253.497	20512
253.559	35034
253.622	24660
253.685	33709
253.748	32909
253.811	17542
253.874	26089
253.937	24401
254.000	14896
254.062	24206
254.125	35818
254.188	32612
254.251	30425
254.314	15739
254.376	26811
254.439	29478
254.502	23556
254.565	24283
254.628	40843
254.690	26879
254.753	15526
254.816	13093
254.878	14814
254.941	27460
255.004	28868
255.067	13827
255.129	12695
255.192	8430
255.255	6654
255.317	8746
255.380	7032
255.443	5125
255.505	5037
255.568	5428
255.631	5683
255.693	6865
255.756	4713
255.819	5405
255.881	4121
255.944	4520
256.006	6407
256.069	6493
256.132	4793
256.194	9298
256.257	30967
256.319	23566
256.382	21199
256.444	9945
256.507	7833
256.569	7168
256.632	7719
256.694	17417
256.757	31034
256.819	88303
256.882	39527
256.944	16310
257.007	12110
257.069	14056
257.132	9273
257.194	9508
257.257	8482
257.319	9293
257.381	10888
257.444	25580
257.506	95909
257.569	114397
257.631	57980
257.693	30343
257.756	15909
257.818	17442
257.880	9529
257.943	9521
258.005	7128
258.067	7680
258.130	6242
258.192	8840
258.254	21200
258.317	14196
258.379	8303
258.441	19211
258.503	19587
258.566	31992
258.628	45972
258.690	11350
258.753	8820
258.815	16878
258.877	9986
258.939	7055
259.001	6244
259.064	5996
259.126	9996
259.188	16862
259.250	8904
259.312	11736
259.375	24174
259.437	17089
259.499	7059
259.561	6610
259.623	7208
259.685	7724
259.747	7807
259.809	30789
259.872	60121
259.934	82025
259.996	70059
260.058	18885
260.120	8502
260.182	8200
260.244	6596
260.306	6033
260.368	6976
260.430	6212
260.492	10919
260.554	22524
260.616	19614
260.678	37358
260.740	62452
260.802	15605
260.864	10687
260.926	8690
260.988	9021
261.050	9743
261.112	15389
261.174	54619
261.236	49591
261.298	15138
261.359	26052
261.421	43196
261.483	11617
261.545	9645
261.607	5239
261.669	7169
261.731	15956
261.793	42390
261.854	15222
261.916	9700
261.978	6820
262.040	9485
262.102	8154
262.164	17087
262.225	13737
262.287	6652
262.349	15840
262.411	15310
262.472	7641
262.534	17110
262.596	44860
262.658	13263
262.719	6439
262.781	11095
262.843	40699
262.904	19209
262.966	12871
263.028	15604
263.090	61647
263.151	160671
263.213	49045
263.275	21868
263.336	9966
263.398	8537
263.459	4942
263.521	7579
263.583	15172
263.644	11398
263.706	4629
263.767	4767
263.829	4463
263.891	3822
263.952	3654
264.014	3696
264.075	5203
264.137	13085
264.198	8604
264.260	3880
264.321	3334
264.383	10899
264.444	22210
264.506	7626
264.567	5685
264.629	8185
264.690	15263
264.752	7554
264.813	6054
264.875	4497
264.936	5387
264.998	3940
265.059	4512
265.120	6123
265.182	8469
265.243	44813
265.305	49065
265.366	13201
265.427	6775
265.489	6055
265.550	3466
265.611	6019
265.673	5727
265.734	4815
265.795	4088
265.857	5370
265.918	5302
265.979	12713
266.040	72007
266.102	64533
266.163	18435
266.224	12474
266.286	7337
266.347	6140
266.408	5339
266.469	9002
266.530	6175
266.592	4415
266.653	10204
266.714	18600
266.775	5866
266.836	5040
266.898	2199
266.959	6364
267.020	4874
267.081	4397
267.142	3073
267.203	3319
267.264	2265
267.326	5559
267.387	3585
267.448	2829
267.509	3638
267.570	3965
267.631	2412
267.692	2795
267.753	4035
267.814	3195
267.875	8595
267.936	21088
267.997	9254
268.058	8017
268.119	5027
268.180	5002
268.241	2795
268.302	3560
268.363	3448
268.424	4764
268.485	5565
268.546	3189
268.607	3236
268.668	2826
268.729	2492
268.790	3768
268.851	3971
268.912	12328
268.972	15339
269.033	8111
269.094	3220
269.155	3891
269.216	3148
269.277	6351
269.338	3811
269.398	4826
269.459	4289
269.520	7078
269.581	8768
269.642	10549
269.702	7212
269.763	7041
269.824	4463
269.885	6111
269.945	10274
270.006	5399
270.067	2575
270.128	3438
270.188	2577
270.249	4250
270.310	3225
270.370	3848
270.431	5586
270.492	3792
270.553	4141
270.613	9877
270.674	20594
270.734	9098
270.795	5208
270.856	7939
270.916	6528
270.977	4688
271.038	6058
271.098	6433
271.159	9788
271.219	12085
271.280	4589
271.340	4776
271.401	5780
271.462	23490
271.522	10678
271.583	6335
271.643	6619
271.704	5377
271.764	6982
271.825	14271
271.885	47453
271.946	66497
272.006	21974
272.066	28379
272.127	49849
272.187	15779
272.248	9384
272.308	9768
272.369	34325
272.429	20551
272.489	15642
272.550	16011
272.610	15246
272.671	13240
272.731	14167
272.791	29321
272.852	12254
272.912	9469
272.972	5847
273.033	5883
273.093	12071
273.153	10862
273.214	6700
273.274	7979
273.334	22589
273.394	51210
273.455	21176
273.515	19197
273.575	44635
273.635	19719
273.696	27604
273.756	53387
273.816	20882
273.876	12832
273.936	34381
273.997	68844
274.057	17556
274.117	10973
274.177	13736
274.237	59254
274.297	59292
274.358	54545
274.418	41886
274.478	31395
274.538	14009
274.598	14776
274.658	57445
274.718	79134
274.778	29735
274.838	15072
274.898	30905
274.958	106399
275.018	64955
275.078	36970
275.138	17361
275.198	9738
275.258	8896
275.318	12286
275.378	20228
275.438	19780
275.498	13878
275.558	41746
275.618	84181
275.678	41539
275.738	22676
275.798	17627
275.858	8894
275.918	6590
275.978	7738
276.038	8263
276.098	6931
276.157	12467
276.217	36995
276.277	18400
276.337	12201
276.397	7547
276.457	8348
276.517	6285
276.576	4950
276.636	4861
276.696	8822
276.756	25294
276.815	20002
276.875	8280
276.935	10633
276.995	9307
277.055	5380
277.114	5844
277.174	8211
277.234	27434
277.293	13229
277.353	7493
277.413	5597
277.472	6409
277.532	6764
277.592	7333
277.651	18116
277.711	36506
277.771	13428
277.830	43928
277.890	36243
277.950	25281
278.009	75145
278.069	29070
278.128	22913
278.188	34770
278.248	15187
278.307	35025
278.367	26424
278.426	11525
278.486	7608
278.545	6284
278.605	6275
278.664	6188
278.724	7003
278.783	17952
278.843	50139
278.902	15948
278.962	10011
279.021	11424
279.081	16139
279.140	16144
279.199	11223
279.259	11627
279.318	12039
279.378	17133
279.437	25572
279.496	78639
279.556	244353
279.615	207850
279.675	54208
279.734	30994
279.793	44481
279.853	69674
279.912	25604
279.971	16432
280.031	14733
280.090	24943
280.149	43593
280.208	37017
280.268	162885
280.327	183523
280.386	42327
280.445	29511
280.505	27651
280.564	13900
280.623	11065
280.682	17964
280.742	26945
280.801	10472
280.860	7720
280.919	6832
280.978	5835
281.037	5599
281.097	5963
281.156	5576
281.215	5144
281.274	6809
281.333	29565
281.392	26781
281.451	6745
281.510	6130
281.569	5944
281.628	4636
281.688	4506
281.747	5256
281.806	5410
281.865	4729
281.924	4198
281.983	5055
282.042	3225
282.101	4205
282.160	3590
282.219	3129
282.278	3953
282.337	18071
282.396	13405
282.454	6085
282.513	6581
282.572	27036
282.631	16945
282.690	6129
282.749	4246
282.808	6791
282.867	6513
282.926	6845
282.985	3692
283.043	3300
283.102	3702
283.161	6551
283.220	13704
283.279	32885
283.338	13198
283.396	6485
283.455	5565
283.514	6680
283.573	10490
283.631	8593
283.690	4982
283.749	5042
283.808	11480
283.866	15653
283.925	4858
283.984	5380
284.043	7650
284.101	8986
284.160	4842
284.219	8175
284.277	6583
284.336	10195
284.395	36565
284.453	32779
284.512	10478
284.570	14949
284.629	11705
284.688	9675
284.746	9806
284.805	11272
284.863	13967
284.922	17642
284.981	19978
285.039	27932
285.098	45507
285.156	104227
285.215	243722
285.273	233222
285.332	124033
285.390	65410
285.449	37750
285.507	25943
285.566	18705
285.624	16885
285.683	13526
285.741	11556
285.799	9829
285.858	9700
285.916	8932
285.975	6883
286.033	5401
286.091	5915
286.150	5412
286.208	5702
286.267	6278
286.325	6553
286.383	10929
286.442	9719
286.500	4990
286.558	5235
286.616	4052
286.675	7282
286.733	6318
286.791	6008
286.850	6621
286.908	9061
286.966	15723
287.024	8367
287.083	5038
287.141	4806
287.199	5544
287.257	9414
287.315	6617
287.374	7635
287.432	16381
287.490	12865
287.548	8255
287.606	5711
287.664	5525
287.723	9669
287.781	12233
287.839	9468
287.897	11177
287.955	17576
288.013	22725
288.071	44332
288.129	151249
288.187	390781
288.245	202725
288.303	70370
288.361	37679
288.419	26087
288.477	17429
288.535	13350
288.593	11069
288.651	9491
288.709	7565
288.767	7626
288.825	6658
288.883	5708
288.941	5048
288.999	6012
289.057	5038
289.115	4657
289.173	4750
289.231	4709
289.289	4645
289.346	5079
289.404	5121
289.462	9714
289.520	11175
289.578	5955
289.636	3010
289.694	3920
289.751	3237
289.809	3035
289.867	3412
289.925	6002
289.983	7473
290.040	3809
290.098	2785
290.156	5099
290.214	5958
290.271	4580
290.329	2576
290.387	2325
290.444	2866
290.502	2009
290.560	3430
290.617	3609
290.675	3248
290.733	4327
290.790	4604
290.848	3364
290.906	3316
290.963	5057
291.021	3502
291.078	4645
291.136	4360
291.194	12003
291.251	30896
291.309	9633
291.366	3841
291.424	3124
291.481	3911
291.539	3661
291.596	3605
291.654	2549
291.711	2554
291.769	4123
291.826	11153
291.884	7983
291.941	3091
291.999	3177
292.056	4707
292.114	6032
292.171	2667
292.228	4705
292.286	5320
292.343	11449
292.401	13651
292.458	8975
292.515	6271
292.573	7083
292.630	6970
292.687	9128
292.745	5880
292.802	6564
292.859	15771
292.917	35226
292.974	22209
293.031	8228
293.089	5146
293.146	4125
293.203	3944
293.260	3974
293.318	5778
293.375	7721
293.432	4682
293.489	4890
293.546	4480
293.604	7400
293.661	19876
293.718	56149
293.775	28640
293.832	13564
293.889	9307
293.947	10943
294.004	8663
294.061	8436
294.118	14347
294.175	28982
294.232	33133
294.289	15453
294.346	8874
294.403	10262
294.460	9678
294.517	6620
294.574	5589
294.631	6263
294.688	7288
294.745	15796
294.802	59735
294.859	62936
294.916	27028
294.973	16633
295.030	11936
295.087	11326
295.144	7552
295.201	7255
295.258	6095
295.315	8711
295.372	23898
295.429	47789
295.486	22427
295.542	11458
295.599	21828
295.656	38943
295.713	29761
295.770	42000
295.827	18139
295.883	9561
295.940	8046
295.997	15487
296.054	15088
296.111	8422
296.167	5996
296.224	5178
296.281	4900
296.338	5142
296.394	5831
296.451	7661
296.508	18927
296.564	37577
296.621	23749
296.678	47462
296.734	72880
296.791	30016
296.848	14719
296.904	15302
296.961	30483
297.018	49800
297.074	39210
297.131	17224
297.187	12028
297.244	15174
297.301	45497
297.357	86948
297.414	33831
297.470	13508
297.527	8624
297.583	7914
297.640	7625
297.696	6459
297.753	5205
297.809	5456
297.866	4496
297.922	5397
297.979	5397
298.035	6127
298.092	9691
298.148	28000
298.204	30155
298.261	14879
298.317	20652
298.374	60753
298.430	39020
298.486	22692
298.543	17991
298.599	14386
298.656	13253
298.712	21699
298.768	57234
298.824	47051
298.881	16783
298.937	9469
298.993	7763
299.050	10315
299.106	9391
299.162	8808
299.218	8971
299.275	7375
299.331	8314
299.387	13823
299.443	50622
299.500	56612
299.556	21448
299.612	11160
299.668	11345
299.724	10352
299.780	9964
299.837	9176
299.893	13251
299.949	44372
300.005	53798
300.061	43628
300.117	72618
300.173	39029
300.229	18492
300.285	23298
300.341	25910
300.397	14819
300.453	9002
300.510	7916
300.566	7902
300.622	9592
300.678	17741
300.734	40362
300.790	42599
300.845	53970
300.901	32027
300.957	43882
301.013	38210
301.069	15763
301.125	11171
301.181	12696
301.237	10132
301.293	6771
301.349	6572
301.405	6145
301.461	6268
301.516	9004
301.572	8857
301.628	16185
301.684	15354
301.740	21244
301.796	34177
301.851	25376
301.907	38281
301.963	38942
302.019	52635
302.074	143531
302.130	149631
302.186	73761
302.242	31288
302.297	20372
302.353	17465
302.409	31758
302.464	30829
302.520	23342
302.576	55312
302.631	66095
302.687	40733
302.743	18216
302.798	11126
302.854	10057
302.910	8878
302.965	11817
303.021	20452
303.076	19694
303.132	24389
303.187	29975
303.243	17157
303.299	10178
303.354	7525
303.410	7746
303.465	6527
303.521	6825
303.576	7824
303.632	9356
303.687	15249
303.743	48149
303.798	43148
303.853	20848
303.909	11223
303.964	10178
304.020	13661
304.075	21888
304.130	19778
304.186	35091
304.241	37085
304.297	30392
304.352	16740
304.358	16170
304.407	11553
304.449	10429
304.463	10057
304.518	10276
304.539	9988
304.573	9550
304.629	9783
304.630	9844
304.684	13340
304.720	28514
304.739	35927
304.794	57047
304.811	49525
304.850	31630
304.902	15068
304.905	14020
304.960	9976
304.992	11064
305.015	11817
305.071	11307
305.083	10885
305.126	9300
305.173	7333
305.181	7034
305.236	5568
305.264	6347
305.292	7142
305.347	8584
305.354	8757
305.402	9945
305.445	11654
305.457	12106
305.512	14567
305.535	14672
305.567	14867
305.622	13502
305.626	13856
305.678	24027
305.716	49474
305.733	57914
305.788	64569
305.807	55742
305.843	42269
305.897	51371
305.898	51409
305.953	51453
305.988	34987
306.008	26615
306.063	15404
306.078	14069
306.118	11108
306.168	7715
306.173	7411
306.228	6729
306.259	6328
306.283	6155
306.338	6188
306.349	6484
306.393	7794
306.440	10206
306.448	10591
306.503	10127
306.530	9757
306.558	11319
306.613	24573
306.620	26311
306.668	37998
306.711	53010
306.723	54527
306.778	43076
306.801	33161
306.833	23016
306.888	11290
306.892	10977
306.943	8701
306.982	7292
306.997	6774
307.052	7350
307.072	6956
307.107	7167
307.162	10321
307.163	10370
307.217	15304
307.253	18047
307.272	18405
307.327	19365
307.343	17992
307.381	15712
307.434	13612
307.436	13953
307.491	28251
307.524	42430
307.546	45525
307.600	45881
307.614	40716
307.655	26392
307.704	15578
307.710	15133
307.765	16638
307.795	20202
307.819	23323
307.874	36917
307.885	37225
307.929	32149
307.975	26387
307.984	27093
308.038	37516
308.065	45929
308.093	78358
308.148	163417
308.156	182374
308.202	259231
308.246	303569
308.257	297588
308.312	175366
308.336	125635
308.366	95042
308.421	59843
308.426	56911
308.475	36409
308.517	25591
308.530	23204
308.585	19472
308.607	18483
308.639	18370
308.694	19840
308.697	20084
308.748	33371
308.787	48648
308.803	48311
308.857	36655
308.877	30895
308.912	27496
308.967	26948
308.967	27027
309.021	36106
309.058	44065
309.076	56446
309.130	101739
309.148	120548
309.185	220191
309.238	389744
309.239	390190
309.293	383231
309.328	336874
309.348	294679
309.402	148448
309.418	111471
309.457	78352
309.508	48997
309.511	47784
309.566	38120
309.598	34946
309.620	35848
309.674	41834
309.688	43870
309.729	40728
309.778	34207
309.783	33727
309.837	28028
309.868	25320
309.892	32633
309.946	53516
309.959	60341
310.001	74060
310.049	84245
310.055	81636
310.109	48928
310.139	30051
310.163	24007
310.218	15519
310.229	14238
310.272	10978
310.319	8582
310.326	8385
310.381	7584
310.409	7300
310.435	7120
310.489	6686
310.499	6741
310.543	7079
310.589	6957
310.598	6820
310.652	6640
310.679	6279
310.706	5558
310.760	4479
310.769	4263
310.814	3754
310.859	3682
310.868	3756
310.923	3959
310.948	4300
310.977	5089
311.031	6441
311.038	6645
311.085	6322
311.128	5764
311.139	5611
311.193	5034
311.218	4687
311.247	4588
311.301	4587
311.308	4591
311.356	4538
311.398	4544
311.410	4525
311.464	4344
311.488	4331
311.518	4399
311.572	4448
311.578	4479
311.626	6566
311.668	8401
311.680	8209
311.734	7150
311.758	6716
311.788	6445
311.842	5960
311.847	5918
311.896	7988
311.937	9903
311.950	9672
312.004	8601
312.027	8139
312.058	7142
312.112	5382
312.117	5219
312.165	4965
312.207	4778
312.297	4712
312.386	4151
312.476	6681
312.566	13751
312.656	5322
312.745	4147
312.835	4459
312.925	4718
313.015	5225
313.104	5937
313.194	4218
313.284	4751
313.374	7435
313.463	6124
313.553	4219
313.643	4249
313.732	3106
313.822	3789
313.912	3551
314.001	5064
314.091	5747
314.180	6839
314.270	7241
314.360	8146
314.449	6506
314.539	3221
314.628	3676
314.718	4780
314.808	5721
314.897	3474
314.987	3889
315.076	7552
315.166	8795
315.255	7746
315.345	7825
315.434	8340
315.524	6803
315.613	7616
315.703	10677
315.792	16020
315.881	41919
315.971	14340
316.060	17115
316.150	22862
316.239	22438
316.328	7511
316.418	4116
316.507	4584
316.597	7263
316.686	5950
316.775	13159
316.865	23510
316.954	4526
317.043	3471
317.133	4752
317.222	4463
317.311	3668
317.400	3055
317.490	8312
317.579	8797
317.668	5972
317.757	11275
317.847	26128
317.936	78995
318.025	30214
318.114	16817
318.203	9515
318.293	13332
318.382	18515
318.471	16912
318.560	23063
318.649	41038
318.738	8516
318.828	9721
318.917	9143
319.006	11800
319.095	31143
319.184	60241
319.273	35768
319.362	19963
319.451	8088
319.540	7325
319.629	22752
319.718	29089
319.807	9684
319.896	27165
319.985	76672
320.074	24325
320.163	8199
320.252	15674
320.341	9555
320.430	7603
320.519	15152
320.608	6283
320.697	6031
320.786	6280
320.875	9934
320.964	14548
321.053	22899
321.142	34838
321.230	29715
321.319	26900
321.408	53260
321.497	17367
321.586	21292
321.675	26611
321.764	21330
321.852	15273
321.941	32628
322.030	17485
322.119	24353
322.207	58794
322.296	30747
322.385	15172
322.474	24657
322.562	74116
322.651	26059
322.740	29030
322.829	34350
322.917	33741
323.006	19462
323.095	15756
323.183	12534
323.272	21143
323.361	43071
323.449	115036
323.538	31817
323.626	81339
323.715	36052
323.804	19681
323.892	71034
323.981	30893
324.069	11019
324.158	39856
324.246	27685
324.335	13427
324.424	18960
324.512	8313
324.601	11114
324.689	36871
324.778	55771
324.866	26594
324.954	7171
325.043	7602
325.131	16948
325.220	26761
325.308	27936
325.397	22502
325.485	10641
325.574	4652
325.662	4793
325.750	5804
325.839	4584
325.927	4665
326.015	5495
326.104	12968
326.192	16659
326.280	5014
326.369	4521
326.457	9054
326.545	16466
326.634	5021
326.722	3531
326.810	3800
326.898	4053
326.987	5629
327.075	15567
327.163	15278
327.251	8007
327.340	23348
327.428	26841
327.516	4420
327.604	5062
327.692	5397
327.781	7149
327.869	12272
327.957	7612
328.045	6922
328.133	3765
328.221	6895
328.309	4560
328.397	3947
328.485	5917
328.574	11202
328.662	39100
328.750	18692
328.838	5933
328.926	4378
329.014	3916
329.102	8025
329.190	16389
329.278	9697
329.366	2864
329.454	1671
329.542	2993
329.630	2770
329.718	4208
329.806	5774
329.893	5338
329.981	5421
330.069	11420
330.157	50163
330.245	118149
330.333	49544
330.421	9897
330.509	14130
330.597	49158
330.684	24355
330.772	7592
330.860	9270
330.948	9895
331.036	4952
331.123	2698
331.211	2627
331.299	3746
331.387	11756
331.475	16289
331.562	5304
331.650	2988
331.738	5075
331.825	5877
331.913	3615
332.001	2719
332.089	6239
332.176	12125
332.264	36136
332.352	19991
332.439	7407
332.527	4385
332.614	4558
332.702	5611
332.790	4798
332.877	16903
332.965	26714
333.052	5095
333.140	7922
333.228	13795
333.315	3646
333.403	5625
333.490	18092
333.578	12391
333.665	14864
333.753	7552
333.840	4429
333.928	6679
334.015	19392
334.103	34313
334.190	86629
334.278	15295
334.365	8476
334.452	5668
334.540	4737
334.627	6547
334.715	9421
334.802	25074
334.889	148429
334.977	109346
335.064	11701
335.151	7124
335.239	5909
335.326	7860
335.413	43565
335.501	40728
335.588	6729
335.675	4061
335.762	6524
335.850	9646
335.937	9112
336.024	32591
336.111	126180
336.199	34106
336.286	7073
336.373	4150
336.460	3358
336.547	4050
336.635	5565
336.722	5042
336.809	4158
336.896	9664
336.983	26499
337.070	57424
337.157	77679
337.245	85966
337.332	47443
337.419	5472
337.506	3349
337.593	4839
337.680	18582
337.767	38480
337.854	14427
337.941	16650
338.028	27032
338.115	7839
338.202	8482
338.289	24187
338.376	80244
338.463	18420
338.550	29815
338.637	22391
338.724	14524
338.811	19858
338.898	4689
338.984	2953
339.071	5005
339.158	8566
339.245	21187
339.332	12682
339.419	17193
339.506	12423
339.593	3138
339.679	3454
339.766	3172
339.853	6817
339.940	14728
340.027	3645
340.113	5088
340.200	8104
340.287	4517
340.374	8137
340.460	14542
340.547	6340
340.634	12872
340.720	47364
340.807	20068
340.894	4746
340.980	5385
341.067	4046
341.154	5924
341.240	12092
341.327	21069
341.414	8871
341.500	10518
341.587	4406
341.674	5251
341.760	14932
341.847	15442
341.933	4582
342.020	1459
342.106	2395
342.193	5672
342.279	10026
342.366	9100
342.452	14372
342.539	7219
342.625	22299
342.712	48112
342.798	15901
342.885	6493
342.971	2537
343.058	2502
343.144	3914
343.230	4513
343.317	5746
343.403	3718
343.490	1946
343.576	2230
343.662	4281
343.749	5506
343.835	6966
343.921	16605
344.008	109352
344.094	192762
344.180	34868
344.267	16691
344.353	60457
344.439	49515
344.525	21404
344.612	13486
344.698	10259
344.784	5410
344.870	4310
344.957	4821
345.043	8064
345.129	6484
345.215	13147
345.301	9104
345.387	7200
345.474	3190
345.560	2930
345.646	3636
345.732	3873
345.818	7958
345.904	6075
345.990	5516
346.076	6596
346.162	12573
346.249	6164
346.335	4213
346.421	5546
346.507	28923
346.593	75039
346.679	12946
346.765	4399
346.851	3908
346.937	3635
347.023	3692
347.108	4957
347.194	4664
347.280	4151
347.366	7365
347.452	28801
347.538	96076
347.624	64452
347.710	45102
347.796	6472
347.882	3719
347.967	2805
348.053	4402
348.139	3103
348.225	3145
348.311	3264
348.397	3063
348.482	5611
348.568	6032
348.654	2789
348.740	3239
348.825	3432
348.911	11491
348.997	52194
349.083	78793
349.168	10470
349.254	6864
349.340	6316
349.425	3695
349.511	5798
349.597	7975
349.682	18143
349.768	52787
349.854	18626
349.939	3900
350.025	3167
350.110	3802
350.196	4167
350.282	2904
350.367	2567
350.453	8664
350.538	6915
350.624	7250
350.709	4605
350.795	3266
350.880	3532
350.966	5997
351.051	9152
351.137	5638
351.222	5524
351.308	20745
351.393	42015
351.479	11877
351.564	3941
351.649	3649
351.735	2458
351.820	3051
351.906	2859
351.991	6748
352.076	33444
352.162	38155
352.247	7782
352.332	7047
352.418	15562
352.503	20641
352.588	67554
352.673	45145
352.759	11725
352.844	5348
352.929	6993
353.014	9558
353.100	5602
353.185	8965
353.270	17666
353.355	14667
353.441	4563
353.526	6726
353.611	16802
353.696	16180
353.781	9527
353.866	3268
353.952	5608
354.037	17234
354.122	35557
354.207	28999
354.292	9046
354.377	4299
354.462	3992
354.547	5753
354.632	4499
354.717	7780
354.802	9139
354.887	4153
354.972	3039
355.057	2634
355.142	2591
355.227	5621
355.312	10677
355.397	25006
355.482	55578
355.567	23129
355.652	18616
355.737	22018
355.822	66847
355.907	43187
355.991	6400
356.076	4195
356.161	4101
356.246	3746
356.331	5034
356.416	18443
356.501	119635
356.585	99234
356.670	13047
356.755	9626
356.840	15216
356.924	89655
357.009	260985
357.094	79770
357.179	17938
357.263	11823
357.348	12304
357.433	11040
357.517	11901
357.602	7836
357.687	6169
357.771	12635
357.856	27491
357.941	18920
358.025	68869
358.110	248156
358.195	92218
358.279	13890
358.364	13684
358.448	51516
358.533	116207
358.617	80465
358.702	77849
358.787	26278
358.871	16086
358.956	11494
359.040	3636
359.125	3512
359.209	4171
359.294	14512
359.378	19351
359.462	12240
359.547	6828
359.631	4694
359.716	3178
359.800	4123
359.885	6263
359.969	4791
360.053	4251
360.138	4355
360.222	9451
360.306	16360
360.391	11542
360.475	22949
360.559	43866
360.644	46955
360.728	31562
360.812	71417
360.896	157505
360.981	56252
361.065	24452
361.149	8022
361.233	7556
361.318	5279
361.402	6287
361.486	6729
361.570	4105
361.654	8985
361.739	26316
361.823	119105
361.907	149731
361.991	23120
362.075	16425
362.159	33251
362.243	19744
362.327	13698
362.411	13597
362.495	9363
362.580	5256
362.664	3167
362.748	2667
362.832	4244
362.916	7114
363.000	27755
363.084	114825
363.168	170235
363.252	33634
363.336	13007
363.420	19555
363.503	57036
363.587	51072
363.671	10984
363.755	9435
363.839	14242
363.923	6803
364.007	17460
364.091	16959
364.175	25691
364.258	80269
364.342	42005
364.426	33115
364.510	17494
364.594	16009
364.677	34978
364.761	144152
364.845	84548
364.929	27532
365.013	21859
365.096	19760
365.180	20946
365.264	29613
365.347	82898
365.431	27770
365.515	8251
365.598	5098
365.682	5818
365.766	7314
365.849	8515
365.933	6312
366.017	7380
366.100	3842
366.184	2138
366.267	4837
366.351	3713
366.435	2873
366.518	2097
366.602	2543
366.685	4607
366.769	5007
366.852	8641
366.936	14789
367.019	9300
367.103	4815
367.186	9060
367.270	2779
367.353	2352
367.436	3851
367.520	2468
367.603	5542
367.687	10243
367.770	18427
367.853	11352
367.937	41962
368.020	56170
368.104	12344
368.187	15429
368.270	19766
368.353	18458
368.437	26305
368.520	51468
368.603	31765
368.687	51478
368.770	75981
368.853	16459
368.936	16447
369.020	12687
369.103	5610
369.186	2925
369.269	3996
369.352	14091
369.436	16653
369.519	9038
369.602	3264
369.685	6184
369.768	5538
369.851	4293
369.934	2971
370.018	6053
370.101	14967
370.184	11686
370.267	6505
370.350	12506
370.433	22928
370.516	69695
370.599	73150
370.682	23780
370.765	42326
370.848	58670
370.931	100614
371.014	30346
371.097	5936
371.180	5241
371.263	3015
371.346	1478
371.429	2488
371.511	3863
371.594	9909
371.677	13771
371.760	10844
371.843	15975
371.926	93891
372.009	175817
372.091	48077
372.174	43081
372.257	91821
372.340	29282
372.423	18569
372.505	18076
372.588	9680
372.671	38274
372.754	101851
372.836	43568
372.919	25639
373.002	39183
373.085	13824
373.167	16578
373.250	47054
373.332	93484
373.415	145034
373.498	257211
373.580	85910
373.663	131596
373.746	150067
373.828	30389
373.911	14049
373.993	17348
374.076	44867
374.159	36641
374.241	30985
374.324	84285
374.406	51593
374.489	90111
374.571	207800
374.654	73962
374.736	46134
374.819	136296
374.901	199177
374.983	178979
375.066	27236
375.148	11688
375.231	41847
375.313	63483
375.395	20701
375.478	5726
375.560	5239
375.643	10003
375.725	51250
375.807	178517
375.890	119723
375.972	45378
376.054	27054
376.136	39346
376.219	18581
376.301	61038
376.383	143778
376.465	50405
376.548	33896
376.630	49598
376.712	124338
376.794	47939
376.877	5803
376.959	3759
377.041	5227
377.123	8225
377.205	7608
377.287	2125
377.369	3485
377.452	4632
377.534	3297
377.616	3774
377.698	3311
377.780	2306
377.862	3174
377.944	4999
378.026	1206
378.108	3090
378.190	2603
378.272	3582
378.354	1659
378.436	2476
378.518	7340
378.600	20021
378.682	23686
378.764	58203
378.846	39373
378.928	10672
379.010	15424
379.091	7824
379.173	4877
379.255	3600
379.337	8423
379.419	34309
379.501	80026
379.583	26407
379.664	8499
379.746	23178
379.828	59035
379.910	78192
379.991	59675
380.073	9224
380.155	7158
380.237	4325
380.318	3535
380.400	4364
380.482	14107
380.564	19293
380.645	17587
380.727	15272
380.809	8874
380.890	5439
380.972	3904
381.053	4302
381.135	7150
381.217	23608
381.298	55629
381.380	24848
381.461	30647
381.543	136992
381.624	140213
381.706	21561
381.787	10136
381.869	13503
381.951	66653
382.032	203492
382.113	111036
382.195	19084
382.276	14097
382.358	41306
382.439	104978
382.521	131087
382.602	180988
382.684	82060
382.765	148135
382.846	120900
382.928	106336
383.009	53872
383.090	52976
383.172	183782
383.253	234582
383.334	104647
383.416	154276
383.497	68728
383.578	23635
383.659	46748
383.741	182375
383.822	390856
383.903	178648
383.984	107029
384.066	196572
384.147	108848
384.228	18821
384.309	15016
384.390	9485
384.471	7508
384.553	9183
384.634	13824
384.715	12909
384.796	5853
384.877	12225
384.958	54280
385.039	57773
385.120	18129
385.201	8853
385.282	9522
385.363	8927
385.444	7726
385.525	23438
385.606	80517
385.687	62451
385.768	13034
385.849	20797
385.930	98444
386.011	145505
386.092	33476
386.173	6416
386.254	6307
386.335	6424
386.416	8891
386.496	35230
386.577	51292
386.658	15686
386.739	9731
386.820	8373
386.901	5232
386.981	5950
387.062	5517
387.143	16207
387.224	56043
387.304	45319
387.385	14204
387.466	7484
387.547	8474
387.627	5787
387.708	26409
387.789	104386
387.869	111337
387.950	25399
388.031	4804
388.111	3977
388.192	11295
388.273	15602
388.353	10358
388.434	7428
388.514	24799
388.595	102432
388.676	116626
388.756	51794
388.837	51898
388.917	27704
388.998	4741
389.078	6175
389.159	5529
389.239	3890
389.320	10349
389.400	8816
389.480	24071
389.561	53839
389.641	23882
389.722	9967
389.802	14708
389.883	28147
389.963	67422
390.043	36831
390.124	10649
390.204	23214
390.284	63013
390.365	36739
390.445	48576
390.525	143340
390.605	118192
390.686	28613
390.766	8323
390.846	5348
390.927	3803
391.007	2912
391.087	5654
391.167	4242
391.247	3327
391.328	9595
391.408	11098
391.488	6073
391.568	2717
391.648	7172
391.728	9393
391.808	9972
391.888	11462
391.969	33339
392.049	44722
392.129	17135
392.209	27110
392.289	62654
392.369	28657
392.449	15562
392.529	12201
392.609	12373
392.689	22408
392.769	64076
392.849	48830
392.929	35786
393.009	79973
393.089	55116
393.169	42540
393.248	181407
393.328	703010
393.408	664485
393.488	131324
393.568	33464
393.648	17134
393.728	11213
393.807	8320
393.887	8364
393.967	9211
394.047	10989
394.127	16120
394.206	31823
394.286	138417
394.366	487045
394.446	449638
394.525	95172
394.605	24387
394.685	17441
394.764	30863
394.844	45375
394.924	28272
395.003	12185
395.083	10144
395.163	9572
395.242	8823
395.322	8121
395.402	6521
395.481	10092
395.561	25184
395.640	53975
395.720	43946
395.799	58524
395.879	46754
395.958	48399
396.038	200264
396.117	636636
396.197	605821
396.276	158758
396.356	46514
396.435	28270
396.515	21085
396.594	24447
396.673	47585
396.753	214583
396.832	625251
396.912	415971
396.991	82668
397.070	21744
397.150	11443
397.229	9150
397.308	8565
397.388	10957
397.467	7060
397.546	4841
397.625	3517
397.705	8740
397.784	8914
397.863	4031
397.942	3194
398.022	4103
398.101	19522
398.180	41944
398.259	19123
398.338	6446
398.417	5299
398.497	3423
398.576	4236
398.655	1437
398.734	2293
398.813	3646
398.892	19432
398.971	48753
399.050	20311
399.129	2377
399.208	2916
399.287	2917
399.366	1578
399.445	1245
399.524	2969
399.603	1723
399.682	9320
399.761	25748
399.840	59643
399.919	37433
399.998	4622
400.077	1873
400.156	1715
400.235	5075
400.313	1742
400.392	5415
400.471	31956
400.550	43813
400.629	9859
400.708	4531
400.786	3969
400.865	9318
400.944	9387
401.023	6369
401.102	859
401.180	822
401.259	1716
401.338	2368
401.416	4927
401.495	3232
401.574	3262
401.652	2542
401.731	4624
401.810	2191
401.888	1854
401.967	476
402.046	2065
402.124	4121
402.203	5291
402.281	3814
402.360	4302
402.438	11110
402.517	6506
402.596	3014
402.674	2466
402.753	2051
402.831	2499
402.910	3864
402.988	19443
403.066	50480
403.145	26195
403.223	19583
403.302	39430
403.380	28794
403.459	26062
403.537	9330
403.615	3940
403.694	491
403.772	2354
403.850	926
403.929	2329
404.007	2774
404.085	6961
404.164	6182
404.242	4628
404.320	14089
404.398	38564
404.477	61578
404.555	166055
404.633	129089
404.711	32708
404.789	13556
404.868	4527
404.946	1771
405.024	1392
405.102	1190
405.180	641
405.258	807
405.336	2632
405.415	2046
405.493	5040
405.571	5361
405.649	1250
405.727	2107
405.805	6669
405.883	3158
405.961	3850
406.039	2901
406.117	2174
406.195	7519
406.273	46180
406.351	133412
406.429	67306
406.507	7426
406.585	2622
406.663	4572
406.740	5664
406.818	4060
406.896	2084
406.974	3638
407.052	15164
407.130	82848
407.208	98109
407.285	16570
407.363	2740
407.441	2912
407.519	2838
407.596	4291
407.674	14799
407.752	36459
407.830	29068
407.907	8338
407.985	3589
408.063	2055
408.141	2283
408.218	4157
408.296	2788
408.373	3795
408.451	3656
408.529	3089
408.606	628
408.684	125
408.762	758
408.839	669
408.917	77
408.994	1193
409.072	-148
409.149	510
409.227	3038
409.304	2282
409.382	989
409.459	1284
409.537	2765
409.614	2778
409.692	1884
409.769	2464
409.846	3431
409.924	5119
410.001	2579
410.079	2375
410.156	2377
410.233	2056
410.311	2571
410.388	1170
410.465	2485
410.543	1258
410.620	1778
410.697	2806
410.775	3453
410.852	190
410.929	3357
411.006	4365
411.083	1549
411.161	4439
411.238	5627
411.315	1584
411.392	1380
411.469	3030
411.547	3225
411.624	478
411.701	1659
411.778	4169
411.855	9052
411.932	4846
412.009	2070
412.086	1980
412.163	2053
412.240	2310
412.317	3658
412.394	2104
412.471	631
412.548	775
412.625	1935
412.702	3305
412.779	4935
412.856	3093
412.933	722
413.010	2352
413.087	7795
413.164	28764
413.241	33677
413.318	6839
413.395	5153
413.471	7445
413.548	2700
413.625	2704
413.702	1945
413.779	1641
413.855	931
413.932	-231
414.009	-126
414.086	878
414.162	1627
414.239	5276
414.316	30381
414.393	57391
414.469	17998
414.546	1665
414.623	827
414.699	1748
414.776	2002
414.853	555
414.929	2625
415.006	921
415.082	2167
415.159	1713
415.236	1371
415.312	2774
415.389	7554
415.465	7630
415.542	3225
415.618	1605
415.695	5455
415.771	2552
415.848	2748
415.924	2473
416.000	977
416.077	1399
416.153	-208
416.230	-715
416.306	332
416.383	421
416.459	1885
416.535	541
416.612	261
416.688	-10
416.764	1332
416.841	109
416.917	1252
416.993	346
417.069	2541
417.146	4432
417.222	6019
417.298	1468
417.374	1253
417.451	1366
417.527	3591
417.603	3043
417.679	2263
417.755	2212
417.831	-37
417.908	243
417.984	1125
418.060	576
418.136	7918
418.212	8734
418.288	2384
418.364	1954
418.440	1639
418.516	4269
418.592	4352
418.668	10781
418.744	17594
418.820	11467
418.896	2543
418.972	134
419.048	1809
419.124	7950
419.200	4773
419.276	655
419.352	-223
419.428	450
419.504	2058
419.579	2985
419.655	2129
419.731	2564
419.807	12933
419.883	20892
419.959	13664
420.034	3273
420.110	11685
420.186	37466
420.262	25180
420.337	4133
420.413	3079
420.489	774
420.565	1714
420.640	621
420.716	1230
420.792	-1000
420.867	1719
420.943	1023
421.019	4205
421.094	2830
421.170	399
421.245	-183
421.321	431
421.397	1077
421.472	8092
421.548	17086
421.623	10562
421.699	2953
421.774	3261
421.850	2365
421.925	6295
422.001	4699
422.076	2779
422.152	3157
422.227	7197
422.302	7243
422.378	10306
422.453	17887
422.529	52836
422.604	193012
422.679	333369
422.755	170274
422.830	42432
422.905	14539
422.981	7277
423.056	4467
423.131	3779
423.207	2554
423.282	4407
423.357	10870
423.432	5951
423.508	8074
423.583	17194
423.658	11195
423.733	3170
423.808	2853
423.883	5554
423.959	3169
424.034	2147
424.109	1141
424.184	279
424.259	677
424.334	656
424.409	243
424.484	1296
424.559	2273
424.634	1491
424.709	3450
424.784	5000
424.859	2296
424.934	6500
425.009	28060
425.084	40697
425.159	12080
425.234	1828
425.309	181
425.384	6170
425.459	8740
425.534	2727
425.609	218
425.683	558
425.758	668
425.833	1164
425.908	3551
425.983	19599
426.058	42353
426.132	16467
426.207	2784
426.282	4012
426.357	1959
426.431	407
426.506	878
426.581	746
426.655	923
426.730	1399
426.805	599
426.879	1948
426.954	1793
427.029	9222
427.103	52147
427.178	108836
427.253	41061
427.327	4442
427.402	4246
427.476	10148
427.551	3472
427.625	1725
427.700	1464
427.774	8
427.849	558
427.923	303
427.998	-33
428.072	655
428.147	4703
428.221	22833
428.296	47365
428.370	20241
428.444	2810
428.519	3853
428.593	7635
428.667	6823
428.742	7604
428.816	9259
428.890	31216
428.965	42337
429.039	14643
429.113	9087
429.188	2301
429.262	1269
429.336	6677
429.410	18042
429.485	10502
429.559	7055
429.633	4270
429.707	1687
429.781	8387
429.855	36802
429.930	51307
430.004	32392
430.078	41776
430.152	40910
430.226	76841
430.300	67171
430.374	8796
430.448	4358
430.522	18736
430.596	42133
430.670	31933
430.744	90809
430.818	120617
430.892	23168
430.966	2621
431.040	1695
431.114	-742
431.188	966
431.262	83
431.336	1035
431.410	5345
431.484	13332
431.557	8493
431.631	597
431.705	1795
431.779	10339
431.853	38544
431.927	23719
432.000	2541
432.074	821
432.148	1594
432.222	1149
432.295	446
432.369	495
432.443	6157
432.516	51325
432.590	106205
432.664	34022
432.737	3887
432.811	1333
432.885	69
432.958	1423
433.032	-638
433.106	-79
433.179	-11
433.253	-226
433.326	792
433.400	-260
433.473	218
433.547	-1254
433.620	237
433.694	3373
433.767	2882
433.841	-58
433.914	24
433.988	-361
434.061	-487
434.134	-175
434.208	-205
434.281	-483
434.355	-265
434.428	496
434.501	-308
434.575	330
434.648	42
434.721	-136
434.795	-461
434.868	-756
434.941	-636
435.014	-563
435.088	-333
435.161	1386
435.234	3064
435.307	3519
435.381	671
435.454	-43
435.527	630
435.600	657
435.673	726
435.746	-223
435.819	397
435.892	-72
435.966	-461
436.039	-261
436.112	220
436.185	-217
436.258	-629
436.331	-860
436.404	-436
436.477	-560
436.550	-699
436.623	-196
436.696	-300
436.769	820
436.842	234
436.915	924
436.987	578
437.060	1027
437.133	-712
437.206	-912
437.279	94
437.352	537
437.425	371
437.498	1058
437.570	3449
437.643	2538
437.716	-11
437.789	-94
437.861	2993
437.934	6928
438.007	2004
438.080	553
438.152	1844
438.225	9824
438.298	72373
438.370	156599
438.443	52421
438.516	8812
438.588	1721
438.661	123
438.734	-91
438.806	1164
438.879	1302
438.951	1787
439.024	2990
439.096	88
439.169	-387
439.241	83
439.314	24
439.386	669
439.459	2728
439.531	4467
439.604	1635
439.676	834
439.749	-535
439.821	-18
439.893	-503
439.966	95
440.038	912
440.110	1787
440.183	515
440.255	730
440.327	3858
440.400	28539
440.472	96726
440.544	54192
440.617	4913
440.689	4560
440.761	4905
440.833	6733
440.905	4097
440.978	92
441.050	-660
441.122	735
441.194	-417
441.266	178
441.338	-539
441.411	5463
441.483	30658
441.555	37504
441.627	6507
441.699	2996
441.771	2005
441.843	54
441.915	-730
441.987	-148
442.059	329
442.131	1044
442.203	2455
442.275	2600
442.347	1876
442.419	3454
442.491	16858
442.563	35237
442.635	16026
442.706	13262
442.778	8438
442.850	1132
442.922	291
442.994	1606
443.066	2069
443.137	1555
443.209	689
443.281	2478
443.353	6534
443.425	26543
443.496	77047
443.568	65103
443.640	20994
443.711	3788
443.783	1042
443.855	1423
443.926	443
443.998	729
444.070	1081
444.141	1991
444.213	3029
444.285	4400
444.356	3914
444.428	2138
444.499	238
444.571	-482
444.642	-470
444.714	430
444.785	2968
444.857	4101
444.928	7416
445.000	4110
445.071	5406
445.143	5225
445.214	2942
445.285	6193
445.357	20312
445.428	66647
445.500	132142
445.571	74069
445.642	30747
445.714	14478
445.785	13035
445.856	4813
445.928	5310
445.999	2933
446.070	1943
446.141	3748
446.213	3603
446.284	934
446.355	269
446.426	669
446.497	353
446.569	2234
446.640	5386
446.711	4233
446.782	1087
446.853	2233
446.924	2462
446.995	1529
447.066	2210
447.138	2717
447.209	1103
447.280	-176
447.351	353
447.422	-290
447.493	837
447.564	2386
447.635	3919
447.706	506
447.777	-151
447.847	-423
447.918	-424
447.989	1322
448.060	1850
448.131	4995
448.202	4994
448.273	4204
448.344	594
448.414	827
448.485	408
448.556	82
448.627	-212
448.698	343
448.768	-389
448.839	460
448.910	2017
448.981	2871
449.051	1426
449.122	799
449.193	210
449.263	-449
449.334	570
449.405	2898
449.475	6419
449.546	4027
449.616	3184
449.687	2777
449.758	213
449.828	770
449.899	644
449.969	79
450.040	203
450.110	1590
450.181	1704
450.251	1261
450.322	358
450.392	1056
450.463	419
450.533	646
450.604	-267
450.674	398
450.744	476
450.815	495
450.885	710
450.955	16
451.026	-129
451.096	77
451.166	895
451.237	3710
451.307	7559
451.377	2808
451.447	326
451.518	630
451.588	796
451.658	350
451.728	1972
451.799	10178
451.869	9757
451.939	2112
452.009	207
452.079	432
452.149	558
452.219	3493
452.289	10353
452.360	7322
452.430	1001
452.500	1380
452.570	1931
452.640	3053
452.710	7948
452.780	11351
452.850	12561
452.920	11715
452.990	2997
453.060	2289
453.129	3397
453.199	3642
453.269	17893
453.339	32171
453.409	46490
453.479	46454
453.549	63752
453.619	62485
453.688	23535
453.758	3888
453.828	1452
453.898	1894
453.968	273
454.037	1205
454.087	1056
454.107	927
454.168	906
454.177	828
454.247	203
454.249	322
454.316	1050
454.330	1474
454.386	2071
454.411	4067
454.456	6173
454.492	7261
454.525	8177
454.574	4966
454.595	3672
454.655	2706
454.665	2582
454.734	4533
454.736	4907
454.804	9135
454.817	10977
454.873	14274
454.898	14398
454.943	14202
454.979	10518
455.013	8258
455.060	6674
455.082	6531
455.141	10831
455.152	11818
455.221	25822
455.222	26636
455.291	41007
455.303	46629
455.360	64631
455.384	82116
455.430	97523
455.465	66678
455.499	43113
455.546	27001
455.569	18732
455.627	11581
455.638	10803
455.707	4844
455.708	4922
455.777	4030
455.789	4096
455.846	3890
455.869	3914
455.916	3951
455.950	4422
455.985	4647
456.031	4449
456.054	4202
456.112	4636
456.124	4734
456.193	4379
456.193	4305
456.262	5429
456.274	5785
456.332	6721
456.355	7024
456.401	6468
456.436	5775
456.470	5236
456.516	4590
456.540	4411
456.597	4490
456.609	4408
456.678	3883
456.678	3825
456.747	4201
456.759	4180
456.817	3815
456.840	4090
456.886	4567
456.920	4933
456.955	5549
457.001	5890
457.024	6181
457.082	8051
457.093	8224
457.162	10146
457.163	10237
457.232	9526
457.243	9167
457.301	7190
457.324	6395
457.370	5714
457.405	6356
457.439	6764
457.485	6639
457.508	6784
457.566	7679
457.577	7844
457.646	9444
457.647	9532
457.715	12187
457.727	12802
457.784	15576
457.808	16882
457.853	18646
457.889	20805
457.922	20891
457.969	19377
457.991	19905
458.050	22173
458.060	22488
458.129	27501
458.130	27736
458.198	23698
458.211	22231
458.267	16054
458.292	13732
458.336	13519
458.372	13865
458.405	16278
458.453	20197
458.474	22851
458.533	32808
458.543	33566
458.611	43028
458.614	43335
458.680	26900
458.694	22772
458.749	15734
458.775	13391
458.818	11816
458.855	11200
458.887	11044
458.936	10579
458.955	10418
459.016	10505
459.024	10572
459.093	12107
459.097	12189
459.162	12740
459.177	13014
459.230	15050
459.257	16502
459.299	16786
459.338	16496
459.368	16834
459.418	18223
459.437	17276
459.499	13317
459.505	13255
459.574	13341
459.579	13316
459.643	12019
459.659	11994
459.711	13448
459.740	14107
459.780	14763
459.820	16012
459.849	16522
459.900	16773
459.917	16572
459.981	16906
459.986	16897
460.054	15945
460.061	15995
460.123	18417
460.141	19009
460.191	21361
460.222	23131
460.260	24206
460.302	26037
460.328	24102
460.382	18632
460.397	18856
460.462	20328
460.465	20973
460.534	37017
460.543	39115
460.602	74760
460.623	88205
460.671	132206
460.703	166150
460.739	126125
460.783	70839
460.808	59231
460.864	22772
460.876	20841
460.944	17366
460.945	17316
461.013	17796
461.024	17951
461.081	18669
461.104	19071
461.150	17885
461.184	16570
461.218	16582
461.264	16622
461.286	16476
461.345	16412
461.355	16442
461.423	16891
461.425	16905
461.491	20437
461.505	21184
461.559	36725
461.585	44016
461.628	60590
461.665	76134
461.696	74758
461.745	73278
461.764	61985
461.825	21598
461.832	21401
461.901	19853
461.905	19886
461.969	18165
461.985	17607
462.037	18281
462.065	18674
462.105	22770
462.145	27205
462.173	33398
462.225	44892
462.241	48108
462.305	61971
462.310	59958
462.378	27510
462.385	23694
462.446	21151
462.465	20633
462.514	20592
462.545	20886
462.582	20811
462.625	20535
462.650	20051
462.705	18811
462.718	19632
462.785	24007
462.786	24132
462.854	31089
462.865	32194
462.922	34443
462.945	35422
462.990	27371
463.025	20587
463.058	19892
463.104	18979
463.126	19187
463.184	20389
463.194	20671
463.262	21816
463.264	21859
463.330	22070
463.344	22092
463.398	23429
463.424	23893
463.466	23571
463.504	23613
463.533	23918
463.583	23875
463.601	24621
463.663	27202
463.669	28034
463.737	37764
463.743	38609
463.805	53673
463.823	57945
463.873	81354
463.903	95855
463.940	91198
463.982	86120
464.008	68866
464.062	30407
464.076	29408
464.142	24347
464.144	24344
464.211	24299
464.221	24246
464.279	25380
464.301	25831
464.347	28713
464.381	30699
464.414	32726
464.461	35831
464.482	36347
464.540	37317
464.550	36965
464.617	33851
464.620	33696
464.685	38016
464.699	38951
464.753	44703
464.779	47492
464.820	50026
464.859	52178
464.888	50265
464.938	46716
464.956	46519
465.018	45432
465.023	45183
465.091	40884
465.098	40410
465.158	41637
465.177	41856
465.226	42485
465.257	42808
465.293	43604
465.336	44328
465.361	48126
465.416	56597
465.428	59656
465.495	75628
465.496	75933
465.563	103069
465.575	107641
465.631	111990
465.654	113632
465.698	76334
465.734	44853
465.765	43680
465.813	41864
465.833	42259
465.893	43437
465.900	43458
465.968	43087
465.972	42978
466.035	44850
466.052	45212
466.102	46860
466.131	47679
466.170	48033
466.210	48265
466.237	49677
466.290	52163
466.304	52338
466.369	52452
466.372	52653
466.439	55541
466.449	55852
466.506	61070
466.528	62867
466.573	82229
466.607	96541
466.641	122303
466.687	157717
466.708	163384
466.766	178004
466.775	166553
466.842	77567
466.845	73183
466.909	66389
466.925	64641
466.977	63802
467.004	63214
467.044	67346
467.083	71184
467.111	76265
467.163	85365
467.178	86135
467.242	88368
467.245	88161
467.312	79783
467.321	78493
467.379	77136
467.400	76393
467.446	78963
467.480	80511
467.559	70345
467.638	67621
467.717	70079
467.796	72677
467.875	75798
467.955	70377
468.034	103318
468.113	170638
468.192	207801
468.271	63665
468.350	57753
468.429	56748
468.508	55459
468.588	53982
468.667	57280
468.746	57900
468.825	56391
468.904	51500
468.983	62254
469.062	82969
469.141	87477
469.220	49529
469.299	52346
469.378	57681
469.456	67393
469.535	57293
469.614	56252
469.693	59331
469.772	68666
469.851	88521
469.930	57617
470.009	53300
470.088	52362
470.166	54700
470.245	61431
470.324	65092
470.403	60667
470.482	54034
470.560	53450
470.639	54073
470.718	60767
470.797	51137
470.875	61284
470.954	74802
471.033	70316
471.111	41693
471.190	42233
471.269	41064
471.347	42326
471.426	45619
471.505	53442
471.583	54762
471.662	50551
471.740	45797
471.819	47206
471.898	45268
471.976	43344
472.055	44311
472.133	50000
472.212	60884
472.290	59441
472.369	41759
472.447	42648
472.526	39972
472.604	46336
472.683	46652
472.761	47578
472.839	44706
472.918	42612
472.996	43509
473.075	48288
473.153	45139
473.231	43643
473.310	49377
473.388	45497
473.466	46150
473.545	54795
473.623	67396
473.701	61072
473.780	44360
473.858	42871
473.936	45921
474.014	41727
474.093	49762
474.171	65479
474.249	82342
474.327	48664
474.405	40723
474.484	41421
474.562	42289
474.640	43011
474.718	45924
474.796	46211
474.874	45030
474.952	42901
475.030	45364
475.108	46815
475.187	53256
475.265	56941
475.343	69032
475.421	68473
475.499	47324
475.577	48150
475.655	61544
475.733	101306
475.811	149710
475.889	133589
475.966	68854
476.044	43075
476.122	50581
476.200	57938
476.278	43432
476.356	38345
476.434	41692
476.512	47553
476.590	56466
476.667	47034
476.745	36928
476.823	39650
476.901	37310
476.979	38666
477.056	38342
477.134	41364
477.212	40676
477.290	36863
477.367	34508
477.445	34459
477.523	34675
477.601	35186
477.678	35737
477.756	41740
477.834	42295
477.911	34167
477.989	34400
478.066	33645
478.144	40683
478.222	44644
478.299	62256
478.377	51305
478.454	32750
478.532	32987
478.609	36265
478.687	37219
478.764	33703
478.842	37449
478.919	40249
478.997	34954
479.074	33717
479.152	38998
479.229	46327
479.307	31393
479.384	28699
479.461	28662
479.539	31472
479.616	37325
479.694	32105
479.771	37053
479.848	39581
479.926	49171
480.003	45366
480.080	32085
480.157	30207
480.235	29712
480.312	32105
480.389	37290
480.467	53287
480.544	58215
480.621	35005
480.698	35260
480.775	39261
480.853	37442
480.930	32736
481.007	35723
481.084	40916
481.161	44032
481.238	36360
481.315	29807
481.392	29566
481.470	31476
481.547	31385
481.624	29815
481.701	29376
481.778	32391
481.855	36581
481.932	53929
482.009	81245
482.086	42976
482.163	32070
482.240	47327
482.317	69360
482.393	47186
482.470	31097
482.547	31566
482.624	31177
482.701	32157
482.778	30969
482.855	28079
482.932	27420
483.009	27170
483.085	34291
483.162	39975
483.239	34843
483.316	27860
483.393	29819
483.469	29567
483.546	35801
483.623	34904
483.699	31599
483.776	32888
483.853	39424
483.930	62461
484.006	129789
484.083	187231
484.160	121577
484.236	179811
484.313	126014
484.389	100157
484.466	89652
484.543	87465
484.619	85670
484.696	90526
484.772	94349
484.849	95616
484.925	83860
485.002	84392
485.078	88419
485.155	87479
485.231	79760
485.308	78742
485.384	82875
485.461	101826
485.537	146145
485.614	139515
485.690	76488
485.766	75462
485.843	86499
485.919	112127
485.995	104644
486.072	72063
486.148	70398
486.224	71610
486.301	75342
486.377	85379
486.453	86975
486.530	87093
486.606	115327
486.682	119872
486.758	132092
486.835	136402
486.911	128213
486.987	188258
487.063	200387
487.139	246385
487.215	166098
487.292	89819
487.368	81285
487.444	90192
487.520	103875
487.596	90864
487.672	107287
487.748	174129
487.824	209560
487.900	110651
487.976	88206
488.052	91840
488.128	102710
488.204	84020
488.280	72595
488.356	96704
488.432	166478
488.508	198326
488.584	81306
488.660	72517
488.736	72280
488.812	80525
488.888	96127
488.964	139091
489.039	272427
489.115	348219
489.191	166869
489.267	73180
489.343	67716
489.418	58811
489.494	60735
489.570	58719
489.646	61714
489.722	60967
489.797	66008
489.873	104477
489.949	174590
490.024	113117
490.100	57321
490.176	63560
490.251	75437
490.327	91152
490.403	56437
490.478	54998
490.554	49895
490.629	52264
490.705	50183
490.781	57859
490.856	54997
490.932	64254
491.007	62500
491.083	60945
491.158	57306
491.234	83258
491.309	135918
491.385	109111
491.460	55630
491.536	61382
491.611	56096
491.686	64654
491.762	91179
491.837	174495
491.913	261877
491.988	365526
492.063	372600
492.139	101024
492.214	66698
492.289	45924
492.365	50258
492.440	57977
492.515	53480
492.590	52558
492.666	46282
492.741	66355
492.816	78699
492.891	50687
492.967	49016
493.042	48942
493.117	54049
493.192	64689
493.267	162260
493.342	444745
493.418	431102
493.493	64132
493.568	40928
493.643	45772
493.718	55624
493.793	75662
493.868	78609
493.943	53131
494.018	43505
494.093	40958
494.168	40329
494.243	39421
494.318	37266
494.393	38248
494.468	37062
494.543	38988
494.618	46588
494.693	39516
494.768	40199
494.842	40694
494.917	38611
494.992	42907
495.067	39616
495.142	40771
495.217	47436
495.292	45743
495.366	53899
495.441	58493
495.516	71226
495.591	127378
495.665	390076
495.740	706632
495.815	196889
495.890	62507
495.964	53053
496.039	56724
496.114	53346
496.188	59407
496.263	56847
496.338	51775
496.412	61512
496.487	67279
496.561	75150
496.636	73629
496.710	63653
496.785	68833
496.860	73842
496.934	64660
497.009	68089
497.083	69670
497.158	74362
497.232	85062
497.307	96374
497.381	88765
497.455	105682
497.530	118252
497.604	103028
497.679	114220
497.753	152222
497.827	168659
497.902	162006
497.976	196568
498.050	418138
498.125	1030635
498.199	681692
498.273	212336
498.348	190891
498.422	174364
498.496	168896
498.570	150694
498.645	130687
498.719	126349
498.793	130159
498.867	157646
498.941	206023
499.016	516250
499.090	931645
499.164	204329
499.238	82670
499.312	80611
499.386	91319
499.460	76466
499.534	70791
499.609	83031
499.683	99638
499.757	98082
499.831	259305
499.905	717243
499.979	402807
500.053	109751
500.127	113807
500.201	90792
500.275	61868
500.349	60356
500.422	66316
500.496	101738
500.570	220031
500.644	457634
500.718	571512
500.792	89901
500.866	60049
500.940	68389
501.013	55861
501.087	64101
501.161	104511
501.235	123261
501.309	282529
501.382	640426
501.456	341627
501.530	135816
501.603	188230
501.677	59309
501.751	43021
501.825	56812
501.898	117912
501.972	252258
502.046	97883
502.119	60575
502.193	145700
502.266	252669
502.340	91739
502.413	144589
502.487	203914
502.561	105012
502.634	44673
502.708	44727
502.781	38681
502.855	33683
502.928	31285
503.002	32362
503.075	31411
503.149	34706
503.222	34789
503.295	38339
503.369	44130
503.442	74549
503.516	234388
503.589	434400
503.662	204342
503.736	103038
503.809	215617
503.882	149403
503.956	256479
504.029	154738
504.102	108162
504.175	101326
504.249	48959
504.322	48086
504.395	39554
504.468	32039
504.542	31965
504.615	26752
504.688	25011
504.761	27320
504.834	34842
504.907	50367
504.980	65149
505.053	37241
505.127	51060
505.200	44671
505.273	43106
505.346	27067
505.419	25758
505.492	24748
505.565	21614
505.638	23108
505.711	23358
505.784	22876
505.857	21420
505.930	25515
506.003	23547
506.076	28947
506.149	35846
506.221	37507
506.294	44235
506.367	133610
506.440	318817
506.513	97109
506.586	42228
506.659	27076
506.731	27318
506.804	37955
506.877	47110
506.950	29274
507.022	26350
507.095	34239
507.168	34802
507.241	26591
507.313	25361
507.386	31941
507.459	37405
507.531	26640
507.604	24466
507.677	23768
507.749	23544
507.822	39837
507.894	74239
507.967	70697
508.040	41377
508.112	38573
508.185	35847
508.257	40418
508.330	51110
508.402	35306
508.475	36827
508.547	36351
508.620	40622
508.692	52020
508.765	34579
508.837	30528
508.909	30191
508.982	32124
509.054	35367
509.127	30794
509.199	29088
509.271	28152
509.344	27853
509.416	30010
509.488	29994
509.560	31824
509.633	35659
509.705	40667
509.777	41489
509.849	52782
509.922	38830
509.994	34208
510.066	35426
510.138	45682
510.210	72743
510.283	57864
510.355	48887
510.427	46203
510.499	44340
510.571	43704
510.643	44076
510.715	68416
510.787	49777
510.859	43438
510.931	50596
511.003	65423
511.076	49389
511.148	38454
511.219	43578
511.291	63874
511.363	55846
511.435	39148
511.507	36408
511.579	36542
511.651	36947
511.723	35147
511.795	34064
511.867	35927
511.939	46630
512.010	76039
512.082	48817
512.154	36298
512.226	39834
512.298	64429
512.369	73960
512.441	56985
512.513	55173
512.585	46547
512.656	48796
512.728	48445
512.800	39996
512.871	39772
512.943	39319
513.015	36537
513.086	40003
513.158	42999
513.230	46978
513.301	62004
513.373	57859
513.444	40807
513.516	35694
513.588	37608
513.659	41423
513.731	47883
513.802	49192
513.874	103089
513.945	131461
514.016	43506
514.088	37745
514.159	44930
514.231	58594
514.302	67537
514.374	50160
514.445	53819
514.516	84199
514.588	53380
514.659	53216
514.730	78549
514.802	61482
514.873	66124
514.944	67921
515.016	63928
515.087	63155
515.158	77244
515.229	79355
515.301	75568
515.372	93345
515.443	75021
515.514	59263
515.585	49097
515.656	44323
515.728	39676
515.799	38557
515.870	41207
515.941	40163
516.012	44406
516.083	54923
516.154	58229
516.225	66680
516.296	61461
516.367	53035
516.438	58901
516.509	69529
516.580	110349
516.651	330738
516.722	814572
516.793	227378
516.864	93670
516.935	80022
517.006	89865
517.077	137400
517.148	331855
517.219	964117
517.289	960326
517.360	341555
517.431	90375
517.502	55646
517.573	53348
517.643	54991
517.714	60913
517.785	57581
517.856	59757
517.926	66947
517.997	72332
518.068	82055
518.138	101415
518.209	191936
518.280	758136
518.350	1716264
518.421	416261
518.492	90939
518.562	67160
518.633	64529
518.703	61412
518.774	81427
518.845	116847
518.915	91467
518.986	63621
519.056	74317
519.127	132724
519.197	205905
519.268	363464
519.338	126700
519.408	65885
519.479	83539
519.549	51830
519.620	39815
519.690	33545
519.760	34659
519.831	39684
519.901	35074
519.971	32380
520.042	35622
520.112	41513
520.182	49619
520.253	48810
520.323	40370
520.393	66739
520.463	74754
520.534	74331
520.604	104055
520.674	45606
520.744	66237
520.814	144092
520.885	88147
520.955	161585
521.025	365000
521.095	73947
521.165	36535
521.235	33695
521.305	31620
521.375	31204
521.445	38600
521.515	48254
521.585	57137
521.655	44758
521.725	43574
521.795	36957
521.865	31494
521.935	47693
522.005	33941
522.075	27708
522.145	33711
522.215	37525
522.285	47527
522.355	69856
522.424	110562
522.494	79005
522.564	58105
522.634	152601
522.704	300991
522.774	67490
522.843	35176
522.913	37576
522.983	43500
523.053	32685
523.122	36116
523.192	66369
523.262	204717
523.331	119353
523.401	33065
523.471	26888
523.540	29055
523.610	22491
523.680	24009
523.749	26243
523.819	32288
523.888	27608
523.958	24694
524.027	26321
524.097	27388
524.166	26756
524.236	30685
524.305	27452
524.375	23182
524.444	23278
524.514	26937
524.583	29050
524.653	34285
524.722	33760
524.791	24149
524.861	25262
524.930	24061
524.999	29754
525.069	35897
525.138	31087
525.207	33248
525.277	26279
525.346	26938
525.415	26084
525.484	27364
525.554	30242
525.623	27917
525.692	26953
525.761	28543
525.830	27747
525.900	30921
525.969	42364
526.038	54452
526.107	104225
526.176	206482
526.245	134658
526.314	89284
526.383	145248
526.452	152352
526.522	296434
526.591	233944
526.660	141269
526.729	66781
526.797	87195
526.867	267772
526.935	851035
527.004	726484
527.073	226019
527.142	45852
527.211	35224
527.280	41332
527.349	35877
527.418	23707
527.487	24972
527.555	22780
527.624	21357
527.693	19005
527.762	22779
527.831	19794
527.899	22543
527.968	21373
528.037	22767
528.106	32713
528.174	53550
528.243	39582
528.312	71548
528.380	63334
528.449	24037
528.518	21638
528.586	16316
528.655	18558
528.723	18825
528.792	19066
528.861	20638
528.929	17250
528.998	19131
529.066	18760
529.135	19169
529.203	18390
529.272	19296
529.340	20846
529.409	22689
529.477	21007
529.545	28442
529.614	28957
529.682	36662
529.751	33332
529.819	39708
529.887	25411
529.956	23154
530.024	23097
530.092	21291
530.161	31202
530.229	42628
530.297	24483
530.365	21619
530.434	21356
530.502	20564
530.570	20719
530.638	18944
530.707	23854
530.775	23293
530.843	19664
530.911	19948
530.979	19350
531.047	21827
531.115	21463
531.183	20800
531.252	21265
531.320	21472
531.388	20366
531.456	21393
531.524	19956
531.592	23501
531.660	25715
531.728	22602
531.796	22499
531.864	22564
531.932	24035
532.000	24690
532.067	26079
532.135	28109
532.203	34783
532.271	39833
532.339	76011
532.407	147349
532.475	63526
532.542	41038
532.610	44984
532.678	82253
532.746	342439
532.814	452266
532.881	80735
532.949	33425
533.017	28649
533.084	26396
533.152	25269
533.220	27049
533.287	29381
533.355	23636
533.423	25536
533.490	23542
533.558	25334
533.625	28779
533.693	29108
533.761	28863
533.828	32121
533.896	38031
533.963	68218
534.031	77374
534.098	88826
534.166	41042
534.233	34958
534.300	38229
534.368	36773
534.435	33535
534.503	32652
534.570	34504
534.637	29727
534.705	27659
534.772	32260
534.840	47262
534.907	127282
534.974	88732
535.041	31907
535.109	31628
535.176	23369
535.243	24868
535.310	26961
535.378	23662
535.445	22140
535.512	22824
535.579	24174
535.646	22681
535.714	27145
535.781	32734
535.848	30936
535.915	36630
535.982	38596
536.049	37780
536.116	36431
536.183	33688
536.250	33163
536.317	33538
536.384	39258
536.451	51167
536.518	46920
536.585	37357
536.652	49854
536.719	57384
536.786	43000
536.853	40476
536.920	58217
536.987	77530
537.053	100659
537.120	343800
537.187	131840
537.254	28763
537.321	24640
537.388	25388
537.454	21471
537.521	22473
537.588	22684
537.654	28713
537.721	30366
537.788	27416
537.855	24715
537.921	25553
537.988	24291
538.055	25480
538.121	24588
538.188	32261
538.254	55012
538.321	76077
538.388	38014
538.454	25027
538.521	22936
538.587	21746
538.654	22183
538.720	21565
538.787	22487
538.853	25507
538.920	30461
538.986	28768
539.053	25573
539.119	26409
539.185	26444
539.252	36309
539.318	47629
539.385	34638
539.451	33058
539.517	31932
539.583	44146
539.650	127591
539.716	180607
539.782	36644
539.849	26408
539.915	28328
539.981	30460
540.047	34535
540.114	30437
540.180	32168
540.246	31776
540.312	50057
540.378	82389
540.444	68756
540.510	132063
540.576	211631
540.643	40883
540.709	25323
540.775	26343
540.841	28771
540.907	42392
540.973	54550
541.039	49187
541.105	42946
541.171	28332
541.237	27107
541.303	28752
541.369	36176
541.435	50471
541.500	64590
541.566	34466
541.632	24571
541.698	22346
541.764	23951
541.830	22370
541.896	23341
541.961	24601
542.027	25213
542.093	25920
542.159	29507
542.224	34731
542.290	53821
542.356	76932
542.421	62034
542.487	36103
542.553	31535
542.618	30401
542.684	26277
542.750	27471
542.815	37027
542.881	81293
542.947	233207
543.012	79961
543.078	26543
543.143	25631
543.209	28430
543.274	28332
543.340	39408
543.405	106635
543.471	90890
543.536	26008
543.602	24647
543.667	23033
543.732	23886
543.798	24256
543.863	25112
543.928	21787
543.994	22474
544.059	21968
544.124	22951
544.190	23303
544.255	24253
544.320	26107
544.386	29043
544.451	38857
544.516	40141
544.581	54109
544.646	172820
544.712	137354
544.777	32704
544.842	31860
544.907	30567
544.972	26603
545.037	28341
545.102	30522
545.168	28967
545.233	30992
545.298	34586
545.363	38876
545.428	46797
545.493	100751
545.558	149281
545.623	41134
545.688	30206
545.753	27703
545.818	28175
545.883	29463
545.947	27883
546.012	31953
546.077	30090
546.142	30618
546.207	33516
546.272	41723
546.337	39182
546.401	33008
546.466	31570
546.531	27892
546.596	32359
546.661	30480
546.725	29567
546.790	27868
546.855	28740
546.919	27608
546.984	31012
547.049	31992
547.113	35332
547.178	32225
547.243	37620
547.307	40532
547.372	46927
547.436	43381
547.501	37546
547.565	42926
547.630	50810
547.695	46266
547.759	47211
547.823	39775
547.888	36856
547.952	36647
548.017	40552
548.081	48757
548.146	54580
548.210	42848
548.274	37551
548.339	35786
548.403	35877
548.468	34575
548.532	35643
548.596	36454
548.660	35489
548.725	41563
548.789	47423
548.853	43952
548.917	42387
548.982	53984
549.046	42786
549.110	35489
549.174	34666
549.238	35226
549.303	37711
549.367	38653
549.431	36716
549.495	34888
549.559	35628
549.623	41201
549.687	52773
549.751	60319
549.815	46434
549.879	43757
549.943	43308
550.007	47146
550.071	50063
550.135	55423
550.199	43648
550.263	41348
550.327	47565
550.391	54850
550.455	44577
550.519	45103
550.582	51421
550.646	72595
550.710	58215
550.774	48390
550.838	49025
550.901	50214
550.965	54248
551.029	55190
551.093	63432
551.156	80526
551.220	127374
551.284	94527
551.347	78596
551.411	146127
551.475	93721
551.538	52018
551.602	46789
551.666	45460
551.729	42531
551.793	44225
551.856	45994
551.920	47039
551.983	45422
552.047	42917
552.110	42417
552.174	42760
552.237	43095
552.301	39706
552.364	41181
552.428	40116
552.491	41879
552.554	43315
552.618	43265
552.681	44370
552.745	48757
552.808	62896
552.871	72061
552.934	54601
552.998	49459
553.061	49672
553.124	46968
553.187	48959
553.251	52089
553.314	55609
553.377	67040
553.440	127498
553.503	416303
553.567	335435
553.630	62023
553.693	47480
553.756	45006
553.819	41516
553.882	39296
553.945	39413
554.008	38130
554.071	37920
554.134	38345
554.197	37086
554.260	37246
554.323	40995
554.386	40866
554.449	38278
554.512	39270
554.575	37257
554.638	38880
554.701	37374
554.764	36326
554.827	35588
554.889	32707
554.952	32368
555.015	32752
555.078	32818
555.141	33228
555.203	32320
555.266	34739
555.329	34282
555.391	33311
555.454	35767
555.517	34047
555.580	30957
555.642	30721
555.705	31001
555.768	31901
555.830	30537
555.893	29006
555.955	29948
556.018	29953
556.080	30889
556.143	30866
556.206	31159
556.268	32748
556.330	33453
556.393	32089
556.455	34042
556.518	46767
556.580	37297
556.643	28282
556.705	29391
556.767	28726
556.830	30515
556.892	40486
556.955	54361
557.017	33641
557.079	28997
557.142	31497
557.204	42377
557.266	76116
557.328	43456
557.391	26993
557.453	26476
557.515	28587
557.577	37753
557.639	32144
557.701	26876
557.764	25561
557.826	27645
557.888	28687
557.950	28125
558.012	31821
558.074	40951
558.136	86676
558.198	118272
558.260	43556
558.322	33600
558.384	37395
558.446	39730
558.508	44895
558.570	58719
558.632	106908
558.694	120484
558.756	138167
558.818	427627
558.880	576752
558.942	140609
559.003	133749
559.065	54402
559.127	41223
559.189	40686
559.251	47778
559.312	74585
559.374	201231
559.436	405099
559.498	110392
559.559	42034
559.621	40762
559.683	52119
559.744	95150
559.806	253017
559.868	199462
559.929	48537
559.991	45769
560.052	74252
560.114	132447
560.176	69414
560.237	108389
560.299	102689
560.360	33393
560.422	26893
560.483	27229
560.545	26226
560.606	26037
560.667	24747
560.729	24748
560.790	23344
560.852	25062
560.913	23994
560.974	24166
561.036	23884
561.097	24933
561.158	24448
561.220	25932
561.281	26542
561.342	28915
561.403	35441
561.465	52917
561.526	120372
561.587	96892
561.648	31383
561.709	27300
561.771	26501
561.832	27187
561.893	26226
561.954	25501
562.015	25181
562.076	26123
562.137	25014
562.198	25478
562.259	26965
562.320	28171
562.381	33817
562.442	42382
562.503	29681
562.564	25953
562.625	25996
562.686	25896
562.747	28610
562.808	25742
562.869	26796
562.930	30596
562.991	28323
563.051	28051
563.112	25604
563.173	26081
563.234	24957
563.294	25917
563.355	27579
563.416	26674
563.477	26586
563.537	27444
563.598	28339
563.659	28028
563.720	28022
563.780	30204
563.841	29547
563.901	26805
563.962	26881
564.023	28166
564.083	27842
564.144	28995
564.204	28275
564.265	30293
564.325	37002
564.386	58482
564.446	36975
564.507	28643
564.567	29499
564.628	28372
564.688	29457
564.749	29142
564.809	33812
564.869	36008
564.930	31032
564.990	30461
565.050	29995
565.111	30470
565.171	29930
565.231	30398
565.292	31002
565.352	30984
565.412	32224
565.472	33641
565.532	35018
565.593	33814
565.653	33932
565.713	36710
565.773	39173
565.833	46990
565.893	47714
565.953	37122
566.013	39039
566.074	41692
566.134	51023
566.194	66288
566.254	62521
566.314	50112
566.374	46946
566.434	48273
566.494	49028
566.554	50728
566.614	53607
566.673	55365
566.733	58829
566.793	62054
566.853	64475
566.913	65309
566.973	64664
567.033	67309
567.092	65666
567.152	65711
567.212	67401
567.272	70640
567.331	73976
567.391	74241
567.451	78994
567.511	87114
567.570	79538
567.630	68114
567.690	69305
567.749	70963
567.809	76503
567.868	86651
567.928	97177
567.988	110638
568.047	127152
568.107	158914
568.166	205659
568.226	281127
568.285	339157
568.345	323081
568.404	295838
568.464	274078
568.523	265331
568.582	268721
568.642	296494
568.701	349377
568.761	456633
568.820	580185
568.879	566654
568.939	493021
568.998	410992
569.057	344762
569.116	292354
569.176	249211
569.235	214287
569.294	186892
569.353	164252
569.413	145150
569.472	130236
569.531	117336
569.590	106140
569.649	98145
569.708	89096
569.767	86128
569.827	84697
569.886	71768
569.945	67083
570.004	63679
570.063	60315
570.122	59640
570.181	57084
570.240	57785
570.299	55874
570.358	53401
570.417	46354
570.475	45162
570.534	45710
570.593	45453
570.652	44574
570.711	43840
570.770	40577
570.829	41379
570.887	43365
570.946	42254
571.005	34833
571.064	35899
571.122	37179
571.181	37121
571.240	32176
571.299	32483
571.357	34202
571.416	33154
571.475	36614
571.533	33811
571.592	31009
571.650	30912
571.709	28450
571.768	30097
571.826	28482
571.885	27394
571.943	28739
572.002	27993
572.060	28363
572.119	25402
572.177	25240
572.236	25314
572.294	25353
572.352	25973
572.411	25720
572.469	25507
572.528	24704
572.586	26433
572.644	31524
572.703	34029
572.761	25380
572.819	25186
572.877	24948
572.936	24157
572.994	23630
573.052	24857
573.110	25071
573.169	24635
573.227	23355
573.285	22786
573.343	22762
573.401	23970
573.459	22368
573.517	22808
573.576	22400
573.634	23798
573.692	24429
573.750	22953
573.808	22220
573.866	25190
573.924	28334
573.982	25382
574.040	22180
574.098	21887
574.155	21408
574.213	22232
574.271	22675
574.329	22538
574.387	22199
574.445	21780
574.503	20353
574.560	20862
574.618	20580
574.676	20536
574.734	21219
574.792	20467
574.849	21925
574.907	19301
574.965	20186
575.022	20316
575.080	20351
575.138	21636
575.195	21912
575.253	22765
575.311	23683
575.368	21274
575.426	20127
575.483	20265
575.541	21493
575.598	20691
575.656	21282
575.713	21346
575.771	20872
575.828	20902
575.886	21915
575.943	22212
576.001	22508
576.058	21868
576.115	23122
576.173	25407
576.230	28644
576.287	30770
576.345	25537
576.402	22583
576.459	22905
576.517	23699
576.574	23902
576.631	24635
576.688	22297
576.746	22453
576.803	21610
576.860	21483
576.917	22846
576.974	22290
577.031	21762
577.089	22977
577.146	22706
577.203	23547
577.260	25321
577.317	25158
577.374	26603
577.431	25936
577.488	23837
577.545	23697
577.602	24953
577.659	26432
577.716	28256
577.773	30209
577.830	26742
577.886	26147
577.943	25727
578.000	27358
578.057	28384
578.114	32141
578.171	38004
578.227	45775
578.284	42024
578.341	38434
578.398	34431
578.454	32764
578.511	32237
578.568	31751
578.625	28627
578.681	26376
578.738	26188
578.794	26329
578.851	25220
578.908	26316
578.964	27800
579.021	26891
579.077	26625
579.134	25794
579.190	23769
579.247	24619
579.303	23804
579.360	24583
579.416	24061
579.473	24058
579.529	25116
579.586	26833
579.642	26925
579.698	27195
579.755	28606
579.811	29269
579.867	29496
579.924	32022
579.980	33482
580.036	40777
580.093	49809
580.149	66767
580.205	66184
580.261	56430
580.317	49060
580.374	43249
580.430	41577
580.486	39701
580.542	35687
580.598	33835
580.619	33193
580.654	32126
580.692	30999
580.710	30509
580.765	31730
580.767	31815
580.823	30270
580.838	30079
580.879	29718
580.911	29860
580.935	30042
580.984	29463
580.991	29431
581.047	30867
581.057	30959
581.103	31547
581.130	32592
581.159	33793
581.203	35653
581.215	36197
581.270	34386
581.276	34149
581.326	32325
581.349	31891
581.382	31328
581.422	31238
581.438	31248
581.494	30195
581.494	30168
581.550	30921
581.567	30864
581.606	30847
581.640	29653
581.661	28914
581.713	28770
581.717	28802
581.773	28513
581.786	28705
581.829	29298
581.859	29085
581.885	29060
581.932	29004
581.940	29000
581.996	28174
582.004	28242
582.052	28739
582.077	28787
582.107	28870
582.150	29070
582.163	29186
582.219	28570
582.223	28661
582.274	29980
582.296	30027
582.330	30133
582.368	29682
582.386	29559
582.441	28685
582.441	28699
582.497	30511
582.514	30950
582.552	32106
582.587	33725
582.608	34612
582.659	32097
582.663	31925
582.719	30784
582.732	30589
582.774	30095
582.805	30604
582.830	31028
582.877	31443
582.885	31498
582.941	31934
582.950	32232
582.996	33924
583.023	34978
583.052	36274
583.095	38331
583.107	38860
583.162	44553
583.168	44606
583.218	45136
583.240	43941
583.273	41928
583.313	39040
583.328	38060
583.384	37654
583.385	37571
583.439	34813
583.458	34569
583.494	34203
583.531	33865
583.549	33786
583.603	33436
583.605	33409
583.660	32399
583.676	32672
583.715	33522
583.748	33542
583.770	33511
583.820	33684
583.825	33683
583.881	33648
583.893	33696
583.936	34011
583.965	33337
583.991	32601
584.038	33789
584.046	33972
584.101	32847
584.110	33051
584.156	34321
584.183	33962
584.211	33341
584.255	33299
584.266	33309
584.321	32998
584.328	33192
584.376	34603
584.400	34697
584.431	34658
584.472	34357
584.486	34235
584.541	34270
584.545	34350
584.596	34942
584.617	35090
584.651	35931
584.689	37177
584.706	37330
584.761	36655
584.762	36685
584.816	37093
584.834	37570
584.871	38152
584.906	38895
584.926	39235
584.978	38690
584.980	38645
585.035	39793
585.051	40491
585.090	41984
585.123	42669
585.145	42993
585.195	43556
585.200	43670
585.254	47785
585.267	49333
585.309	54368
585.340	56294
585.364	56543
585.412	51993
585.419	51239
585.473	52338
585.484	52919
585.528	57063
585.556	62027
585.583	69042
585.628	87970
585.637	93683
585.692	149468
585.700	155613
585.747	177037
585.772	153544
585.801	108460
585.845	68166
585.856	62911
585.910	55220
585.917	54547
585.965	52749
585.989	52361
586.019	51786
586.061	52204
586.074	52361
586.128	53617
586.133	53781
586.183	54768
586.205	55448
586.237	55577
586.277	55129
586.292	54826
586.346	56278
586.349	56466
586.401	58587
586.421	59702
586.455	60581
586.493	62893
586.509	64390
586.564	71903
586.565	72332
586.618	84766
586.637	82562
586.672	73734
586.709	69704
586.727	68001
586.781	69245
586.781	69080
586.835	70566
586.853	71261
586.889	71650
586.925	72323
586.944	72668
586.996	75518
586.998	75383
587.052	78559
587.068	79710
587.106	81510
587.140	83260
587.161	84018
587.212	88349
587.215	88293
587.269	92564
587.284	93935
587.323	96249
587.356	98853
587.377	100156
587.427	106015
587.431	106036
587.485	111114
587.499	112987
587.539	117422
587.571	121703
587.593	123948
587.643	132429
587.648	132757
587.702	141017
587.715	144029
587.755	151238
587.786	157722
587.810	161711
587.858	173590
587.864	174300
587.917	188888
587.930	193561
587.971	205659
588.001	216950
588.025	224965
588.073	244030
588.079	245569
588.133	272874
588.145	280458
588.187	301751
588.217	321071
588.241	336596
588.288	377563
588.295	381438
588.348	431861
588.360	445588
588.402	492520
588.431	532651
588.456	564417
588.503	642523
588.510	651660
588.564	759754
588.575	788034
588.617	898675
588.646	985431
588.671	1072173
588.718	1248675
588.725	1281362
588.778	1545831
588.789	1591848
588.832	1833533
588.861	1964106
588.886	2007152
588.932	2033884
588.939	2006312
588.993	1942277
589.004	1965053
589.047	2103700
589.075	2121036
589.100	1975457
589.147	1623378
589.154	1586336
589.207	1305034
589.218	1256944
589.261	1164919
589.290	1129666
589.314	1139892
589.361	1201318
589.368	1222941
589.421	1448528
589.433	1493843
589.475	1753990
589.504	1890419
589.528	1892018
589.576	1941764
589.582	1921359
589.635	1911874
589.647	1878966
589.689	1535012
589.718	1244689
589.742	1086221
589.790	787499
589.795	762525
589.849	588820
589.861	555846
589.902	472105
589.932	420578
589.955	384279
590.004	324817
590.009	317818
590.062	274163
590.075	266202
590.115	238102
590.146	221195
590.168	208465
590.218	189248
590.222	186351
590.275	167695
590.289	164519
590.328	152346
590.360	145223
590.381	139040
590.431	129438
590.435	127719
590.488	115704
590.503	113650
590.541	106941
590.574	103223
590.594	99568
590.645	93444
590.647	92424
590.700	85993
590.716	85103
590.753	80637
590.787	78035
590.806	75766
590.859	72052
590.859	71357
590.912	67030
590.930	66564
590.965	63623
591.001	61781
591.018	60264
591.071	57277
591.072	57774
591.124	54965
591.143	54662
591.177	52473
591.214	51324
591.230	50790
591.283	50731
591.285	51178
591.336	49130
591.356	48885
591.389	48001
591.427	47652
591.442	45936
591.495	41412
591.498	41481
591.547	39993
591.569	39917
591.600	38684
591.640	37928
591.653	37290
591.706	36329
591.711	36583
591.759	35455
591.782	35523
591.811	35341
591.853	35752
591.864	34919
591.917	32359
591.924	32352
591.969	31582
591.995	31711
592.022	30947
592.066	30416
592.075	30242
592.127	31268
592.137	31782
592.180	31449
592.208	31573
592.233	29938
592.279	27824
592.285	27322
592.338	25571
592.350	25463
592.390	24977
592.421	25114
592.443	24623
592.491	24442
592.495	24186
592.548	24434
592.562	24765
592.600	24006
592.633	23848
592.653	23185
592.704	22023
592.705	22150
592.775	22601
592.846	22868
592.916	23295
592.987	24824
593.058	22366
593.128	21187
593.199	21134
593.270	20334
593.341	18960
593.411	21536
593.482	20140
593.553	20535
593.623	18699
593.694	19670
593.764	19516
593.835	18375
593.906	18328
593.976	18701
594.047	18423
594.117	20906
594.188	19576
594.258	17398
594.329	17466
594.399	18355
594.470	17376
594.540	18191
594.611	17532
594.681	17504
594.751	18124
594.822	19664
594.892	20133
594.963	18660
595.033	18592
595.103	18895
595.174	18619
595.244	24718
595.314	27037
595.384	18430
595.455	17090
595.525	19103
595.595	18166
595.665	18028
595.736	18029
595.806	17895
595.876	16814
595.946	16851
596.016	16458
596.087	17199
596.157	17801
596.227	16730
596.297	17853
596.367	19070
596.437	20905
596.507	23164
596.577	26786
596.647	19776
596.717	18479
596.787	19122
596.857	19282
596.927	19615
596.997	19902
597.067	20242
597.137	23000
597.207	20662
597.277	19018
597.347	18137
597.417	18634
597.487	19910
597.557	20473
597.626	20267
597.696	20816
597.766	22934
597.836	26148
597.906	19815
597.975	17569
598.045	17727
598.115	18412
598.185	19671
598.254	20985
598.324	24854
598.394	23544
598.464	23784
598.533	21414
598.603	20208
598.672	20409
598.742	20324
598.812	19482
598.881	19727
598.951	20108
599.020	20094
599.090	20142
599.159	19765
599.229	19058
599.299	18939
599.368	19951
599.437	19429
599.507	19485
599.576	20285
599.646	20751
599.715	21710
599.785	18284
599.854	19238
599.924	19579
599.993	18119
600.062	17666
600.132	17942
600.201	19957
600.270	21948
600.340	21436
600.409	20182
600.478	20660
600.547	20536
600.617	19869
600.686	18747
600.755	17716
600.824	20065
600.894	18242
600.963	16829
601.032	16710
601.101	16400
601.170	15366
601.239	16571
601.308	17269
601.378	17573
601.447	16295
601.516	16561
601.585	17692
601.654	19379
601.723	17260
601.792	17344
601.861	18982
601.930	24019
601.999	23338
602.068	20006
602.137	21783
602.206	21823
602.275	19998
602.343	24728
602.412	24259
602.481	18823
602.550	18509
602.619	18962
602.688	19377
602.756	18367
602.825	18665
602.894	18569
602.963	17858
603.032	18978
603.100	18141
603.169	19374
603.238	17875
603.307	18746
603.375	18081
603.444	18311
603.513	18988
603.581	17870
603.650	18836
603.719	17811
603.787	17472
603.856	19287
603.924	18880
603.993	20103
604.061	19171
604.130	20915
604.198	21174
604.267	20752
604.335	19679
604.404	20648
604.472	21317
604.541	21797
604.609	20972
604.678	22698
604.746	21913
604.815	21367
604.883	21859
604.951	22292
605.020	22010
605.088	22245
605.156	22167
605.225	22053
605.293	22128
605.361	22973
605.429	22549
605.498	24351
605.566	25102
605.634	24889
605.702	24071
605.771	25293
605.839	24828
605.907	23910
605.975	24215
606.043	24268
606.111	24010
606.180	25623
606.248	28132
606.316	29565
606.384	23725
606.452	27223
606.520	30919
606.588	24488
606.656	21339
606.724	22089
606.792	20345
606.860	18304
606.928	16914
606.996	17569
607.064	17235
607.132	16956
607.200	18756
607.267	19255
607.335	18133
607.403	19151
607.471	18270
607.539	18088
607.607	18834
607.674	17114
607.742	19046
607.810	19451
607.878	18664
607.946	17153
608.013	18016
608.081	18413
608.149	19222
608.216	18762
608.284	19035
608.352	19129
608.419	19183
608.487	23736
608.555	19049
608.622	19248
608.690	19151
608.757	21516
608.825	21373
608.893	22029
608.960	23203
609.028	23855
609.095	24001
609.163	20064
609.230	18364
609.298	17687
609.365	16866
609.432	19435
609.500	20233
609.567	22723
609.635	24755
609.702	25432
609.769	25160
609.837	22763
609.904	20161
609.971	20959
610.039	28230
610.106	40939
610.173	86003
610.241	210995
610.308	172939
610.375	79716
610.442	29521
610.509	22714
610.577	20242
610.644	20035
610.711	20271
610.778	20926
610.845	21050
610.912	22157
610.980	25520
611.047	33637
611.114	26094
611.181	21803
611.248	19883
611.315	22562
611.382	21349
611.449	22757
611.516	23361
611.583	23302
611.650	22766
611.717	23963
611.784	24266
611.851	26291
611.918	31312
611.984	39725
612.051	67232
612.118	161406
612.185	428317
612.252	266100
612.319	52081
612.386	34170
612.452	29108
612.519	28441
612.586	30997
612.653	27187
612.719	28024
612.786	26114
612.853	22454
612.919	23198
612.986	24093
613.053	22093
613.120	20527
613.186	20970
613.253	21996
613.319	20527
613.386	20601
613.453	21939
613.519	24381
613.586	30888
613.652	42394
613.719	35864
613.785	31403
613.852	22763
613.918	22842
613.985	31204
614.051	49361
614.118	111201
614.184	103971
614.250	29915
614.317	23453
614.383	22010
614.449	20313
614.516	22301
614.582	22137
614.648	20671
614.715	21133
614.781	21454
614.847	19957
614.914	21955
614.980	20754
615.046	22227
615.112	21665
615.179	24147
615.245	26255
615.311	34277
615.377	52582
615.443	62665
615.509	36846
615.575	29541
615.642	26747
615.708	28292
615.774	31398
615.840	35631
615.906	48394
615.972	77574
616.038	156935
616.104	288786
616.170	594926
616.236	498849
616.302	95454
616.368	56446
616.434	38150
616.500	34764
616.565	36950
616.631	46005
616.697	36328
616.763	37680
616.829	59349
616.895	111646
616.961	109437
617.026	47705
617.092	26578
617.158	24432
617.224	22869
617.289	21616
617.355	20256
617.421	19046
617.487	20494
617.552	18990
617.618	17024
617.684	17450
617.749	19814
617.815	16792
617.880	16607
617.946	16794
618.012	18170
618.077	18169
618.143	17910
618.208	18172
618.274	18806
618.339	18978
618.405	15207
618.470	17418
618.536	16344
618.601	18035
618.667	15022
618.732	16174
618.798	15202
618.863	15079
618.928	13850
618.994	17394
619.059	19566
619.124	28622
619.190	19966
619.255	14236
619.320	14965
619.386	14496
619.451	13648
619.516	14294
619.581	14748
619.647	15392
619.712	13481
619.777	13808
619.842	13857
619.907	14542
619.972	15672
620.038	15454
620.103	13588
620.168	13120
620.233	14735
620.298	14477
620.363	15010
620.428	15080
620.493	14845
620.558	14672
620.623	13910
620.688	14744
620.753	14579
620.818	14520
620.883	15382
620.948	15347
621.013	14384
621.078	15346
621.143	13381
621.207	17154
621.272	16009
621.337	17487
621.402	17056
621.467	18903
621.532	18962
621.596	16812
621.661	15325
621.726	15619
621.791	14720
621.855	16871
621.920	17338
621.985	16096
622.049	18456
622.114	17177
622.179	16367
622.243	16320
622.308	15248
622.373	18472
622.437	17158
622.502	16132
622.566	15868
622.631	14588
622.695	17289
622.760	16158
622.824	16104
622.889	17658
622.953	20075
623.018	33380
623.082	30382
623.147	18389
623.211	18578
623.276	18614
623.340	15619
623.404	15286
623.469	14565
623.533	16763
623.597	14921
623.662	15070
623.726	13851
623.790	13895
623.854	13594
623.919	14098
623.983	13176
624.047	14952
624.111	14053
624.176	14496
624.240	14658
624.304	16797
624.368	13803
624.432	14922
624.496	15484
624.560	19598
624.625	21052
624.689	16704
624.753	14838
624.817	14888
624.881	13337
624.945	13840
625.009	13727
625.073	14793
625.137	15560
625.201	23202
625.265	20822
625.329	15403
625.393	16389
625.456	15292
625.520	14489
625.584	17512
625.648	18346
625.712	25400
625.776	48831
625.839	55326
625.903	23997
625.967	15605
626.031	22994
626.095	33396
626.158	16652
626.222	10946
626.286	11455
626.349	10132
626.413	9247
626.477	14298
626.540	11608
626.604	10165
626.668	11205
626.731	9959
626.795	9603
626.858	10638
626.922	9986
626.986	10907
627.049	8504
627.113	11345
627.176	10265
627.240	9216
627.303	10291
627.366	10346
627.430	9910
627.493	9777
627.557	8565
627.620	9772
627.684	9989
627.747	10158
627.810	7607
627.874	9551
627.937	7584
628.000	10614
628.064	9463
628.127	6945
628.190	8940
628.253	7851
628.317	7601
628.380	8256
628.443	7504
628.506	7701
628.569	8652
628.632	7378
628.696	7694
628.759	7015
628.822	7092
628.885	6706
628.948	7393
629.011	7800
629.074	7728
629.137	6859
629.200	6819
629.263	9544
629.326	5618
629.389	6527
629.452	7390
629.515	7391
629.578	6692
629.641	8428
629.704	7334
629.767	8502
629.830	7377
629.892	6958
629.955	6390
630.018	9830
630.081	10583
630.144	15461
630.207	9018
630.269	9060
630.332	7908
630.395	7148
630.458	6646
630.520	5506
630.583	7515
630.646	7468
630.708	6411
630.771	5430
630.834	7142
630.896	5805
630.959	6139
631.021	5390
631.084	6709
631.146	7688
631.209	8661
631.272	6308
631.334	6656
631.397	7483
631.459	6367
631.522	8699
631.584	6512
631.646	8197
631.709	9455
631.771	12942
631.834	8424
631.896	6984
631.958	6279
632.021	7488
632.083	5651
632.145	5661
632.208	6696
632.270	6916
632.332	5497
632.395	5846
632.457	6490
632.519	5893
632.581	6853
632.643	4891
632.706	6162
632.768	4864
632.830	6509
632.892	6019
632.954	5025
633.016	6866
633.078	5696
633.141	5840
633.203	4707
633.265	6411
633.327	5261
633.389	6038
633.451	8261
633.513	9870
633.575	8558
633.637	10207
633.698	8220
633.760	6422
633.822	6230
633.884	6692
633.946	6273
634.008	7489
634.070	7981
634.132	10763
634.193	8114
634.255	8619
634.317	8349
634.379	9965
634.441	7053
634.502	6471
634.564	7757
634.626	9491
634.687	10119
634.749	7769
634.811	6166
634.873	5645
634.934	5692
634.996	6438
635.057	5258
635.119	5178
635.181	5665
635.242	6680
635.304	4053
635.365	7861
635.427	5233
635.488	6592
635.550	5029
635.611	6416
635.673	4334
635.734	7295
635.796	6812
635.857	9120
635.918	6482
635.980	9448
636.041	7532
636.102	9324
636.164	9275
636.225	10342
636.286	5221
636.348	7986
636.409	6163
636.470	5568
636.531	6211
636.593	6386
636.654	5601
636.715	5374
636.776	4413
636.838	4395
636.899	5220
636.960	5503
637.021	5136
637.082	6452
637.143	5902
637.204	4044
637.265	4783
637.326	6128
637.387	5566
637.448	4096
637.509	5147
637.570	5518
637.631	5301
637.692	3915
637.753	2989
637.814	4913
637.875	3573
637.936	4995
637.997	5359
638.058	5481
638.119	4995
638.179	4462
638.240	3846
638.301	4640
638.362	3983
638.423	3988
638.483	5391
638.544	3146
638.605	4439
638.666	3476
638.726	4514
638.787	5663
638.848	3681
638.908	4596
638.969	4803
639.030	4350
639.090	3415
639.151	3830
639.211	5612
639.272	8000
639.332	15320
639.393	8216
639.453	4136
639.514	5459
639.574	5083
639.635	3821
639.695	5347
639.756	4370
639.816	5363
639.877	7559
639.937	16111
639.997	20989
640.058	6310
640.118	3950
640.178	4769
640.239	4426
640.299	3710
640.359	4155
640.420	4283
640.480	4025
640.540	4684
640.600	4983
640.661	6092
640.721	4476
640.781	8854
640.841	4955
640.901	5077
640.961	5185
641.021	5518
641.082	7347
641.142	12106
641.202	7714
641.262	2339
641.322	5038
641.382	2385
641.442	4587
641.502	3308
641.562	4352
641.622	4000
641.682	4324
641.742	3961
641.802	4337
641.861	4521
641.921	4248
641.981	6975
642.041	6346
642.101	8037
642.161	4497
642.221	3115
642.280	3417
642.340	2947
642.400	2732
642.460	3823
642.519	4018
642.579	3132
642.639	4240
642.698	1139
642.758	5860
642.818	3570
642.877	2675
642.937	4329
642.997	5656
643.056	9957
643.116	3451
643.175	5409
643.235	3775
643.294	3016
643.354	4905
643.414	4519
643.473	6818
643.532	8217
643.592	10954
643.651	19884
643.711	37537
643.770	76312
643.830	194239
643.889	414208
643.948	87031
644.008	13867
644.067	7796
644.126	5558
644.186	5114
644.245	5145
644.304	2130
644.363	6378
644.423	1984
644.482	3943
644.541	4262
644.600	2821
644.659	5364
644.719	5736
644.778	9240
644.837	15114
644.896	33433
644.955	76690
645.014	26784
645.073	7916
645.132	3931
645.191	4539
645.250	3869
645.309	5702
645.368	3808
645.427	6457
645.486	7975
645.545	15427
645.604	4436
645.663	4020
645.722	3595
645.781	4865
645.840	5622
645.898	6181
645.957	11405
646.016	15916
646.075	33009
646.134	67944
646.192	183351
646.251	269586
646.310	34802
646.369	8585
646.427	8161
646.486	4481
646.545	4409
646.603	4577
646.662	4259
646.721	4454
646.779	2681
646.838	2653
646.896	5477
646.955	6431
647.014	9254
647.072	16561
647.131	47860
647.189	21154
647.248	3656
647.306	3756
647.365	3284
647.423	1803
647.481	4639
647.540	1289
647.598	3114
647.657	1922
647.715	3641
647.773	1017
647.832	4202
647.890	1568
647.948	2776
648.007	3253
648.065	1838
648.123	2180
648.181	5429
648.240	5318
648.298	4521
648.356	3672
648.414	4183
648.472	3222
648.531	3821
648.589	3210
648.647	3092
648.705	2873
648.763	2967
648.821	2947
648.879	3175
648.937	3289
648.995	4388
649.053	4603
649.111	8294
649.169	12907
649.227	24731
649.285	51141
649.343	148090
649.401	71724
649.459	29776
649.516	20896
649.574	17267
649.632	41435
649.690	49721
649.748	13353
649.806	14045
649.863	24485
649.921	35634
649.979	20646
650.037	4651
650.094	1715
650.152	3416
650.210	1616
650.268	3331
650.325	3714
650.383	3255
650.440	1487
650.498	2922
650.556	2517
650.613	1971
650.671	2069
650.728	2071
650.786	2482
650.843	3457
650.901	497
650.958	2447
651.016	2022
651.073	2108
651.131	1332
651.188	1465
651.246	2061
651.303	528
651.360	1989
651.418	2076
651.475	1659
651.532	1036
651.590	1574
651.647	1317
651.704	1852
651.762	1628
651.819	2416
651.876	2222
651.933	1379
651.990	2186
652.048	843
652.105	1396
652.162	1670
652.219	653
652.276	1389
652.333	2771
652.390	461
652.448	2121
652.505	1889
652.562	2226
652.619	2196
652.676	6123
652.733	7033
652.790	1557
652.847	-242
652.904	2464
652.961	428
653.017	524
653.074	2497
653.131	1546
653.188	1101
653.245	1994
653.302	1701
653.359	1177
653.415	2576
653.472	954
653.529	1659
653.586	1171
653.642	1124
653.699	1938
653.756	616
653.813	1329
653.869	1497
653.926	1190
653.983	1251
654.039	2465
654.096	957
654.152	2433
654.209	1285
654.266	1746
654.322	683
654.379	2158
654.435	2321
654.492	2779
654.548	4325
654.605	6448
654.661	3194
654.717	2051
654.774	1450
654.830	1348
654.887	1260
654.943	1629
655.000	2907
655.056	1975
655.112	2017
655.168	376
655.225	1570
655.281	1880
655.337	2745
655.394	4406
655.450	3158
655.506	3247
655.562	4450
655.618	4689
655.675	2269
655.731	2324
655.787	1953
655.843	3479
655.899	2309
655.955	2566
656.011	3018
656.067	3343
656.123	5231
656.179	4733
656.235	6978
656.291	4309
656.347	5832
656.403	4433
656.459	3675
656.515	3955
656.571	3275
656.627	3124
656.683	2096
656.739	3028
656.795	2682
656.850	2169
656.906	3540
656.962	3166
657.018	1144
657.074	1920
657.129	1039
657.185	2505
657.241	3221
657.297	2694
657.352	1757
657.408	1647
657.464	2907
657.519	1438
657.575	623
657.630	1585
657.686	1502
657.742	507
657.797	1410
657.853	1497
657.908	1569
657.964	671
658.019	1490
658.075	1179
658.130	1868
658.186	714
658.241	1467
658.297	-302
658.352	369
658.407	1117
658.463	595
658.518	1361
658.573	778
658.629	542
658.684	887
658.739	1339
658.795	658
658.850	1482
658.905	772
658.960	1512
659.016	979
659.071	753
659.126	1258
659.181	2623
659.236	5705
659.291	5982
659.346	1371
659.401	2054
659.457	3064
659.512	5164
659.567	2699
659.622	938
659.677	655
659.732	268
659.787	1337
659.842	1789
659.897	1752
659.952	1673
660.007	712
660.061	1077
660.116	-121
660.171	434
660.226	1973
660.281	1133
660.336	452
660.391	1862
660.445	416
660.500	1700
660.555	776
660.610	749
660.664	986
660.719	379
660.774	1143
660.828	1224
660.883	1339
660.938	2271
660.992	-589
661.047	1616
661.101	760
661.156	530
661.211	-467
661.265	331
661.320	434
661.374	1080
661.429	1076
661.483	1262
661.538	-320
661.592	835
661.647	983
661.701	1268
661.755	306
661.810	2239
661.864	740
661.919	679
661.973	1292
662.027	900
662.081	518
662.136	826
662.190	873
662.244	1175
662.299	1219
662.353	919
662.407	441
662.461	563
662.515	1224
662.569	719
662.624	1117
662.678	746
662.732	1096
662.786	523
662.840	261
662.894	768
662.948	31
663.002	986
663.056	700
663.110	697
663.164	1323
663.218	746
663.272	1315
663.326	1644
663.380	1373
663.434	845
663.488	955
663.542	1032
663.595	-20
663.649	468
663.703	1053
663.757	1170
663.811	420
663.864	562
663.918	877
663.972	790
664.026	869
664.079	206
664.133	1400
664.187	1113
664.240	1238
664.294	1270
664.348	815
664.401	1678
664.455	1052
664.508	2015
664.562	731
664.615	2162
664.669	359
664.722	743
664.776	1863
664.829	1151
664.883	759
664.936	214
664.990	632
665.043	1565
665.097	545
665.150	1768
665.203	1155
665.257	953
665.310	1354
665.363	1604
665.417	308
665.470	760
665.523	722
665.576	1156
665.630	692
665.683	1104
665.736	437
665.789	1444
665.842	32
665.895	858
665.949	981
666.002	980
666.055	1546
666.108	1525
666.161	1463
666.214	1884
666.267	1229
666.320	3100
666.373	1296
666.426	1392
666.479	994
666.532	1359
666.585	2061
666.638	1744
666.691	950
666.744	1892
666.796	1396
666.849	1482
666.902	1385
666.955	1038
667.008	112
667.060	1079
667.113	233
667.166	1128
667.219	1816
667.271	1054
667.324	433
667.377	2014
667.430	528
667.482	2445
667.535	1800
667.587	1981
667.640	1670
667.693	3005
667.745	5949
667.798	5396
667.850	2059
667.903	963
667.955	712
668.008	1172
668.060	703
668.113	1508
668.165	1066
668.218	1526
668.270	1965
668.322	1724
668.375	319
668.427	1735
668.479	1131
668.532	648
668.584	492
668.636	1850
668.689	1674
668.741	1099
668.793	1919
668.845	663
668.898	1304
668.950	528
669.002	726
669.054	1086
669.106	854
669.158	1227
669.211	1400
669.263	1294
669.315	2668
669.367	3961
669.419	2657
669.471	3606
669.523	4121
669.575	5686
669.627	4333
669.679	2801
669.731	2655
669.783	2715
669.835	4462
669.886	3197
669.938	2151
669.990	1893
670.042	1121
670.094	2027
670.146	2473
670.197	3612
670.249	3928
670.301	6533
670.353	9182
670.404	13718
670.456	19255
670.508	31845
670.560	52577
670.611	92188
670.663	168732
670.715	411803
670.766	639895
670.818	223518
670.869	41835
670.921	20388
670.972	13091
671.024	9230
671.075	6690
671.127	5361
671.178	3850
671.230	4060
671.281	3564
671.333	3203
671.384	2751
671.436	4026
671.487	4102
671.538	4308
671.590	5144
671.641	7871
671.692	11913
671.744	20767
671.795	15273
671.846	6556
671.897	2731
671.949	2834
672.000	2132
672.051	2563
672.102	2021
672.153	1637
672.204	1844
672.256	2192
672.307	2042
672.358	2366
672.409	1955
672.460	2799
672.511	691
672.562	1542
672.613	1775
672.664	1911
672.715	1728
672.766	1627
672.817	1691
672.868	1383
672.919	1302
672.970	2187
673.021	1092
673.071	971
673.122	1084
673.173	1624
673.224	1083
673.275	2083
673.326	465
673.376	1669
673.427	839
673.478	900
673.528	1673
673.579	1325
673.630	1035
673.680	1781
673.731	990
673.782	1260
673.832	1032
673.883	658
673.934	950
673.984	1825
674.035	1039
674.085	1100
674.136	1213
674.186	561
674.237	1873
674.287	3348
674.338	2198
674.388	1299
674.438	557
674.489	1214
674.539	586
674.589	1559
674.640	1700
674.690	1516
674.740	1143
674.791	1252
674.841	1285
674.891	739
674.942	2223
674.992	2112
675.042	1134
675.092	1091
675.142	1039
675.193	1134
675.243	806
675.293	1776
675.343	89
675.393	971
675.443	1129
675.493	622
675.543	-373
675.593	1238
675.643	313
675.693	384
675.743	654
675.793	1858
675.843	508
675.893	1172
675.943	1701
675.993	926
676.043	893
676.093	637
676.142	229
676.192	932
676.242	981
676.292	518
676.341	463
676.391	1443
676.441	739
676.491	811
676.540	225
676.590	1111
676.640	866
676.689	937
676.739	-93
676.789	447
676.838	-114
676.888	965
676.937	-60
676.987	730
677.037	511
677.086	394
677.136	583
677.185	1530
677.235	685
677.284	535
677.333	-358
677.383	1449
677.432	-29
677.482	770
677.531	641
677.580	288
677.630	718
677.679	424
677.728	477
677.778	380
677.827	684
677.876	229
677.925	821
677.975	1024
678.024	-61
678.073	804
678.122	226
678.171	78
678.220	169
678.269	991
678.319	489
678.368	910
678.417	266
678.466	1572
678.515	1164
678.564	746
678.613	450
678.662	687
678.711	512
678.760	523
678.809	-21
678.857	1044
678.906	340
678.955	138
679.004	1439
679.053	850
679.102	1006
679.151	1615
679.199	-254
679.248	651
679.297	647
679.346	1603
679.394	199
679.443	1205
679.492	789
679.540	1117
679.589	36
679.638	926
679.686	264
679.735	439
679.784	600
679.832	871
679.881	122
679.929	132
679.978	587
680.026	299
680.075	655
680.123	132
680.172	-230
680.220	924
680.268	-42
680.317	1103
680.365	224
680.414	267
680.462	8
680.510	624
680.559	-66
680.607	268
680.655	409
680.703	1077
680.752	549
680.800	501
680.848	158
680.896	709
680.945	-145
680.993	-80
681.041	-80
681.089	571
681.137	801
681.185	891
681.233	703
681.258	699
681.281	672
681.329	47
681.377	751
681.380	737
681.425	56
681.473	454
681.502	-96
681.521	-523
681.569	1117
681.617	518
681.624	552
681.665	609
681.713	533
681.745	683
681.761	720
681.809	640
681.857	1008
681.867	879
681.904	317
681.952	926
681.989	789
682.000	728
682.048	746
682.096	1332
682.111	1381
682.143	1383
682.191	1479
682.233	1717
682.239	1736
682.286	1410
682.334	1385
682.354	892
682.382	166
682.430	2022
682.476	1321
682.477	1287
682.525	1757
682.572	1083
682.598	1053
682.620	995
682.667	1975
682.715	1651
682.720	1759
682.763	2561
682.810	2658
682.841	2119
682.857	1803
682.905	2487
682.952	2201
682.963	2189
683.000	2066
683.047	1483
683.085	2291
683.095	2488
683.142	1867
683.190	2209
683.206	2183
683.237	2094
683.284	2103
683.328	2067
683.332	2046
683.379	3020
683.426	1976
683.449	2212
683.473	2429
683.521	2235
683.568	3209
683.571	3195
683.615	2728
683.662	2966
683.693	1932
683.709	1363
683.757	2764
683.804	2459
683.814	2737
683.851	3671
683.898	3462
683.936	3409
683.945	3354
683.992	3492
684.039	2798
684.057	3005
684.086	3404
684.133	3113
684.179	3796
684.180	3794
684.227	3585
684.274	3771
684.300	4011
684.321	4233
684.368	3178
684.415	3901
684.422	3818
684.462	3146
684.509	2529
684.543	2837
684.556	2965
684.603	2907
684.649	3372
684.665	3361
684.696	3273
684.743	3639
684.786	3992
684.790	4019
684.837	3070
684.883	4044
684.908	4135
684.930	4207
684.977	4407
685.023	4170
685.029	4207
685.070	4250
685.117	3736
685.150	4003
685.164	4124
685.210	4597
685.257	4803
685.272	4703
685.303	4464
685.350	5075
685.393	5092
685.396	5089
685.443	4942
685.490	5411
685.514	5652
685.536	5737
685.583	5406
685.629	5252
685.636	5194
685.675	4764
685.722	5464
685.757	4809
685.768	4642
685.815	5007
685.861	4886
685.878	5223
685.908	5657
685.954	4595
686.000	5605
686.000	5623
686.047	5437
686.093	6037
686.121	6186
686.139	6049
686.185	5812
686.232	5284
686.242	5202
686.278	4919
686.324	5811
686.363	5293
686.370	5250
686.416	5318
686.463	5429
686.484	5528
686.509	5540
686.555	5901
686.601	5457
686.606	5473
686.647	5473
686.693	5526
686.727	5418
686.739	5432
686.785	5215
686.831	5518
686.848	5544
686.877	5510
686.923	5188
686.969	6010
686.969	6014
687.015	5490
687.061	5674
687.090	6004
687.107	6171
687.153	6397
687.199	6013
687.211	5934
687.245	5831
687.291	5793
687.332	6783
687.336	6867
687.382	6856
687.428	6371
687.453	6257
687.474	6146
687.520	6060
687.565	6735
687.574	6663
687.611	6482
687.657	6805
687.695	6672
687.702	6684
687.748	7002
687.794	7902
687.816	7915
687.839	7590
687.885	6931
687.931	6517
687.937	6500
687.976	6732
688.022	6326
688.058	6292
688.067	6310
688.113	6593
688.158	6704
688.179	6809
688.204	6889
688.249	6861
688.295	7265
688.300	7164
688.340	6515
688.386	7206
688.421	7073
688.431	7013
688.477	6669
688.522	6920
688.542	6906
688.567	7037
688.613	7483
688.658	7258
688.663	7291
688.703	7364
688.749	7270
688.784	6954
688.794	6914
688.839	7309
688.884	7098
688.905	7220
688.930	7274
688.975	6816
689.020	6925
689.026	6916
689.065	7158
689.110	6781
689.146	7145
689.155	7245
689.201	7919
689.246	7853
689.267	7736
689.291	7568
689.336	7809
689.381	8163
689.388	8144
689.426	7895
689.471	7540
689.509	7430
689.516	7474
689.561	7590
689.606	7360
689.630	7639
689.651	7864
689.696	7632
689.741	8156
689.750	8170
689.785	8346
689.830	8301
689.871	8412
689.875	8408
689.920	8195
689.965	8063
689.992	8010
690.010	8133
690.054	7992
690.099	8539
690.112	8593
690.144	8737
690.189	8951
690.233	8376
690.233	8387
690.278	9393
690.323	9699
690.354	9581
690.367	9511
690.412	9611
690.457	9693
690.474	9962
690.501	10491
690.546	10712
690.590	10675
690.595	10691
690.635	11438
690.680	12174
690.716	13141
690.724	13537
690.769	15086
690.813	16926
690.836	17697
690.857	19946
690.902	24770
690.946	29937
690.957	31312
690.991	42815
691.035	58428
691.077	74303
691.080	74594
691.124	73222
691.168	71783
691.198	71263
691.213	66565
691.257	53019
691.301	38930
691.318	33667
691.346	30654
691.390	25786
691.434	20696
691.439	20115
691.478	18597
691.522	16946
691.559	15061
691.567	14931
691.611	14492
691.655	13586
691.680	13300
691.699	13048
691.743	12211
691.787	11460
691.800	11195
691.831	11221
691.875	11309
691.919	11199
691.921	11190
691.964	11385
692.008	11249
692.041	10876
692.052	10845
692.096	10902
692.139	11063
692.162	11067
692.183	11053
692.227	10715
692.271	10584
692.282	10544
692.315	10834
692.359	10918
692.402	11881
692.403	11908
692.447	11522
692.490	11420
692.523	11022
692.534	10969
692.578	11544
692.622	11043
692.643	11234
692.666	11401
692.709	11172
692.753	10862
692.763	10823
692.797	11096
692.840	11416
692.884	11487
692.884	11514
692.928	11915
692.971	12276
693.004	12504
693.015	12644
693.059	12809
693.102	13478
693.124	13363
693.146	13316
693.189	13705
693.233	14000
693.245	14092
693.276	14950
693.320	16001
693.363	17164
693.365	17167
693.407	18868
693.450	20501
693.485	21865
693.493	22727
693.537	27219
693.580	31393
693.605	33958
693.624	39034
693.667	50525
693.710	62721
693.725	67042
693.753	88807
693.797	123234
693.840	159372
693.845	162934
693.883	162204
693.926	159680
693.966	158901
693.970	156121
694.013	124071
694.056	92069
694.086	70011
694.099	66215
694.142	53503
694.185	40808
694.206	34895
694.229	33004
694.272	29165
694.315	25180
694.326	24091
694.358	23048
694.401	21863
694.444	20360
694.446	20250
694.487	19481
694.530	18213
694.566	17359
694.573	17232
694.616	15887
694.659	14980
694.686	14171
694.702	14138
694.745	14148
694.787	13936
694.806	13982
694.830	13964
694.873	13432
694.916	13023
694.926	12890
694.959	12949
695.002	13296
695.044	13186
695.046	13158
695.087	13378
695.130	13578
695.166	13618
695.172	13609
695.215	13373
695.258	13231
695.286	12950
695.301	12807
695.343	12501
695.386	11999
695.406	11713
695.428	11786
695.471	12007
695.514	12512
695.526	12493
695.556	12548
695.599	12668
695.641	13059
695.646	13044
695.684	12581
695.726	11962
695.766	11463
695.769	11491
695.811	11406
695.854	11425
695.886	11455
695.896	11585
695.938	11574
695.981	11818
696.005	12062
696.023	12108
696.065	11853
696.108	11749
696.125	11597
696.150	11764
696.192	12211
696.235	12506
696.245	12568
696.277	12672
696.319	12798
696.361	12890
696.365	12855
696.404	13169
696.446	13641
696.485	13906
696.488	13960
696.530	14175
696.572	14416
696.604	14621
696.614	14516
696.656	13851
696.698	13231
696.724	12705
696.740	12623
696.783	12460
696.825	12399
696.844	12293
696.867	12512
696.909	12688
696.951	13025
696.964	13085
696.992	12919
697.034	12667
697.076	12313
697.083	12239
697.118	12499
697.160	12698
697.202	12931
697.203	12902
697.244	12574
697.286	12161
697.323	11772
697.327	11827
697.369	11988
697.411	12168
697.442	12308
697.453	12377
697.494	12420
697.536	12568
697.562	12568
697.578	12774
697.620	13326
697.661	13798
697.682	14008
697.703	14130
697.744	14287
697.786	14520
697.801	14511
697.828	14700
697.869	14993
697.911	15278
697.921	15317
697.952	14841
697.994	14069
698.035	13407
698.040	13284
698.077	13285
698.118	13195
698.160	13160
698.160	13122
698.201	13058
698.243	12937
698.279	12830
698.284	12896
698.325	13125
698.367	13431
698.399	13559
698.408	13490
698.449	13021
698.491	12572
698.518	12226
698.532	12385
698.573	12783
698.614	13150
698.638	13320
698.656	13350
698.697	13350
698.738	13333
698.757	13292
698.779	13395
698.820	13526
698.862	13626
698.877	13629
698.903	13766
698.944	13925
698.985	14079
698.996	14084
699.026	14222
699.067	14357
699.116	14481
699.235	13215
699.354	13158
699.474	13507
699.593	14910
699.713	14364
699.832	13450
699.951	14169
700.070	14702
700.190	13149
700.309	13336
700.428	13354
700.547	13276
700.667	12219
700.786	14472
700.905	12655
701.024	13893
701.143	13290
701.262	12761
701.381	13161
701.500	13285
701.619	13997
701.738	12337
701.857	12499
701.976	12328
702.095	11768
702.214	13007
702.333	14462
702.452	12501
702.571	12087
702.690	11984
702.809	11437
702.928	12455
703.047	11880
703.165	11727
703.284	11601
703.403	12328
703.522	12075
703.640	12992
703.759	13854
703.878	16360
703.997	12306
704.115	11669
704.234	11020
704.353	11798
704.471	11168
704.590	10867
704.708	11093
704.827	11246
704.946	11200
705.064	11821
705.183	11648
705.301	12552
705.420	14348
705.538	14470
705.656	12220
705.775	16094
705.893	31830
706.012	39088
706.130	14616
706.249	13605
706.367	13098
706.485	12683
706.604	12206
706.722	13523
706.840	15098
706.958	16246
707.077	13743
707.195	11429
707.313	12159
707.431	11878
707.549	11959
707.668	11638
707.786	11368
707.904	11868
708.022	11605
708.140	11166
708.258	11422
708.376	12230
708.494	11024
708.612	12356
708.730	14214
708.848	13997
708.966	13022
709.084	13365
709.202	13475
709.320	12837
709.438	12553
709.556	12658
709.674	12568
709.791	12467
709.909	11557
710.027	11837
710.145	11994
710.263	12363
710.380	12034
710.498	12539
710.616	12429
710.733	12340
710.851	11786
710.969	12553
711.086	11122
711.204	12442
711.322	12088
711.439	11529
711.557	12560
711.674	12321
711.792	12662
711.909	14263
712.027	15412
712.144	11657
712.262	11639
712.379	12100
712.497	13383
712.614	14807
712.732	12591
712.849	12866
712.966	13503
713.084	17047
713.201	12612
713.318	13300
713.436	12417
713.553	13534
713.670	12596
713.787	14676
713.905	14033
714.022	13491
714.139	12902
714.256	15253
714.373	17619
714.490	27479
714.608	58725
714.725	238277
714.842	256474
714.959	24348
715.076	14896
715.193	12550
715.310	12791
715.427	12815
715.544	12150
715.661	12216
715.778	11020
715.895	11961
716.011	12718
716.128	11010
716.245	11216
716.362	14389
716.479	14091
716.596	11185
716.713	11650
716.829	10384
716.946	11796
717.063	10645
717.180	10898
717.296	10252
717.413	10979
717.530	11021
717.646	10573
717.763	10680
717.880	9651
717.996	10763
718.113	10736
718.229	11303
718.346	9931
718.462	11779
718.579	14226
718.695	23146
718.812	16941
718.928	13189
719.045	10563
719.161	10167
719.277	9379
719.394	11375
719.510	10949
719.626	9425
719.743	12562
719.859	13982
719.975	19426
720.092	61481
720.208	142197
720.324	22245
720.440	11678
720.557	12830
720.673	17770
720.789	21132
720.905	31100
721.021	14401
721.137	9689
721.253	9599
721.369	9526
721.486	10409
721.602	12281
721.718	8760
721.834	8574
721.950	9790
722.066	8392
722.181	8830
722.297	10415
722.413	8977
722.529	9065
722.645	9261
722.761	8199
722.877	9581
722.993	9557
723.108	8793
723.224	8937
723.340	8736
723.456	7936
723.571	8835
723.687	7607
723.803	8585
723.918	7731
724.034	8552
724.150	8830
724.265	9732
724.381	14363
724.497	16533
724.612	7446
724.728	7516
724.843	8321
724.959	9801
725.074	13555
725.190	15400
725.305	9032
725.421	8138
725.536	7992
725.651	7670
725.767	8324
725.882	7819
725.997	7317
726.113	8730
726.228	7831
726.343	7891
726.459	7064
726.574	7473
726.689	7103
726.804	7543
726.920	8101
727.035	7799
727.150	7528
727.265	7555
727.380	7922
727.495	8103
727.610	7665
727.725	8529
727.841	9717
727.956	21377
728.071	15548
728.186	7194
728.301	6184
728.416	8205
728.531	7293
728.645	6984
728.760	8584
728.875	8886
728.990	7898
729.105	8024
729.220	8774
729.335	8617
729.449	7472
729.564	6920
729.679	6271
729.794	7590
729.908	7209
730.023	7395
730.138	6418
730.253	6069
730.367	6046
730.482	6908
730.596	6655
730.711	7485
730.826	7279
730.940	8125
731.055	6891
731.169	6850
731.284	6725
731.398	7001
731.513	6784
731.627	7772
731.742	7964
731.856	8691
731.970	7654
732.085	8974
732.199	9558
732.313	13496
732.428	27039
732.542	66460
732.656	39210
732.771	11696
732.885	8157
732.999	7936
733.113	7734
733.227	7267
733.342	7011
733.456	6916
733.570	7512
733.684	7145
733.798	7066
733.912	6674
734.026	5858
734.140	6481
734.254	6659
734.368	9381
734.482	11034
734.596	6086
734.710	6477
734.824	6392
734.938	6665
735.052	6740
735.166	7052
735.280	6591
735.393	5833
735.507	7208
735.621	7294
735.735	10198
735.849	6853
735.962	5846
736.076	6243
736.190	6826
736.303	6566
736.417	9550
736.531	7099
736.644	6661
736.758	6337
736.872	6109
736.985	5985
737.099	5979
737.212	5484
737.326	6752
737.439	5391
737.553	5987
737.666	6506
737.780	6242
737.893	5441
738.007	6262
738.120	5873
738.233	6395
738.347	5907
738.460	5668
738.573	6605
738.687	5945
738.800	6502
738.913	8027
739.026	6927
739.140	6597
739.253	6185
739.366	6122
739.479	5456
739.592	4668
739.705	5607
739.818	6767
739.932	4846
740.045	6069
740.158	6012
740.271	5839
740.384	5836
740.497	6332
740.610	6705
740.723	7024
740.836	7495
740.949	7621
741.062	9010
741.174	8496
741.287	5690
741.400	6308
741.513	6714
741.626	7091
741.739	6520
741.851	6813
741.964	5775
742.077	6699
742.189	6649
742.302	10201
742.415	8604
742.527	6802
742.640	6373
742.753	5981
742.865	4767
742.978	5714
743.090	5238
743.203	5404
743.316	4897
743.428	5804
743.541	5360
743.653	4825
743.766	5183
743.878	6204
743.990	6362
744.103	9569
744.215	11372
744.327	7207
744.440	6998
744.552	10491
744.664	6118
744.777	5342
744.889	4957
745.001	5865
745.113	4074
745.226	4863
745.338	5071
745.450	5117
745.562	5247
745.674	5753
745.786	4651
745.898	5716
746.010	4952
746.122	4706
746.234	5051
746.347	5450
746.459	5179
746.570	5528
746.682	9546
746.794	14779
746.906	7837
747.018	6125
747.130	5397
747.242	5216
747.354	5570
747.466	6437
747.577	4964
747.689	6376
747.801	4634
747.913	5351
748.024	5224
748.136	5626
748.248	4756
748.359	4893
748.471	4801
748.583	4911
748.694	5915
748.806	7502
748.918	5635
749.029	5583
749.141	5814
749.252	6208
749.364	6453
749.475	11411
749.587	7734
749.698	5979
749.809	5433
749.921	5032
750.032	5102
750.144	4906
750.255	4551
750.366	4339
750.478	4718
750.589	4538
750.700	5237
750.811	6873
750.923	7615
751.034	13161
751.145	13080
751.256	5369
751.367	5626
751.479	5082
751.590	4348
751.701	6045
751.812	4166
751.923	5251
752.034	5224
752.145	4610
752.256	3934
752.367	4684
752.478	5399
752.589	5293
752.700	4861
752.811	4693
752.922	5394
753.032	5733
753.143	5610
753.254	5469
753.365	4985
753.476	6038
753.586	5171
753.697	5382
753.808	4413
753.919	5678
754.029	4763
754.140	5269
754.251	4718
754.361	5263
754.472	5587
754.582	5504
754.693	5911
754.804	6112
754.914	5077
755.025	4277
755.135	5133
755.246	5180
755.356	4449
755.466	5344
755.577	4731
755.687	5053
755.798	5598
755.908	6248
756.018	5408
756.129	5345
756.239	5313
756.349	5621
756.460	5993
756.570	6110
756.680	5386
756.790	5968
756.900	6128
757.011	5398
757.121	5154
757.231	5901
757.341	5965
757.451	5570
757.561	5423
757.671	5459
757.781	5046
757.891	6171
758.001	5237
758.111	6876
758.221	6640
758.331	7665
758.441	7377
758.551	7495
758.661	8771
758.771	7347
758.880	6426
758.990	7381
759.100	6907
759.210	6777
759.320	6470
759.429	8046
759.539	7060
759.649	7449
759.758	7271
759.868	7826
759.978	7700
760.087	8578
760.197	7958
760.307	8812
760.416	8426
760.526	7730
760.635	8453
760.745	8626
760.854	8867
760.964	9499
761.073	9860
761.182	9168
761.292	8775
761.401	10740
761.511	8908
761.620	9825
761.729	9783
761.839	11641
761.948	11115
762.057	11083
762.166	11429
762.276	10840
762.385	13043
762.494	11447
762.603	11744
762.712	13314
762.822	13458
762.931	14108
763.040	13869
763.149	15120
763.258	14915
763.367	17358
763.476	17176
763.585	18039
763.694	19484
763.803	20076
763.912	19438
764.021	22302
764.130	24147
764.238	25865
764.347	26604
764.456	29276
764.565	30486
764.674	34459
764.783	36860
764.891	40094
765.000	46736
765.109	52061
765.217	59225
765.326	69314
765.435	81705
765.543	100454
765.652	124917
765.761	159895
765.869	212150
765.978	296150
766.086	429564
766.195	643774
766.303	920323
766.412	919958
766.520	824467
766.629	844297
766.737	605356
766.846	409179
766.954	285843
767.062	205679
767.171	158946
767.279	121836
767.387	97523
767.496	82299
767.604	70181
767.712	61256
767.820	54698
767.928	49771
768.037	45735
768.145	45170
768.253	42392
768.361	39455
768.469	40587
768.577	41400
768.685	43213
768.793	46846
768.901	50721
769.009	58694
769.117	71304
769.225	91120
769.333	123714
769.441	184057
769.549	294989
769.657	512927
769.765	831418
769.873	787399
769.981	737141
770.088	482097
770.196	285063
770.304	186738
770.412	129955
770.519	99300
770.627	79315
770.735	63004
770.842	53509
770.950	47132
771.058	39798
771.165	37193
771.273	32277
771.380	29937
771.488	27022
771.595	25011
771.703	23176
771.810	21583
771.918	20161
772.025	18559
772.133	17343
772.240	16278
772.348	17568
772.455	15497
772.562	14346
772.670	14137
772.777	13412
772.884	12665
772.991	11759
773.099	12687
773.206	11565
773.313	11479
773.420	11014
773.528	9940
773.635	10179
773.742	10935
773.849	9439
773.956	9642
774.063	9311
774.170	8935
774.277	9460
774.384	8277
774.491	8160
774.598	8579
774.705	8283
774.812	10374
774.919	9214
775.026	8881
775.133	8159
775.239	7607
775.346	6960
775.453	8247
775.560	6676
775.667	8288
775.773	6027
775.880	8601
775.987	6630
776.093	7073
776.200	6095
776.307	6383
776.413	6378
776.520	7504
776.627	6110
776.733	6658
776.840	5855
776.946	9975
777.053	13310
777.159	23602
777.266	13693
777.372	21700
777.478	16613
777.585	9621
777.691	5737
777.798	6168
777.904	6845
778.010	9078
778.117	6958
778.223	5659
778.329	4462
778.435	5144
778.542	5206
778.648	5055
778.754	4995
778.860	5211
778.966	4513
779.072	4966
779.178	5273
779.284	5273
779.391	5452
779.497	5803
779.603	9650
779.708	10830
779.815	27205
779.920	93178
780.026	182387
780.132	34461
780.238	8738
780.344	7307
780.450	6306
780.556	5748
780.661	3974
780.767	5196
780.873	4653
780.979	4923
781.085	3709
781.190	4711
781.296	3822
781.402	3723
781.507	3708
781.613	4036
781.719	2848
781.824	4058
781.930	4147
782.035	4046
782.141	4010
782.246	3640
782.352	3065
782.457	3736
782.563	3226
782.668	3670
782.773	2915
782.879	3648
782.984	3841
783.090	4726
783.195	6463
783.300	4363
783.405	3477
783.511	4522
783.616	3611
783.721	3786
783.826	3469
783.932	3244
784.037	3529
784.142	3250
784.247	3311
784.352	3746
784.457	4116
784.562	3985
784.667	2851
784.772	2876
784.877	2452
784.982	3609
785.087	2769
785.192	3612
785.297	2153
785.402	3589
785.507	3397
785.611	3110
785.716	3653
785.821	3679
785.926	3106
786.031	3373
786.135	3213
786.240	3935
786.345	3045
786.450	3129
786.554	3131
786.659	2553
786.763	2132
786.868	3546
786.973	2717
787.077	2624
787.182	2233
787.286	2748
787.391	2915
787.495	2690
787.600	2438
787.704	2326
787.809	3305
787.913	1651
788.017	2872
788.122	2684
788.226	2952
788.330	2798
788.435	2820
788.539	2949
788.643	1414
788.747	2710
788.852	2744
788.956	2276
789.060	2581
789.164	2507
789.268	1722
789.372	3310
789.476	1805
789.580	2729
789.684	943
789.788	2991
789.892	2150
789.996	2007
790.100	2011
790.204	2983
790.308	2956
790.412	2129
790.516	3377
790.620	2736
790.724	2262
790.828	2811
790.931	2388
791.035	4132
791.139	3191
791.242	994
791.346	3031
791.450	2703
791.554	1808
791.657	2113
791.761	3260
791.864	2657
791.968	1819
792.072	2164
792.175	2577
792.279	2700
792.382	2276
792.486	2131
792.589	2401
792.693	2880
792.796	852
792.899	3646
793.003	2855
793.106	956
793.209	2298
793.313	4004
793.416	1290
793.519	4402
793.623	4025
793.726	5940
793.829	2532
793.932	2828
794.035	1311
794.138	4191
794.242	3668
794.345	4522
794.448	7400
794.551	16585
794.654	53102
794.757	108658
794.860	22745
794.963	5672
795.066	2289
795.169	3645
795.272	2415
795.375	2556
795.477	2212
795.580	2951
795.683	468
795.786	2500
795.889	-73
795.991	3676
796.094	3066
796.197	1247
796.300	2857
796.402	1043
796.505	1626
796.608	2429
796.710	2723
796.813	2333
796.915	1728
797.018	2902
797.120	2354
797.223	802
797.326	2865
797.428	1944
797.530	1627
797.633	1439
797.735	2235
797.838	2912
797.940	3012
798.042	882
798.145	1416
798.247	2784
798.349	406
798.452	2612
798.554	1567
798.656	695
798.758	1897
798.860	1862
798.962	1486
799.065	851
799.167	1111
799.269	2863
799.371	3201
799.473	1788
799.575	1517
799.677	2750
799.779	4635
799.881	3016
799.983	3411
800.085	1379
800.187	2301
800.289	1075
800.390	726
800.492	2016
800.594	2534
800.696	1518
800.798	2245
800.899	831
801.001	1769
801.103	1801
801.205	1473
801.306	1606
801.408	997
801.509	1553
801.611	1310
801.713	2327
801.814	460
801.916	1091
802.017	1153
802.119	513
802.220	1081
802.322	1048
802.423	3205
802.525	938
802.626	1219
802.727	2141
802.829	2597
802.930	394
803.031	2313
803.133	1215
803.234	1853
803.335	1722
803.436	726
803.538	1385
803.639	28
803.740	1838
803.841	626
803.942	1306
804.043	1363
804.144	1637
804.245	638
804.346	1241
804.447	1160
804.548	2651
804.649	3354
804.750	1493
804.851	775
804.952	846
805.053	1717
805.154	117
805.255	2042
805.355	916
805.456	427
805.557	1667
805.658	669
805.758	2450
805.859	1396
805.960	2044
806.061	571
806.161	1124
806.262	1687
806.362	1237
806.463	1478
806.564	1944
806.664	1495
806.765	1643
806.865	847
806.966	1235
807.066	542
807.166	2458
807.267	2368
807.367	1466
807.468	1254
807.568	621
807.668	1844
807.769	1615
807.869	1225
807.969	1639
808.069	1129
808.170	1837
808.270	665
808.370	2202
808.470	2411
808.570	1902
808.670	592
808.770	1819
808.870	386
808.970	2165
809.070	845
809.170	1860
809.271	1989
809.370	769
809.470	1473
809.570	1320
809.670	732
809.770	1253
809.870	1482
809.970	1453
810.070	1094
810.169	1767
810.269	426
810.369	2732
810.469	1208
810.568	1471
810.668	1144
810.768	1147
810.867	1550
810.967	978
811.066	908
811.166	1183
811.265	2360
811.365	526
811.464	1542
811.564	2334
811.663	2001
811.763	925
811.862	1399
811.962	2066
812.061	1578
812.160	1455
812.260	1561
812.359	2867
812.458	2141
812.557	7102
812.657	9405
812.756	4883
812.855	1572
812.954	1417
813.053	2269
813.153	2242
813.252	455
813.351	1805
813.450	1266
813.549	1356
813.648	1709
813.747	1796
813.846	2175
813.945	1745
814.044	2685
814.143	2169
814.242	2023
814.341	2290
814.439	1359
814.538	3133
814.637	1642
814.736	2149
814.835	3046
814.933	2004
815.032	1950
815.131	2228
815.229	2546
815.328	3364
815.427	2366
815.525	4214
815.624	2962
815.722	2433
815.821	3248
815.919	3940
816.018	2165
816.116	4080
816.215	3797
816.313	3610
816.412	3994
816.510	4341
816.609	5600
816.707	5188
816.805	5770
816.904	5974
817.002	6603
817.100	8038
817.198	9165
817.296	8662
817.395	11038
817.493	13992
817.591	15296
817.689	21620
817.787	28522
817.885	44287
817.983	73756
818.081	140310
818.179	300020
818.277	609986
818.375	585665
818.473	268207
818.571	124414
818.669	79668
818.767	64268
818.865	61036
818.963	68373
819.061	91638
819.158	142789
819.256	261594
819.354	511083
819.452	823585
819.549	665856
819.647	343065
819.745	171426
819.842	102530
819.940	69088
820.038	48791
820.135	37358
820.233	30626
820.330	23949
820.428	19628
820.525	18093
820.623	14169
820.720	12280
820.818	11801
820.915	10919
821.012	10758
821.110	8129
821.207	8860
821.304	7163
821.402	8113
821.499	8843
821.596	12226
821.693	7410
821.791	6092
821.888	5737
821.985	9586
822.082	7417
822.179	6985
822.276	5698
822.373	4982
822.470	4378
822.567	3496
822.664	1889
822.761	3970
822.858	2402
822.955	3322
823.052	2244
823.149	2196
823.246	2032
823.343	2587
823.440	2943
823.536	2818
823.633	1853
823.730	2223
823.827	2507
823.923	2153
824.020	3239
824.117	2460
824.213	3673
824.310	3568
824.407	2352
824.503	2385
824.600	1883
824.696	2098
824.793	2633
824.889	1454
824.986	1412
825.082	1903
825.179	1778
825.275	858
825.371	1326
825.468	1215
825.564	1019
825.660	1690
825.757	1558
825.853	2172
825.949	105
826.045	758
826.142	768
826.238	1019
826.334	1264
826.430	1351
826.526	1974
826.622	926
826.718	1391
826.814	1470
826.910	1234
827.006	839
827.102	690
827.198	2322
827.294	646
827.390	1564
827.486	1873
827.582	-17
827.678	19
827.774	1706
827.869	905
827.965	1487
828.061	429
828.157	554
828.252	1124
828.348	-130
828.444	2102
828.539	203
828.635	1397
828.731	1370
828.826	554
828.922	1382
829.017	122
829.113	1248
829.208	22
829.304	588
829.399	1611
829.495	422
829.590	765
829.685	-135
829.781	1327
829.876	1001
829.971	624
830.066	466
830.162	459
830.257	1207
830.352	715
830.447	1855
830.543	972
830.638	243
830.733	1977
830.828	832
830.923	917
831.018	217
831.113	12
831.208	490
831.303	314
831.398	238
831.493	-493
831.588	1272
831.683	-263
831.778	1492
831.873	561
831.967	1250
832.062	137
832.157	373
832.252	1164
832.346	845
832.441	1699
832.536	2380
832.631	5611
832.725	4080
832.820	194
832.914	472
833.009	-236
833.104	1614
833.198	1820
833.293	63
833.387	1369
833.482	922
833.576	363
833.670	1346
833.765	-29
833.859	1371
833.954	1577
834.048	583
834.142	583
834.237	582
834.331	140
834.425	624
834.519	0
834.613	1306
834.708	308
834.802	539
834.896	342
834.990	1067
835.084	344
835.178	198
835.272	-138
835.366	443
835.460	675
835.554	1028
835.648	382
835.742	947
835.836	215
835.930	-272
836.024	877
836.117	1522
836.211	378
836.305	1543
836.399	1271
836.493	-185
836.586	292
836.680	-530
836.774	118
836.867	631
836.961	-196
837.055	-681
837.148	407
837.242	518
837.335	373
837.429	473
837.522	-173
837.616	1140
837.709	2331
837.803	386
837.896	451
837.989	314
838.083	936
838.176	2071
838.269	1190
838.363	1480
838.456	587
838.549	1891
838.642	2875
838.735	5651
838.829	1667
838.922	575
839.015	6
839.108	-529
839.201	438
839.294	900
839.387	1424
839.480	150
839.573	617
839.666	745
839.759	-268
839.852	-179
839.945	283
840.038	805
840.131	-270
840.223	-42
840.316	1738
840.409	-404
840.502	-846
840.594	2047
840.687	-35
840.780	558
840.873	72
840.965	262
841.058	539
841.150	2308
841.243	889
841.336	1128
841.428	85
841.521	580
841.613	-387
841.706	393
841.798	-242
841.890	540
841.983	-276
842.075	1489
842.167	-187
842.260	69
842.352	1163
842.444	1328
842.537	2000
842.629	3089
842.721	813
842.813	1042
842.905	-473
842.997	1021
843.090	341
843.182	1534
843.274	1517
843.366	5751
843.458	9725
843.550	5859
843.642	191
843.734	1098
843.826	-168
843.918	1627
844.009	693
844.101	215
844.193	107
844.285	1345
844.377	1544
844.469	3261
844.560	4181
844.652	3314
844.744	1445
844.835	640
844.927	1158
845.019	1122
845.110	389
845.202	1001
845.293	318
845.385	160
845.476	439
845.568	1114
845.659	186
845.751	651
845.842	-153
845.934	450
846.025	15
846.116	1425
846.208	-8
846.299	-94
846.390	747
846.482	1506
846.573	1612
846.664	1202
846.755	1450
846.846	1675
846.937	-854
847.029	773
847.120	65
847.211	-793
847.302	1086
847.393	-381
847.484	512
847.575	442
847.666	592
847.757	416
847.847	279
847.938	928
848.029	408
848.120	306
848.211	166
848.302	-569
848.392	124
848.483	204
848.574	-316
848.664	-163
848.755	90
848.846	289
848.936	-30
849.027	689
849.118	524
849.208	91
849.299	313
849.389	1330
849.480	2347
849.570	4884
849.661	9825
849.751	16562
849.841	5839
849.932	1350
850.022	-20
850.112	635
850.203	-244
850.293	149
850.383	-386
850.474	-394
850.564	-629
850.654	255
850.744	832
850.834	161
850.924	257
851.014	85
851.104	37
851.194	911
851.284	926
851.374	2028
851.464	188
851.554	709
851.644	429
851.734	1005
851.824	1021
851.914	1773
852.004	4542
852.094	3238
852.183	1188
852.273	-277
852.363	-457
852.452	308
852.542	-512
852.632	-31
852.721	408
852.811	120
852.901	-66
852.990	-87
853.080	862
853.169	520
853.259	697
853.348	289
853.438	1195
853.527	1381
853.617	1125
853.706	4705
853.795	8536
853.885	19212
853.974	36317
854.063	67641
854.152	106597
854.242	39231
854.331	6011
854.420	1848
854.509	961
854.598	1964
854.687	1866
854.777	1094
854.866	311
854.955	1271
855.044	382
855.133	-162
855.222	1150
855.311	239
855.400	431
855.488	668
855.577	-38
855.666	1336
855.755	1529
855.844	1637
855.933	2374
856.021	873
856.110	113
856.199	232
856.288	-622
856.376	621
856.465	504
856.554	437
856.642	274
856.731	1137
856.819	99
856.908	455
856.996	-104
857.085	-183
857.173	-19
857.262	-553
857.350	641
857.438	24
857.527	821
857.615	11
857.703	-61
857.792	-645
857.880	-422
857.968	-88
858.056	488
858.145	144
858.233	-703
858.321	708
858.409	212
858.497	-277
858.585	-381
858.673	-49
858.761	-396
858.849	-709
858.937	-125
859.025	568
859.113	610
859.201	-457
859.289	198
859.377	579
859.465	438
859.552	170
859.640	-199
859.728	1166
859.816	-499
859.903	89
859.991	-139
860.079	-96
860.166	217
860.254	-36
860.342	252
860.429	-112
860.517	-1141
860.604	739
860.692	-213
860.779	-22
860.867	-202
860.954	890
861.042	-263
861.129	958
861.216	-450
861.304	119
861.391	-693
861.478	76
861.565	352
861.653	806
861.740	-1279
861.827	-22
861.914	-527
862.001	-351
862.089	-204
862.176	37
862.263	-414
862.350	837
862.437	-243
862.524	-515
862.611	577
862.698	655
862.785	1637
862.871	2251
862.958	-205
863.045	176
863.132	442
863.219	156
863.306	-1193
863.392	512
863.479	213
863.566	449
863.652	-221
863.739	336
863.826	-17
863.912	-216
863.999	-406
864.086	200
864.172	329
864.259	645
864.345	-188
864.432	73
864.518	130
864.604	-202
864.691	208
864.777	238
864.863	78
864.950	741
865.036	-201
865.122	985
865.209	1313
865.295	744
865.381	1009
865.467	1064
865.553	1585
865.639	2251
865.726	3934
865.812	8555
865.898	17408
865.984	26625
866.070	48069
866.156	51997
866.242	12648
866.328	2850
866.414	1293
866.499	766
866.585	321
866.671	1090
866.757	1164
866.843	1373
866.928	465
867.014	131
867.100	1034
867.186	495
867.271	1138
867.357	2113
867.442	1177
867.528	1352
867.614	924
867.699	2024
867.785	2343
867.870	3247
867.956	4208
868.041	2341
868.127	1441
868.212	3729
868.297	2016
868.383	2020
868.468	1939
868.553	3509
868.639	3736
868.724	7186
868.809	5717
868.894	1821
868.979	-157
869.065	1180
869.150	-911
869.235	-361
869.320	-346
869.405	-738
869.490	-373
869.575	95
869.660	-195
869.745	291
869.830	178
869.915	872
870.000	250
870.085	347
870.169	149
870.254	1411
870.339	-18
870.424	-177
870.509	-712
870.593	261
870.678	328
870.763	403
870.847	479
870.932	345
871.016	468
871.101	1162
871.186	200
871.270	549
871.355	-216
871.439	985
871.523	-391
871.608	242
871.692	-485
871.777	1045
871.861	849
871.945	35
872.030	-259
872.114	689
872.198	-501
872.282	356
872.367	709
872.451	711
872.535	227
872.619	481
872.703	126
872.787	-1
872.871	-581
872.955	-301
873.039	-817
873.123	-135
873.207	-376
873.291	-247
873.375	-718
873.459	368
873.543	-1154
873.627	-226
873.711	-327
873.794	372
873.878	-428
873.962	-102
874.045	56
874.129	-177
874.137	-141
874.213	216
874.245	123
874.296	-26
874.352	-479
874.380	-702
874.460	371
874.464	413
874.547	-403
874.568	-229
874.631	323
874.676	-276
874.714	-788
874.784	-110
874.798	19
874.881	1125
874.892	985
874.965	43
874.999	-10
875.048	-69
875.107	139
875.131	194
875.215	-198
875.215	-198
875.298	-553
875.323	-450
875.381	-175
875.430	-294
875.465	-376
875.538	-27
875.548	8
875.631	-77
875.646	-126
875.714	-325
875.753	-152
875.798	106
875.861	136
875.881	119
875.964	246
875.968	246
876.047	307
876.076	358
876.130	458
876.183	338
876.213	245
876.291	1026
876.296	1081
876.379	-97
876.398	-3
876.462	286
876.506	442
876.545	605
876.613	610
876.628	621
876.711	-1
876.721	87
876.794	575
876.828	353
876.877	157
876.935	543
876.960	702
877.043	30
877.043	35
877.125	1137
877.150	1047
877.208	836
877.258	1007
877.291	1154
877.365	564
877.374	489
877.456	645
877.472	632
877.539	571
877.579	924
877.622	1352
877.687	1012
877.704	890
877.787	1348
877.794	1259
877.869	380
877.901	476
877.952	600
878.008	549
878.034	542
878.115	362
878.117	359
878.199	-315
878.222	-221
878.282	71
878.329	449
878.364	741
878.437	949
878.447	961
878.529	121
878.544	76
878.611	11
878.651	206
878.694	452
878.758	948
878.776	1059
878.858	518
878.865	570
878.941	1137
878.972	898
879.023	474
879.078	356
879.105	436
879.185	774
879.187	779
879.269	539
879.292	575
879.351	460
879.399	547
879.433	742
879.506	364
879.516	294
879.598	108
879.613	64
879.680	101
879.720	559
879.762	930
879.827	584
879.844	490
879.926	618
879.933	594
880.007	589
880.040	593
880.089	509
880.147	488
880.171	554
880.253	1509
880.254	1511
880.335	2131
880.360	2583
880.417	4178
880.467	5288
880.499	6069
880.574	7054
880.580	6906
880.662	2751
880.680	2093
880.744	758
880.787	442
880.825	390
880.893	681
880.907	777
880.989	672
881.000	709
881.070	832
881.106	690
881.152	525
881.213	704
881.233	814
881.315	386
881.319	430
881.396	1231
881.426	1052
881.478	644
881.532	950
881.559	1102
881.639	748
881.641	743
881.722	850
881.745	778
881.803	594
881.852	657
881.885	793
881.958	498
881.966	441
882.047	1092
882.064	1009
882.129	947
882.171	1392
882.210	2238
882.277	3464
882.291	3460
882.372	2111
882.383	1959
882.454	1102
882.489	996
882.535	833
882.596	234
882.616	205
882.697	584
882.702	618
882.778	1093
882.808	933
882.859	618
882.914	691
882.940	693
883.020	824
883.021	830
883.102	753
883.127	783
883.183	791
883.233	813
883.264	748
883.339	362
883.345	359
883.426	314
883.445	361
883.507	841
883.551	1296
883.587	1276
883.657	921
883.668	986
883.749	1074
883.763	1202
883.830	962
883.869	722
883.910	782
883.975	746
883.991	825
884.072	1046
884.081	1119
884.152	1161
884.187	932
884.233	625
884.292	583
884.314	714
884.394	826
884.398	832
884.475	700
884.504	629
884.555	678
884.610	923
884.636	909
884.716	848
884.716	856
884.797	1508
884.821	1721
884.877	1267
884.927	693
884.958	656
885.033	829
885.038	848
885.118	994
885.139	1038
885.199	1104
885.244	1123
885.279	1235
885.350	1407
885.359	1364
885.439	984
885.456	854
885.520	765
885.561	1014
885.600	1240
885.667	1051
885.680	1044
885.760	1465
885.773	1494
885.840	1513
885.878	1447
885.920	1222
885.984	933
886.000	1015
886.080	1638
886.089	1668
886.160	1254
886.195	1130
886.240	1437
886.300	1603
886.320	1528
886.400	1560
886.406	1549
886.480	1578
886.511	1554
886.560	1735
886.616	1833
886.640	1806
886.720	1987
886.722	1979
886.800	1457
886.827	1303
886.879	1365
886.932	1403
886.959	1610
887.038	2119
887.039	2120
887.119	1522
887.143	1369
887.198	1414
887.248	1304
887.278	1164
887.354	1006
887.358	1024
887.437	1152
887.459	1235
887.517	1607
887.564	1736
887.596	1541
887.669	1329
887.676	1354
887.755	1318
887.774	1355
887.835	1235
887.880	1144
887.914	1279
887.985	1468
887.994	1456
888.073	1351
888.090	1318
888.153	1693
888.195	1872
888.232	1886
888.300	2062
888.311	1998
888.391	1415
888.405	1293
888.470	1200
888.510	1145
888.549	1285
888.615	1574
888.628	1667
888.708	2135
888.720	2200
888.787	2140
888.825	2078
888.866	1477
888.930	627
888.945	838
889.024	1804
889.035	1940
889.103	2025
889.140	2041
889.182	1837
889.245	1532
889.261	1463
889.340	1146
889.349	1106
889.419	1700
889.454	1990
889.498	1651
889.559	1184
889.577	1262
889.656	1596
889.664	1627
889.735	2079
889.768	2283
889.814	2336
889.873	2394
889.978	1573
890.083	1747
890.187	1741
890.292	1487
890.397	1918
890.501	2191
890.606	2096
890.710	2841
890.815	1538
890.919	1519
891.024	1854
891.128	2334
891.233	2349
891.337	2114
891.442	1646
891.546	2030
891.650	1804
891.755	1800
891.859	3040
891.963	2795
892.068	2821
892.172	1248
892.276	1653
892.380	1461
892.484	1893
892.589	2030
892.693	2273
892.797	1264
892.901	1365
893.005	1433
893.109	1617
893.213	2429
893.317	2117
893.421	1000
893.525	1526
893.629	1210
893.733	1188
893.837	841
893.941	1198
894.045	2880
894.148	1890
894.252	4981
894.356	3899
894.460	2422
894.564	1208
894.667	1090
894.771	1495
894.875	1535
894.978	1224
895.082	1241
895.186	1475
895.289	2198
895.393	1779
895.496	1368
895.600	1318
895.703	1237
895.807	1005
895.910	1751
896.014	1432
896.117	1321
896.221	2278
896.324	1182
896.427	1103
896.531	1785
896.634	1921
896.737	1702
896.840	1509
896.944	691
897.047	969
897.150	745
897.253	1420
897.356	1412
897.460	1388
897.563	940
897.666	528
897.769	867
897.872	2088
897.975	1520
898.078	1601
898.181	1127
898.284	813
898.387	1102
898.490	923
898.593	1190
898.695	988
898.798	1467
898.901	1455
899.004	1223
899.107	1722
899.209	1008
899.312	1917
899.415	1512
899.518	1055
899.620	1201
899.723	867
899.826	2536
899.928	3508
900.031	1023
900.133	1346
900.236	1206
900.338	880
900.441	1257
900.543	1261
900.646	1701
900.748	976
900.851	1829
900.953	468
901.055	1658
901.158	1521
901.260	1449
901.362	1161
901.465	1525
901.567	1300
901.669	1154
901.771	971
901.873	1236
901.976	1185
902.078	1573
902.180	615
902.282	1690
902.384	520
902.486	576
902.588	901
902.690	1541
902.792	1913
902.894	2315
902.996	817
903.098	966
903.200	1677
903.302	1278
903.404	582
903.505	871
903.607	1495
903.709	2318
903.811	1455
903.913	1349
904.014	1220
904.116	1368
904.218	1033
904.319	1460
904.421	2359
904.523	3077
904.624	1713
904.726	1897
904.827	1093
904.929	2279
905.030	2215
905.132	1166
905.233	1326
905.335	1259
905.436	1376
905.537	1793
905.639	1860
905.740	658
905.841	1477
905.943	2070
906.044	1626
906.145	2348
906.247	1804
906.348	1413
906.449	1152
906.550	1678
906.651	1351
906.752	908
906.854	1051
906.955	1606
907.056	1224
907.157	1296
907.258	1268
907.359	1059
907.460	1111
907.561	796
907.662	212
907.762	793
907.863	325
907.964	182
908.065	1842
908.166	1094
908.267	968
908.367	1417
908.468	1494
908.569	1861
908.670	1866
908.770	2322
908.871	2150
908.971	1618
909.072	1955
909.173	1029
909.273	1584
909.374	805
909.474	1996
909.575	447
909.675	719
909.776	1828
909.876	851
909.977	1572
910.077	419
910.177	802
910.278	1429
910.378	1009
910.478	1656
910.579	999
910.679	842
910.779	897
910.879	1527
910.980	344
911.080	1343
911.180	1068
911.280	1363
911.380	589
911.480	638
911.580	1192
911.680	45
911.780	1147
911.880	1302
911.980	710
912.080	208
912.180	1233
912.280	1727
912.380	1663
912.480	1331
912.580	1330
912.679	1348
912.779	1240
912.879	745
912.979	481
913.078	758
913.178	782
913.278	1104
913.377	1127
913.477	617
913.577	1536
913.676	1702
913.776	635
913.875	1030
913.975	1025
914.074	1052
914.174	471
914.273	685
914.373	2405
914.472	1311
914.572	663
914.671	1422
914.770	1243
914.870	643
914.969	1215
915.068	983
915.167	1711
915.267	380
915.366	983
915.465	1147
915.564	333
915.663	789
915.763	2038
915.862	861
915.961	1006
916.060	742
916.159	883
916.258	891
916.357	475
916.456	1240
916.555	683
916.654	606
916.752	822
916.851	695
916.950	834
917.049	678
917.148	1609
917.247	1020
917.345	1506
917.444	1117
917.543	860
917.642	748
917.740	1413
917.839	1072
917.937	1475
918.036	1270
918.135	1519
918.233	108
918.332	1168
918.430	765
918.529	1077
918.627	1647
918.726	1072
918.824	789
918.923	998
919.021	910
919.119	920
919.218	336
919.316	1134
919.414	928
919.512	826
919.611	888
919.709	1340
919.807	1024
919.905	1100
920.003	850
920.102	965
920.200	1327
920.298	597
920.396	1101
920.494	1684
920.592	426
920.690	1469
920.788	727
920.886	287
920.984	922
921.082	1463
921.180	1560
921.277	2373
921.375	922
921.473	1750
921.571	398
921.669	958
921.766	704
921.864	1780
921.962	1876
922.060	1176
922.157	1034
922.255	795
922.352	1079
922.450	1355
922.548	1432
922.645	1767
922.743	1557
922.840	1728
922.938	1873
923.035	1565
923.133	2211
923.230	2096
923.327	1669
923.425	2391
923.522	1311
923.619	1116
923.717	1625
923.814	1586
923.911	1818
924.008	2148
924.106	1982
924.203	1670
924.300	528
924.397	1647
924.494	2083
924.591	697
924.688	1333
924.786	2026
924.883	1596
924.979	526
925.077	1218
925.173	1734
925.270	955
925.367	1603
925.464	1210
925.561	1554
925.658	1901
925.755	2593
925.852	2472
925.948	2533
926.045	2522
926.142	2959
926.239	3354
926.335	3626
926.432	3536
926.529	4203
926.625	3871
926.722	1769
926.818	1866
926.915	1763
927.011	1131
927.108	1745
927.204	1128
927.301	706
927.397	1527
927.494	1013
927.590	1600
927.687	1073
927.783	612
927.879	1595
927.976	1686
928.072	1710
928.168	837
928.264	2417
928.361	1057
928.457	1128
928.553	993
928.649	2075
928.745	1185
928.841	1405
928.937	1359
929.033	1226
929.129	1372
929.225	1613
929.321	851
929.417	1475
929.513	1606
929.609	885
929.705	1188
929.801	1634
929.897	1419
929.993	1517
930.089	2311
930.184	570
930.280	1130
930.376	2439
930.471	405
930.567	1351
930.663	1314
930.758	804
930.854	1585
930.950	732
931.045	1538
931.141	1307
931.236	1273
931.332	1134
931.427	1027
931.523	1803
931.618	1825
931.714	296
931.809	1411
931.905	1740
932.000	1442
932.095	779
932.191	799
932.286	1215
932.381	1247
932.476	554
932.572	1091
932.667	935
932.762	1321
932.857	879
932.952	680
933.047	822
933.142	724
933.237	678
933.332	953
933.427	1402
933.522	1518
933.617	1270
933.712	653
933.807	1549
933.902	500
933.997	1685
934.092	556
934.187	890
934.282	709
934.376	1133
934.471	1056
934.566	1483
934.661	670
934.755	1106
934.850	837
934.945	1384
935.039	585
935.134	855
935.228	685
935.323	1142
935.417	993
935.512	518
935.606	1066
935.701	1315
935.795	583
935.890	817
935.984	328
936.079	-190
936.173	1019
936.267	640
936.362	-92
936.456	1589
936.550	980
936.644	1802
936.738	503
936.833	970
936.927	1446
937.021	2300
937.115	1559
937.209	414
937.303	1807
937.397	987
937.491	1000
937.585	833
937.679	604
937.773	372
937.867	1435
937.961	1295
938.055	903
938.149	615
938.243	584
938.337	648
938.430	356
938.524	2362
938.618	3532
938.712	3128
938.805	1378
938.899	1352
938.993	1806
939.086	2577
939.180	3857
939.274	5052
939.367	1975
939.461	1556
939.554	52
939.648	316
939.741	381
939.835	1434
939.928	1180
940.022	2155
940.115	505
940.208	1408
940.302	853
940.395	501
940.488	33
940.582	1192
940.675	-304
940.768	494
940.861	350
940.954	898
941.048	596
941.141	1643
941.234	1959
941.327	1802
941.420	3286
941.513	2319
941.606	878
941.699	2289
941.792	181
941.885	170
941.978	1108
942.071	880
942.164	229
942.257	746
942.349	1058
942.442	684
942.535	219
942.628	307
942.721	1055
942.813	171
942.906	1208
942.999	1364
943.091	842
943.184	397
943.277	193
943.369	612
943.462	405
943.554	1722
943.647	198
943.739	783
943.832	300
943.924	-566
944.017	495
944.109	239
944.201	-141
944.294	1042
944.386	656
944.478	603
944.571	-699
944.663	423
944.755	-217
944.847	970
944.940	751
945.032	-683
945.124	587
945.216	1109
945.308	291
945.400	442
945.492	386
945.584	837
945.676	822
945.768	850
945.860	1240
945.952	1160
946.044	1460
946.136	1121
946.228	47
946.320	221
946.412	11
946.503	996
946.595	947
946.687	-443
946.779	314
946.870	219
946.962	-130
947.054	590
947.145	-123
947.237	178
947.329	310
947.420	541
947.512	317
947.603	362
947.695	570
947.786	178
947.878	-203
947.969	554
948.061	-688
948.152	737
948.243	-35
948.335	729
948.426	80
948.517	95
948.609	476
948.700	418
948.791	338
948.882	498
948.973	665
949.065	-118
949.156	-346
949.247	70
949.338	-278
949.429	440
949.520	327
949.611	-442
949.702	615
949.793	573
949.884	-415
949.975	166
950.066	12
950.157	-130
950.247	311
950.338	277
950.429	5
950.520	818
950.611	151
950.701	986
950.792	527
950.883	662
950.973	713
951.064	1032
951.155	728
951.245	1005
951.336	822
951.427	-116
951.517	557
951.608	100
951.698	465
951.788	364
951.879	-119
951.969	371
952.060	-211
952.150	897
952.240	1465
952.331	-1295
952.421	761
952.511	-365
952.602	790
952.692	675
952.782	83
952.872	151
952.962	197
953.052	723
953.143	708
953.233	504
953.323	884
953.413	210
953.503	662
953.593	36
953.683	-143
953.773	61
953.863	387
953.953	980
954.042	251
954.132	738
954.222	446
954.312	-64
954.402	914
954.492	616
954.581	1681
954.671	750
954.761	250
954.850	1403
954.940	346
955.030	216
955.119	781
955.209	743
955.298	447
955.388	598
955.477	1356
955.567	372
955.656	1243
955.746	1279
955.835	889
955.925	675
956.014	472
956.103	-87
956.193	330
956.282	979
956.371	782
956.461	324
956.550	359
956.639	1102
956.728	-68
956.817	858
956.906	416
956.995	2300
957.085	842
957.174	525
957.263	1047
957.352	1261
957.441	871
957.530	1525
957.619	1137
957.708	1829
957.796	1057
957.885	1002
957.974	1051
958.063	1128
958.152	-349
958.241	663
958.329	987
958.418	1020
958.507	802
958.596	1732
958.684	800
958.773	1723
958.861	1676
958.950	1784
959.039	1716
959.127	1939
959.216	1413
959.304	1529
959.393	868
959.481	1916
959.570	2188
959.658	1624
959.746	2332
959.835	2709
959.923	2426
960.011	1601
960.100	2683
960.188	2150
960.276	1699
960.365	1643
960.453	1281
960.541	-1
960.629	986
960.717	1765
960.805	546
960.893	824
960.981	569
961.069	1537
961.158	507
961.245	1239
961.333	1019
961.421	-127
961.509	-41
961.597	930
961.685	30
961.773	1053
961.861	162
961.949	1053
962.036	300
962.124	1218
962.212	930
962.299	492
962.387	545
962.475	642
962.562	-85
962.650	946
962.738	1085
962.825	548
962.913	-120
963.000	187
963.088	1025
963.175	2
963.263	480
963.350	332
963.438	-22
963.525	483
963.612	1617
963.700	2916
963.787	9136
963.874	4735
963.962	507
964.049	1228
964.136	71
964.223	-298
964.310	653
964.398	714
964.485	-211
964.572	1453
964.659	1553
964.746	1065
964.833	-194
964.920	-416
965.007	21
965.094	724
965.181	53
965.268	941
965.355	-254
965.441	35
965.528	-137
965.615	764
965.702	-79
965.789	-706
965.875	469
965.962	-66
966.049	-452
966.136	663
966.222	-277
966.309	579
966.395	-893
966.482	2
966.569	-919
966.655	458
966.742	-605
966.828	343
966.915	124
967.001	164
967.087	-1423
967.174	-578
967.260	-258
967.347	568
967.433	2594
967.519	5558
967.605	1408
967.692	213
967.778	-9
967.864	11
967.950	514
968.036	644
968.123	-237
968.209	-155
968.295	-1894
968.381	1387
968.467	-490
968.553	-911
968.639	411
968.725	-212
968.811	1130
968.897	1179
968.983	-514
969.069	-612
969.154	-314
969.240	139
969.326	-632
969.412	-764
969.497	-454
969.583	-793
969.669	-207
969.755	373
969.840	-407
969.926	-75
970.012	-460
970.097	721
970.183	-190
970.268	336
970.354	787
970.439	869
970.525	3958
970.610	-880
970.696	411
970.781	-588
970.866	-746
970.952	620
971.037	-1537
971.122	-235
971.208	-188
971.293	240
971.378	-1377
971.463	-347
971.549	-235
971.634	-429
971.719	8
971.804	308
971.889	657
971.974	112
972.059	-487
972.144	984
972.229	-162
972.314	-543
972.399	-868
972.484	-587
972.569	752
972.654	-478
972.739	2214
972.824	2363
972.908	217
972.993	-749
973.078	-152
973.163	-609
973.247	-106
973.332	-1935
973.417	923
973.501	-1802
973.586	-573
973.671	249
973.755	-136
973.840	224
973.924	467
974.009	-583
974.093	-598
974.178	528
974.262	1546
974.346	597
974.431	75
974.515	-548
974.600	251
974.684	-597
974.768	-855
974.852	163
974.937	-1925
975.021	-128
975.105	-419
975.189	-137
975.273	172
975.358	-1490
975.442	-478
975.526	-90
975.610	-1506
975.694	-699
975.778	156
975.862	-41
975.946	-1114
976.030	1839
976.114	-489
976.198	-831
976.281	-655
976.365	460
976.449	-178
976.533	-452
976.617	-743
976.700	-40
976.784	-812
976.868	-339
976.951	60
977.035	194
977.119	160
977.202	-441
977.286	105
977.369	-592
977.453	0
977.536	-523
977.620	-822
977.703	-447
977.787	-1313
977.870	413
977.953	658
978.037	-1497
978.120	790
978.203	619
978.287	1325
978.370	487
978.453	-1101
978.536	4
978.620	228
978.703	1066
978.786	-1320
978.869	-922
978.952	-1035
979.035	873
979.118	-107
979.201	-912
979.284	-317
979.367	-922
979.450	-564
979.533	-977
979.616	-902
979.699	-721
979.782	-253
979.865	-1288
979.948	-473
980.030	-739
980.113	-488
980.196	-1607
980.279	-764
980.361	-503
980.444	-1059
980.526	-663
980.609	-82
980.692	-576
980.774	-493
980.857	-2023
980.939	-13
981.022	-675
981.104	-1966
981.187	-791
981.269	382
981.352	62
981.434	-1212
981.516	-1203
981.599	214
981.681	-506
981.763	-324
981.846	-308
981.928	-578
982.010	-546
982.092	-1525
982.174	-127
982.256	-286
982.339	-751
982.421	325
982.503	37
982.585	-872
982.667	-227
982.749	-505
982.831	-388
982.913	-1113
982.995	232
983.077	-349
983.158	-160
983.240	-1005
983.322	-93
983.404	-218
983.486	-960
983.568	-733
983.649	-1220
983.731	380
983.813	-442
983.894	-401
983.976	-501
984.058	-846
984.139	460
984.221	-986
984.302	-137
984.384	-447
984.465	-1592
984.547	-370
984.628	-1188
984.710	-326
984.791	-1297
984.872	-281
984.954	-1249
985.035	-427
985.116	-1222
985.198	-1448
985.279	837
985.360	-1468
985.441	-344
985.522	-480
985.604	-253
985.685	-1645
985.766	353
985.847	672
985.928	-1751
986.009	-865
986.090	-1107
986.171	-759
986.252	98
986.333	-45
986.414	-1045
986.495	-724
986.576	-873
986.656	-1421
986.737	3
986.818	-950
986.899	-1325
986.980	-1659
987.060	-426
987.141	-1098
987.222	-680
987.302	-771
987.383	-589
987.464	-1225
987.544	193
987.625	-97
987.705	-156
987.786	-192
987.866	-1025
987.947	-450
988.027	-685
988.108	-998
988.188	-194
988.268	306
988.349	-478
988.429	-1218
988.509	-207
988.589	-821
988.670	-1186
988.750	1252
988.830	-752
988.910	-497
988.990	-941
989.070	-911
989.151	-315
989.231	-2133
989.311	-592
989.391	-896
989.471	-1089
989.551	-791
989.631	-1032
989.711	-504
989.791	-497
989.870	-1305
989.950	472
990.030	-1077
990.110	-22
990.190	-1860
990.269	-745
990.349	-961
990.429	-598
990.509	-539
990.588	-1891
990.668	-489
990.747	-831
990.827	-1315
990.907	-380
990.986	-1294
991.066	-413
991.145	-509
991.225	-398
991.304	-1085
991.383	-370
991.463	83
991.542	-150
991.622	-1179
991.701	-814
991.780	-936
991.859	-785
991.939	-656
992.018	-804
992.097	-523
992.176	-126
992.256	-472
992.335	-1366
992.414	177
992.493	-1574
992.572	-462
992.651	363
992.730	-345
992.809	-552
992.888	-1193
992.967	-1058
993.046	-200
993.125	-773
993.203	-755
993.282	-211
993.361	-1065
993.440	-683
993.519	-1614
993.597	-512
993.676	-860
993.755	306
993.834	-842
993.912	-1538
993.991	32
994.069	-851
994.148	-933
994.226	-1110
994.305	-758
994.384	-1260
994.462	511
994.540	-1934
994.619	-958
994.697	-269
994.776	-1142
994.854	272
994.932	-1953
995.011	-1181
995.089	-1000
995.167	-1004
995.245	-545
995.324	-1751
995.402	-237
995.480	-1412
995.558	-614
995.636	-1096
995.714	-838
995.792	353
995.870	-541
995.948	-1056
996.026	-211
996.104	-1897
996.182	55
996.260	-1188
996.338	-784
996.416	-1512
996.494	-1086
996.572	-42
996.649	-1188
996.727	-1273
996.805	-1506
996.883	-799
996.960	-770
997.038	-297
997.116	-215
997.193	-2323
997.271	-661
997.348	-1245
997.426	-114
997.504	-1407
997.581	-127
997.658	-336
997.736	-1840
997.813	-1178
997.891	-465
997.968	-1281
998.046	-341
998.123	-1245
998.200	-576
998.277	-1540
998.355	48
998.432	-2137
998.509	-692
998.586	-151
998.663	-1427
998.741	-661
998.818	-1032
998.895	-789
998.972	-284
999.049	-398
999.126	-1033
999.203	-328
999.280	18
999.357	-712
999.434	-1517
999.511	-879
999.587	-525
999.664	-1123
999.741	-1121
999.818	420
999.895	-1957
999.971	-1135
1000.048	-1193
1000.125	805
1000.202	-2124
1000.278	-539
1000.355	-454
1000.431	-1423
1000.508	-2077
1000.584	-756
1000.661	-1035
1000.738	-1178
1000.814	-866
1000.890	212
1000.967	-1476
1001.043	-1289
1001.120	-1935
1001.196	-615
1001.272	-1529
1001.349	-764
1001.425	370
1001.501	-1927
1001.577	-1830
1001.654	-1050
1001.730	-847
1001.806	-704
1001.882	-1323
1001.958	-906
1002.034	-529
1002.110	-265
1002.186	-1154
1002.262	-1180
1002.338	-2218
1002.414	-415
1002.490	-644
1002.566	-1677
1002.642	-1380
1002.718	-311
1002.794	-1189
1002.870	-1085
1002.945	-1618
1003.021	-1471
1003.097	-705
1003.173	-248
1003.248	-1926
1003.324	-806
1003.400	-1064
1003.475	-746
1003.551	-571
1003.626	-1203
1003.702	-1049
1003.777	-722
1003.853	-938
1003.928	-657
1004.004	-1545
1004.079	-905
1004.155	-1222
1004.230	-1417
1004.305	-255
1004.381	-1613
1004.456	-1206
1004.531	-969
1004.607	-823
1004.682	-1120
1004.757	-332
1004.832	-760
1004.907	-1159
1004.982	-919
1005.057	-1326
1005.133	-2290
1005.208	-1589
1005.283	-1245
1005.358	-1085
1005.433	-1041
1005.508	-793
1005.583	-1534
1005.657	-1301
1005.732	-273
1005.807	-1615
1005.882	-694
1005.957	-1124
1006.032	-355
1006.106	-847
1006.181	-1440
1006.256	-820
1006.331	-2078
1006.405	-1541
1006.480	-925
1006.554	-1975
1006.629	-333
1006.704	-1580
1006.778	-1151
1006.853	-780
1006.927	-1065
1007.002	-1049
1007.076	-1156
1007.150	-1744
1007.225	-915
1007.299	-446
1007.373	-960
1007.448	-1023
1007.522	-919
1007.596	-1475
1007.671	-1450
1007.745	-447
1007.819	-1560
1007.893	-1429
1007.967	-1157
1008.041	-1817
1008.115	-575
1008.190	-1559
1008.264	-864
1008.338	-2219
1008.412	-814
1008.486	-1401
1008.560	-1619
1008.633	-1500
1008.707	-1362
1008.781	-1331
1008.855	-1764
1008.929	-1396
1009.003	-1710
1009.076	-1372
1009.150	-647
1009.224	-661
1009.298	-1089
1009.371	-1828
1009.445	-687
1009.519	-1871
1009.592	-2210
1009.666	-1583
1009.739	-1722
1009.813	-2066
1009.886	-195
1009.960	-1864
1010.033	-917
1010.107	-1451
1010.180	-2044
1010.253	-1288
1010.327	-1487
1010.400	-1266
1010.473	-1858
1010.547	-12
1010.620	-1099
1010.693	-1356
1010.766	-1787
1010.840	-735
1010.913	-923
1010.986	-1539
1011.059	-814
1011.132	-1630
1011.205	-914
1011.278	-1308
1011.351	-1493
1011.424	-1258
1011.497	-1654
1011.570	-2008
1011.643	-1805
1011.716	-1572
1011.789	-1226
1011.862	-1643
1011.934	-652
1012.007	-2322
1012.080	-1538
1012.153	-615
1012.225	-811
1012.298	-1544
1012.371	-871
1012.443	-1454
1012.516	-2621
1012.588	-992
1012.661	-1679
1012.733	-2345
1012.806	-667
1012.879	-2266
1012.951	-1641
1013.023	-1958
1013.096	-658
1013.168	-2159
1013.241	-805
1013.313	-1828
1013.385	-1730
1013.458	-1830
1013.530	-894
1013.602	-2146
1013.674	-1227
1013.746	-2293
1013.819	-1679
1013.891	-1290
1013.963	-2680
1014.035	-1643
1014.107	-1907
1014.179	-699
1014.251	-2735
1014.323	-1040
1014.395	-1399
1014.467	-1633
1014.539	-1036
1014.611	-3141
1014.683	-1686
1014.754	-1398
1014.826	-2337
1014.898	-1880
1014.970	-2865
1015.042	-1393
1015.113	-1246
1015.185	-2020
1015.257	-2107
1015.328	-1585
1015.400	-2137
1015.471	-1197
1015.543	-2343
1015.615	-1480
1015.686	-2021
1015.757	-2065
1015.829	-1620
1015.901	-2201
1015.972	-1184
1016.043	-1924
1016.115	-2022
1016.186	-1718
1016.257	-1625
1016.328	-1838
1016.400	-556
1016.471	-2430
1016.542	-2375
1016.613	-1448
1016.685	-1692
1016.756	-1697
1016.827	-2350
1016.898	-2753
1016.969	-1575
1017.040	-1700
1017.111	-2344
1017.182	-2473
1017.253	-1350
1017.324	-1766
1017.395	-1854
1017.466	-2236
1017.537	-1425
1017.608	-2512
1017.678	-1199
1017.749	-2034
1017.820	-2165
1017.891	-2008
1017.961	-2358
1018.032	-2385
1018.103	-1811
1018.173	-2012
1018.244	-2166
1018.315	-1590
1018.385	-1928
1018.456	-1827
1018.526	-2516
1018.597	-2518
1018.667	-2487
1018.738	-1994
1018.808	-2030
1018.878	-2248
1018.949	-2011
1019.019	-1606
1019.089	-2071
1019.160	-2154
1019.230	-2991
1019.300	-1969
1019.371	-2347
1019.441	-2341
1019.511	-2276
1019.581	-1324
1019.651	-1805
1019.721	-1552
1019.791	-2023
1019.861	-2197
1019.931	-2392
1020.001	-2485
1020.071	-1844
1020.141	-2512
1020.211	-1108
1020.281	-1842
1020.351	-2544
1020.421	-1687
1020.491	-1329
1020.560	-2938
1020.630	-2467
1020.700	-1859
1020.770	-2361
1020.839	-2436
1020.909	-1363
1020.979	-2536
1021.048	-1947
1021.118	-2199
1021.187	-1462
1021.257	-1580
1021.326	-2135
1021.396	-2096
1021.465	-1798
1021.535	-1582
1021.604	-2233
1021.674	-2098
1021.743	-1915
1021.812	-2274
1021.882	-2364
1021.951	-1971
1022.020	-2417
1022.089	-2714
1022.159	-2924
1022.228	-1532
1022.297	-2367
1022.366	-2617
1022.435	-1866
1022.504	-2271
1022.573	-2323
1022.642	-2194
1022.711	-2530
1022.781	-2119
1022.849	-2510
1022.918	-3486
1022.987	-2106
1023.056	-1783
1023.125	-1767
1023.194	-2126
1023.263	-2383
1023.331	-2455
1023.400	-1804
1023.469	-1992
1023.538	-1133
1023.606	-1982
1023.675	-1721
1023.744	-2639
1023.812	-2221
1023.881	-2297
1023.949	-2362
1024.018	-2192
1024.086	-1792
1024.155	-2840
1024.223	-2479
1024.292	-1710
1024.360	-1964
1024.429	-1886
1024.497	-2075
1024.565	-2243
1024.634	-1821
1024.702	-1878
1024.770	-1810
1024.838	-1926
1024.907	-2036
1024.975	-2377
1025.043	-2016
1025.111	-2288
1025.179	-1029
1025.247	-2096
1025.315	-2013
1025.383	-2146
1025.451	-2215
1025.519	-2529
1025.587	-2513
1025.655	-2156
1025.723	-2481
1025.791	-2642
1025.859	-1452
1025.927	-1565
1025.995	-1467
1026.062	-1679
1026.130	-1911
1026.198	-2343
1026.266	-2695
1026.333	-1791
1026.401	-1924
1026.469	-2485
1026.536	-2468
1026.604	-1456
1026.671	-2296
1026.739	-2108
1026.806	-2205
1026.874	-2121
1026.941	-2185
1027.009	-2218
1027.076	-2201
1027.144	-1507
1027.211	-2870
1027.278	-2107
1027.345	-1910
1027.413	-1514
1027.480	-2433
1027.547	-2383
1027.614	-1980
1027.682	-2804
1027.749	-1980
1027.816	-2118
1027.883	-1969
1027.950	-1552
1028.017	-2203
1028.084	-1750
1028.151	-2129
1028.218	-2162
1028.285	-2307
1028.352	-2335
1028.419	-1943
1028.486	-2125
1028.553	-1484
1028.619	-2066
1028.686	-2380
1028.753	-2126
1028.820	-1755
1028.886	-2140
1028.953	-1944
1029.020	-1625
1029.086	-944
1029.153	-1781
1029.220	-1635
1029.286	-1696
1029.353	-1907
1029.419	-2022
1029.486	-1607
1029.552	-2977
1029.619	-1791
1029.685	-2627
1029.751	-1537
1029.818	-2048
1029.884	-1163
1029.951	-1582
1030.017	-2557
1030.083	-2267
1030.149	-1739
1030.216	-2132
1030.282	-1869
1030.348	-1820
1030.414	-2178
1030.480	-2204
1030.546	-1722
1030.612	-2311
1030.678	-2018
1030.744	-1684
1030.810	-1636
1030.876	-2451
1030.942	-2339
1031.008	-2174
1031.074	-1559
1031.140	-2304
1031.206	-1790
1031.272	-2645
1031.337	-1258
1031.403	-1235
1031.469	-1959
1031.534	-2126
1031.600	-1905
1031.666	-2295
1031.731	-2064
1031.797	-2145
1031.863	-2218
1031.928	-1287
1031.994	-2116
1032.059	-1939
1032.125	-1872
1032.190	-2158
1032.256	-1977
1032.321	-1225
1032.386	-2149
1032.452	-1858
1032.517	-2162
1032.582	-2579
1032.647	-2326
1032.713	-2042
1032.778	-1046
1032.843	-2017
1032.908	-2778
1032.974	-2230
1033.039	-1854
1033.104	-2536
1033.169	-1556
1033.234	-2410
1033.299	-1413
1033.364	-1133
1033.429	-1121
1033.494	-1295
1033.559	-1789
1033.624	-1354
1033.688	-2066
1033.753	-2533
1033.818	-1533
1033.883	-2289
1033.948	-1911
1034.013	-1546
1034.077	-1176
1034.142	-1510
1034.207	-1115
1034.271	-1701
1034.336	-1002
1034.400	-1280
1034.465	-1595
1034.530	-2016
1034.594	-1580
1034.658	-1512
1034.723	-1913
1034.787	-2705
1034.852	-1605
1034.916	-2560
1034.981	-1158
1035.045	-1509
1035.109	-1577
1035.173	-842
1035.238	-2565
1035.302	-2207
1035.366	-1768
1035.430	-2073
1035.495	-2177
1035.559	-1083
1035.623	-2049
1035.687	-1791
1035.751	-1928
1035.815	-1763
1035.879	-1300
1035.943	-2826
1036.007	-1894
1036.071	-2227
1036.135	-2127
1036.198	-1739
1036.262	-1957
1036.326	-959
1036.390	-1317
1036.454	-1324
1036.517	-1611
1036.581	-1354
1036.645	-484
1036.709	-742
1036.772	-1990
1036.836	-1632
1036.900	-1554
1036.963	-2215
1037.026	-1488
1037.090	-1602
1037.154	-933
1037.217	-2202
1037.280	-1639
1037.344	-2974
1037.407	-1899
1037.471	-2205
1037.534	-1883
1037.597	-2177
1037.661	-2544
1037.724	-2260
1037.787	-2072
1037.850	-2185
1037.913	-2152
1037.977	-1651
1038.040	-1612
1038.103	-2423
1038.166	-2384
1038.229	-2086
1038.292	-2542
1038.355	-1541
1038.418	-2066
1038.481	-2100
1038.544	-1628
1038.607	-2014
1038.670	-1753
1038.732	-1749
1038.795	-1765
1038.858	-1280
1038.921	-1205
1038.984	-1850
1039.046	-2111
1039.109	-1639
1039.172	-2107
1039.234	-1493
1039.297	-2132
1039.360	-1663
1039.422	-1617
1039.485	-2089
1039.547	-2179
1039.610	-1856
1039.672	-2291
1039.734	-2443
1039.797	-2414
1039.859	-2392
1039.922	-1773
1039.984	-2276
1040.046	-1757
1040.109	-1717
1040.171	-2459
1040.233	-2557
1040.295	-1972
1040.358	-1547
1040.420	-1959
1040.482	-1586
1040.544	-1831
1040.606	-2896
1040.668	-1477
1040.730	-1978
1040.792	-1892
1040.854	-1283
1040.916	-1590
1040.978	-2315
1041.040	-410
1041.102	-1870
1041.164	-2114
1041.225	-2297
1041.287	-1710
1041.349	-2260
1041.411	-2513
1041.472	-1932
1041.534	-2191
1041.596	-2330
1041.657	-1547
1041.719	-1144
1041.781	-1938
1041.842	-2142
1041.904	-1892
1041.965	-2055
1042.027	-1697
1042.088	-1427
1042.150	-2400
1042.211	-2386
1042.272	-984
1042.334	-1811
1042.395	-1873
1042.456	-2504
1042.518	-1771
1042.579	-2159
1042.640	-1804
1042.701	-2152
1042.763	-1840
1042.824	-3012
1042.885	-2553
1042.946	-1945
1043.007	-1913
1043.068	-2397
1043.129	-1374
1043.190	-1735
1043.251	-1880
1043.312	-1911
1043.373	-1393
1043.434	-2723
1043.495	-2877
1043.556	-1687
1043.616	-2749
1043.677	-2277
1043.738	-1633
1043.799	-2564
1043.859	-1368
1043.920	-1972
1043.981	-2334
1044.041	-1777
1044.102	-2053
1044.162	-1704
1044.223	-1847
1044.284	-2127
1044.344	-2135
1044.405	-2286
1044.465	-2415
1044.525	-2306
1044.586	-2403
1044.646	-1553
1044.707	-2072
1044.767	-1171
1044.827	-1990
1044.887	-1600
1044.948	-1854
1045.008	-1826
1045.068	-1600
1045.128	-2189
1045.188	-1725
1045.249	-1401
1045.309	-2152
1045.369	-1545
1045.429	-1471
1045.489	-2026
1045.549	-2080
1045.609	-1696
1045.669	-1783
1045.729	-1489
1045.789	-1726
1045.848	-2019
1045.908	-1607
1045.968	-1098
1046.028	-1418
1046.088	-2034
1046.147	-1119
1046.207	-1730
1046.267	-2171
1046.326	-1512
1046.386	-1034
1046.446	-345
1046.505	-1005
1046.565	-1269
1046.624	-763
1046.684	-976
1046.743	-656
1046.803	-598
1046.862	-1225
1046.922	0
