'Start Wavelength	183.907
'End Wavelength	1046.922
'Gate Delay	5.000
'Gate Width (ms)	1.050
'Laser Output Level	0.000
'X Position	0.000
'Y Position	0.000
'Z Position	0.000
'Grid Point Number	1.000
'Shot Number	100.000
183.907	878.000
183.977	373.000
184.047	643
184.116	897
184.186	1016
184.256	347
184.325	-23
184.395	243
184.465	455
184.534	888
184.604	-575
184.674	307
184.743	-162
184.813	972
184.883	476
184.952	403
185.022	580
185.092	737
185.161	629
185.231	-26
185.301	673
185.370	765
185.440	-510
185.509	414
185.579	-22
185.649	60
185.718	491
185.788	115
185.857	-174
185.927	-28
185.996	926
186.066	562
186.136	-48
186.205	37
186.275	896
186.344	1044
186.414	489
186.483	784
186.553	1440
186.622	2284
186.692	602
186.761	201
186.831	336
186.900	121
186.970	890
187.039	1370
187.109	1355
187.178	553
187.248	935
187.317	2196
187.387	1228
187.456	760
187.526	1343
187.595	1247
187.664	1296
187.734	1266
187.803	1880
187.873	125
187.942	1114
188.012	893
188.081	966
188.150	798
188.220	1424
188.289	1780
188.358	1750
188.428	1414
188.497	727
188.567	1865
188.636	806
188.705	138
188.775	221
188.844	578
188.913	1717
188.983	826
189.052	953
189.121	1828
189.191	1144
189.260	1528
189.329	1077
189.399	1298
189.468	840
189.537	980
189.606	1157
189.676	2087
189.745	2053
189.814	2145
189.883	1270
189.953	1105
190.022	2069
190.091	3928
190.161	4880
190.230	2380
190.299	1724
190.368	1681
190.437	437
190.507	1170
190.576	1823
190.645	818
190.714	1188
190.783	640
190.853	3701
190.922	3375
190.991	2974
191.060	2866
191.129	2355
191.198	2956
191.268	1623
191.337	1671
191.406	3109
191.475	2033
191.544	522
191.613	1897
191.682	493
191.752	1256
191.821	898
191.890	988
191.959	1299
192.028	1601
192.097	954
192.166	1676
192.235	570
192.304	960
192.373	465
192.442	1146
192.511	538
192.580	620
192.650	548
192.719	725
192.788	1267
192.857	409
192.926	643
192.995	927
193.064	1011
193.133	1319
193.202	1058
193.271	1043
193.340	1541
193.409	1474
193.478	3151
193.547	2036
193.615	2572
193.684	2534
193.753	1673
193.822	1965
193.891	1243
193.960	1425
194.029	1404
194.098	808
194.167	1396
194.236	2072
194.305	875
194.374	692
194.443	950
194.512	2461
194.580	1756
194.649	1987
194.718	2907
194.787	2093
194.856	1690
194.925	1611
194.994	1950
195.062	2324
195.131	3176
195.200	4226
195.269	5025
195.338	2378
195.407	2167
195.475	1631
195.544	3615
195.613	3150
195.682	2085
195.751	3843
195.819	3139
195.888	3693
195.957	4276
196.026	4273
196.094	4116
196.163	3806
196.232	4222
196.301	3852
196.369	3617
196.438	2789
196.507	1293
196.576	1753
196.644	789
196.713	1171
196.782	1807
196.850	1475
196.919	859
196.988	2117
197.056	1047
197.125	1772
197.194	2396
197.262	685
197.331	1041
197.400	2375
197.468	1739
197.537	639
197.606	1703
197.674	3389
197.743	5181
197.812	1895
197.880	3933
197.949	5268
198.017	4099
198.086	2853
198.155	2712
198.223	2203
198.292	5678
198.360	2005
198.429	1524
198.497	1671
198.566	2928
198.635	5400
198.703	2253
198.772	2313
198.840	4919
198.909	5682
198.977	2130
199.046	1143
199.114	2468
199.183	2299
199.251	1580
199.320	1649
199.388	1596
199.457	1780
199.525	2542
199.594	1477
199.662	1992
199.731	1243
199.799	1879
199.867	1826
199.936	1825
200.004	2056
200.073	2093
200.141	1501
200.210	782
200.278	1062
200.346	1497
200.415	2500
200.483	2093
200.552	1383
200.620	1736
200.688	2432
200.757	2165
200.825	1262
200.893	1921
200.962	1581
201.030	1313
201.098	1426
201.167	2124
201.235	1434
201.303	1690
201.372	1729
201.440	1628
201.508	2318
201.577	3293
201.645	2725
201.713	1656
201.781	1124
201.850	2864
201.918	1917
201.986	2175
202.055	2391
202.123	2794
202.191	2024
202.259	2322
202.327	1675
202.396	1541
202.464	2373
202.532	3351
202.600	11070
202.669	6099
202.737	2598
202.805	2044
202.873	2148
202.941	1774
203.009	957
203.078	1748
203.146	2258
203.214	1952
203.282	1532
203.350	3133
203.418	1664
203.487	3065
203.555	1714
203.623	1435
203.691	2762
203.759	1913
203.827	1718
203.895	3735
203.963	3354
204.031	2092
204.099	2564
204.168	3342
204.236	3178
204.304	2568
204.372	3116
204.440	1676
204.508	1262
204.576	1208
204.644	1843
204.712	959
204.780	1783
204.848	2809
204.916	407
204.984	1645
205.052	3414
205.120	3287
205.188	3354
205.256	2017
205.324	1400
205.392	1305
205.460	3446
205.528	2664
205.596	2044
205.664	1824
205.732	2483
205.799	4850
205.867	9277
205.935	3074
206.003	3465
206.071	2628
206.139	3640
206.207	4317
206.275	3018
206.343	3152
206.411	2801
206.478	2756
206.546	2812
206.614	3276
206.682	2274
206.750	2325
206.818	2450
206.885	2555
206.953	404
207.021	2590
207.089	1596
207.157	1892
207.225	1710
207.292	1578
207.360	1306
207.428	1111
207.496	1320
207.563	1709
207.631	2057
207.699	1236
207.767	1969
207.834	1450
207.902	2203
207.970	2460
208.038	2081
208.105	1229
208.173	2801
208.241	3205
208.309	2647
208.376	3631
208.444	6642
208.512	3002
208.579	1174
208.647	2602
208.715	3385
208.782	2592
208.850	2095
208.918	2545
208.985	2917
209.053	2901
209.120	2637
209.188	1998
209.256	1725
209.323	1823
209.391	5128
209.459	3561
209.526	2822
209.594	1452
209.661	1202
209.729	2168
209.796	3059
209.864	2426
209.932	1582
209.999	4515
210.067	3886
210.134	4580
210.202	2732
210.269	5760
210.337	3524
210.404	1586
210.472	1910
210.539	2574
210.607	3081
210.674	4975
210.742	2905
210.809	2908
210.877	4209
210.944	4626
211.012	3874
211.079	5302
211.146	2928
211.214	2912
211.281	4046
211.349	4952
211.416	2863
211.484	4230
211.551	2941
211.618	2944
211.686	4030
211.753	3102
211.821	4051
211.888	4312
211.955	3487
212.023	2632
212.090	2212
212.157	3483
212.225	4818
212.292	6179
212.359	12985
212.427	31117
212.494	14237
212.561	6353
212.629	5951
212.696	4738
212.763	3891
212.831	1996
212.898	3178
212.965	1938
213.032	3466
213.100	4809
213.167	4559
213.234	5091
213.301	3200
213.369	3138
213.436	2490
213.503	3213
213.570	3481
213.638	3460
213.705	2377
213.772	1947
213.839	5527
213.906	7745
213.973	7045
214.041	4638
214.108	3557
214.175	5133
214.242	6687
214.309	4383
214.376	6833
214.444	4391
214.511	4945
214.578	4065
214.645	3610
214.712	4945
214.779	4238
214.846	3683
214.913	4130
214.980	4373
215.048	5640
215.115	6744
215.182	7845
215.249	4962
215.316	4248
215.383	4100
215.450	5117
215.517	6817
215.584	6045
215.651	4906
215.718	4262
215.785	7202
215.852	7873
215.919	12000
215.986	10277
216.053	5812
216.120	3850
216.187	6618
216.254	8766
216.321	5827
216.388	6314
216.455	6569
216.522	5304
216.589	8946
216.656	14511
216.722	15430
216.789	6823
216.856	4899
216.923	4288
216.990	3405
217.057	4430
217.124	7713
217.191	5678
217.258	7025
217.324	6628
217.391	5638
217.458	3814
217.525	3505
217.592	3829
217.659	3297
217.725	5665
217.792	10261
217.859	9779
217.926	4559
217.993	2732
218.059	3826
218.126	3847
218.193	1950
218.260	2936
218.327	3148
218.393	4415
218.460	3154
218.527	2618
218.594	4337
218.660	12074
218.727	13695
218.794	5238
218.860	3642
218.927	3922
218.994	3539
219.061	4152
219.127	7487
219.194	10769
219.261	5670
219.327	2719
219.394	4152
219.461	2416
219.527	3331
219.594	8229
219.661	6192
219.727	2395
219.794	3651
219.860	2870
219.927	3656
219.994	6389
220.060	13662
220.127	7651
220.193	3547
220.260	3514
220.326	4468
220.393	4854
220.460	7325
220.526	5505
220.593	3515
220.659	4831
220.726	4564
220.792	13637
220.859	9867
220.925	8599
220.992	11424
221.058	15814
221.125	19588
221.191	14635
221.258	5762
221.324	5279
221.391	4873
221.457	2949
221.524	4046
221.590	6474
221.657	19460
221.723	14043
221.789	12065
221.856	11870
221.922	6343
221.989	5656
222.055	4827
222.121	6715
222.188	9995
222.254	5617
222.321	6966
222.387	4572
222.453	4609
222.520	9480
222.586	5137
222.652	7222
222.719	10812
222.785	6542
222.851	5104
222.918	5340
222.984	10527
223.050	18670
223.116	11361
223.183	6484
223.249	2997
223.315	3279
223.382	7094
223.448	4686
223.514	2641
223.580	2865
223.647	2531
223.713	2629
223.779	3687
223.845	7374
223.911	9354
223.978	2869
224.044	4005
224.110	3638
224.176	3076
224.242	3176
224.309	2928
224.375	3205
224.441	3327
224.507	4517
224.573	3349
224.639	4090
224.705	2617
224.772	3661
224.838	2928
224.904	6306
224.970	4634
225.036	4362
225.102	5227
225.168	4925
225.234	4140
225.300	4640
225.366	3791
225.432	3563
225.499	3627
225.565	6053
225.631	5891
225.697	4132
225.763	4014
225.829	4858
225.895	7119
225.961	12644
226.027	11068
226.093	12068
226.159	12756
226.225	7999
226.291	11480
226.357	20506
226.423	21295
226.489	13973
226.554	8583
226.620	7962
226.686	13220
226.752	26792
226.818	19324
226.884	29924
226.950	25735
227.016	10839
227.082	9356
227.148	9382
227.214	15717
227.279	23938
227.345	20957
227.411	11519
227.477	8420
227.543	11958
227.609	17880
227.674	23068
227.740	12690
227.806	7215
227.872	6114
227.938	9648
228.003	26957
228.069	11304
228.135	5583
228.201	5654
228.267	5580
228.332	8955
228.398	10849
228.464	7702
228.530	3564
228.595	3858
228.661	5112
228.727	12287
228.792	10771
228.858	5381
228.924	6288
228.990	8386
229.055	8703
229.121	10563
229.187	7176
229.252	8582
229.318	7150
229.384	12213
229.449	13596
229.515	5413
229.581	3747
229.646	7730
229.712	8244
229.777	19235
229.843	21377
229.909	15201
229.974	24623
230.040	19480
230.105	9892
230.171	10776
230.236	16357
230.302	25970
230.368	17603
230.433	8768
230.499	9916
230.564	23138
230.630	13324
230.695	6250
230.761	5475
230.826	4566
230.892	13232
230.957	7108
231.023	4290
231.088	4791
231.154	4477
231.219	5155
231.284	9795
231.350	10952
231.415	5244
231.481	6088
231.546	4561
231.612	4626
231.677	3879
231.742	3375
231.808	6675
231.873	4216
231.939	2888
232.004	10176
232.069	12334
232.135	4619
232.200	4829
232.265	4395
232.331	3040
232.396	3512
232.461	3768
232.527	4304
232.592	3531
232.657	4682
232.723	13438
232.788	11120
232.853	5587
232.918	4990
232.984	4435
233.049	4643
233.114	12783
233.179	12359
233.245	16041
233.310	22840
233.375	7035
233.440	8410
233.506	5926
233.571	5158
233.636	5325
233.701	6690
233.766	13985
233.832	20562
233.897	10799
233.962	11883
234.027	14453
234.092	11707
234.157	11112
234.222	11276
234.288	14303
234.353	41563
234.418	41649
234.483	23749
234.548	16611
234.613	12315
234.678	11982
234.743	13492
234.808	44224
234.873	30486
234.938	12372
235.004	10282
235.069	10549
235.134	9041
235.199	7989
235.264	6794
235.329	5147
235.394	7727
235.459	11499
235.524	12519
235.589	9251
235.654	6938
235.719	5094
235.784	6502
235.849	8231
235.913	24445
235.978	26440
236.043	33829
236.108	11941
236.173	11234
236.238	13169
236.303	7379
236.368	7376
236.433	12397
236.498	25853
236.563	12282
236.627	12923
236.692	37116
236.757	29548
236.822	18449
236.887	21831
236.952	15033
237.017	10366
237.081	13140
237.146	15363
237.211	18188
237.276	32557
237.341	73718
237.405	46296
237.470	23721
237.535	22170
237.600	11867
237.664	9776
237.729	8771
237.794	12696
237.859	15683
237.923	19946
237.988	13015
238.053	20764
238.118	24782
238.182	51910
238.247	53481
238.312	30201
238.376	21520
238.441	23499
238.506	18674
238.570	8236
238.635	8221
238.700	7497
238.764	7602
238.829	22992
238.893	32183
238.958	15812
239.023	15886
239.087	8935
239.152	11438
239.216	7355
239.281	6626
239.346	7469
239.410	7276
239.475	10771
239.539	50871
239.604	45561
239.668	13294
239.733	9459
239.797	10113
239.862	17374
239.926	40384
239.991	20942
240.055	12045
240.120	10397
240.184	10383
240.249	9781
240.313	8943
240.378	10162
240.442	35917
240.507	57114
240.571	24291
240.635	28255
240.700	36490
240.764	16479
240.829	11800
240.893	9139
240.957	11967
241.022	29441
241.086	56280
241.151	35134
241.215	15221
241.279	17276
241.344	32726
241.408	16197
241.472	11140
241.537	12519
241.601	10974
241.665	8902
241.730	10253
241.794	15371
241.858	18407
241.922	11027
241.987	11500
242.051	9758
242.115	14675
242.179	14244
242.244	8774
242.308	10139
242.372	13257
242.436	28821
242.501	13494
242.565	9131
242.629	8511
242.693	9558
242.757	8517
242.822	15270
242.886	13377
242.950	11195
243.014	12850
243.078	14774
243.142	16773
243.206	14107
243.271	15526
243.335	18612
243.399	17316
243.463	36055
243.527	94477
243.591	35686
243.655	21129
243.719	12342
243.783	15260
243.847	20505
243.911	24696
243.975	44866
244.040	38319
244.104	27786
244.168	16029
244.232	22679
244.296	31816
244.360	23544
244.424	20439
244.488	17271
244.552	16167
244.615	12287
244.679	12447
244.743	15593
244.807	19700
244.871	11481
244.935	10454
244.999	10828
245.063	15331
245.127	13911
245.191	16989
245.255	16910
245.319	19237
245.383	21436
245.446	14639
245.510	11828
245.574	14416
245.638	14718
245.702	14901
245.766	36011
245.829	23269
245.893	18505
245.957	14842
246.021	16292
246.085	17599
246.149	23324
246.212	50440
246.276	74576
246.340	36850
246.404	26166
246.467	23669
246.531	41813
246.595	25748
246.659	23687
246.722	23591
246.786	29839
246.850	29378
246.913	35327
246.977	17553
247.041	17467
247.104	22952
247.168	18885
247.232	44914
247.295	93646
247.359	51156
247.423	23465
247.486	41831
247.550	27250
247.614	21783
247.677	31989
247.741	21541
247.804	16592
247.868	20494
247.932	41257
247.995	90613
248.059	38466
248.122	18585
248.186	24729
248.249	42696
248.313	137624
248.376	151759
248.440	100109
248.503	40742
248.567	31080
248.630	46348
248.694	62264
248.757	73986
248.821	149259
248.884	97054
248.948	84628
249.011	117269
249.075	172076
249.138	156580
249.202	64853
249.265	42348
249.328	52972
249.392	39110
249.455	30770
249.519	21091
249.582	28934
249.645	44595
249.709	33953
249.772	21763
249.835	21873
249.899	29037
249.962	21865
250.025	19544
250.089	51872
250.152	82853
250.215	40625
250.279	28599
250.342	28266
250.405	27515
250.468	26382
250.532	29439
250.595	37842
250.658	91413
250.721	156336
250.785	67502
250.848	41298
250.911	24322
250.974	22176
251.038	35370
251.101	82806
251.164	45334
251.227	45250
251.290	35359
251.354	39224
251.417	126508
251.480	131539
251.543	80361
251.606	226295
251.669	179356
251.732	83407
251.795	104417
251.859	95171
251.922	158694
251.985	103435
252.048	59176
252.111	49325
252.174	42139
252.237	76733
252.300	173209
252.363	145628
252.426	230199
252.489	128216
252.552	103077
252.615	73194
252.678	55974
252.741	120164
252.804	128969
252.867	214190
252.930	176720
252.993	135001
253.056	78542
253.119	81876
253.182	58013
253.245	51981
253.308	47786
253.371	62074
253.434	70008
253.497	76053
253.559	100763
253.622	86367
253.685	95619
253.748	104137
253.811	49395
253.874	60497
253.937	61222
254.000	41341
254.062	65859
254.125	101451
254.188	108606
254.251	94390
254.314	42949
254.376	70668
254.439	81507
254.502	77704
254.565	69255
254.628	118505
254.690	85729
254.753	50543
254.816	41770
254.878	45361
254.941	68820
255.004	76937
255.067	37803
255.129	42834
255.192	24861
255.255	22976
255.317	28666
255.380	20562
255.443	16483
255.505	18341
255.568	23168
255.631	32215
255.693	26111
255.756	20000
255.819	17734
255.881	16451
255.944	15986
256.006	15704
256.069	16838
256.132	15276
256.194	23332
256.257	59064
256.319	45452
256.382	43129
256.444	23107
256.507	18174
256.569	14541
256.632	16129
256.694	26191
256.757	28443
256.819	56204
256.882	32389
256.944	23223
257.007	24122
257.069	36659
257.132	35042
257.194	17626
257.257	20480
257.319	19443
257.381	16376
257.444	25684
257.506	65008
257.569	88779
257.631	81572
257.693	53975
257.756	27875
257.818	31160
257.880	18686
257.943	18539
258.005	17708
258.067	27582
258.130	29684
258.192	26886
258.254	57396
258.317	36431
258.379	22270
258.441	44565
258.503	45387
258.566	54895
258.628	78725
258.690	23478
258.753	21816
258.815	50633
258.877	29453
258.939	16602
259.001	18220
259.064	22862
259.126	23182
259.188	33519
259.250	21015
259.312	26519
259.375	70098
259.437	47677
259.499	20415
259.561	17897
259.623	24858
259.685	41462
259.747	24236
259.809	53982
259.872	104474
259.934	146910
259.996	189014
260.058	69562
260.120	27009
260.182	20337
260.244	17481
260.306	15251
260.368	18547
260.430	22294
260.492	65844
260.554	106184
260.616	53749
260.678	78562
260.740	113967
260.802	36329
260.864	29278
260.926	26348
260.988	25951
261.050	28994
261.112	94857
261.174	187973
261.236	104748
261.298	39329
261.359	52962
261.421	77247
261.483	29659
261.545	24360
261.607	16809
261.669	18119
261.731	33578
261.793	84524
261.854	44107
261.916	30580
261.978	48865
262.040	58705
262.102	26111
262.164	39021
262.225	34236
262.287	20282
262.349	46610
262.411	40959
262.472	20489
262.534	34557
262.596	78620
262.658	27107
262.719	19841
262.781	24690
262.843	73136
262.904	36089
262.966	26942
263.028	30167
263.090	93068
263.151	248810
263.213	129110
263.275	107641
263.336	38031
263.398	24809
263.459	18951
263.521	21353
263.583	47413
263.644	36856
263.706	19751
263.767	16044
263.829	15021
263.891	14532
263.952	15347
264.014	18461
264.075	51558
264.137	132917
264.198	53877
264.260	25685
264.321	24096
264.383	61052
264.444	169309
264.506	63771
264.567	35897
264.629	70434
264.690	160601
264.752	59232
264.813	32156
264.875	27963
264.936	35494
264.998	34584
265.059	17624
265.120	15694
265.182	18615
265.243	27318
265.305	30449
265.366	16231
265.427	15084
265.489	18563
265.550	15714
265.611	20770
265.673	29735
265.734	35028
265.795	17054
265.857	12680
265.918	12369
265.979	14910
266.040	41250
266.102	42898
266.163	31920
266.224	57481
266.286	25352
266.347	16375
266.408	17369
266.469	20553
266.530	16615
266.592	12927
266.653	31313
266.714	56719
266.775	20748
266.836	16049
266.898	17887
266.959	53587
267.020	39314
267.081	16365
267.142	13138
267.203	12168
267.264	12027
267.326	15305
267.387	14694
267.448	14492
267.509	13438
267.570	12968
267.631	12594
267.692	10634
267.753	11194
267.814	11614
267.875	25456
267.936	61961
267.997	63778
268.058	47073
268.119	22563
268.180	21897
268.241	18084
268.302	13732
268.363	13009
268.424	18129
268.485	26511
268.546	23977
268.607	12086
268.668	10916
268.729	11988
268.790	14614
268.851	24063
268.912	66167
268.972	62092
269.033	34719
269.094	18846
269.155	14009
269.216	13320
269.277	17364
269.338	14052
269.398	12228
269.459	18696
269.520	25176
269.581	34075
269.642	44174
269.702	29088
269.763	19836
269.824	16825
269.885	21981
269.945	34755
270.006	16098
270.067	11217
270.128	11743
270.188	12719
270.249	15360
270.310	13870
270.370	12821
270.431	14665
270.492	12840
270.553	14967
270.613	34607
270.674	63547
270.734	33035
270.795	18818
270.856	27293
270.916	27305
270.977	17071
271.038	21420
271.098	23620
271.159	33709
271.219	36708
271.280	16853
271.340	15114
271.401	20430
271.462	52077
271.522	32533
271.583	20688
271.643	23543
271.704	20005
271.764	25677
271.825	49115
271.885	135442
271.946	189107
272.006	71799
272.066	82289
272.127	141137
272.187	48121
272.248	30082
272.308	32306
272.369	90835
272.429	60322
272.489	63864
272.550	83513
272.610	58983
272.671	47700
272.731	51494
272.791	89363
272.852	43345
272.912	34851
272.972	22748
273.033	21807
273.093	42533
273.153	58905
273.214	41641
273.274	33625
273.334	119638
273.394	169072
273.455	76164
273.515	76967
273.575	165409
273.635	70644
273.696	78806
273.756	138043
273.816	65284
273.876	38501
273.936	73633
273.997	158163
274.057	55209
274.117	36625
274.177	49975
274.237	184786
274.297	166627
274.358	119335
274.418	112832
274.478	99118
274.538	50944
274.598	37217
274.658	104941
274.718	143678
274.778	61559
274.838	35164
274.898	77277
274.958	207935
275.018	149191
275.078	99593
275.138	51004
275.198	33646
275.258	23988
275.318	32850
275.378	55840
275.438	59745
275.498	38986
275.558	75692
275.618	158648
275.678	104779
275.738	85556
275.798	102352
275.858	79537
275.918	28902
275.978	28815
276.038	27895
276.098	22318
276.157	44482
276.217	108799
276.277	54195
276.337	43323
276.397	26305
276.457	33931
276.517	32506
276.576	19283
276.636	17297
276.696	32084
276.756	65434
276.815	54080
276.875	26637
276.935	32893
276.995	28418
277.055	17384
277.114	19309
277.174	26060
277.234	80993
277.293	42451
277.353	27583
277.413	19866
277.472	22652
277.532	23884
277.592	22552
277.651	46975
277.711	82573
277.771	35640
277.830	106194
277.890	92594
277.950	59561
278.009	142230
278.069	63422
278.128	56173
278.188	84128
278.248	44439
278.307	82505
278.367	59663
278.426	28461
278.486	24038
278.545	19520
278.605	17018
278.664	17960
278.724	21199
278.783	46556
278.843	121237
278.902	42497
278.962	28865
279.021	30080
279.081	32748
279.140	32862
279.199	29627
279.259	23670
279.318	23104
279.378	27789
279.437	48174
279.496	155007
279.556	387833
279.615	330309
279.675	98503
279.734	61771
279.793	96241
279.853	133866
279.912	55555
279.971	33885
280.031	31209
280.090	51607
280.149	92025
280.208	80247
280.268	318159
280.327	321542
280.386	93721
280.445	76242
280.505	86715
280.564	61319
280.623	61952
280.682	51881
280.742	73136
280.801	31950
280.860	27392
280.919	35608
280.978	34952
281.037	33657
281.097	28228
281.156	20574
281.215	19106
281.274	27575
281.333	85429
281.392	68227
281.451	22542
281.510	17991
281.569	20770
281.628	17736
281.688	17404
281.747	26762
281.806	38481
281.865	22729
281.924	17520
281.983	20035
282.042	17759
282.101	17587
282.160	16693
282.219	15793
282.278	17742
282.337	51214
282.396	40458
282.454	18779
282.513	26645
282.572	83198
282.631	53677
282.690	21396
282.749	21565
282.808	35319
282.867	37289
282.926	29473
282.985	17847
283.043	16725
283.102	17529
283.161	24656
283.220	65164
283.279	106339
283.338	35330
283.396	23376
283.455	22798
283.514	24037
283.573	36863
283.631	30960
283.690	24771
283.749	19990
283.808	37085
283.866	46477
283.925	20936
283.984	19718
284.043	27915
284.101	31313
284.160	29657
284.219	74247
284.277	41668
284.336	36677
284.395	100978
284.453	85144
284.512	32629
284.570	45283
284.629	39460
284.688	29289
284.746	28849
284.805	29952
284.863	35873
284.922	44225
284.981	44934
285.039	59552
285.098	108877
285.156	250851
285.215	516340
285.273	500324
285.332	266334
285.390	147430
285.449	96295
285.507	64729
285.566	49787
285.624	41811
285.683	36195
285.741	28457
285.799	28278
285.858	31730
285.916	28840
285.975	20903
286.033	20560
286.091	20177
286.150	20958
286.208	27561
286.267	47484
286.325	31248
286.383	39734
286.442	33130
286.500	18626
286.558	16592
286.616	16503
286.675	23449
286.733	22055
286.791	22086
286.850	27381
286.908	42501
286.966	53196
287.024	26807
287.083	18509
287.141	15854
287.199	17873
287.257	28984
287.315	21972
287.374	22156
287.432	49277
287.490	36054
287.548	25689
287.606	21257
287.664	21063
287.723	41381
287.781	79192
287.839	30967
287.897	25077
287.955	24352
288.013	28907
288.071	51344
288.129	147352
288.187	412397
288.245	190656
288.303	67999
288.361	50450
288.419	80641
288.477	64300
288.535	31036
288.593	27584
288.651	28350
288.709	21921
288.767	23017
288.825	24295
288.883	27501
288.941	31325
288.999	21667
289.057	22677
289.115	34091
289.173	31780
289.231	22797
289.289	22844
289.346	19868
289.404	24384
289.462	37177
289.520	40156
289.578	24714
289.636	18831
289.694	16178
289.751	17663
289.809	17339
289.867	18945
289.925	23005
289.983	30613
290.040	19332
290.098	17583
290.156	23541
290.214	28704
290.271	21615
290.329	18042
290.387	16023
290.444	16707
290.502	16555
290.560	26405
290.617	33893
290.675	23019
290.733	19828
290.790	22474
290.848	18597
290.906	20696
290.963	22561
291.021	26093
291.078	22819
291.136	28667
291.194	78089
291.251	159740
291.309	55796
291.366	29204
291.424	24555
291.481	25130
291.539	21335
291.596	19755
291.654	16200
291.711	16678
291.769	20542
291.826	41066
291.884	28961
291.941	20858
291.999	21064
292.056	23105
292.114	26231
292.171	19326
292.228	21756
292.286	28318
292.343	48634
292.401	53314
292.458	35573
292.515	26775
292.573	29706
292.630	29869
292.687	33934
292.745	30408
292.802	49876
292.859	129502
292.917	126961
292.974	75239
293.031	34156
293.089	28464
293.146	26586
293.203	23668
293.260	24119
293.318	36070
293.375	79932
293.432	48202
293.489	26272
293.546	24651
293.604	34219
293.661	66336
293.718	159376
293.775	128693
293.832	60027
293.889	43730
293.947	39744
294.004	32904
294.061	36924
294.118	60510
294.175	130564
294.232	198047
294.289	87755
294.346	43443
294.403	36186
294.460	36740
294.517	35180
294.574	33888
294.631	29093
294.688	35017
294.745	69239
294.802	200067
294.859	266748
294.916	114752
294.973	63190
295.030	55310
295.087	48024
295.144	35526
295.201	31334
295.258	28649
295.315	34535
295.372	69226
295.429	120677
295.486	71843
295.542	61740
295.599	138317
295.656	243412
295.713	173139
295.770	140494
295.827	68238
295.883	48804
295.940	51995
295.997	78848
296.054	75840
296.111	42962
296.167	34607
296.224	30568
296.281	28674
296.338	29113
296.394	30530
296.451	39119
296.508	79421
296.564	165626
296.621	148840
296.678	153481
296.734	230198
296.791	116967
296.848	72260
296.904	67376
296.961	108871
297.018	147620
297.074	143618
297.131	67850
297.187	49145
297.244	57923
297.301	116794
297.357	197794
297.414	84211
297.470	48857
297.527	47862
297.583	37415
297.640	40828
297.696	35712
297.753	30734
297.809	28595
297.866	25821
297.922	27005
297.979	26776
298.035	29460
298.092	40603
298.148	79119
298.204	84764
298.261	54857
298.317	87786
298.374	184484
298.430	108973
298.486	64354
298.543	54386
298.599	46802
298.656	44390
298.712	59722
298.768	95112
298.824	64081
298.881	35853
298.937	31095
298.993	35661
299.050	49484
299.106	45511
299.162	37846
299.218	35587
299.275	29304
299.331	32294
299.387	47452
299.443	121926
299.500	132287
299.556	60373
299.612	44303
299.668	39884
299.724	33629
299.780	33438
299.837	31512
299.893	44630
299.949	106701
300.005	129952
300.061	119760
300.117	197185
300.173	105868
300.229	59468
300.285	67516
300.341	77848
300.397	46988
300.453	35633
300.510	31944
300.566	33994
300.622	34216
300.678	49538
300.734	99356
300.790	107051
300.845	127148
300.901	83019
300.957	104347
301.013	93753
301.069	48775
301.125	39711
301.181	45040
301.237	36066
301.293	31463
301.349	29094
301.405	28767
301.461	29362
301.516	33490
301.572	39318
301.628	60357
301.684	62123
301.740	86055
301.796	102802
301.851	71970
301.907	100420
301.963	108817
302.019	139587
302.074	316113
302.130	325363
302.186	157537
302.242	80099
302.297	62565
302.353	59706
302.409	90916
302.464	87135
302.520	78245
302.576	139576
302.631	159378
302.687	104001
302.743	57153
302.798	42603
302.854	39160
302.910	41181
302.965	58332
303.021	84839
303.076	71532
303.132	79313
303.187	89626
303.243	54393
303.299	38812
303.354	33932
303.410	32887
303.465	33664
303.521	32813
303.576	33183
303.632	38004
303.687	52152
303.743	111822
303.798	104910
303.853	55150
303.909	42028
303.964	38558
304.020	50159
304.075	71866
304.130	62990
304.186	103272
304.241	108575
304.297	89830
304.352	55663
304.358	54291
304.407	43150
304.449	42340
304.463	42079
304.518	44858
304.539	44910
304.573	45037
304.629	48032
304.630	48509
304.684	70797
304.720	94815
304.739	106499
304.794	142701
304.811	125928
304.850	84871
304.902	56694
304.905	54950
304.960	44330
304.992	41247
305.015	39224
305.071	39709
305.083	38958
305.126	36087
305.173	33518
305.181	33172
305.236	33426
305.264	34625
305.292	35930
305.347	40937
305.354	40829
305.402	39292
305.445	38180
305.457	38258
305.512	45612
305.535	49029
305.567	53492
305.622	56128
305.626	57483
305.678	89011
305.716	131441
305.733	145899
305.788	177403
305.807	166517
305.843	145928
305.897	144727
305.898	144594
305.953	145050
305.988	113949
306.008	96590
306.063	66413
306.078	61980
306.118	53389
306.168	43085
306.173	42296
306.228	38468
306.259	37731
306.283	37901
306.338	40568
306.349	40913
306.393	40909
306.440	40712
306.448	41602
306.503	54082
306.530	65293
306.558	97156
306.613	211479
306.620	226432
306.668	269326
306.711	222356
306.723	206417
306.778	142400
306.801	112398
306.833	83156
306.888	57426
306.892	56150
306.943	48775
306.982	47991
306.997	48928
307.052	52324
307.072	56827
307.107	76064
307.162	117047
307.163	117605
307.217	181086
307.253	210073
307.272	209730
307.327	200963
307.343	180480
307.381	137310
307.434	104933
307.436	106824
307.491	188805
307.524	260750
307.546	267275
307.600	199153
307.614	173438
307.655	112924
307.704	72345
307.710	72893
307.765	100559
307.795	126079
307.819	152965
307.874	245554
307.885	247940
307.929	179380
307.975	91108
307.984	84124
308.038	69579
308.065	67571
308.093	85974
308.148	134541
308.156	145440
308.202	209600
308.246	260566
308.257	255419
308.312	161584
308.336	133658
308.366	122858
308.421	108434
308.426	105558
308.475	78072
308.517	62237
308.530	60285
308.585	54679
308.607	53964
308.639	63058
308.694	83851
308.697	85513
308.748	185099
308.787	284790
308.803	282128
308.857	215990
308.877	179457
308.912	145198
308.967	123118
308.967	122654
309.021	111299
309.058	104209
309.076	113474
309.130	151097
309.148	166646
309.185	245077
309.238	361535
309.239	362574
309.293	398524
309.328	375500
309.348	325280
309.402	171615
309.418	132929
309.457	105474
309.508	78662
309.511	78624
309.566	83271
309.598	87416
309.620	105327
309.674	156572
309.688	170674
309.729	166276
309.778	142834
309.783	140410
309.837	108155
309.868	93662
309.892	119398
309.946	187002
309.959	205967
310.001	268146
310.049	328471
310.055	318668
310.109	204113
310.139	138648
310.163	119618
310.218	89297
310.229	84095
310.272	85818
310.319	88425
310.326	90218
310.381	106023
310.409	112024
310.435	113578
310.489	116020
310.499	116679
310.543	127132
310.589	136001
310.598	137539
310.652	149117
310.679	151071
310.706	132167
310.760	92668
310.769	86480
310.814	70327
310.859	55935
310.868	57641
310.923	67747
310.948	73002
310.977	82796
311.031	101497
311.038	103862
311.085	102251
311.128	98838
311.139	98642
311.193	96643
311.218	95784
311.247	89637
311.301	76895
311.308	75187
311.356	92545
311.398	109020
311.410	106037
311.464	89572
311.488	81445
311.518	77044
311.572	69306
311.578	68356
311.626	89495
311.668	108160
311.680	121341
311.734	179503
311.758	205093
311.788	197523
311.842	180959
311.847	178735
311.896	207567
311.937	232614
311.950	229734
312.004	214293
312.027	206343
312.058	167428
312.112	97640
312.117	90477
312.165	94590
312.207	97778
312.297	193569
312.386	176359
312.476	111881
312.566	157988
312.656	93606
312.745	95101
312.835	127444
312.925	138636
313.015	126395
313.104	158842
313.194	80213
313.284	80183
313.374	86094
313.463	86176
313.553	82246
313.643	77218
313.732	68108
313.822	78394
313.912	98526
314.001	106876
314.091	146110
314.180	254038
314.270	138398
314.360	186266
314.449	125094
314.539	93410
314.628	89408
314.718	139321
314.808	183527
314.897	81943
314.987	71075
315.076	84521
315.166	136110
315.255	167763
315.345	131817
315.434	175994
315.524	142470
315.613	139483
315.703	110295
315.792	111731
315.881	134013
315.971	114659
316.060	229305
316.150	467711
316.239	442221
316.328	166815
316.418	77365
316.507	75839
316.597	86701
316.686	92402
316.775	172882
316.865	386344
316.954	95975
317.043	65313
317.133	70354
317.222	71061
317.311	72047
317.400	62357
317.490	74854
317.579	85181
317.668	65640
317.757	82748
317.847	105839
317.936	196313
318.025	165003
318.114	104581
318.203	99003
318.293	122591
318.382	186175
318.471	166077
318.560	238653
318.649	524596
318.738	161786
318.828	113862
318.917	128176
319.006	176836
319.095	431409
319.184	640639
319.273	369391
319.362	188034
319.451	101406
319.540	97759
319.629	151520
319.718	239925
319.807	157859
319.896	261818
319.985	742228
320.074	336699
320.163	185575
320.252	325617
320.341	265773
320.430	223079
320.519	196587
320.608	150116
320.697	145952
320.786	126548
320.875	117513
320.964	135533
321.053	171554
321.142	221240
321.230	246320
321.319	268588
321.408	503030
321.497	293921
321.586	226699
321.675	384008
321.764	403175
321.852	328029
321.941	353198
322.030	223125
322.119	312662
322.207	506278
322.296	596325
322.385	409855
322.474	272109
322.562	507816
322.651	420204
322.740	258288
322.829	434354
322.917	644274
323.006	285547
323.095	217462
323.183	256124
323.272	314433
323.361	369269
323.449	856268
323.538	412120
323.626	756821
323.715	454845
323.804	276087
323.892	700687
323.981	469777
324.069	175818
324.158	412279
324.246	378031
324.335	163416
324.424	185556
324.512	95200
324.601	109954
324.689	152358
324.778	264869
324.866	425795
324.954	145470
325.043	122663
325.131	263539
325.220	478967
325.308	511116
325.397	372477
325.485	223842
325.574	85951
325.662	76396
325.750	84598
325.839	80687
325.927	84189
326.015	131102
326.104	234431
326.192	327625
326.280	97553
326.369	105706
326.457	102342
326.545	151605
326.634	86845
326.722	69448
326.810	69348
326.898	69011
326.987	83565
327.075	177979
327.163	296506
327.251	171924
327.340	110889
327.428	142752
327.516	77510
327.604	84492
327.692	130949
327.781	175669
327.869	328372
327.957	166173
328.045	107211
328.133	75981
328.221	164322
328.309	92330
328.397	72428
328.485	86697
328.574	102556
328.662	233355
328.750	286024
328.838	193633
328.926	91982
329.014	75746
329.102	104700
329.190	287114
329.278	165235
329.366	63395
329.454	84927
329.542	94122
329.630	78958
329.718	78294
329.806	83411
329.893	108343
329.981	115273
330.069	51018
330.157	60690
330.245	80152
330.333	67050
330.421	63816
330.509	102865
330.597	290210
330.684	306422
330.772	202340
330.860	390224
330.948	460063
331.036	178490
331.123	70315
331.211	96792
331.299	162772
331.387	288320
331.475	520832
331.562	219352
331.650	94522
331.738	142452
331.825	248982
331.913	94284
332.001	80966
332.089	151198
332.176	373170
332.264	513337
332.352	437747
332.439	187562
332.527	151243
332.614	137793
332.702	210336
332.790	103987
332.877	243778
332.965	471175
333.052	113468
333.140	127530
333.228	252505
333.315	94210
333.403	120121
333.490	368227
333.578	260331
333.665	120447
333.753	101913
333.840	83409
333.928	122137
334.015	392099
334.103	399467
334.190	855052
334.278	310094
334.365	211619
334.452	122397
334.540	86325
334.627	161339
334.715	228115
334.802	299742
334.889	1132251
334.977	914459
335.064	172921
335.151	107603
335.239	139351
335.326	176654
335.413	384357
335.501	491970
335.588	123039
335.675	100667
335.762	161841
335.850	302261
335.937	136579
336.024	294191
336.111	1036101
336.199	537064
336.286	134205
336.373	75456
336.460	62186
336.547	74045
336.635	125009
336.722	92872
336.809	107194
336.896	122520
336.983	288468
337.070	630836
337.157	809880
337.245	781158
337.332	523487
337.419	143312
337.506	103116
337.593	126393
337.680	255560
337.767	636647
337.854	254431
337.941	373745
338.028	464722
338.115	185808
338.202	259753
338.289	326821
338.376	730813
338.463	289981
338.550	466610
338.637	432117
338.724	253534
338.811	391652
338.898	117031
338.984	100531
339.071	169873
339.158	103331
339.245	227668
339.332	170703
339.419	297129
339.506	270329
339.593	60159
339.679	54058
339.766	59753
339.853	109768
339.940	129722
340.027	75752
340.113	62855
340.200	91638
340.287	92044
340.374	92609
340.460	117200
340.547	82513
340.634	88066
340.720	235779
340.807	137135
340.894	51462
340.980	80778
341.067	59055
341.154	75236
341.240	78027
341.327	125541
341.414	51882
341.500	49917
341.587	74014
341.674	68611
341.760	102620
341.847	113453
341.933	50478
342.020	35288
342.106	37719
342.193	53335
342.279	83507
342.366	65247
342.452	96376
342.539	66464
342.625	117364
342.712	226391
342.798	114049
342.885	73704
342.971	41845
343.058	39543
343.144	40278
343.230	36919
343.317	36205
343.403	35389
343.490	37282
343.576	43418
343.662	41060
343.749	46726
343.835	56058
343.921	107337
344.008	299209
344.094	592674
344.180	168866
344.267	102935
344.353	281902
344.439	446334
344.525	173822
344.612	60738
344.698	56116
344.784	48659
344.870	39015
344.957	44735
345.043	64085
345.129	55579
345.215	108221
345.301	68528
345.387	56962
345.474	53610
345.560	73378
345.646	136947
345.732	85817
345.818	63722
345.904	56556
345.990	74221
346.076	109236
346.162	260155
346.249	80791
346.335	49615
346.421	44784
346.507	101913
346.593	262013
346.679	112098
346.765	86258
346.851	54380
346.937	58003
347.023	41733
347.108	45937
347.194	43638
347.280	48682
347.366	47588
347.452	91363
347.538	304712
347.624	285450
347.710	387939
347.796	118202
347.882	79461
347.967	71499
348.053	164954
348.139	100865
348.225	53138
348.311	43468
348.397	38621
348.482	52487
348.568	78663
348.654	36892
348.740	31828
348.825	35408
348.911	66618
348.997	190276
349.083	388880
349.168	136520
349.254	48012
349.340	55598
349.425	41419
349.511	66693
349.597	99921
349.682	94825
349.768	211136
349.854	127537
349.939	92883
350.025	58209
350.110	39880
350.196	34105
350.282	33513
350.367	51154
350.453	185982
350.538	177336
350.624	100276
350.709	108952
350.795	55761
350.880	42581
350.966	59603
351.051	157425
351.137	133073
351.222	50067
351.308	83316
351.393	191274
351.479	57682
351.564	32507
351.649	49924
351.735	44299
351.820	31849
351.906	40032
351.991	85238
352.076	165019
352.162	188913
352.247	59789
352.332	46820
352.418	70766
352.503	91867
352.588	302849
352.673	265676
352.759	75670
352.844	45360
352.929	49289
353.014	66999
353.100	44345
353.185	55480
353.270	102138
353.355	106552
353.441	54450
353.526	110749
353.611	125552
353.696	115327
353.781	70045
353.866	40284
353.952	42701
354.037	99822
354.122	202532
354.207	189046
354.292	84506
354.377	42675
354.462	39112
354.547	54037
354.632	68898
354.717	128202
354.802	68000
354.887	36406
354.972	33330
355.057	29634
355.142	28666
355.227	39324
355.312	66231
355.397	135926
355.482	298735
355.567	159856
355.652	131111
355.737	114065
355.822	226643
355.907	180620
355.991	47703
356.076	39964
356.161	44907
356.246	34916
356.331	36821
356.416	79638
356.501	324078
356.585	333787
356.670	73924
356.755	52727
356.840	76237
356.924	260057
357.009	795685
357.094	341275
357.179	120786
357.263	82143
357.348	117254
357.433	145874
357.517	83258
357.602	56179
357.687	42882
357.771	52790
357.856	81757
357.941	72898
358.025	197752
358.110	710338
358.195	354632
358.279	85082
358.364	67395
358.448	199449
358.533	458999
358.617	343046
358.702	338217
358.787	149928
358.871	103157
358.956	86179
359.040	34270
359.125	27885
359.209	29028
359.294	41467
359.378	55678
359.462	78176
359.547	87169
359.631	111699
359.716	48057
359.800	72361
359.885	146127
359.969	65188
360.053	32809
360.138	36893
360.222	57934
360.306	99680
360.391	96644
360.475	107098
360.559	184363
360.644	223802
360.728	177038
360.812	198553
360.896	468805
360.981	362119
361.065	257446
361.149	71878
361.233	80986
361.318	72035
361.402	82583
361.486	58214
361.570	37814
361.654	52367
361.739	115037
361.823	337484
361.907	442425
361.991	108965
362.075	82743
362.159	173108
362.243	125476
362.327	117023
362.411	101074
362.495	130943
362.580	74481
362.664	51547
362.748	39874
362.832	34414
362.916	42604
363.000	93596
363.084	322304
363.168	530590
363.252	175086
363.336	115149
363.420	159944
363.503	540881
363.587	579586
363.671	128183
363.755	109743
363.839	134985
363.923	56514
364.007	111384
364.091	182168
364.175	273191
364.258	712669
364.342	382338
364.426	188845
364.510	153728
364.594	177846
364.677	172384
364.761	405170
364.845	281361
364.929	151331
365.013	133261
365.096	111935
365.180	142354
365.264	241601
365.347	756062
365.431	447444
365.515	178866
365.598	64041
365.682	55218
365.766	178640
365.849	223580
365.933	111962
366.017	177114
366.100	160912
366.184	77537
366.267	74507
366.351	37454
366.435	33987
366.518	28968
366.602	29187
366.685	36874
366.769	50548
366.852	151388
366.936	222673
367.019	88140
367.103	124833
367.186	246334
367.270	64799
367.353	30542
367.436	35472
367.520	34697
367.603	44035
367.687	67204
367.770	116723
367.853	64283
367.937	152025
368.020	229644
368.104	82632
368.187	92461
368.270	120355
368.353	115816
368.437	241788
368.520	647092
368.603	359799
368.687	230870
368.770	331860
368.853	115133
368.936	187396
369.020	234160
369.103	68164
369.186	53764
369.269	55179
369.352	95891
369.436	193754
369.519	109683
369.602	48841
369.685	63817
369.768	81518
369.851	79646
369.934	51500
370.018	88643
370.101	129360
370.184	126677
370.267	126268
370.350	133712
370.433	231684
370.516	265731
370.599	291811
370.682	160943
370.765	280139
370.848	269675
370.931	415960
371.014	280571
371.097	76416
371.180	41004
371.263	27727
371.346	32669
371.429	34487
371.511	55414
371.594	102072
371.677	181982
371.760	257542
371.843	106998
371.926	283703
372.009	616182
372.091	246020
372.174	239351
372.257	355170
372.340	161576
372.423	313432
372.505	442986
372.588	153449
372.671	145775
372.754	358728
372.836	189487
372.919	256626
373.002	485107
373.085	150823
373.167	86930
373.250	185272
373.332	334886
373.415	436354
373.498	808882
373.580	362251
373.663	394931
373.746	497524
373.828	178565
373.911	144637
373.993	147541
374.076	505957
374.159	567271
374.241	219064
374.324	368793
374.406	236594
374.489	246836
374.571	631147
374.654	272237
374.736	186912
374.819	493470
374.901	594275
374.983	563571
375.066	128092
375.148	93182
375.231	385413
375.313	729861
375.395	357708
375.478	85914
375.560	54771
375.643	76185
375.725	215545
375.807	607586
375.890	712395
375.972	549687
376.054	306392
376.136	576931
376.219	231714
376.301	181805
376.383	424567
376.465	171462
376.548	161309
376.630	172022
376.712	371235
376.794	168444
376.877	40393
376.959	40184
377.041	59607
377.123	193954
377.205	222553
377.287	44476
377.369	30959
377.452	38700
377.534	37504
377.616	44208
377.698	36647
377.780	29141
377.862	38299
377.944	39073
378.026	33054
378.108	33678
378.190	39373
378.272	34583
378.354	27869
378.436	37064
378.518	107188
378.600	386560
378.682	227494
378.764	235968
378.846	198258
378.928	162862
379.010	136450
379.091	63710
379.173	37324
379.255	40336
379.337	58605
379.419	131634
379.501	320288
379.583	189124
379.664	79144
379.746	126191
379.828	284190
379.910	311430
379.991	241505
380.073	75864
380.155	79772
380.237	47488
380.318	33920
380.400	37662
380.482	90931
380.564	141615
380.645	124769
380.727	112669
380.809	69157
380.890	52231
380.972	41805
381.053	44339
381.135	60988
381.217	104129
381.298	277637
381.380	171064
381.461	165783
381.543	394934
381.624	430879
381.706	129903
381.787	147071
381.869	116701
381.951	181735
382.032	593462
382.113	416515
382.195	204035
382.276	113466
382.358	141242
382.439	342462
382.521	356673
382.602	534113
382.684	293029
382.765	596271
382.846	565113
382.928	487296
383.009	268423
383.090	192899
383.172	606273
383.253	886539
383.334	502992
383.416	581830
383.497	254943
383.578	136548
383.659	272917
383.741	584123
383.822	1221190
383.903	645537
383.984	345165
384.066	616483
384.147	402240
384.228	124034
384.309	110552
384.390	70874
384.471	66820
384.553	101365
384.634	169059
384.715	129040
384.796	72303
384.877	76729
384.958	199974
385.039	247609
385.120	113402
385.201	84050
385.282	223409
385.363	289929
385.444	145254
385.525	107819
385.606	280577
385.687	245319
385.768	216665
385.849	263964
385.930	352098
386.011	498656
386.092	185242
386.173	95047
386.254	142641
386.335	132698
386.416	94042
386.496	194671
386.577	351599
386.658	327499
386.739	225429
386.820	293163
386.901	270304
386.981	172069
387.062	77727
387.143	85058
387.224	253033
387.304	321547
387.385	202701
387.466	215804
387.547	287565
387.627	114116
387.708	122920
387.789	388228
387.869	429015
387.950	139936
388.031	73762
388.111	167841
388.192	555618
388.273	825599
388.353	386530
388.434	114388
388.514	106071
388.595	311769
388.676	410998
388.756	251795
388.837	272897
388.917	164921
388.998	76459
389.078	52939
389.159	41364
389.239	42858
389.320	72319
389.400	90448
389.480	215449
389.561	359170
389.641	140792
389.722	87685
389.802	145037
389.883	168357
389.963	326129
390.043	404004
390.124	256500
390.204	117309
390.284	267093
390.365	195402
390.445	349175
390.525	441789
390.605	245335
390.686	132506
390.766	55697
390.846	38377
390.927	35902
391.007	51164
391.087	97825
391.167	99141
391.247	83416
391.328	227304
391.408	303491
391.488	182003
391.568	59184
391.648	64124
391.728	70951
391.808	69484
391.888	78048
391.969	148771
392.049	233614
392.129	208363
392.209	165367
392.289	238227
392.369	179876
392.449	315602
392.529	170511
392.609	123881
392.689	116851
392.769	230662
392.849	200145
392.929	231392
393.009	483295
393.089	247190
393.169	133741
393.248	312050
393.328	1062178
393.408	1121539
393.488	326495
393.568	107899
393.648	62731
393.728	50975
393.807	49255
393.887	36040
393.967	31377
394.047	43274
394.127	50940
394.206	55270
394.286	103253
394.366	423848
394.446	449074
394.525	100892
394.605	46415
394.685	100444
394.764	372006
394.844	566986
394.924	342888
395.003	88244
395.083	53652
395.163	45164
395.242	44608
395.322	43415
395.402	32116
395.481	50281
395.561	206107
395.640	535680
395.720	340997
395.799	541792
395.879	385829
395.958	89154
396.038	131296
396.117	559301
396.197	642185
396.276	373254
396.356	248914
396.435	278329
396.515	119125
396.594	88926
396.673	128467
396.753	330909
396.832	984885
396.912	829121
396.991	258517
397.070	78874
397.150	54967
397.229	38086
397.308	37161
397.388	51069
397.467	37189
397.546	31030
397.625	35400
397.705	46486
397.784	54853
397.863	33665
397.942	29538
398.022	46651
398.101	209298
398.180	580471
398.259	390078
398.338	113491
398.417	81195
398.497	85633
398.576	85986
398.655	43123
398.734	30871
398.813	46294
398.892	186327
398.971	571320
399.050	290832
399.129	53127
399.208	36342
399.287	42024
399.366	39832
399.445	53272
399.524	51728
399.603	44718
399.682	76535
399.761	191791
399.840	581096
399.919	465812
399.998	111012
400.077	40658
400.156	39443
400.235	80780
400.313	83800
400.392	102643
400.471	160637
400.550	232587
400.629	106837
400.708	78918
400.786	121731
400.865	276563
400.944	292359
401.023	114825
401.102	30686
401.180	42991
401.259	83479
401.338	126693
401.416	109572
401.495	105594
401.574	119445
401.652	96260
401.731	119644
401.810	114247
401.888	47012
401.967	27631
402.046	36681
402.124	101253
402.203	157924
402.281	68436
402.360	84765
402.438	295538
402.517	243693
402.596	133701
402.674	171374
402.753	90519
402.831	56312
402.910	51787
402.988	151047
403.066	345070
403.145	176400
403.223	104024
403.302	173231
403.380	137081
403.459	140875
403.537	99849
403.615	83107
403.694	28598
403.772	21199
403.850	25172
403.929	23536
404.007	38016
404.085	50155
404.164	41289
404.242	23576
404.320	30559
404.398	45667
404.477	104879
404.555	435430
404.633	357112
404.711	61471
404.789	25741
404.868	28108
404.946	28158
405.024	19446
405.102	15848
405.180	17808
405.258	24937
405.336	33175
405.415	50366
405.493	137031
405.571	82894
405.649	27129
405.727	54084
405.805	98566
405.883	64762
405.961	90471
406.039	164401
406.117	59413
406.195	40214
406.273	126822
406.351	424964
406.429	343817
406.507	186446
406.585	79465
406.663	34912
406.740	47842
406.818	59791
406.896	52759
406.974	34600
407.052	58806
407.130	264925
407.208	330913
407.285	72678
407.363	31702
407.441	36988
407.519	29805
407.596	37680
407.674	69162
407.752	124430
407.830	260832
407.907	174542
407.985	59838
408.063	27798
408.141	28692
408.218	118183
408.296	110478
408.373	35242
408.451	33239
408.529	33631
408.606	21416
408.684	21831
408.762	14912
408.839	13241
408.917	14514
408.994	14761
409.072	15412
409.149	14342
409.227	19122
409.304	20485
409.382	14555
409.459	16328
409.537	23287
409.614	25377
409.692	17959
409.769	21819
409.846	37133
409.924	63918
410.001	41107
410.079	27683
410.156	21281
410.233	18116
410.311	16249
410.388	17191
410.465	23604
410.543	25018
410.620	19090
410.697	25208
410.775	32166
410.852	19355
410.929	30912
411.006	43166
411.083	28652
411.161	55471
411.238	120631
411.315	104391
411.392	28908
411.469	30201
411.547	31213
411.624	21702
411.701	21557
411.778	29963
411.855	64680
411.932	45222
412.009	36943
412.086	33731
412.163	73569
412.240	106004
412.317	131094
412.394	117765
412.471	34415
412.548	24450
412.625	30407
412.702	74185
412.779	131498
412.856	57750
412.933	40890
413.010	27750
413.087	45686
413.164	150319
413.241	186413
413.318	60377
413.395	41045
413.471	58487
413.548	30715
413.625	35368
413.702	95447
413.779	74978
413.855	23532
413.932	23106
414.009	27694
414.086	22471
414.162	23966
414.239	64241
414.316	188453
414.393	281839
414.469	99659
414.546	29000
414.623	25886
414.699	23657
414.776	31033
414.853	28966
414.929	35464
415.006	55772
415.082	111425
415.159	71521
415.236	31755
415.312	26938
415.389	46661
415.465	69388
415.542	41423
415.618	28498
415.695	41767
415.771	40580
415.848	47643
415.924	62690
416.000	71513
416.077	33566
416.153	19229
416.230	14266
416.306	25060
416.383	51517
416.459	33570
416.535	20845
416.612	30828
416.688	26980
416.764	20964
416.841	23006
416.917	38708
416.993	34176
417.069	52113
417.146	69100
417.222	52768
417.298	34960
417.374	33164
417.451	40062
417.527	36686
417.603	36470
417.679	31654
417.755	26464
417.831	18370
417.908	16818
417.984	21161
418.060	26177
418.136	53523
418.212	64464
418.288	35272
418.364	30661
418.440	30574
418.516	55543
418.592	148931
418.668	156973
418.744	122296
418.820	88807
418.896	41259
418.972	19574
419.048	21541
419.124	55569
419.200	45281
419.276	17521
419.352	13255
419.428	13735
419.504	21489
419.579	28057
419.655	23336
419.731	23938
419.807	73366
419.883	125488
419.959	82282
420.034	39123
420.110	64229
420.186	164048
420.262	123811
420.337	60714
420.413	45452
420.489	19347
420.565	18525
420.640	18845
420.716	19921
420.792	14729
420.867	18376
420.943	19845
421.019	40729
421.094	34053
421.170	24953
421.245	16509
421.321	15326
421.397	17240
421.472	20090
421.548	42007
421.623	38797
421.699	25794
421.774	25012
421.850	20705
421.925	39895
422.001	31904
422.076	19347
422.152	21837
422.227	40786
422.302	32434
422.378	37389
422.453	69591
422.529	115736
422.604	317169
422.679	601085
422.755	398660
422.830	125859
422.905	43891
422.981	28484
423.056	23284
423.131	18392
423.207	18480
423.282	28166
423.357	63215
423.432	42558
423.508	39195
423.583	103830
423.658	76937
423.733	57261
423.808	93383
423.883	52455
423.959	31094
424.034	20179
424.109	14692
424.184	11783
424.259	13061
424.334	17499
424.409	15133
424.484	18177
424.559	28349
424.634	22433
424.709	28350
424.784	34984
424.859	35101
424.934	63217
425.009	144314
425.084	207335
425.159	92868
425.234	31942
425.309	15008
425.384	19033
425.459	24032
425.534	35527
425.609	81406
425.683	48759
425.758	24642
425.833	42352
425.908	49047
425.983	93262
426.058	236203
426.132	137755
426.207	84131
426.282	163733
426.357	169534
426.431	42056
426.506	39837
426.581	65062
426.655	49143
426.730	26505
426.805	23270
426.879	27427
426.954	40520
427.029	81476
427.103	190747
427.178	366928
427.253	189290
427.327	67726
427.402	124248
427.476	227221
427.551	88863
427.625	89085
427.700	82716
427.774	58603
427.849	88970
427.923	50891
427.998	42670
428.072	58880
428.147	109403
428.221	184751
428.296	289178
428.370	104349
428.444	79827
428.519	179955
428.593	295572
428.667	233877
428.742	302583
428.816	225519
428.890	343609
428.965	342606
429.039	271739
429.113	382218
429.188	132752
429.262	39854
429.336	56852
429.410	154027
429.485	121634
429.559	244162
429.633	183224
429.707	52213
429.781	111031
429.855	456374
429.930	603071
430.004	600813
430.078	823267
430.152	520390
430.226	251774
430.300	182369
430.374	55459
430.448	60246
430.522	246673
430.596	614954
430.670	303547
430.744	269148
430.818	373051
430.892	108732
430.966	40789
431.040	30826
431.114	28993
431.188	38083
431.262	47320
431.336	53878
431.410	137118
431.484	353157
431.557	170815
431.631	31523
431.705	25218
431.779	53442
431.853	198804
431.927	145037
432.000	32914
432.074	37963
432.148	105635
432.222	96370
432.295	33578
432.369	32002
432.443	65366
432.516	254064
432.590	410714
432.664	196278
432.737	50298
432.811	19377
432.885	13691
432.958	14332
433.032	17798
433.106	16488
433.179	12602
433.253	12164
433.326	13242
433.400	17038
433.473	22900
433.547	18672
433.620	18641
433.694	42646
433.767	67399
433.841	55621
433.914	20406
433.988	17044
434.061	18939
434.134	19327
434.208	15421
434.281	14907
434.355	20427
434.428	27426
434.501	19858
434.575	34103
434.648	46182
434.721	19186
434.795	11965
434.868	11315
434.941	12281
435.014	11691
435.088	13263
435.161	16735
435.234	27890
435.307	36881
435.381	27878
435.454	26915
435.527	21759
435.600	18108
435.673	13911
435.746	13254
435.819	14458
435.892	14479
435.966	17395
436.039	36388
436.112	33114
436.185	17101
436.258	13511
436.331	11295
436.404	11725
436.477	11220
436.550	11532
436.623	12607
436.696	13875
436.769	22111
436.842	26710
436.915	50527
436.987	70504
437.060	28206
437.133	16201
437.206	27489
437.279	32323
437.352	14748
437.425	14435
437.498	21205
437.570	42802
437.643	34717
437.716	14446
437.789	13025
437.861	25400
437.934	53410
438.007	26503
438.080	13688
438.152	17002
438.225	32193
438.298	165536
438.370	397874
438.443	160554
438.516	51789
438.588	22338
438.661	18681
438.734	21707
438.806	38992
438.879	35100
438.951	24964
439.024	32299
439.096	21999
439.169	19711
439.241	17191
439.314	30640
439.386	103710
439.459	139490
439.531	165231
439.604	51125
439.676	17855
439.749	15291
439.821	17151
439.893	18393
439.966	36495
440.038	41200
440.110	30052
440.183	20477
440.255	17494
440.327	33949
440.400	161157
440.472	414090
440.544	210944
440.617	45388
440.689	30612
440.761	38458
440.833	52243
440.905	35898
440.978	19362
441.050	17178
441.122	18352
441.194	17570
441.266	19852
441.338	17097
441.411	30691
441.483	126719
441.555	168329
441.627	69568
441.699	117648
441.771	142437
441.843	48933
441.915	20106
441.987	15349
442.059	18021
442.131	49040
442.203	91350
442.275	93407
442.347	61297
442.419	37460
442.491	64507
442.563	144715
442.635	167760
442.706	264549
442.778	170693
442.850	31421
442.922	23206
442.994	56616
443.066	93388
443.137	59459
443.209	34524
443.281	42882
443.353	91689
443.425	179180
443.496	207015
443.568	160131
443.640	91031
443.711	59773
443.783	33308
443.855	32715
443.926	21560
443.998	52433
444.070	88327
444.141	60381
444.213	48563
444.285	59517
444.356	106905
444.428	115700
444.499	40548
444.571	18302
444.642	16484
444.714	23582
444.785	43399
444.857	100169
444.928	288105
445.000	155031
445.071	215372
445.143	209043
445.214	65662
445.285	140901
445.357	410844
445.428	322351
445.500	435764
445.571	399132
445.642	150981
445.714	228542
445.785	320739
445.856	81091
445.928	46697
445.999	35166
446.070	29322
446.141	32640
446.213	49655
446.284	49571
446.355	102146
446.426	60864
446.497	43096
446.569	115747
446.640	120950
446.711	46685
446.782	38020
446.853	113368
446.924	82200
446.995	36138
447.066	55738
447.138	145055
447.209	62917
447.280	17907
447.351	15648
447.422	25107
447.493	69888
447.564	57410
447.635	40942
447.706	25102
447.777	18376
447.847	18832
447.918	32087
447.989	78974
448.060	97608
448.131	211760
448.202	135541
448.273	87760
448.344	48672
448.414	24583
448.485	22982
448.556	20577
448.627	15139
448.698	16060
448.768	19048
448.839	42182
448.910	125810
448.981	86753
449.051	26280
449.122	17895
449.193	17360
449.263	30583
449.334	24451
449.405	25455
449.475	59304
449.546	63839
449.616	137089
449.687	96978
449.758	32528
449.828	27169
449.899	15857
449.969	15545
450.040	24121
450.110	70014
450.181	81247
450.251	25919
450.322	19820
450.392	37028
450.463	29291
450.533	23626
450.604	30519
450.674	32886
450.744	25364
450.815	28868
450.885	25171
450.955	20074
451.026	21306
451.096	38079
451.166	54725
451.237	131659
451.307	285626
451.377	93761
451.447	28432
451.518	24794
451.588	32089
451.658	28682
451.728	62415
451.799	269339
451.869	274883
451.939	74338
452.009	25707
452.079	21685
452.149	29048
452.219	81052
452.289	305447
452.360	185616
452.430	42004
452.500	34425
452.570	36307
452.640	52755
452.710	175994
452.780	256538
452.850	103208
452.920	73013
452.990	36408
453.060	31529
453.129	46687
453.199	74341
453.269	230398
453.339	421168
453.409	611990
453.479	684278
453.549	925121
453.619	1008541
453.688	373227
453.758	88786
453.828	44779
453.898	42171
453.968	40893
454.037	29661
454.087	30800
454.107	31240
454.168	24581
454.177	23582
454.247	19956
454.249	20111
454.316	23425
454.330	27863
454.386	44450
454.411	93354
454.456	172487
454.492	199165
454.525	223412
454.574	106566
454.595	56167
454.655	32033
454.665	28551
454.734	44623
454.736	46271
454.804	101100
454.817	136612
454.873	275317
454.898	289136
454.943	308103
454.979	230802
455.013	162672
455.060	90205
455.082	61522
455.141	65458
455.152	64232
455.221	186010
455.222	188130
455.291	301425
455.303	263681
455.360	98256
455.384	81339
455.430	61371
455.465	91716
455.499	112860
455.546	227116
455.569	274837
455.627	158251
455.638	138436
455.707	36884
455.708	36935
455.777	32369
455.789	33242
455.846	36991
455.869	33553
455.916	27251
455.950	33446
455.985	38431
456.031	39230
456.054	39383
456.112	25026
456.124	22889
456.193	26741
456.193	26622
456.262	47705
456.274	53443
456.332	75246
456.355	86714
456.401	100938
456.436	75759
456.470	52014
456.516	31022
456.540	22459
456.597	19414
456.609	18821
456.678	17695
456.678	17640
456.747	16775
456.759	16801
456.817	16886
456.840	17005
456.886	17449
456.920	17921
456.955	19672
457.001	24101
457.024	29645
457.082	49745
457.093	53213
457.162	88943
457.163	89340
457.232	131730
457.243	122278
457.301	63772
457.324	45942
457.370	24446
457.405	21954
457.439	20510
457.485	20754
457.508	20838
457.566	24263
457.577	24644
457.646	22511
457.647	22560
457.715	22413
457.727	22229
457.784	21208
457.808	21966
457.853	23873
457.889	26038
457.922	26973
457.969	23928
457.991	23261
458.050	24740
458.060	24766
458.129	29149
458.130	29293
458.198	33368
458.211	32069
458.267	26025
458.292	24389
458.336	22551
458.372	23572
458.405	25409
458.453	28464
458.474	30114
458.533	37219
458.543	37945
458.611	54703
458.614	54727
458.680	45097
458.694	41452
458.749	30741
458.775	28444
458.818	26693
458.855	27157
458.887	28327
458.936	31838
458.955	32744
459.016	38335
459.024	38546
459.093	34702
459.097	34601
459.162	35621
459.177	36416
459.230	37497
459.257	37892
459.299	37657
459.338	35753
459.368	34946
459.418	36627
459.437	36408
459.499	32908
459.505	32703
459.574	30807
459.579	30826
459.643	30374
459.659	30122
459.711	30421
459.740	31348
459.780	36077
459.820	41657
459.849	44648
459.900	53542
459.917	53374
459.981	51718
459.986	51508
460.054	33595
460.061	32578
460.123	30622
460.141	30852
460.191	33348
460.222	35586
460.260	36834
460.302	39627
460.328	39313
460.382	33499
460.397	32672
460.462	30553
460.465	30477
460.534	31406
460.543	31460
460.602	35463
460.623	37289
460.671	41766
460.703	48244
460.739	51254
460.783	50131
460.808	49250
460.864	40303
460.876	39326
460.944	43987
460.945	43942
461.013	39599
461.024	38295
461.081	34191
461.104	34282
461.150	34545
461.184	33961
461.218	33986
461.264	33334
461.286	33786
461.345	36951
461.355	37498
461.423	41841
461.425	41930
461.491	45170
461.505	45874
461.559	86144
461.585	106603
461.628	179741
461.665	256449
461.696	288313
461.745	373642
461.764	340441
461.825	110655
461.832	102446
461.901	51327
461.905	50460
461.969	49566
461.985	49074
462.037	46122
462.065	44242
462.105	53358
462.145	64686
462.173	99802
462.225	167185
462.241	184384
462.305	283188
462.310	277218
462.378	163973
462.385	144084
462.446	62372
462.465	47441
462.514	42714
462.545	43753
462.582	44550
462.625	46026
462.650	46563
462.705	47734
462.718	51123
462.785	68781
462.786	69617
462.854	119846
462.865	129694
462.922	167150
462.945	183389
462.990	138358
463.025	82051
463.058	64035
463.104	50562
463.126	48462
463.184	48387
463.194	48557
463.262	50472
463.264	50520
463.330	55726
463.344	56775
463.398	65310
463.424	70077
463.466	76899
463.504	84254
463.533	82963
463.583	76545
463.601	79209
463.663	88010
463.669	90276
463.737	119917
463.743	122992
463.805	205751
463.823	228610
463.873	360133
463.903	448525
463.940	488071
463.982	548210
464.008	453593
464.062	182131
464.076	160685
464.142	62408
464.144	61381
464.211	53768
464.221	53323
464.279	55283
464.301	56209
464.347	65963
464.381	73183
464.414	91759
464.461	118242
464.482	122821
464.540	141920
464.550	134548
464.617	66359
464.620	63945
464.685	57912
464.699	57837
464.753	57907
464.779	57984
464.820	63041
464.859	67276
464.888	79856
464.938	102594
464.956	106870
465.018	126787
465.023	123401
465.091	69849
465.098	63933
465.158	56975
465.177	56114
465.226	58382
465.257	59947
465.293	61840
465.336	63835
465.361	68328
465.416	78327
465.428	89145
465.495	147697
465.496	148888
465.563	302986
465.575	330591
465.631	398304
465.654	428096
465.698	266974
465.734	116920
465.765	89680
465.813	55744
465.833	53825
465.893	53908
465.900	53911
465.968	54162
465.972	54103
466.035	52184
466.052	51514
466.102	51561
466.131	51543
466.170	51515
466.210	51351
466.237	52375
466.290	54238
466.304	55045
466.369	58113
466.372	58310
466.439	61525
466.449	61891
466.506	69714
466.528	72603
466.573	109810
466.607	137560
466.641	231354
466.687	361818
466.708	403681
466.766	522044
466.775	481641
466.842	166794
466.845	151557
466.909	91633
466.925	78416
466.977	72477
467.004	69615
467.044	70430
467.083	71146
467.111	72089
467.163	73539
467.178	74357
467.242	77133
467.245	77386
467.312	79911
467.321	80111
467.379	99209
467.400	105859
467.446	129157
467.480	145589
467.559	123678
467.638	82225
467.717	88338
467.796	90100
467.875	94187
467.955	100543
468.034	156923
468.113	417434
468.192	606699
468.271	168572
468.350	74537
468.429	78145
468.508	74854
468.588	79204
468.667	91596
468.746	92562
468.825	94959
468.904	86150
468.983	116048
469.062	239486
469.141	303997
469.220	102480
469.299	89695
469.378	92992
469.456	69671
469.535	71881
469.614	86104
469.693	106080
469.772	169979
469.851	270660
469.930	181982
470.009	69916
470.088	63211
470.166	62365
470.245	68898
470.324	71604
470.403	64293
470.482	62863
470.560	62101
470.639	70709
470.718	78642
470.797	79298
470.875	107461
470.954	193917
471.033	234995
471.111	75970
471.190	62045
471.269	63221
471.347	66364
471.426	80996
471.505	99130
471.583	83261
471.662	68082
471.740	68186
471.819	67571
471.898	67218
471.976	68664
472.055	71008
472.133	94990
472.212	169156
472.290	203785
472.369	109337
472.447	72471
472.526	66620
472.604	63408
472.683	67256
472.761	72045
472.839	68664
472.918	69304
472.996	86957
473.075	122688
473.153	116692
473.231	82863
473.310	108764
473.388	107554
473.466	88461
473.545	73832
473.623	81069
473.701	83882
473.780	69898
473.858	66732
473.936	70271
474.014	70469
474.093	89860
474.171	189183
474.249	310378
474.327	201501
474.405	64672
474.484	60975
474.562	61605
474.640	68834
474.718	84109
474.796	82930
474.874	59559
474.952	55566
475.030	57909
475.108	58220
475.187	57793
475.265	60300
475.343	70314
475.421	76607
475.499	70193
475.577	80715
475.655	127206
475.733	339549
475.811	644945
475.889	589166
475.966	398480
476.044	92805
476.122	102734
476.200	112291
476.278	109179
476.356	105570
476.434	112545
476.512	119175
476.590	132848
476.667	128825
476.745	102412
476.823	100593
476.901	116554
476.979	129739
477.056	114337
477.134	114410
477.212	100900
477.290	97873
477.367	96470
477.445	100100
477.523	101235
477.601	100904
477.678	103274
477.756	155406
477.834	191579
477.911	113255
477.989	105465
478.066	112710
478.144	133577
478.222	115732
478.299	107213
478.377	104194
478.454	88760
478.532	89161
478.609	92058
478.687	93525
478.764	88591
478.842	91458
478.919	99004
478.997	101596
479.074	98395
479.152	147530
479.229	208825
479.307	138690
479.384	83935
479.461	86187
479.539	115048
479.616	148539
479.694	118960
479.771	133501
479.848	146751
479.926	223939
480.003	246358
480.080	99939
480.157	97267
480.235	98110
480.312	98085
480.389	141543
480.467	286697
480.544	368848
480.621	171566
480.698	137403
480.775	163424
480.853	186082
480.930	136930
481.007	136619
481.084	163698
481.161	173200
481.238	170085
481.315	124816
481.392	115374
481.470	118047
481.547	120675
481.624	122649
481.701	120702
481.778	132826
481.855	150629
481.932	234394
482.009	406083
482.086	315366
482.163	119988
482.240	109675
482.317	124972
482.393	124316
482.470	124577
482.547	136606
482.624	118326
482.701	122171
482.778	122047
482.855	98434
482.932	96013
483.009	101444
483.085	102827
483.162	112448
483.239	113632
483.316	99563
483.393	96054
483.469	106375
483.546	141461
483.623	166056
483.699	116530
483.776	114731
483.853	125065
483.930	162140
484.006	426603
484.083	723994
484.160	259497
484.236	123362
484.313	120595
484.389	131030
484.466	113676
484.543	107726
484.619	120089
484.696	129875
484.772	190016
484.849	241539
484.925	141933
485.002	118302
485.078	133043
485.155	137007
485.231	127223
485.308	126596
485.384	141614
485.461	197900
485.537	454820
485.614	610224
485.690	181641
485.766	126281
485.843	123058
485.919	145169
485.995	153252
486.072	111833
486.148	112793
486.224	111731
486.301	133702
486.377	181395
486.453	164631
486.530	126982
486.606	128303
486.682	153926
486.758	345125
486.835	491114
486.911	305416
486.987	555889
487.063	429406
487.139	265989
487.215	198455
487.292	118344
487.368	109474
487.444	123227
487.520	133615
487.596	106658
487.672	101816
487.748	136063
487.824	167449
487.900	124101
487.976	119228
488.052	155630
488.128	169075
488.204	149806
488.280	141001
488.356	165357
488.432	489396
488.508	842881
488.584	270715
488.660	109852
488.736	102723
488.812	105429
488.888	121465
488.964	139288
489.039	244458
489.115	386428
489.191	279160
489.267	140764
489.343	151434
489.418	106768
489.494	94314
489.570	99103
489.646	105602
489.722	110149
489.797	122987
489.873	228648
489.949	646700
490.024	623594
490.100	138319
490.176	108026
490.251	127375
490.327	138010
490.403	110655
490.478	90942
490.554	83906
490.629	85585
490.705	89926
490.781	101155
490.856	121215
490.932	119180
491.007	108107
491.083	115046
491.158	127877
491.234	173687
491.309	511079
491.385	611891
491.460	164027
491.536	152578
491.611	103888
491.686	105527
491.762	118448
491.837	196270
491.913	375058
491.988	551701
492.063	541298
492.139	387087
492.214	296367
492.289	92140
492.365	86711
492.440	110083
492.515	157269
492.590	156262
492.666	113815
492.741	172245
492.816	355140
492.891	202128
492.967	80144
493.042	76382
493.117	72633
493.192	70737
493.267	76298
493.342	86482
493.418	85287
493.493	74578
493.568	76616
493.643	83497
493.718	138647
493.793	272941
493.868	223785
493.943	95202
494.018	84803
494.093	107094
494.168	115206
494.243	74429
494.318	77125
494.393	76516
494.468	75831
494.543	69443
494.618	79470
494.693	87062
494.768	102862
494.842	102725
494.917	70529
494.992	72963
495.067	67207
495.142	66602
495.217	69485
495.292	77998
495.366	99308
495.441	146719
495.516	191957
495.591	195997
495.665	381001
495.740	792823
495.815	482467
495.890	202640
495.964	180456
496.039	170532
496.114	158733
496.188	159314
496.263	159889
496.338	172631
496.412	209322
496.487	240123
496.561	193174
496.636	189631
496.710	170241
496.785	203085
496.860	266135
496.934	185887
497.009	158591
497.083	151248
497.158	158180
497.232	208213
497.307	273021
497.381	193084
497.455	250807
497.530	393351
497.604	230056
497.679	201895
497.753	364864
497.827	480740
497.902	274882
497.976	262496
498.050	500455
498.125	1705022
498.199	1964607
498.273	425787
498.348	228287
498.422	181013
498.496	180317
498.570	176616
498.645	160155
498.719	182369
498.793	239214
498.867	442358
498.941	579292
499.016	825426
499.090	1988485
499.164	1075612
499.238	203191
499.312	161034
499.386	166656
499.460	191208
499.534	191484
499.609	218520
499.683	390168
499.757	368076
499.831	437039
499.905	1473650
499.979	1680923
500.053	593537
500.127	568671
500.201	257187
500.275	196471
500.349	192040
500.422	205071
500.496	240803
500.570	356114
500.644	888944
500.718	1744843
500.792	648838
500.866	224726
500.940	327193
501.013	286067
501.087	217849
501.161	277289
501.235	421014
501.309	961491
501.382	1871685
501.456	1730264
501.530	543908
501.603	959351
501.677	493074
501.751	193860
501.825	208155
501.898	343405
501.972	994627
502.046	804159
502.119	236024
502.193	425995
502.266	1087565
502.340	707868
502.413	542878
502.487	1206015
502.561	967075
502.634	318636
502.708	161187
502.781	153375
502.855	135065
502.928	135955
503.002	139025
503.075	139635
503.149	161517
503.222	155850
503.295	172956
503.369	205257
503.442	254532
503.516	722522
503.589	1926848
503.662	1538120
503.736	491897
503.809	982377
503.882	892422
503.956	861825
504.029	924177
504.102	286709
504.175	195425
504.249	145769
504.322	205402
504.395	233291
504.468	155729
504.542	178217
504.615	132768
504.688	106617
504.761	117268
504.834	145948
504.907	131987
504.980	163309
505.053	151722
505.127	137973
505.200	183516
505.273	297688
505.346	207425
505.419	145821
505.492	124525
505.565	107957
505.638	96944
505.711	114060
505.784	115980
505.857	110755
505.930	116141
506.003	117863
506.076	117156
506.149	183834
506.221	279019
506.294	172265
506.367	340913
506.440	1075355
506.513	754764
506.586	277700
506.659	180574
506.731	115191
506.804	136381
506.877	178541
506.950	178270
507.022	112014
507.095	183749
507.168	251453
507.241	118423
507.313	85924
507.386	99117
507.459	112996
507.531	88231
507.604	87314
507.677	94449
507.749	79812
507.822	84498
507.894	107884
507.967	111011
508.040	82371
508.112	76751
508.185	91318
508.257	84579
508.330	99798
508.402	100357
508.475	114530
508.547	130393
508.620	126168
508.692	266086
508.765	166972
508.837	84761
508.909	80912
508.982	82452
509.054	88726
509.127	79013
509.199	77746
509.271	82227
509.344	74108
509.416	72888
509.488	81690
509.560	82433
509.633	72272
509.705	83171
509.777	93704
509.849	103596
509.922	87632
509.994	79079
510.066	75344
510.138	76387
510.210	76450
510.283	88166
510.355	87780
510.427	73781
510.499	69779
510.571	73302
510.643	76342
510.715	95185
510.787	92939
510.859	85061
510.931	129502
511.003	114676
511.076	103542
511.148	86523
511.219	92059
511.291	202143
511.363	320976
511.435	100896
511.507	70908
511.579	72849
511.651	70599
511.723	75791
511.795	73178
511.867	81516
511.939	118818
512.010	373273
512.082	348628
512.154	96298
512.226	83872
512.298	71178
512.369	90996
512.441	87303
512.513	81684
512.585	74947
512.656	84418
512.728	109931
512.800	76820
512.871	75587
512.943	84150
513.015	60491
513.086	63500
513.158	69215
513.230	77886
513.301	105631
513.373	107132
513.444	70585
513.516	62648
513.588	63995
513.659	66141
513.731	79414
513.802	78760
513.874	109292
513.945	190969
514.016	102055
514.088	72511
514.159	72233
514.231	87752
514.302	92777
514.374	80914
514.445	110497
514.516	350968
514.588	327649
514.659	131804
514.730	337925
514.802	231722
514.873	74575
514.944	71636
515.016	72305
515.087	87430
515.158	177429
515.229	354513
515.301	107414
515.372	70822
515.443	70257
515.514	58860
515.585	57715
515.656	57624
515.728	56084
515.799	58152
515.870	61502
515.941	68836
516.012	67701
516.083	62148
516.154	69849
516.225	89048
516.296	84081
516.367	73216
516.438	76345
516.509	89394
516.580	108177
516.651	220520
516.722	683439
516.793	536499
516.864	212620
516.935	240578
517.006	234932
517.077	251857
517.148	337473
517.219	547180
517.289	1004070
517.360	1193282
517.431	642692
517.502	187159
517.573	171081
517.643	161117
517.714	160299
517.785	161188
517.856	165965
517.926	170662
517.997	172359
518.068	175950
518.138	186481
518.209	196586
518.280	350695
518.350	1042581
518.421	662216
518.492	197454
518.562	189471
518.633	231724
518.703	182815
518.774	183237
518.845	249329
518.915	254406
518.986	206640
519.056	196416
519.127	253813
519.197	382664
519.268	1046322
519.338	962758
519.408	323038
519.479	218136
519.549	185089
519.620	141848
519.690	133587
519.760	137248
519.831	135645
519.901	145731
519.971	124756
520.042	162548
520.112	217828
520.182	175763
520.253	154399
520.323	149011
520.393	143937
520.463	148520
520.534	157229
520.604	254432
520.674	188421
520.744	193991
520.814	237216
520.885	213710
520.955	349018
521.025	1253827
521.095	727863
521.165	189983
521.235	187321
521.305	161330
521.375	125105
521.445	126281
521.515	135032
521.585	141842
521.655	149851
521.725	133702
521.795	148845
521.865	140410
521.935	236102
522.005	272366
522.075	143222
522.145	147240
522.215	188029
522.285	307443
522.355	404528
522.424	855544
522.494	820415
522.564	274416
522.634	231443
522.704	428056
522.774	258392
522.843	137344
522.913	125080
522.983	129737
523.053	123668
523.122	125412
523.192	125534
523.262	239039
523.331	296581
523.401	127728
523.471	96502
523.540	110266
523.610	97440
523.680	102069
523.749	117285
523.819	167584
523.888	212446
523.958	118202
524.027	126932
524.097	159899
524.166	134895
524.236	122812
524.305	136542
524.375	126818
524.444	120920
524.514	135298
524.583	149764
524.653	214159
524.722	242499
524.791	166404
524.861	130243
524.930	126653
524.999	120055
525.069	150416
525.138	180098
525.207	247116
525.277	158075
525.346	134985
525.415	126531
525.484	122202
525.554	184138
525.623	185070
525.692	116711
525.761	130831
525.830	114101
525.900	115336
525.969	166532
526.038	174333
526.107	129532
526.176	169368
526.245	177361
526.314	188985
526.383	220784
526.452	180157
526.522	229143
526.591	458202
526.660	356385
526.729	178992
526.797	154253
526.867	223774
526.935	695695
527.004	736260
527.073	375435
527.142	150826
527.211	122469
527.280	113888
527.349	126795
527.418	98346
527.487	104819
527.555	104169
527.624	96762
527.693	97853
527.762	96936
527.831	102822
527.899	102820
527.968	114335
528.037	113572
528.106	115057
528.174	160588
528.243	206056
528.312	268671
528.380	340948
528.449	157371
528.518	110406
528.586	97025
528.655	95992
528.723	98359
528.792	99920
528.861	122821
528.929	124478
528.998	103419
529.066	94283
529.135	91806
529.203	94755
529.272	97171
529.340	93989
529.409	100917
529.477	105298
529.545	164180
529.614	186818
529.682	184619
529.751	269235
529.819	193912
529.887	167553
529.956	100303
530.024	113628
530.092	91813
530.161	89926
530.229	116941
530.297	101966
530.365	88587
530.434	80422
530.502	85831
530.570	84649
530.638	89458
530.707	85817
530.775	106174
530.843	102464
530.911	98124
530.979	90756
531.047	90321
531.115	101482
531.183	100655
531.252	100240
531.320	111314
531.388	106049
531.456	96572
531.524	92219
531.592	91020
531.660	100516
531.728	98663
531.796	97000
531.864	88549
531.932	100984
532.000	97485
532.067	97283
532.135	93878
532.203	98121
532.271	108031
532.339	121613
532.407	223477
532.475	181351
532.542	116849
532.610	113305
532.678	127921
532.746	250410
532.814	683334
532.881	294217
532.949	113380
533.017	101790
533.084	102379
533.152	100403
533.220	98438
533.287	101437
533.355	91283
533.423	96908
533.490	94941
533.558	96859
533.625	101764
533.693	111431
533.761	106482
533.828	112022
533.896	96870
533.963	116997
534.031	139178
534.098	169381
534.166	139942
534.233	98506
534.300	91683
534.368	96923
534.435	102604
534.503	90873
534.570	85588
534.637	88806
534.705	90746
534.772	91161
534.840	91352
534.907	107917
534.974	133032
535.041	117133
535.109	184942
535.176	121729
535.243	86481
535.310	88915
535.378	89033
535.445	84942
535.512	81462
535.579	88974
535.646	97207
535.714	92943
535.781	95640
535.848	95450
535.915	116286
535.982	110027
536.049	105331
536.116	109061
536.183	104149
536.250	102550
536.317	104766
536.384	110548
536.451	129075
536.518	133372
536.585	122301
536.652	140958
536.719	156552
536.786	145166
536.853	122056
536.920	161522
536.987	247273
537.053	174930
537.120	350829
537.187	407036
537.254	119844
537.321	111690
537.388	105487
537.454	101358
537.521	100383
537.588	94038
537.654	100816
537.721	100386
537.788	99849
537.855	92824
537.921	94853
537.988	101425
538.055	101573
538.121	104316
538.188	102212
538.254	114648
538.321	174056
538.388	146815
538.454	108947
538.521	101069
538.587	89849
538.654	95088
538.720	95198
538.787	93508
538.853	107025
538.920	150495
538.986	169975
539.053	147576
539.119	129048
539.185	111558
539.252	114213
539.318	129961
539.385	120275
539.451	111759
539.517	104671
539.583	115674
539.650	194601
539.716	420660
539.782	193998
539.849	105118
539.915	104909
539.981	100718
540.047	109346
540.114	112356
540.180	113647
540.246	103090
540.312	115865
540.378	186882
540.444	198357
540.510	161938
540.576	363013
540.643	214664
540.709	111255
540.775	104104
540.841	111997
540.907	154989
540.973	251630
541.039	147710
541.105	140610
541.171	109566
541.237	105738
541.303	108568
541.369	107657
541.435	114407
541.500	160684
541.566	140250
541.632	105141
541.698	99267
541.764	99289
541.830	103746
541.896	109381
541.961	105600
542.027	104135
542.093	98600
542.159	98093
542.224	110784
542.290	130099
542.356	165893
542.421	196490
542.487	123190
542.553	117909
542.618	146655
542.684	122030
542.750	109931
542.815	126717
542.881	180696
542.947	368720
543.012	304980
543.078	112486
543.143	104862
543.209	110353
543.274	111328
543.340	110196
543.405	155294
543.471	241207
543.536	121614
543.602	117447
543.667	121082
543.732	104239
543.798	103535
543.863	113122
543.928	100486
543.994	95420
544.059	101666
544.124	92046
544.190	94811
544.255	97128
544.320	94205
544.386	97525
544.451	116464
544.516	129824
544.581	123469
544.646	230215
544.712	376183
544.777	162648
544.842	180104
544.907	234979
544.972	191477
545.037	169047
545.102	186248
545.168	194495
545.233	193229
545.298	191152
545.363	226896
545.428	208625
545.493	219235
545.558	353764
545.623	264380
545.688	199990
545.753	182098
545.818	180176
545.883	182605
545.947	179129
546.012	207073
546.077	239167
546.142	185142
546.207	173407
546.272	185586
546.337	195510
546.401	176834
546.466	173409
546.531	175908
546.596	188918
546.661	175455
546.725	169340
546.790	163358
546.855	169640
546.919	165020
546.984	170192
547.049	191402
547.113	240971
547.178	205971
547.243	205040
547.307	217046
547.372	248041
547.436	321164
547.501	203452
547.565	177874
547.630	186812
547.695	210682
547.759	322686
547.823	297532
547.888	175309
547.952	171301
548.017	177350
548.081	208015
548.146	357152
548.210	325769
548.274	180031
548.339	157879
548.403	157608
548.468	151991
548.532	159557
548.596	165058
548.660	168310
548.725	175816
548.789	225530
548.853	273177
548.917	193358
548.982	312852
549.046	386138
549.110	198299
549.174	172774
549.238	164171
549.303	150863
549.367	151470
549.431	161512
549.495	153015
549.559	162157
549.623	156964
549.687	177276
549.751	221146
549.815	200919
549.879	190199
549.943	175464
550.007	194349
550.071	197621
550.135	200530
550.199	203610
550.263	192240
550.327	217074
550.391	366675
550.455	244229
550.519	188420
550.582	188538
550.646	199418
550.710	219696
550.774	190239
550.838	188187
550.901	201409
550.965	204751
551.029	213963
551.093	238827
551.156	305076
551.220	628697
551.284	796604
551.347	337278
551.411	798287
551.475	1137778
551.538	280373
551.602	186603
551.666	180952
551.729	166594
551.793	170362
551.856	178785
551.920	161525
551.983	166063
552.047	172672
552.110	159738
552.174	164758
552.237	163595
552.301	163996
552.364	158266
552.428	172015
552.491	169170
552.554	159988
552.618	169260
552.681	175122
552.745	175142
552.808	188355
552.871	200308
552.934	176544
552.998	175552
553.061	215205
553.124	186355
553.187	162406
553.251	172225
553.314	189040
553.377	168409
553.440	171034
553.503	175969
553.567	172230
553.630	161205
553.693	165327
553.756	181220
553.819	156341
553.882	171174
553.945	166857
554.008	156273
554.071	155099
554.134	156486
554.197	163480
554.260	141294
554.323	157187
554.386	168251
554.449	162854
554.512	154895
554.575	157855
554.638	174898
554.701	166806
554.764	147701
554.827	161334
554.889	156429
554.952	142744
555.015	153025
555.078	155335
555.141	153122
555.203	144903
555.266	147305
555.329	161826
555.391	148384
555.454	143892
555.517	158631
555.580	156514
555.642	138475
555.705	142462
555.768	149859
555.830	151829
555.893	144082
555.955	147663
556.018	152294
556.080	160258
556.143	146822
556.206	150041
556.268	176053
556.330	173514
556.393	161305
556.455	172123
556.518	290394
556.580	344377
556.643	162590
556.705	148623
556.767	148947
556.830	160976
556.892	154829
556.955	181015
557.017	168195
557.079	161708
557.142	148965
557.204	155027
557.266	206460
557.328	221305
557.391	164007
557.453	153385
557.515	153591
557.577	168498
557.639	173623
557.701	149639
557.764	145586
557.826	156881
557.888	174708
557.950	160897
558.012	145323
558.074	152014
558.136	166524
558.198	186591
558.260	180316
558.322	178835
558.384	157475
558.446	160434
558.508	161138
558.570	194219
558.632	206906
558.694	275213
558.756	190982
558.818	219682
558.880	425448
558.942	252774
559.003	193122
559.065	159017
559.127	143390
559.189	148145
559.251	151481
559.312	146278
559.374	172700
559.436	299117
559.498	252605
559.559	163771
559.621	158486
559.683	179466
559.744	269000
559.806	434347
559.868	424573
559.929	275767
559.991	238510
560.052	238034
560.114	260637
560.176	240287
560.237	210307
560.299	250701
560.360	212464
560.422	224440
560.483	223596
560.545	220758
560.606	221684
560.667	222107
560.729	219887
560.790	212175
560.852	212157
560.913	217430
560.974	209031
561.036	209820
561.097	209781
561.158	209094
561.220	208279
561.281	208572
561.342	205851
561.403	216786
561.465	225944
561.526	299816
561.587	374887
561.648	237111
561.709	213547
561.771	208508
561.832	210539
561.893	205911
561.954	200606
562.015	198542
562.076	200211
562.137	206550
562.198	207412
562.259	200916
562.320	201462
562.381	202050
562.442	221919
562.503	214876
562.564	197093
562.625	192856
562.686	197007
562.747	202664
562.808	202830
562.869	219900
562.930	305309
562.991	301736
563.051	266057
563.112	240846
563.173	228062
563.234	219473
563.294	211128
563.355	208240
563.416	210574
563.477	208673
563.537	223784
563.598	244506
563.659	230984
563.720	232137
563.780	226175
563.841	227187
563.901	225099
563.962	223754
564.023	226061
564.083	227646
564.144	229550
564.204	234292
564.265	234867
564.325	273197
564.386	503883
564.446	536288
564.507	235200
564.567	211141
564.628	207994
564.688	209187
564.749	218719
564.809	253008
564.869	328962
564.930	233883
564.990	192155
565.050	192888
565.111	191885
565.171	188972
565.231	192916
565.292	182980
565.352	182488
565.412	196596
565.472	196490
565.532	197346
565.593	188333
565.653	183212
565.713	187415
565.773	193408
565.833	199167
565.893	216551
565.953	200842
566.013	190406
566.074	210320
566.134	288453
566.194	495737
566.254	508141
566.314	324221
566.374	221955
566.434	208808
566.494	204534
566.554	196358
566.614	190182
566.673	190942
566.733	200923
566.793	212912
566.853	212163
566.913	205343
566.973	208647
567.033	209497
567.092	206534
567.152	205905
567.212	214843
567.272	219800
567.331	244288
567.391	224273
567.451	232048
567.511	331137
567.570	382094
567.630	212546
567.690	195485
567.749	188021
567.809	183042
567.868	188797
567.928	203795
567.988	236670
568.047	207318
568.107	180058
568.166	176478
568.226	170008
568.285	181890
568.345	174930
568.404	171246
568.464	171164
568.523	168827
568.582	173078
568.642	172068
568.701	177016
568.761	184055
568.820	189895
568.879	207024
568.939	300900
568.998	240309
569.057	172295
569.116	170505
569.176	158716
569.235	162321
569.294	163964
569.353	163876
569.413	175677
569.472	197729
569.531	179604
569.590	174913
569.649	170358
569.708	159243
569.767	166314
569.827	179626
569.886	169070
569.945	164067
570.004	168175
570.063	174734
570.122	177627
570.181	194175
570.240	240375
570.299	235771
570.358	183721
570.417	173054
570.475	165083
570.534	165733
570.593	165397
570.652	166939
570.711	171960
570.770	176326
570.829	206136
570.887	170601
570.946	165609
571.005	164336
571.064	164175
571.122	173707
571.181	221113
571.240	191110
571.299	174503
571.357	195201
571.416	216556
571.475	234161
571.533	267029
571.592	190621
571.650	217390
571.709	176618
571.768	165034
571.826	159319
571.885	157689
571.943	160813
572.002	174421
572.060	191100
572.119	155339
572.177	153322
572.236	149389
572.294	144641
572.352	146174
572.411	146777
572.469	146303
572.528	140652
572.586	144698
572.644	150295
572.703	158682
572.761	157649
572.819	162382
572.877	156446
572.936	146487
572.994	146924
573.052	145519
573.110	144180
573.169	139787
573.227	138788
573.285	139500
573.343	139594
573.401	148518
573.459	144318
573.517	144873
573.576	143903
573.634	141418
573.692	148935
573.750	144954
573.808	149081
573.866	167725
573.924	232449
573.982	238534
574.040	169476
574.098	152807
574.155	144035
574.213	131714
574.271	133943
574.329	132993
574.387	131666
574.445	136045
574.503	130550
574.560	124348
574.618	123498
574.676	123400
574.734	121985
574.792	123319
574.849	122552
574.907	116580
574.965	121965
575.022	120981
575.080	121752
575.138	120460
575.195	129936
575.253	132917
575.311	134820
575.368	121420
575.426	122404
575.483	124562
575.541	123131
575.598	125050
575.656	140201
575.713	138848
575.771	125328
575.828	127516
575.886	134682
575.943	143620
576.001	154898
576.058	155823
576.115	163943
576.173	197221
576.230	226201
576.287	200329
576.345	176309
576.402	162211
576.459	163214
576.517	172245
576.574	194487
576.631	215758
576.688	181496
576.746	162494
576.803	157188
576.860	155040
576.917	151910
576.974	150589
577.031	148861
577.089	151647
577.146	159307
577.203	155486
577.260	160063
577.317	181035
577.374	219884
577.431	208519
577.488	161469
577.545	145490
577.602	140203
577.659	143420
577.716	135432
577.773	134430
577.830	134223
577.886	134420
577.943	135266
578.000	137173
578.057	150447
578.114	145430
578.171	132099
578.227	136823
578.284	134058
578.341	143185
578.398	144081
578.454	155683
578.511	189205
578.568	229594
578.625	193947
578.681	149240
578.738	133917
578.794	135988
578.851	131421
578.908	131303
578.964	136589
579.021	136157
579.077	132752
579.134	127088
579.190	124153
579.247	121346
579.303	127236
579.360	119972
579.416	118631
579.473	122144
579.529	116811
579.586	119102
579.642	122331
579.698	129435
579.755	133707
579.811	122197
579.867	121443
579.924	117249
579.980	120074
580.036	127765
580.093	122316
580.149	126298
580.205	132282
580.261	130008
580.317	141612
580.374	157913
580.430	194015
580.486	184102
580.542	150087
580.598	134317
580.619	133899
580.654	133289
580.692	131902
580.710	131387
580.765	127809
580.767	127800
580.823	131591
580.838	130550
580.879	128174
580.911	126693
580.935	125788
580.984	124169
580.991	124066
581.047	129826
581.057	131120
581.103	137349
581.130	140562
581.159	144150
581.203	145001
581.215	145274
581.270	148211
581.276	147930
581.326	146146
581.349	146575
581.382	147586
581.422	146431
581.438	145946
581.494	156506
581.494	156383
581.550	151218
581.567	150315
581.606	148465
581.640	148836
581.661	149088
581.713	143930
581.717	143634
581.773	140928
581.786	142399
581.829	147127
581.859	147962
581.885	148858
581.932	145653
581.940	145109
581.996	148019
582.004	147646
582.052	145305
582.077	142945
582.107	140784
582.150	144303
582.163	145331
582.219	149399
582.223	149220
582.274	148866
582.296	153125
582.330	158787
582.368	161366
582.386	162080
582.441	145341
582.441	145338
582.497	139965
582.514	140087
582.552	140806
582.587	138781
582.608	137669
582.659	140312
582.663	140530
582.719	139667
582.732	139797
582.774	140954
582.805	144952
582.830	147509
582.877	144367
582.885	143857
582.941	138491
582.950	138510
582.996	139122
583.023	139855
583.052	141104
583.095	141254
583.107	141446
583.162	148174
583.168	148782
583.218	152551
583.240	150742
583.273	147213
583.313	139970
583.328	137930
583.384	145423
583.385	145476
583.439	146290
583.458	145470
583.494	143024
583.531	138328
583.549	136354
583.603	142424
583.605	142624
583.660	140071
583.676	140442
583.715	142932
583.748	147746
583.770	150851
583.820	158259
583.825	158637
583.881	152565
583.893	151372
583.936	148748
583.965	148594
583.991	148585
584.038	148065
584.046	148309
584.101	155714
584.110	155752
584.156	152439
584.183	150838
584.211	149084
584.255	144235
584.266	143172
584.321	137132
584.328	137706
584.376	145940
584.400	146650
584.431	145403
584.472	143740
584.486	143197
584.541	140880
584.545	140621
584.596	139602
584.617	143825
584.651	153081
584.689	158418
584.706	159356
584.761	159556
584.762	159516
584.816	159529
584.834	159376
584.871	159479
584.906	160831
584.926	161346
584.978	157952
584.980	158037
585.035	163400
585.051	166028
585.090	171717
585.123	172394
585.145	172681
585.195	175037
585.200	175162
585.254	171963
585.267	171291
585.309	170390
585.340	173471
585.364	176767
585.412	178052
585.419	178164
585.473	176683
585.484	177858
585.528	190081
585.556	197521
585.583	207026
585.628	220362
585.637	227794
585.692	284400
585.700	294402
585.747	321126
585.772	310880
585.801	263087
585.845	197892
585.856	192638
585.910	180731
585.917	179626
585.965	181721
585.989	182935
586.019	184698
586.061	186717
586.074	187880
586.128	190688
586.133	191485
586.183	209676
586.205	216873
586.237	224526
586.277	231006
586.292	231515
586.346	229476
586.349	229027
586.401	225009
586.421	226410
586.455	244375
586.493	271632
586.509	307325
586.564	440712
586.565	445160
586.618	716763
586.637	755188
586.672	583600
586.709	350908
586.727	291111
586.781	220783
586.781	220914
586.835	209396
586.853	206955
586.889	204718
586.925	201185
586.944	201387
586.996	206098
586.998	206487
587.052	213633
587.068	214042
587.106	212415
587.140	211778
587.161	213174
587.212	217780
587.215	218377
587.269	227530
587.284	228254
587.323	225182
587.356	222983
587.377	222667
587.427	220808
587.431	221032
587.485	220096
587.499	220374
587.539	224585
587.571	226939
587.593	229577
587.643	235148
587.648	236113
587.702	242209
587.715	244542
587.755	253320
587.786	256191
587.810	250792
587.858	233663
587.864	234317
587.917	245504
587.930	248566
587.971	272123
588.001	289656
588.025	284119
588.073	255103
588.079	252689
588.133	234027
588.145	230493
588.187	232130
588.217	233581
588.241	237021
588.288	242431
588.295	242969
588.348	242856
588.360	242949
588.402	249140
588.431	252624
588.456	257444
588.503	267592
588.510	269312
588.564	277747
588.575	279264
588.617	289433
588.646	296185
588.671	309062
588.718	335817
588.725	345133
588.778	416212
588.789	432676
588.832	604454
588.861	727591
588.886	953890
588.932	1420438
588.939	1453387
588.993	1667135
589.004	1665640
589.047	1061676
589.075	670878
589.100	546358
589.147	363917
589.154	358646
589.207	323542
589.218	316409
589.261	316227
589.290	317470
589.314	327036
589.361	345298
589.368	355245
589.421	435617
589.433	454618
589.475	705840
589.504	893652
589.528	1105435
589.576	1539181
589.582	1494776
589.635	916526
589.647	789058
589.689	520922
589.718	360673
589.742	361921
589.790	369582
589.795	384246
589.849	520786
589.861	557378
589.902	665653
589.932	717468
589.955	604778
590.004	343535
590.009	338354
590.062	305532
590.075	296774
590.115	289733
590.146	283998
590.168	287393
590.218	294462
590.222	296694
590.275	317504
590.289	322792
590.328	326839
590.360	325582
590.381	317774
590.431	297721
590.435	298600
590.488	304862
590.503	305834
590.541	309148
590.574	310489
590.594	308845
590.645	301440
590.647	301923
590.700	297905
590.716	295845
590.753	292339
590.787	287699
590.806	288519
590.859	289845
590.859	290420
590.912	284775
590.930	282598
590.965	286979
591.001	290255
591.018	290409
591.071	288161
591.072	287486
591.124	294331
591.143	295939
591.177	299996
591.214	302903
591.230	305804
591.283	312851
591.285	312416
591.336	324594
591.356	328336
591.389	322621
591.427	312941
591.442	312711
591.495	310579
591.498	309660
591.547	307779
591.569	305792
591.600	306142
591.640	305068
591.653	309476
591.706	325569
591.711	326524
591.759	377718
591.782	402897
591.811	432523
591.853	472872
591.864	454345
591.917	350096
591.924	334412
591.969	331128
591.995	328442
592.022	340177
592.066	357380
592.075	373971
592.127	470366
592.137	487320
592.180	561812
592.208	606002
592.233	528641
592.279	375390
592.285	371776
592.338	335413
592.350	326316
592.390	322963
592.421	319064
592.443	321663
592.491	324659
592.495	325882
592.548	330691
592.562	331156
592.600	330906
592.633	328969
592.653	327422
592.704	319357
592.705	321340
592.775	328755
592.846	325407
592.916	330285
592.987	344445
593.058	346066
593.128	325155
593.199	315956
593.270	306221
593.341	307982
593.411	311975
593.482	307373
593.553	306208
593.623	304428
593.694	337645
593.764	397587
593.835	327340
593.906	309295
593.976	327811
594.047	371572
594.117	483741
594.188	485389
594.258	300357
594.329	290633
594.399	299875
594.470	286933
594.540	282177
594.611	287702
594.681	290385
594.751	308326
594.822	312204
594.892	326438
594.963	350434
595.033	346135
595.103	355019
595.174	427570
595.244	709097
595.314	893650
595.384	378221
595.455	334749
595.525	343659
595.595	346093
595.665	350931
595.736	348851
595.806	336496
595.876	330359
595.946	325431
596.016	311519
596.087	329113
596.157	329086
596.227	327249
596.297	347234
596.367	364527
596.437	430472
596.507	661905
596.577	856994
596.647	396332
596.717	331641
596.787	332475
596.857	323630
596.927	328270
596.997	322965
597.067	319750
597.137	333175
597.207	325245
597.277	328887
597.347	336184
597.417	321595
597.487	322349
597.557	340804
597.626	347177
597.696	405538
597.766	577629
597.836	824738
597.906	431624
597.975	330438
598.045	323022
598.115	317652
598.185	319113
598.254	332003
598.324	324086
598.394	316559
598.464	328072
598.533	316495
598.603	295373
598.672	312918
598.742	312855
598.812	316310
598.881	312536
598.951	299521
599.020	290763
599.090	282535
599.159	291163
599.229	283630
599.299	276294
599.368	290370
599.437	277763
599.507	310720
599.576	336113
599.646	295349
599.715	298320
599.785	318664
599.854	390579
599.924	465097
599.993	387250
600.062	313956
600.132	306689
600.201	318325
600.270	322111
600.340	297702
600.409	286749
600.478	298289
600.547	292990
600.617	315196
600.686	306347
600.755	296232
600.824	294848
600.894	301988
600.963	280094
601.032	277861
601.101	285922
601.170	283641
601.239	299239
601.308	301764
601.378	282419
601.447	280738
601.516	266501
601.585	264330
601.654	282775
601.723	288856
601.792	288496
601.861	278788
601.930	276937
601.999	277703
602.068	255631
602.137	269110
602.206	259763
602.275	264041
602.343	293983
602.412	286134
602.481	260889
602.550	257910
602.619	253613
602.688	264948
602.756	264591
602.825	250643
602.894	255353
602.963	266074
603.032	266298
603.100	254794
603.169	256310
603.238	265214
603.307	251627
603.375	239416
603.444	252804
603.513	251310
603.581	242488
603.650	243010
603.719	245541
603.787	248911
603.856	250386
603.924	245030
603.993	250017
604.061	245340
604.130	248070
604.198	248142
604.267	247006
604.335	241441
604.404	241854
604.472	238378
604.541	244056
604.609	237762
604.678	231191
604.746	236741
604.815	241064
604.883	247591
604.951	240509
605.020	233208
605.088	253719
605.156	259119
605.225	246446
605.293	244158
605.361	251313
605.429	240294
605.498	242295
605.566	248021
605.634	249891
605.702	258140
605.771	257971
605.839	257082
605.907	252747
605.975	244231
606.043	248944
606.111	244205
606.180	246776
606.248	244440
606.316	261893
606.384	303807
606.452	389571
606.520	314031
606.588	255661
606.656	237811
606.724	247887
606.792	234008
606.860	229179
606.928	218395
606.996	220434
607.064	212513
607.132	218690
607.200	225624
607.267	226745
607.335	218354
607.403	220734
607.471	233255
607.539	223691
607.607	218391
607.674	216030
607.742	236049
607.810	234615
607.878	216050
607.946	210570
608.013	220217
608.081	221273
608.149	211263
608.216	214757
608.284	223818
608.352	229183
608.419	296005
608.487	500547
608.555	307935
608.622	208282
608.690	208703
608.757	218389
608.825	224045
608.893	228771
608.960	258869
609.028	364412
609.095	560848
609.163	289590
609.230	267361
609.298	244265
609.365	197409
609.432	202302
609.500	214675
609.567	226804
609.635	232416
609.702	239299
609.769	262858
609.837	343453
609.904	256369
609.971	204200
610.039	205547
610.106	236246
610.173	335231
610.241	552535
610.308	349772
610.375	225821
610.442	208939
610.509	196310
610.577	194122
610.644	202348
610.711	200564
610.778	199270
610.845	201916
610.912	208300
610.980	207975
611.047	210258
611.114	214367
611.181	201027
611.248	200675
611.315	207814
611.382	206581
611.449	200903
611.516	206221
611.583	214626
611.650	218868
611.717	222135
611.784	221427
611.851	220701
611.918	227587
611.984	253727
612.051	349792
612.118	543994
612.185	1070819
612.252	643685
612.319	250527
612.386	229537
612.452	242276
612.519	324185
612.586	562914
612.653	324795
612.719	212860
612.786	207360
612.853	201097
612.919	200881
612.986	194294
613.053	191104
613.120	185928
613.186	184237
613.253	191488
613.319	186482
613.386	186163
613.453	188401
613.519	206234
613.586	232366
613.652	279037
613.719	248990
613.785	237688
613.852	203679
613.918	185466
613.985	178343
614.051	176102
614.118	183786
614.184	183906
614.250	172955
614.317	170841
614.383	175564
614.449	176365
614.516	190884
614.582	232460
614.648	198230
614.715	180673
614.781	189787
614.847	219419
614.914	246744
614.980	228739
615.046	193848
615.112	182113
615.179	184211
615.245	189495
615.311	193093
615.377	193149
615.443	204548
615.509	214870
615.575	220361
615.642	218584
615.708	235570
615.774	250598
615.840	295159
615.906	319043
615.972	317684
616.038	400735
616.104	688858
616.170	1437708
616.236	1139304
616.302	404364
616.368	346436
616.434	314505
616.500	311784
616.565	318118
616.631	333545
616.697	307190
616.763	310693
616.829	366889
616.895	489640
616.961	458174
617.026	320199
617.092	277443
617.158	278759
617.224	275762
617.289	277864
617.355	299170
617.421	338145
617.487	314845
617.552	288864
617.618	277227
617.684	282326
617.749	275419
617.815	263789
617.880	260506
617.946	265983
618.012	262719
618.077	260657
618.143	259515
618.208	265168
618.274	279879
618.339	299763
618.405	287722
618.470	296635
618.536	327490
618.601	402458
618.667	356198
618.732	318830
618.798	305804
618.863	304946
618.928	306490
618.994	334241
619.059	347279
619.124	388272
619.190	341552
619.255	327789
619.320	339505
619.386	322757
619.451	302797
619.516	305164
619.581	310757
619.647	310742
619.712	310583
619.777	303565
619.842	307439
619.907	309413
619.972	312358
620.038	318461
620.103	310374
620.168	298731
620.233	295039
620.298	299831
620.363	295053
620.428	294616
620.493	305180
620.558	292085
620.623	287080
620.688	287999
620.753	283616
620.818	287246
620.883	293449
620.948	290610
621.013	295381
621.078	314598
621.143	342048
621.207	347099
621.272	346458
621.337	369673
621.402	451526
621.467	664829
621.532	673776
621.596	449694
621.661	395423
621.726	377384
621.791	381185
621.855	387738
621.920	428350
621.985	526363
622.049	620181
622.114	563796
622.179	447994
622.243	477291
622.308	440131
622.373	432967
622.437	429162
622.502	412386
622.566	418867
622.631	433017
622.695	410947
622.760	421166
622.824	397454
622.889	404928
622.953	415168
623.018	464801
623.082	445449
623.147	400939
623.211	375282
623.276	391622
623.340	371261
623.404	366579
623.469	375242
623.533	369329
623.597	366646
623.662	366155
623.726	367222
623.790	357698
623.854	378348
623.919	371444
623.983	363077
624.047	369596
624.111	351170
624.176	359304
624.240	371980
624.304	374282
624.368	362247
624.432	359934
624.496	364212
624.560	357702
624.625	379252
624.689	347730
624.753	340645
624.817	346252
624.881	340781
624.945	341443
625.009	342006
625.073	329896
625.137	352658
625.201	367681
625.265	367062
625.329	333183
625.393	352272
625.456	350261
625.520	372865
625.584	418282
625.648	527547
625.712	898253
625.776	2048404
625.839	2084679
625.903	772623
625.967	499538
626.031	874535
626.095	1313957
626.158	446076
626.222	318351
626.286	299914
626.349	307475
626.413	300735
626.477	317584
626.540	293846
626.604	305572
626.668	296875
626.731	297958
626.795	344046
626.858	331394
626.922	311801
626.986	290367
627.049	289741
627.113	288527
627.176	274029
627.240	280543
627.303	287129
627.366	291947
627.430	276303
627.493	298485
627.557	324365
627.620	296307
627.684	298588
627.747	297214
627.810	295107
627.874	286601
627.937	283598
628.000	296136
628.064	295092
628.127	270969
628.190	277951
628.253	284368
628.317	275018
628.380	273866
628.443	271362
628.506	274871
628.569	261111
628.632	260381
628.696	255409
628.759	262329
628.822	251703
628.885	252515
628.948	250687
629.011	258837
629.074	254912
629.137	243564
629.200	257629
629.263	268976
629.326	243763
629.389	245242
629.452	260756
629.515	278022
629.578	258860
629.641	269315
629.704	265842
629.767	258454
629.830	231761
629.892	242382
629.955	237916
630.018	246004
630.081	243437
630.144	264291
630.207	250593
630.269	278861
630.332	347599
630.395	272215
630.458	221978
630.520	235432
630.583	219217
630.646	213915
630.708	220234
630.771	228128
630.834	216145
630.896	214642
630.959	210937
631.021	221110
631.084	238675
631.146	280677
631.209	332337
631.272	225939
631.334	205487
631.397	207648
631.459	195100
631.522	196358
631.584	210460
631.646	210751
631.709	219471
631.771	273463
631.834	224660
631.896	200320
631.958	183475
632.021	195484
632.083	201447
632.145	215792
632.208	197721
632.270	194773
632.332	192406
632.395	197468
632.457	212146
632.519	202757
632.581	187734
632.643	187375
632.706	196375
632.768	187816
632.830	186836
632.892	181892
632.954	199595
633.016	199094
633.078	179600
633.141	179680
633.203	189430
633.265	190298
633.327	179689
633.389	182319
633.451	206268
633.513	231334
633.575	271026
633.637	219047
633.698	193317
633.760	183974
633.822	172458
633.884	175336
633.946	173673
634.008	177484
634.070	165231
634.132	168371
634.193	176396
634.255	171528
634.317	170182
634.379	173957
634.441	176259
634.502	175348
634.564	160171
634.626	160851
634.687	160822
634.749	171480
634.811	162767
634.873	152374
634.934	157530
634.996	170072
635.057	166198
635.119	167441
635.181	170698
635.242	166214
635.304	158352
635.365	163603
635.427	167586
635.488	160583
635.550	163329
635.611	162552
635.673	166764
635.734	182132
635.796	173832
635.857	176051
635.918	166453
635.980	171089
636.041	172593
636.102	171636
636.164	161981
636.225	158801
636.286	168665
636.348	165250
636.409	155979
636.470	157858
636.531	173421
636.593	241085
636.654	198858
636.715	147216
636.776	145013
636.838	143964
636.899	161683
636.960	156167
637.021	144568
637.082	150706
637.143	155501
637.204	140788
637.265	141970
637.326	139824
637.387	135503
637.448	135290
637.509	139145
637.570	141463
637.631	136264
637.692	135588
637.753	127833
637.814	135672
637.875	133960
637.936	137533
637.997	138309
638.058	150518
638.119	166301
638.179	145317
638.240	145762
638.301	142155
638.362	143263
638.423	151306
638.483	142187
638.544	135337
638.605	136945
638.666	132866
638.726	140520
638.787	133265
638.848	132898
638.908	130037
638.969	132343
639.030	141832
639.090	125931
639.151	129409
639.211	133241
639.272	150095
639.332	190692
639.393	148241
639.453	138975
639.514	136419
639.574	126439
639.635	122637
639.695	128531
639.756	125999
639.816	122421
639.877	134215
639.937	169034
639.997	186078
640.058	128470
640.118	120969
640.178	116471
640.239	114534
640.299	117229
640.359	116413
640.420	114699
640.480	115899
640.540	115888
640.600	115823
640.661	121252
640.721	123589
640.781	131767
640.841	117108
640.901	124597
640.961	123157
641.021	124575
641.082	128825
641.142	145097
641.202	122507
641.262	115880
641.322	117214
641.382	117738
641.442	123218
641.502	121592
641.562	120381
641.622	117165
641.682	121251
641.742	115770
641.802	125451
641.861	137812
641.921	136251
641.981	131276
642.041	132474
642.101	144473
642.161	117619
642.221	114473
642.280	114427
642.340	110874
642.400	114515
642.460	115243
642.519	117099
642.579	114238
642.639	121332
642.698	114582
642.758	110057
642.818	115497
642.877	116776
642.937	118834
642.997	124668
643.056	141784
643.116	114691
643.175	113626
643.235	110014
643.294	109866
643.354	111521
643.414	112435
643.473	114534
643.532	117672
643.592	122929
643.651	138096
643.711	170347
643.770	255881
643.830	498186
643.889	880404
643.948	241510
644.008	121200
644.067	111084
644.126	105290
644.186	107061
644.245	98966
644.304	95498
644.363	102731
644.423	99518
644.482	104027
644.541	99993
644.600	99182
644.659	109422
644.719	115252
644.778	133769
644.837	138974
644.896	179251
644.955	267605
645.014	145238
645.073	111353
645.132	118231
645.191	111828
645.250	100320
645.309	109347
645.368	107803
645.427	107465
645.486	115746
645.545	129197
645.604	102787
645.663	102797
645.722	104279
645.781	99718
645.840	101863
645.898	105191
645.957	115284
646.016	119006
646.075	152458
646.134	222277
646.192	482930
646.251	602743
646.310	147659
646.369	102617
646.427	98495
646.486	97465
646.545	97758
646.603	96605
646.662	96436
646.721	94608
646.779	86092
646.838	92543
646.896	93633
646.955	96232
647.014	107103
647.072	121946
647.131	186441
647.189	120275
647.248	91391
647.306	88800
647.365	92970
647.423	86836
647.481	90319
647.540	83628
647.598	90049
647.657	83994
647.715	90397
647.773	91645
647.832	94728
647.890	100027
647.948	99076
648.007	96967
648.065	91384
648.123	91634
648.181	94530
648.240	92429
648.298	92011
648.356	99784
648.414	103744
648.472	102001
648.531	103036
648.589	98870
648.647	94420
648.705	96176
648.763	99566
648.821	95717
648.879	91718
648.937	96674
648.995	100738
649.053	99595
649.111	110329
649.169	123465
649.227	142780
649.285	200772
649.343	407214
649.401	231957
649.459	183530
649.516	133532
649.574	99260
649.632	107161
649.690	109616
649.748	125993
649.806	108673
649.863	110435
649.921	153244
649.979	118819
650.037	90293
650.094	89542
650.152	91543
650.210	85893
650.268	89482
650.325	86632
650.383	81320
650.440	85578
650.498	91294
650.556	90912
650.613	80302
650.671	86942
650.728	98385
650.786	113043
650.843	90564
650.901	84412
650.958	84247
651.016	81740
651.073	85183
651.131	86516
651.188	93864
651.246	95315
651.303	88237
651.360	82131
651.418	85959
651.475	87411
651.532	76501
651.590	79906
651.647	86080
651.704	88881
651.762	86787
651.819	83319
651.876	85211
651.933	83201
651.990	83144
652.048	83044
652.105	86099
652.162	81836
652.219	77747
652.276	78291
652.333	79188
652.390	75130
652.448	77845
652.505	80863
652.562	76796
652.619	74560
652.676	79233
652.733	75343
652.790	71611
652.847	70020
652.904	74640
652.961	75709
653.017	74116
653.074	70888
653.131	72989
653.188	72941
653.245	73460
653.302	75132
653.359	71989
653.415	73611
653.472	75876
653.529	74345
653.586	76107
653.642	76652
653.699	69809
653.756	72078
653.813	73641
653.869	70246
653.926	70341
653.983	71500
654.039	70274
654.096	73814
654.152	80030
654.209	81881
654.266	89351
654.322	89975
654.379	102937
654.435	106708
654.492	116759
654.548	158736
654.605	234697
654.661	110866
654.717	91743
654.774	101009
654.830	95325
654.887	89699
654.943	93459
655.000	88504
655.056	90140
655.112	95072
655.168	95682
655.225	100844
655.281	120899
655.337	177396
655.394	308453
655.450	201422
655.506	178172
655.562	314978
655.618	206069
655.675	92742
655.731	89417
655.787	85230
655.843	87892
655.899	81616
655.955	84578
656.011	86123
656.067	78750
656.123	83117
656.179	88897
656.235	86746
656.291	81988
656.347	93494
656.403	98863
656.459	104621
656.515	123476
656.571	120983
656.627	98254
656.683	91534
656.739	86875
656.795	78376
656.850	85040
656.906	94611
656.962	81634
657.018	75546
657.074	82531
657.129	86610
657.185	86007
657.241	89206
657.297	83113
657.352	82628
657.408	81871
657.464	99223
657.519	92410
657.575	76022
657.630	82562
657.686	78900
657.742	84763
657.797	83863
657.853	87052
657.908	88765
657.964	78685
658.019	81903
658.075	88585
658.130	84219
658.186	77363
658.241	76249
658.297	80105
658.352	82379
658.407	79616
658.463	79998
658.518	83610
658.573	80700
658.629	75576
658.684	74003
658.739	72223
658.795	69842
658.850	73504
658.905	78517
658.960	73972
659.016	73240
659.071	76621
659.126	77311
659.181	80653
659.236	95688
659.291	95121
659.346	88811
659.401	89137
659.457	78695
659.512	77349
659.567	81001
659.622	81424
659.677	83100
659.732	87562
659.787	90417
659.842	118535
659.897	153922
659.952	89116
660.007	81317
660.061	84668
660.116	86715
660.171	80285
660.226	77717
660.281	75867
660.336	75464
660.391	76250
660.445	78740
660.500	79209
660.555	80889
660.610	80386
660.664	78607
660.719	78741
660.774	80671
660.828	78954
660.883	77012
660.938	82448
660.992	82562
661.047	81044
661.101	76877
661.156	78470
661.211	77861
661.265	77505
661.320	79466
661.374	79597
661.429	78728
661.483	80553
661.538	83312
661.592	82396
661.647	80198
661.701	78828
661.755	81468
661.810	85215
661.864	84649
661.919	81067
661.973	83920
662.027	83680
662.081	81422
662.136	84880
662.190	93003
662.244	98557
662.299	87752
662.353	80391
662.407	82158
662.461	88941
662.515	89901
662.569	94649
662.624	94408
662.678	91392
662.732	88662
662.786	91833
662.840	97356
662.894	94015
662.948	84555
663.002	79268
663.056	81830
663.110	80392
663.164	81846
663.218	79518
663.272	81002
663.326	83615
663.380	90782
663.434	93878
663.488	91587
663.542	92547
663.595	93182
663.649	91194
663.703	86015
663.757	89344
663.811	86410
663.864	83074
663.918	84478
663.972	84812
664.026	84453
664.079	83686
664.133	87701
664.187	79405
664.240	79160
664.294	81432
664.348	86437
664.401	84197
664.455	80919
664.508	84206
664.562	85993
664.615	83739
664.669	81877
664.722	83226
664.776	84289
664.829	87944
664.883	87951
664.936	94771
664.990	96009
665.043	100764
665.097	115511
665.150	117057
665.203	104696
665.257	101213
665.310	98194
665.363	99993
665.417	103823
665.470	99192
665.523	101065
665.576	98282
665.630	95500
665.683	99440
665.736	100927
665.789	102809
665.842	98638
665.895	99442
665.949	94215
666.002	91810
666.055	98168
666.108	101337
666.161	100834
666.214	99888
666.267	98283
666.320	103405
666.373	101917
666.426	105485
666.479	107506
666.532	125728
666.585	146973
666.638	154997
666.691	141615
666.744	148490
666.796	151057
666.849	131852
666.902	104850
666.955	99292
667.008	93141
667.060	88480
667.113	86513
667.166	87339
667.219	88663
667.271	93207
667.324	90399
667.377	92211
667.430	87989
667.482	92274
667.535	93376
667.587	98083
667.640	100774
667.693	120114
667.745	122329
667.798	124496
667.850	109164
667.903	102806
667.955	102735
668.008	105668
668.060	123913
668.113	124460
668.165	122834
668.218	118451
668.270	112456
668.322	112533
668.375	108402
668.427	109779
668.479	103675
668.532	110797
668.584	114133
668.636	104154
668.689	107732
668.741	109259
668.793	105907
668.845	105515
668.898	110841
668.950	105305
669.002	108865
669.054	110168
669.106	110876
669.158	112875
669.211	104424
669.263	106106
669.315	112031
669.367	105065
669.419	110245
669.471	107408
669.523	99490
669.575	104102
669.627	107551
669.679	101572
669.731	99249
669.783	101480
669.835	98906
669.886	98351
669.938	101054
669.990	97926
670.042	94561
670.094	96057
670.146	94713
670.197	96110
670.249	97916
670.301	96877
670.353	97655
670.404	97519
670.456	100277
670.508	98524
670.560	102990
670.611	107808
670.663	110766
670.715	133380
670.766	146462
670.818	105705
670.869	94054
670.921	91844
670.972	97829
671.024	96473
671.075	96421
671.127	99807
671.178	95693
671.230	98648
671.281	96134
671.333	102372
671.384	116410
671.436	118549
671.487	122688
671.538	122460
671.590	128145
671.641	145970
671.692	144822
671.744	172838
671.795	148811
671.846	120139
671.897	121357
671.949	125940
672.000	112989
672.051	115439
672.102	116417
672.153	113830
672.204	113336
672.256	113647
672.307	113815
672.358	118726
672.409	117496
672.460	107986
672.511	108465
672.562	112242
672.613	107561
672.664	106515
672.715	110619
672.766	109715
672.817	106541
672.868	106520
672.919	105592
672.970	106068
673.021	107874
673.071	104238
673.122	104065
673.173	105571
673.224	105978
673.275	103824
673.326	101508
673.376	102397
673.427	104046
673.478	103889
673.528	99584
673.579	101868
673.630	102310
673.680	104629
673.731	96624
673.782	94795
673.832	107308
673.883	110765
673.934	104213
673.984	98886
674.035	103616
674.085	103706
674.136	114257
674.186	125777
674.237	158136
674.287	214978
674.338	126407
674.388	106264
674.438	103576
674.489	110232
674.539	113713
674.589	113682
674.640	109924
674.690	106957
674.740	119692
674.791	125234
674.841	117645
674.891	114318
674.942	103722
674.992	101084
675.042	97169
675.092	95573
675.142	102934
675.193	101008
675.243	95160
675.293	102038
675.343	106783
675.393	106410
675.443	103451
675.493	91827
675.543	96913
675.593	108876
675.643	99766
675.693	100147
675.743	100975
675.793	95983
675.843	97615
675.893	101441
675.943	93579
675.993	94877
676.043	101073
676.093	95768
676.142	94044
676.192	98418
676.242	96709
676.292	94294
676.341	108038
676.391	106253
676.441	92872
676.491	91593
676.540	89428
676.590	88425
676.640	93524
676.689	92878
676.739	89314
676.789	83949
676.838	89692
676.888	86704
676.937	90911
676.987	87075
677.037	83683
677.086	82489
677.136	88353
677.185	87264
677.235	78326
677.284	83862
677.333	85356
677.383	83917
677.432	80075
677.482	83509
677.531	87485
677.580	91750
677.630	82164
677.679	79854
677.728	87558
677.778	80123
677.827	78938
677.876	81810
677.925	78811
677.975	84591
678.024	85139
678.073	86452
678.122	96492
678.171	97093
678.220	94055
678.269	103050
678.319	101828
678.368	94940
678.417	96737
678.466	97928
678.515	101658
678.564	102562
678.613	95113
678.662	95082
678.711	95324
678.760	91580
678.809	89701
678.857	95502
678.906	94219
678.955	94485
679.004	92851
679.053	92236
679.102	95360
679.151	97364
679.199	91056
679.248	87527
679.297	97216
679.346	101201
679.394	94478
679.443	88210
679.492	89080
679.540	88183
679.589	96963
679.638	91336
679.686	80980
679.735	83615
679.784	90787
679.832	90606
679.881	83814
679.929	80477
679.978	79486
680.026	84665
680.075	86018
680.123	85780
680.172	83068
680.220	75726
680.268	84187
680.317	82770
680.365	80335
680.414	79534
680.462	83348
680.510	82369
680.559	76448
680.607	76780
680.655	81506
680.703	84997
680.752	81096
680.800	73529
680.848	76346
680.896	74563
680.945	75704
680.993	80441
681.041	80497
681.089	75266
681.137	70526
681.185	73103
681.233	79542
681.258	78686
681.281	77678
681.329	75265
681.377	76954
681.380	77391
681.425	81626
681.473	89354
681.502	89228
681.521	88757
681.569	85779
681.617	80862
681.624	81477
681.665	83783
681.713	82866
681.745	82366
681.761	81831
681.809	81989
681.857	80817
681.867	80928
681.904	80526
681.952	84611
681.989	85181
682.000	85084
682.048	86106
682.096	81970
682.111	82384
682.143	82637
682.191	81712
682.233	84985
682.239	85264
682.286	83949
682.334	82249
682.354	82438
682.382	82287
682.430	87544
682.476	84607
682.477	84355
682.525	83169
682.572	84232
682.598	82530
682.620	80841
682.667	83596
682.715	89070
682.720	89003
682.763	86468
682.810	83742
682.841	83387
682.857	82962
682.905	82575
682.952	82521
682.963	83827
683.000	87819
683.047	86532
683.085	85831
683.095	85336
683.142	83011
683.190	83938
683.206	83952
683.237	83798
683.284	84407
683.328	86766
683.332	86794
683.379	84775
683.426	84470
683.449	84425
683.473	84115
683.521	86895
683.568	85134
683.571	85133
683.615	82898
683.662	85814
683.693	85209
683.709	84763
683.757	83611
683.804	86863
683.814	87606
683.851	89444
683.898	84015
683.936	85069
683.945	85200
683.992	88383
684.039	88704
684.057	88682
684.086	88304
684.133	87707
684.179	90147
684.180	90087
684.227	89275
684.274	87316
684.300	87271
684.321	87138
684.368	86651
684.415	90718
684.422	90334
684.462	87049
684.509	86825
684.543	86925
684.556	86913
684.603	88084
684.649	89578
684.665	89589
684.696	89961
684.743	91817
684.786	95607
684.790	95943
684.837	100360
684.883	109525
684.908	112590
684.930	113730
684.977	116923
685.023	108170
685.029	107708
685.070	101846
685.117	100723
685.150	104198
685.164	106651
685.210	114178
685.257	116670
685.272	115774
685.303	110737
685.350	107207
685.393	108394
685.396	108576
685.443	106563
685.490	110775
685.514	112003
685.536	112554
685.583	111437
685.629	110446
685.636	110410
685.675	109306
685.722	107295
685.757	109554
685.768	110673
685.815	113950
685.861	114736
685.878	115086
685.908	116484
685.954	121270
686.000	130834
686.000	131017
686.047	144150
686.093	170124
686.121	166642
686.139	156486
686.185	135681
686.232	123389
686.242	121133
686.278	118178
686.324	112690
686.363	104542
686.370	103682
686.416	107688
686.463	112051
686.484	111065
686.509	109697
686.555	108140
686.601	107166
686.606	107348
686.647	109005
686.693	108203
686.727	109069
686.739	109454
686.785	108656
686.831	110154
686.848	109861
686.877	107985
686.923	104218
686.969	103045
686.969	103045
687.015	108103
687.061	111229
687.090	111872
687.107	111443
687.153	110287
687.199	108421
687.211	107582
687.245	107965
687.291	115236
687.332	123737
687.336	124259
687.382	125405
687.428	117125
687.453	115447
687.474	112333
687.520	108320
687.565	104003
687.574	103243
687.611	104281
687.657	103492
687.695	105865
687.702	106359
687.748	110042
687.794	109217
687.816	109254
687.839	107814
687.885	103738
687.931	101461
687.937	101428
687.976	105280
688.022	109114
688.058	112887
688.067	113288
688.113	111346
688.158	108256
688.179	108281
688.204	109149
688.249	111553
688.295	115377
688.300	115843
688.340	120615
688.386	121884
688.421	121237
688.431	120014
688.477	116108
688.522	113536
688.542	112443
688.567	112481
688.613	112742
688.658	109716
688.663	109696
688.703	111465
688.749	115086
688.784	115196
688.794	114889
688.839	114436
688.884	113171
688.905	111529
688.930	110053
688.975	110771
689.020	114581
689.026	114532
689.065	115508
689.110	114727
689.146	115444
689.155	114919
689.201	109117
689.246	105686
689.267	104552
689.291	106620
689.336	111099
689.381	116028
689.388	116244
689.426	114384
689.471	111675
689.509	109534
689.516	109195
689.561	107537
689.606	107427
689.630	107190
689.651	108483
689.696	109133
689.741	111299
689.750	111767
689.785	112318
689.830	110382
689.871	108494
689.875	108336
689.920	107769
689.965	107332
689.992	105303
690.010	105080
690.054	107933
690.099	111321
690.112	111211
690.144	109724
690.189	107848
690.233	106082
690.233	106169
690.278	105648
690.323	104685
690.354	104031
690.367	104714
690.412	107830
690.457	110580
690.474	111170
690.501	109998
690.546	105464
690.590	102885
690.595	102713
690.635	104582
690.680	104737
690.716	106112
690.724	106531
690.769	107282
690.813	107896
690.836	107008
690.857	105999
690.902	106188
690.946	106090
690.957	106043
690.991	107346
691.035	107954
691.077	108785
691.080	109169
691.124	115023
691.168	121577
691.198	125440
691.213	126829
691.257	131087
691.301	131623
691.318	131776
691.346	125776
691.390	117043
691.434	108205
691.439	107306
691.478	110118
691.522	113100
691.559	114157
691.567	114176
691.611	113895
691.655	112943
691.680	112887
691.699	114058
691.743	117149
691.787	118862
691.800	119469
691.831	122760
691.875	127369
691.919	131666
691.921	131642
691.964	134789
692.008	136914
692.041	138090
692.052	137767
692.096	136384
692.139	134589
692.162	133077
692.183	132096
692.227	131845
692.271	130874
692.282	130208
692.315	129592
692.359	129459
692.402	128555
692.403	128734
692.447	128520
692.490	129585
692.523	131729
692.534	132919
692.578	134673
692.622	134835
692.643	134862
692.666	132276
692.709	127335
692.753	122682
692.763	121314
692.797	120383
692.840	119671
692.884	118882
692.884	119078
692.928	122055
692.971	124775
693.004	126681
693.015	126619
693.059	124852
693.102	122789
693.124	121665
693.146	123418
693.189	128162
693.233	133131
693.245	134097
693.276	135062
693.320	134021
693.363	134051
693.365	133889
693.407	134764
693.450	134886
693.485	133795
693.493	134033
693.537	135603
693.580	136604
693.605	136780
693.624	134036
693.667	126252
693.710	119194
693.725	117122
693.753	119528
693.797	122059
693.840	123131
693.845	123210
693.883	120588
693.926	117030
693.966	113350
693.970	113347
694.013	110714
694.056	109190
694.086	108998
694.099	112039
694.142	120964
694.185	128232
694.206	131278
694.229	132655
694.272	136105
694.315	140541
694.326	140717
694.358	136668
694.401	131299
694.444	126624
694.446	126182
694.487	125500
694.530	124983
694.566	124174
694.573	123692
694.616	118576
694.659	112629
694.686	109174
694.702	109039
694.745	108973
694.787	108256
694.806	108013
694.830	109681
694.873	112481
694.916	113955
694.926	114051
694.959	112249
695.002	110827
695.044	109111
695.046	108856
695.087	112567
695.130	115958
695.166	118908
695.172	119270
695.215	119449
695.258	119836
695.286	120273
695.301	120399
695.343	119814
695.386	118698
695.406	117947
695.428	116595
695.471	113718
695.514	111412
695.526	110446
695.556	111853
695.599	113968
695.641	115343
695.646	115286
695.684	114431
695.726	113370
695.766	112373
695.769	112719
695.811	114818
695.854	116514
695.886	117445
695.896	116563
695.938	111984
695.981	107403
696.005	104445
696.023	106204
696.065	110647
696.108	115518
696.125	117070
696.150	117880
696.192	118433
696.235	119220
696.245	119110
696.277	115657
696.319	110829
696.361	106290
696.365	105695
696.404	106911
696.446	107986
696.485	108628
696.488	108958
696.530	110490
696.572	112407
696.604	113519
696.614	113074
696.656	109653
696.698	106328
696.724	104101
696.740	104390
696.783	104965
696.825	105486
696.844	105387
696.867	106625
696.909	108821
696.951	110916
696.964	111227
696.992	109231
697.034	106053
697.076	103224
697.083	102516
697.118	104638
697.160	107030
697.202	109322
697.203	109153
697.244	108473
697.286	107824
697.323	106656
697.327	106620
697.369	104234
697.411	102074
697.442	100401
697.453	101612
697.494	105582
697.536	109496
697.562	111592
697.578	110938
697.620	108576
697.661	106428
697.682	105040
697.703	105482
697.744	106032
697.786	106705
697.801	106678
697.828	107272
697.869	107772
697.911	108216
697.921	108124
697.952	108621
697.994	108964
698.035	109282
698.040	109069
698.077	106678
698.118	103677
698.160	100769
698.160	100529
698.201	102763
698.243	104726
698.279	106380
698.284	106629
698.325	106690
698.367	106688
698.399	106433
698.408	105771
698.449	101628
698.491	97547
698.518	94627
698.532	95894
698.573	99089
698.614	102301
698.638	103876
698.656	104512
698.697	105472
698.738	106440
698.757	106674
698.779	108406
698.820	111183
698.862	113978
698.877	114765
698.903	117351
698.944	121051
698.985	124758
698.996	125499
699.026	122991
699.067	119127
699.116	114252
699.235	108481
699.354	100808
699.474	116836
699.593	146198
699.713	125070
699.832	109318
699.951	107589
700.070	100899
700.190	103864
700.309	110815
700.428	136112
700.547	108159
700.667	109758
700.786	134496
700.905	101682
701.024	127184
701.143	108313
701.262	85298
701.381	92225
701.500	96300
701.619	89083
701.738	87970
701.857	84579
701.976	86600
702.095	84431
702.214	97207
702.333	90567
702.452	87594
702.571	83978
702.690	84363
702.809	84075
702.928	78010
703.047	87028
703.165	80687
703.284	82726
703.403	87222
703.522	119422
703.640	103578
703.759	149234
703.878	224492
703.997	101218
704.115	88999
704.234	84514
704.353	78485
704.471	78000
704.590	75443
704.708	74026
704.827	74712
704.946	94088
705.064	107679
705.183	93686
705.301	144618
705.420	232368
705.538	184396
705.656	140150
705.775	129262
705.893	144891
706.012	160102
706.130	158452
706.249	157300
706.367	170053
706.485	181506
706.604	166743
706.722	164931
706.840	201339
706.958	172593
707.077	144866
707.195	139145
707.313	137694
707.431	135808
707.549	138168
707.668	142415
707.786	145261
707.904	135388
708.022	128740
708.140	126628
708.258	126465
708.376	132622
708.494	134942
708.612	166644
708.730	273893
708.848	234067
708.966	201704
709.084	181238
709.202	187990
709.320	199392
709.438	204244
709.556	201260
709.674	197352
709.791	191698
709.909	191084
710.027	189434
710.145	184818
710.263	192707
710.380	195252
710.498	182330
710.616	187012
710.733	192657
710.851	209148
710.969	204620
711.086	189135
711.204	175597
711.322	188980
711.439	196771
711.557	198899
711.674	182011
711.792	182710
711.909	165628
712.027	164661
712.144	166496
712.262	176397
712.379	227594
712.497	342583
712.614	308102
712.732	247281
712.849	235249
712.966	263865
713.084	292606
713.201	257982
713.318	251281
713.436	245211
713.553	247950
713.670	255021
713.787	287197
713.905	278165
714.022	235186
714.139	231513
714.256	232423
714.373	239200
714.490	237133
714.608	267233
714.725	476632
714.842	411588
714.959	217523
715.076	206966
715.193	202529
715.310	195124
715.427	201364
715.544	185920
715.661	197215
715.778	208342
715.895	230434
716.011	225242
716.128	197118
716.245	198347
716.362	196366
716.479	203742
716.596	188489
716.713	193051
716.829	184816
716.946	185195
717.063	180778
717.180	179939
717.296	173754
717.413	178034
717.530	174552
717.646	169527
717.763	171781
717.880	165502
717.996	166686
718.113	162224
718.229	166981
718.346	153751
718.462	160100
718.579	175536
718.695	202278
718.812	238016
718.928	273798
719.045	174979
719.161	150698
719.277	144808
719.394	142834
719.510	158641
719.626	162931
719.743	196360
719.859	165075
719.975	166997
720.092	222319
720.208	271086
720.324	174519
720.440	154731
720.557	180075
720.673	206176
720.789	366605
720.905	746998
721.021	234414
721.137	153834
721.253	164215
721.369	173645
721.486	202054
721.602	277766
721.718	146686
721.834	130947
721.950	137413
722.066	130696
722.181	126007
722.297	135467
722.413	121390
722.529	130643
722.645	122691
722.761	126576
722.877	122264
722.993	120351
723.108	129285
723.224	120232
723.340	129126
723.456	110280
723.571	122522
723.687	115070
723.803	117633
723.918	108908
724.034	119676
724.150	119564
724.265	153755
724.381	353324
724.497	343955
724.612	118801
724.728	107700
724.843	116911
724.959	148206
725.074	334713
725.190	300634
725.305	135897
725.421	111699
725.536	93881
725.651	96975
725.767	93117
725.882	91875
725.997	93480
726.113	94518
726.228	92675
726.343	92303
726.459	86387
726.574	107902
726.689	90410
726.804	97257
726.920	97543
727.035	99481
727.150	100869
727.265	93544
727.380	98217
727.495	83467
727.610	77394
727.725	88751
727.841	79664
727.956	89398
728.071	115594
728.186	85208
728.301	74529
728.416	84360
728.531	73214
728.645	71767
728.760	81103
728.875	70041
728.990	74544
729.105	77607
729.220	72586
729.335	70688
729.449	71206
729.564	67163
729.679	68563
729.794	72061
729.908	94509
730.023	75380
730.138	60027
730.253	68834
730.367	63016
730.482	63816
730.596	67252
730.711	65210
730.826	58650
730.940	57714
731.055	66691
731.169	57150
731.284	59806
731.398	67405
731.513	90058
731.627	76884
731.742	101030
731.856	96052
731.970	55074
732.085	58381
732.199	57378
732.313	60647
732.428	76827
732.542	126935
732.656	83399
732.771	53707
732.885	55593
732.999	63129
733.113	68899
733.227	64028
733.342	50973
733.456	55540
733.570	49164
733.684	56088
733.798	57565
733.912	48974
734.026	46675
734.140	53542
734.254	75732
734.368	184110
734.482	177349
734.596	49993
734.710	48569
734.824	46803
734.938	46059
735.052	50967
735.166	69719
735.280	51856
735.393	46847
735.507	53108
735.621	104205
735.735	211743
735.849	61275
735.962	48681
736.076	59913
736.190	61159
736.303	119194
736.417	131168
736.531	52398
736.644	53753
736.758	37831
736.872	39211
736.985	39998
737.099	36087
737.212	37098
737.326	36712
737.439	37253
737.553	36746
737.666	37879
737.780	34829
737.893	35795
738.007	35505
738.120	34892
738.233	36574
738.347	33804
738.460	34558
738.573	36177
738.687	35824
738.800	35156
738.913	39327
739.026	38586
739.140	35385
739.253	30292
739.366	33387
739.479	32688
739.592	32310
739.705	35004
739.818	32994
739.932	29813
740.045	32030
740.158	33486
740.271	38394
740.384	33346
740.497	29800
740.610	31790
740.723	32261
740.836	29714
740.949	29790
741.062	40234
741.174	40296
741.287	36785
741.400	29652
741.513	32281
741.626	35663
741.739	30552
741.851	28707
741.964	29924
742.077	31852
742.189	31864
742.302	33182
742.415	30252
742.527	29090
742.640	29709
742.753	26795
742.865	25503
742.978	28304
743.090	31265
743.203	33249
743.316	28283
743.428	28414
743.541	27802
743.653	26632
743.766	27686
743.878	37382
743.990	74998
744.103	45742
744.215	28913
744.327	28322
744.440	31208
744.552	38970
744.664	25562
744.777	23502
744.889	24797
745.001	26432
745.113	25484
745.226	22737
745.338	24530
745.450	26477
745.562	25161
745.674	22678
745.786	22024
745.898	23311
746.010	23516
746.122	22739
746.234	20625
746.347	22448
746.459	24479
746.570	23376
746.682	23972
746.794	24972
746.906	25765
747.018	24475
747.130	23605
747.242	21920
747.354	24800
747.466	29306
747.577	22569
747.689	21832
747.801	20845
747.913	20071
748.024	19333
748.136	21740
748.248	20480
748.359	20382
748.471	20941
748.583	20769
748.694	22335
748.806	32522
748.918	60691
749.029	28267
749.141	24071
749.252	23675
749.364	27770
749.475	48087
749.587	50934
749.698	22229
749.809	20730
749.921	18959
750.032	20162
750.144	18886
750.255	17510
750.366	18588
750.478	20338
750.589	20531
750.700	19522
750.811	21795
750.923	24780
751.034	42071
751.145	33850
751.256	19569
751.367	18499
751.479	18208
751.590	17890
751.701	17408
751.812	17356
751.923	18458
752.034	17410
752.145	16171
752.256	17626
752.367	15661
752.478	16648
752.589	17394
752.700	18230
752.811	18866
752.922	18687
753.032	20427
753.143	20561
753.254	16463
753.365	18482
753.476	16303
753.586	16508
753.697	16665
753.808	17559
753.919	17424
754.029	16588
754.140	17551
754.251	19691
754.361	18376
754.472	18559
754.582	17975
754.693	16563
754.804	15361
754.914	14960
755.025	15798
755.135	15790
755.246	16476
755.356	15214
755.466	15865
755.577	16736
755.687	17826
755.798	15088
755.908	14866
756.018	14174
756.129	15341
756.239	15883
756.349	14920
756.460	16038
756.570	16970
756.680	15820
756.790	18954
756.900	17789
757.011	15920
757.121	14310
757.231	15556
757.341	16392
757.451	14859
757.561	15278
757.671	14940
757.781	15535
757.891	18051
758.001	22851
758.111	15954
758.221	15882
758.331	17710
758.441	17793
758.551	22453
758.661	21478
758.771	20038
758.880	28022
758.990	27143
759.100	24571
759.210	23420
759.320	22486
759.429	22470
759.539	21665
759.649	22423
759.758	23245
759.868	22251
759.978	21221
760.087	21402
760.197	21637
760.307	21523
760.416	20930
760.526	20587
760.635	19830
760.745	20523
760.854	21408
760.964	21751
761.073	21241
761.182	21967
761.292	24768
761.401	35039
761.511	24376
761.620	21770
761.729	26180
761.839	28279
761.948	23438
762.057	24967
762.166	23532
762.276	21276
762.385	21517
762.494	22369
762.603	22875
762.712	29578
762.822	29795
762.931	26620
763.040	25246
763.149	24537
763.258	24712
763.367	24997
763.476	24799
763.585	25343
763.694	27290
763.803	29682
763.912	30166
764.021	27564
764.130	23606
764.238	25805
764.347	25747
764.456	25115
764.565	25856
764.674	24536
764.783	24295
764.891	23855
765.000	24946
765.109	25175
765.217	25579
765.326	37539
765.435	46659
765.543	25754
765.652	23515
765.761	24543
765.869	25701
765.978	26747
766.086	33084
766.195	47001
766.303	107560
766.412	318670
766.520	161801
766.629	43185
766.737	38254
766.846	33521
766.954	32076
767.062	36529
767.171	42383
767.279	36519
767.387	35037
767.496	34016
767.604	33153
767.712	31775
767.820	33553
767.928	34145
768.037	32807
768.145	35556
768.253	33882
768.361	34046
768.469	32610
768.577	32902
768.685	33370
768.793	32812
768.901	33637
769.009	31381
769.117	32245
769.225	31814
769.333	34188
769.441	34587
769.549	37211
769.657	55661
769.765	137121
769.873	212513
769.981	50387
770.088	32432
770.196	33180
770.304	31802
770.412	37375
770.519	38487
770.627	36340
770.735	36343
770.842	34589
770.950	32912
771.058	33265
771.165	32222
771.273	34260
771.380	32197
771.488	33504
771.595	33095
771.703	30624
771.810	33602
771.918	31192
772.025	32027
772.133	31505
772.240	31178
772.348	32169
772.455	31873
772.562	31760
772.670	30195
772.777	31054
772.884	28827
772.991	29977
773.099	29686
773.206	28157
773.313	28956
773.420	27999
773.528	26649
773.635	28027
773.742	27968
773.849	28921
773.956	27913
774.063	27998
774.170	28470
774.277	35582
774.384	33287
774.491	32282
774.598	31942
774.705	31999
774.812	36860
774.919	39833
775.026	39896
775.133	34560
775.239	34991
775.346	35607
775.453	31070
775.560	32569
775.667	35259
775.773	35026
775.880	32874
775.987	34498
776.093	31589
776.200	34407
776.307	33664
776.413	32079
776.520	32657
776.627	33500
776.733	33757
776.840	31429
776.946	32364
777.053	35531
777.159	38688
777.266	33288
777.372	38447
777.478	32647
777.585	31940
777.691	28492
777.798	30038
777.904	30357
778.010	35124
778.117	34555
778.223	33553
778.329	34670
778.435	31177
778.542	32198
778.648	30404
778.754	28609
778.860	31066
778.966	37807
779.072	33480
779.178	29593
779.284	29090
779.391	28627
779.497	28125
779.603	28631
779.708	28590
779.815	28274
779.920	29122
780.026	29772
780.132	25823
780.238	26980
780.344	27982
780.450	26904
780.556	24698
780.661	26367
780.767	26768
780.873	25518
780.979	27464
781.085	28587
781.190	25880
781.296	23288
781.402	25483
781.507	21390
781.613	25059
781.719	23226
781.824	23788
781.930	25430
782.035	26593
782.141	25742
782.246	26577
782.352	25237
782.457	23649
782.563	24647
782.668	26710
782.773	31122
782.879	28354
782.984	29574
783.090	30250
783.195	34725
783.300	31515
783.405	30676
783.511	29882
783.616	29401
783.721	27378
783.826	25037
783.932	28543
784.037	28264
784.142	29014
784.247	27362
784.352	26143
784.457	25857
784.562	24233
784.667	26295
784.772	25397
784.877	25961
784.982	23997
785.087	24366
785.192	28007
785.297	24677
785.402	24152
785.507	23514
785.611	23135
785.716	26979
785.821	23779
785.926	20931
786.031	24120
786.135	25222
786.240	22582
786.345	23241
786.450	21281
786.554	22962
786.659	22981
786.763	20942
786.868	23361
786.973	23161
787.077	20810
787.182	22343
787.286	21462
787.391	19480
787.495	21870
787.600	20167
787.704	19542
787.809	20696
787.913	19152
788.017	20360
788.122	21027
788.226	19369
788.330	19281
788.435	22256
788.539	19701
788.643	18010
788.747	19747
788.852	18799
788.956	18352
789.060	19286
789.164	18271
789.268	18135
789.372	18076
789.476	19589
789.580	17957
789.684	17743
789.788	19113
789.892	19930
789.996	22710
790.100	19129
790.204	21989
790.308	26507
790.412	22777
790.516	21044
790.620	22525
790.724	21620
790.828	21846
790.931	21994
791.035	21849
791.139	20329
791.242	19066
791.346	19924
791.450	19492
791.554	19020
791.657	18210
791.761	20831
791.864	19784
791.968	18822
792.072	20326
792.175	20866
792.279	19213
792.382	18965
792.486	22057
792.589	27580
792.693	23982
792.796	17126
792.899	17544
793.003	17502
793.106	16164
793.209	17610
793.313	17813
793.416	14972
793.519	19724
793.623	22942
793.726	25155
793.829	18927
793.932	17820
794.035	17822
794.138	19356
794.242	20913
794.345	32041
794.448	26245
794.551	25775
794.654	23086
794.757	23495
794.860	42450
794.963	27511
795.066	16266
795.169	15284
795.272	14609
795.375	15376
795.477	14991
795.580	15151
795.683	13493
795.786	15420
795.889	16122
795.991	19475
796.094	31164
796.197	25280
796.300	16966
796.402	13749
796.505	14182
796.608	13873
796.710	13802
796.813	13620
796.915	13776
797.018	14364
797.120	14374
797.223	13073
797.326	14112
797.428	13864
797.530	16045
797.633	19562
797.735	31264
797.838	74946
797.940	43136
798.042	13273
798.145	13792
798.247	14544
798.349	12369
798.452	12190
798.554	12480
798.656	12865
798.758	15685
798.860	13557
798.962	11422
799.065	13132
799.167	13458
799.269	16146
799.371	16891
799.473	20791
799.575	37837
799.677	35776
799.779	19471
799.881	19074
799.983	15035
800.085	12931
800.187	13533
800.289	16371
800.390	13939
800.492	12282
800.594	11929
800.696	10102
800.798	11345
800.899	10778
801.001	10900
801.103	10917
801.205	9610
801.306	10261
801.408	10170
801.509	10832
801.611	10046
801.713	11179
801.814	10076
801.916	11569
802.017	10669
802.119	11335
802.220	12322
802.322	16182
802.423	37748
802.525	25662
802.626	12321
802.727	10713
802.829	10935
802.930	8979
803.031	11936
803.133	9181
803.234	9089
803.335	9734
803.436	8477
803.538	9763
803.639	7940
803.740	9342
803.841	9650
803.942	9845
804.043	9421
804.144	8339
804.245	9533
804.346	8413
804.447	9224
804.548	12469
804.649	12662
804.750	8916
804.851	7460
804.952	8325
805.053	8770
805.154	7358
805.255	8956
805.355	8340
805.456	7755
805.557	7546
805.658	6659
805.758	9094
805.859	7745
805.960	7703
806.061	6250
806.161	8867
806.262	8472
806.362	10967
806.463	10911
806.564	11514
806.664	13838
806.765	28224
806.865	20368
806.966	11210
807.066	8138
807.166	8719
807.267	7621
807.367	7032
807.468	7798
807.568	5950
807.668	7774
807.769	7570
807.869	7660
807.969	7473
808.069	8804
808.170	7962
808.270	7059
808.370	8902
808.470	11842
808.570	8591
808.670	6565
808.770	7238
808.870	6544
808.970	7827
809.070	6271
809.170	6398
809.271	6373
809.370	7087
809.470	6708
809.570	5706
809.670	5790
809.770	7057
809.870	7993
809.970	7782
810.070	6237
810.169	6497
810.269	4885
810.369	6654
810.469	5773
810.568	5438
810.668	6101
810.768	5424
810.867	5686
810.967	4908
811.066	5314
811.166	5560
811.265	6662
811.365	3884
811.464	4611
811.564	5732
811.663	5599
811.763	4927
811.862	5434
811.962	6349
812.061	4926
812.160	5080
812.260	5297
812.359	5680
812.458	4386
812.557	5827
812.657	5051
812.756	6507
812.855	4936
812.954	5357
813.053	6595
813.153	6247
813.252	5059
813.351	6050
813.450	4795
813.549	3698
813.648	5466
813.747	4172
813.846	5226
813.945	4584
814.044	3979
814.143	4768
814.242	5586
814.341	4002
814.439	4739
814.538	5352
814.637	4229
814.736	3932
814.835	4812
814.933	3191
815.032	5294
815.131	4984
815.229	4599
815.328	4871
815.427	4353
815.525	4997
815.624	4983
815.722	3743
815.821	4513
815.919	4299
816.018	3871
816.116	6674
816.215	4664
816.313	3956
816.412	4193
816.510	5343
816.609	5982
816.707	4124
816.805	4110
816.904	4153
817.002	5439
817.100	5438
817.198	4275
817.296	4074
817.395	4263
817.493	5717
817.591	3590
817.689	4638
817.787	4297
817.885	6328
817.983	8473
818.081	12744
818.179	24087
818.277	54559
818.375	36434
818.473	10743
818.571	7274
818.669	6671
818.767	5763
818.865	5631
818.963	6002
819.061	6925
819.158	10862
819.256	23182
819.354	50557
819.452	104327
819.549	50594
819.647	14078
819.745	8239
819.842	8859
819.940	5727
820.038	4988
820.135	4882
820.233	5765
820.330	3748
820.428	4116
820.525	6325
820.623	6118
820.720	5890
820.818	5055
820.915	5007
821.012	5073
821.110	3428
821.207	4690
821.304	4338
821.402	4906
821.499	5513
821.596	8193
821.693	5559
821.791	6457
821.888	8809
821.985	15701
822.082	11212
822.179	6131
822.276	5094
822.373	4724
822.470	4015
822.567	3976
822.664	3373
822.761	5048
822.858	3039
822.955	3992
823.052	4706
823.149	4517
823.246	4784
823.343	5037
823.440	4716
823.536	2974
823.633	3648
823.730	3569
823.827	3692
823.923	4068
824.020	4755
824.117	5448
824.213	3418
824.310	4372
824.407	3636
824.503	3202
824.600	3093
824.696	4214
824.793	5004
824.889	3235
824.986	4164
825.082	4693
825.179	4679
825.275	3454
825.371	2363
825.468	4143
825.564	2666
825.660	3082
825.757	4112
825.853	3919
825.949	3031
826.045	3054
826.142	2759
826.238	3594
826.334	4463
826.430	3239
826.526	3323
826.622	4504
826.718	6404
826.814	4334
826.910	4319
827.006	2900
827.102	3533
827.198	3959
827.294	3305
827.390	4236
827.486	3603
827.582	2544
827.678	3473
827.774	3533
827.869	3194
827.965	4565
828.061	3018
828.157	4088
828.252	4181
828.348	3255
828.444	3816
828.539	3094
828.635	3084
828.731	4699
828.826	4182
828.922	4365
829.017	4714
829.113	4156
829.208	3708
829.304	3374
829.399	4920
829.495	3241
829.590	4639
829.685	2867
829.781	4890
829.876	3394
829.971	3269
830.066	4192
830.162	3788
830.257	4296
830.352	4245
830.447	6789
830.543	9763
830.638	9465
830.733	6768
830.828	4081
830.923	5515
831.018	5727
831.113	8796
831.208	9100
831.303	6710
831.398	3594
831.493	3873
831.588	4745
831.683	1936
831.778	4263
831.873	2584
831.967	4951
832.062	2427
832.157	2778
832.252	4321
832.346	4373
832.441	5730
832.536	7459
832.631	15194
832.725	10480
832.820	3542
832.914	3400
833.009	3879
833.104	5473
833.198	6348
833.293	5069
833.387	8746
833.482	6350
833.576	3388
833.670	3857
833.765	3515
833.859	4116
833.954	5104
834.048	3389
834.142	3981
834.237	3540
834.331	3647
834.425	5108
834.519	3709
834.613	5638
834.708	3738
834.802	5400
834.896	4222
834.990	4606
835.084	4508
835.178	5721
835.272	8541
835.366	5146
835.460	5274
835.554	3270
835.648	4434
835.742	3935
835.836	4492
835.930	3766
836.024	7152
836.117	10104
836.211	13752
836.305	25878
836.399	33187
836.493	8037
836.586	5134
836.680	4211
836.774	4269
836.867	5313
836.961	3417
837.055	3018
837.148	4339
837.242	4763
837.335	5514
837.429	6598
837.522	9432
837.616	18963
837.709	42853
837.803	28513
837.896	9115
837.989	14410
838.083	27166
838.176	64540
838.269	49355
838.363	9168
838.456	6066
838.549	9901
838.642	12235
838.735	18260
838.829	9771
838.922	6247
839.015	5135
839.108	3655
839.201	4317
839.294	6178
839.387	7989
839.480	11639
839.573	24334
839.666	31613
839.759	7850
839.852	3575
839.945	4001
840.038	3491
840.131	4634
840.223	4871
840.316	4786
840.409	3904
840.502	2719
840.594	4662
840.687	3334
840.780	5598
840.873	7023
840.965	13056
841.058	22400
841.150	53616
841.243	32441
841.336	6315
841.428	5863
841.521	7616
841.613	11135
841.706	10400
841.798	5566
841.890	5589
841.983	4413
842.075	5937
842.167	6898
842.260	10742
842.352	20116
842.444	31046
842.537	61549
842.629	72552
842.721	14721
842.813	5761
842.905	5258
842.997	8418
843.090	12581
843.182	26015
843.274	55978
843.366	121237
843.458	209714
843.550	114129
843.642	20557
843.734	13651
843.826	22369
843.918	13966
844.009	6204
844.101	4877
844.193	6474
844.285	6383
844.377	5196
844.469	6266
844.560	6394
844.652	6142
844.744	5304
844.835	7094
844.927	10895
845.019	18359
845.110	11649
845.202	6147
845.293	4099
845.385	4494
845.476	5676
845.568	6705
845.659	7065
845.751	6265
845.842	4613
845.934	3777
846.025	4824
846.116	5624
846.208	5259
846.299	5011
846.390	5708
846.482	8506
846.573	13526
846.664	20594
846.755	25893
846.846	19608
846.937	5674
847.029	4171
847.120	4986
847.211	5360
847.302	6001
847.393	4465
847.484	5310
847.575	4840
847.666	4568
847.757	5785
847.847	5247
847.938	4304
848.029	4290
848.120	4407
848.211	5075
848.302	4823
848.392	3981
848.483	4797
848.574	4002
848.664	3624
848.755	4338
848.846	4446
848.936	4577
849.027	3790
849.118	4165
849.208	4564
849.299	6669
849.389	10057
849.480	13791
849.570	18313
849.661	22194
849.751	32139
849.841	11672
849.932	4248
850.022	4182
850.112	5130
850.203	3680
850.293	4869
850.383	4359
850.474	4538
850.564	4798
850.654	5273
850.744	4574
850.834	4534
850.924	4720
851.014	4712
851.104	4814
851.194	4875
851.284	6620
851.374	7534
851.464	6912
851.554	10150
851.644	14968
851.734	27562
851.824	16488
851.914	4740
852.004	4488
852.094	4084
852.183	4851
852.273	4921
852.363	4068
852.452	4776
852.542	4882
852.632	3270
852.721	4937
852.811	3688
852.901	4486
852.990	4676
853.080	4637
853.169	4449
853.259	4129
853.348	4564
853.438	5636
853.527	6148
853.617	7053
853.706	11528
853.795	18385
853.885	37718
853.974	61103
854.063	113320
854.152	163484
854.242	53179
854.331	11579
854.420	7593
854.509	8286
854.598	9916
854.687	14650
854.777	14552
854.866	6029
854.955	5201
855.044	4464
855.133	4045
855.222	3742
855.311	3551
855.400	4124
855.488	4095
855.577	3664
855.666	3922
855.755	5344
855.844	4985
855.933	3492
856.021	3699
856.110	4255
856.199	3114
856.288	3796
856.376	3331
856.465	4040
856.554	3989
856.642	4338
856.731	5240
856.819	5772
856.908	6501
856.996	4529
857.085	3134
857.173	3654
857.262	3779
857.350	4048
857.438	3965
857.527	4318
857.615	4226
857.703	4976
857.792	4379
857.880	3843
857.968	3745
858.056	3859
858.145	3826
858.233	3430
858.321	3300
858.409	3267
858.497	3353
858.585	2992
858.673	2946
858.761	3052
858.849	3643
858.937	3646
859.025	3920
859.113	4402
859.201	4342
859.289	4571
859.377	4103
859.465	4096
859.552	4548
859.640	4442
859.728	6319
859.816	4700
859.903	4255
859.991	3097
860.079	3677
860.166	4324
860.254	2843
860.342	3428
860.429	3141
860.517	2457
860.604	3601
860.692	2786
860.779	2351
860.867	3081
860.954	3912
861.042	3858
861.129	3970
861.216	3762
861.304	3103
861.391	3389
861.478	2927
861.565	3526
861.653	4287
861.740	4911
861.827	3555
861.914	2399
862.001	3065
862.089	2876
862.176	3434
862.263	2490
862.350	2783
862.437	2481
862.524	3097
862.611	2994
862.698	4522
862.785	4563
862.871	4198
862.958	3134
863.045	2501
863.132	3073
863.219	2679
863.306	1894
863.392	4043
863.479	3262
863.566	3486
863.652	3213
863.739	2271
863.826	3647
863.912	2830
863.999	3608
864.086	4089
864.172	2530
864.259	2479
864.345	2666
864.432	2917
864.518	2640
864.604	2679
864.691	2563
864.777	2880
864.863	4035
864.950	2970
865.036	3470
865.122	3785
865.209	3604
865.295	3850
865.381	3738
865.467	4322
865.553	4599
865.639	5647
865.726	8056
865.812	15941
865.898	30568
865.984	44686
866.070	85787
866.156	81781
866.242	18848
866.328	5617
866.414	3002
866.499	4367
866.585	3449
866.671	4122
866.757	3725
866.843	3711
866.928	3459
867.014	3880
867.100	4819
867.186	7630
867.271	10408
867.357	17648
867.442	24146
867.528	8877
867.614	3861
867.699	4684
867.785	4532
867.870	5722
867.956	7523
868.041	8591
868.127	11247
868.212	15326
868.297	7312
868.383	4549
868.468	6065
868.553	8218
868.639	9539
868.724	18020
868.809	14060
868.894	5113
868.979	4251
869.065	6787
869.150	5903
869.235	3813
869.320	2231
869.405	2417
869.490	2600
869.575	2308
869.660	2184
869.745	2413
869.830	1590
869.915	2213
870.000	1892
870.085	2233
870.169	2420
870.254	2990
870.339	2116
870.424	1694
870.509	2081
870.593	2327
870.678	2215
870.763	1968
870.847	2718
870.932	2499
871.016	2821
871.101	1798
871.186	2149
871.270	1602
871.355	1480
871.439	1393
871.523	1310
871.608	2159
871.692	2623
871.777	2867
871.861	3298
871.945	1005
872.030	2226
872.114	1910
872.198	1922
872.282	1248
872.367	1034
872.451	1721
872.535	886
872.619	1773
872.703	2088
872.787	1584
872.871	1076
872.955	1632
873.039	303
873.123	1953
873.207	3779
873.291	4344
873.375	5409
873.459	1599
873.543	1913
873.627	1645
873.711	1784
873.794	1622
873.878	1326
873.962	1060
874.045	1702
874.129	898
874.137	899
874.213	907
874.245	831
874.296	715
874.352	1191
874.380	1419
874.460	998
874.464	981
874.547	1917
874.568	1849
874.631	1632
874.676	1737
874.714	1835
874.784	2123
874.798	2181
874.881	2206
874.892	2104
874.965	1412
874.999	1684
875.048	2013
875.107	1958
875.131	1951
875.215	823
875.215	823
875.298	613
875.323	817
875.381	1334
875.430	1440
875.465	1493
875.538	1361
875.548	1343
875.631	882
875.646	922
875.714	1126
875.753	1303
875.798	1554
875.861	1263
875.881	1127
875.964	1583
875.968	1579
876.047	1623
876.076	1544
876.130	1385
876.183	1486
876.213	1569
876.291	3202
876.296	3308
876.379	3075
876.398	3071
876.462	3099
876.506	3726
876.545	4203
876.613	2572
876.628	2241
876.711	1299
876.721	1278
876.794	1026
876.828	940
876.877	974
876.935	1107
876.960	1045
877.043	1254
877.043	1254
877.125	1469
877.150	1474
877.208	1458
877.258	1353
877.291	1272
877.365	1808
877.374	1847
877.456	1060
877.472	1135
877.539	1674
877.579	1759
877.622	1780
877.687	2001
877.704	2066
877.787	1811
877.794	1701
877.869	522
877.901	928
877.952	1603
878.008	1443
878.034	1350
878.115	853
878.117	846
878.199	1146
878.222	1233
878.282	1533
878.329	1378
878.364	1088
878.437	1037
878.447	1039
878.529	733
878.544	747
878.611	966
878.651	1290
878.694	1738
878.758	1520
878.776	1401
878.858	1918
878.865	1856
878.941	999
878.972	1241
879.023	1814
879.078	1534
879.105	1498
879.185	2362
879.187	2371
879.269	2250
879.292	2280
879.351	2286
879.399	1498
879.433	1075
879.506	1360
879.516	1384
879.598	1272
879.613	1197
879.680	1068
879.720	1169
879.762	1052
879.827	1019
879.844	1075
879.926	1292
879.933	1306
880.007	1261
880.040	1033
880.089	962
880.147	1764
880.171	2056
880.253	2654
880.254	2657
880.335	3165
880.360	3363
880.417	4487
880.467	6337
880.499	7470
880.574	8172
880.580	8048
880.662	3043
880.680	2574
880.744	1446
880.787	1010
880.825	1004
880.893	912
880.907	913
880.989	1376
881.000	1374
881.070	1033
881.106	886
881.152	1039
881.213	1117
881.233	1060
881.315	1330
881.319	1332
881.396	1416
881.426	1275
881.478	972
881.532	1028
881.559	1221
881.639	1733
881.641	1735
881.722	1378
881.745	1404
881.803	1844
881.852	1908
881.885	1867
881.958	2897
881.966	3017
882.047	3105
882.064	3076
882.129	2856
882.171	3086
882.210	3901
882.277	5757
882.291	5765
882.372	3245
882.383	3005
882.454	2010
882.489	1839
882.535	1643
882.596	1332
882.616	1315
882.697	1271
882.702	1259
882.778	1465
882.808	1714
882.859	1812
882.914	1423
882.940	1308
883.020	1313
883.021	1318
883.102	1638
883.127	1692
883.183	1446
883.233	1137
883.264	1215
883.339	1535
883.345	1527
883.426	1404
883.445	1393
883.507	1700
883.551	1685
883.587	1619
883.657	1772
883.668	1824
883.749	1964
883.763	1992
883.830	1615
883.869	1376
883.910	1345
883.975	1388
883.991	1353
884.072	1580
884.081	1520
884.152	1414
884.187	1383
884.233	1033
884.292	894
884.314	1043
884.394	1345
884.398	1358
884.475	1578
884.504	1624
884.555	1405
884.610	1112
884.636	1031
884.716	1103
884.716	1109
884.797	1321
884.821	1332
884.877	1460
884.927	1630
884.958	1466
885.033	993
885.038	1000
885.118	1322
885.139	1318
885.199	1415
885.244	1463
885.279	1579
885.350	1920
885.359	1922
885.439	1922
885.456	1867
885.520	1740
885.561	1807
885.600	2054
885.667	2441
885.680	2428
885.760	2423
885.773	2399
885.840	3288
885.878	3737
885.920	3522
885.984	3046
886.000	3025
886.080	2920
886.089	2912
886.160	2565
886.195	2391
886.240	2677
886.300	3199
886.320	3088
886.400	2422
886.406	2378
886.480	3318
886.511	3764
886.560	3896
886.616	3642
886.640	3508
886.720	3356
886.722	3344
886.800	3038
886.827	2944
886.879	2938
886.932	2866
886.959	2984
887.038	3363
887.039	3365
887.119	2803
887.143	2733
887.198	3151
887.248	3307
887.278	3453
887.354	3950
887.358	3930
887.437	3327
887.459	3137
887.517	3497
887.564	3756
887.596	3552
887.669	3193
887.676	3241
887.755	3551
887.774	3652
887.835	3510
887.880	3416
887.914	3383
887.985	3204
887.994	3189
888.073	2947
888.090	2916
888.153	3069
888.195	3072
888.232	2887
888.300	2659
888.311	2802
888.391	3686
888.405	3841
888.470	3589
888.510	3446
888.549	3299
888.615	2993
888.628	3024
888.708	3148
888.720	3163
888.787	3198
888.825	3211
888.866	2970
888.930	2537
888.945	2601
889.024	2916
889.035	2961
889.103	3490
889.140	3733
889.182	3252
889.245	2533
889.261	2609
889.340	2929
889.349	2962
889.419	2451
889.454	2185
889.498	2292
889.559	2441
889.577	2681
889.656	3716
889.664	3812
889.735	3760
889.768	3721
889.814	3398
889.873	2949
889.978	2679
890.083	2791
890.187	3162
890.292	3505
890.397	3269
890.501	2925
890.606	2160
890.710	2606
890.815	3217
890.919	2979
891.024	2458
891.128	4365
891.233	2742
891.337	3253
891.442	2165
891.546	2190
891.650	2665
891.755	3451
891.859	4455
891.963	2995
892.068	2915
892.172	3669
892.276	2171
892.380	2797
892.484	2576
892.589	3330
892.693	2159
892.797	3407
892.901	2554
893.005	3217
893.109	3523
893.213	3635
893.317	2593
893.421	3670
893.525	2996
893.629	2355
893.733	3611
893.837	3680
893.941	2913
894.045	3548
894.148	3014
894.252	2306
894.356	3169
894.460	3378
894.564	3259
894.667	3182
894.771	3508
894.875	3695
894.978	2403
895.082	2893
895.186	2871
895.289	3472
895.393	3089
895.496	3489
895.600	2681
895.703	3275
895.807	3166
895.910	2752
896.014	2556
896.117	2962
896.221	2839
896.324	3701
896.427	2481
896.531	2841
896.634	1628
896.737	2876
896.840	2898
896.944	2507
897.047	2273
897.150	2592
897.253	2654
897.356	3151
897.460	2849
897.563	3281
897.666	2195
897.769	2352
897.872	2748
897.975	2394
898.078	2376
898.181	2765
898.284	2124
898.387	3454
898.490	3088
898.593	3691
898.695	3220
898.798	4022
898.901	5592
899.004	3177
899.107	2534
899.209	2539
899.312	1700
899.415	3324
899.518	2642
899.620	3162
899.723	3554
899.826	4669
899.928	5311
900.031	2585
900.133	1794
900.236	1927
900.338	2675
900.441	2475
900.543	1049
900.646	2692
900.748	2328
900.851	1999
900.953	1225
901.055	3108
901.158	2734
901.260	2549
901.362	3003
901.465	2717
901.567	1228
901.669	2280
901.771	2358
901.873	2352
901.976	2473
902.078	2337
902.180	2092
902.282	3061
902.384	2848
902.486	3384
902.588	5409
902.690	6679
902.792	3503
902.894	3019
902.996	2288
903.098	3420
903.200	2286
903.302	3034
903.404	2298
903.505	1552
903.607	2926
903.709	2491
903.811	1982
903.913	2299
904.014	2512
904.116	1154
904.218	2202
904.319	2927
904.421	2219
904.523	2204
904.624	2356
904.726	1694
904.827	2017
904.929	1997
905.030	1282
905.132	2240
905.233	2302
905.335	1319
905.436	1958
905.537	2398
905.639	2039
905.740	2440
905.841	1997
905.943	2195
906.044	2071
906.145	2669
906.247	868
906.348	2038
906.449	2672
906.550	2051
906.651	1982
906.752	2090
906.854	2032
906.955	1901
907.056	1930
907.157	2919
907.258	1817
907.359	1835
907.460	1554
907.561	1503
907.662	2017
907.762	1882
907.863	2345
907.964	2102
908.065	1858
908.166	1244
908.267	1928
908.367	1776
908.468	1808
908.569	2711
908.670	2958
908.770	4665
908.871	3759
908.971	8006
909.072	7172
909.173	2851
909.273	1579
909.374	2557
909.474	2699
909.575	1987
909.675	2172
909.776	2004
909.876	1521
909.977	2328
910.077	1231
910.177	1055
910.278	2163
910.378	1877
910.478	1915
910.579	1800
910.679	1661
910.779	1713
910.879	1403
910.980	1457
911.080	1059
911.180	2030
911.280	1234
911.380	2468
911.480	1788
911.580	1827
911.680	1285
911.780	2218
911.880	2124
911.980	1867
912.080	1003
912.180	2094
912.280	2512
912.380	1468
912.480	1012
912.580	1944
912.679	1699
912.779	2259
912.879	1421
912.979	1262
913.078	646
913.178	1000
913.278	1919
913.377	1507
913.477	1846
913.577	2225
913.676	865
913.776	1213
913.875	1338
913.975	1334
914.074	1676
914.174	1076
914.273	422
914.373	2364
914.472	1552
914.572	1111
914.671	1293
914.770	854
914.870	1190
914.969	1273
915.068	1178
915.167	931
915.267	1004
915.366	1225
915.465	480
915.564	1799
915.663	543
915.763	1522
915.862	1851
915.961	1809
916.060	62
916.159	1401
916.258	1044
916.357	1496
916.456	1093
916.555	2856
916.654	2377
916.752	2713
916.851	1514
916.950	1014
917.049	1618
917.148	1904
917.247	1267
917.345	1949
917.444	546
917.543	1875
917.642	1516
917.740	1841
917.839	959
917.937	1726
918.036	749
918.135	1906
918.233	737
918.332	1114
918.430	814
918.529	788
918.627	813
918.726	792
918.824	1134
918.923	846
919.021	1253
919.119	521
919.218	678
919.316	1114
919.414	274
919.512	1265
919.611	799
919.709	1558
919.807	1130
919.905	1417
920.003	209
920.102	1236
920.200	1257
920.298	1721
920.396	254
920.494	965
920.592	1361
920.690	2201
920.788	1330
920.886	2204
920.984	1439
921.082	1603
921.180	1934
921.277	615
921.375	1421
921.473	1185
921.571	1124
921.669	1801
921.766	1142
921.864	2022
921.962	1476
922.060	1288
922.157	1102
922.255	2244
922.352	1209
922.450	2210
922.548	1067
922.645	1536
922.743	1039
922.840	2025
922.938	918
923.035	1745
923.133	671
923.230	1455
923.327	1427
923.425	1882
923.522	1975
923.619	1343
923.717	1296
923.814	2160
923.911	1554
924.008	2422
924.106	1038
924.203	2618
924.300	1299
924.397	2120
924.494	2790
924.591	4432
924.688	2214
924.786	1721
924.883	714
924.979	1336
925.077	865
925.173	2560
925.270	571
925.367	711
925.464	979
925.561	2181
925.658	2633
925.755	3318
925.852	2207
925.948	2191
926.045	1200
926.142	1878
926.239	2317
926.335	1988
926.432	1944
926.529	1630
926.625	1887
926.722	1253
926.818	1411
926.915	1021
927.011	1483
927.108	1370
927.204	709
927.301	1342
927.397	760
927.494	2130
927.590	1422
927.687	1462
927.783	825
927.879	781
927.976	743
928.072	948
928.168	533
928.264	1653
928.361	1123
928.457	2252
928.553	1347
928.649	1687
928.745	826
928.841	1425
928.937	660
929.033	1594
929.129	1191
929.225	1019
929.321	157
929.417	1291
929.513	835
929.609	1217
929.705	1221
929.801	1204
929.897	954
929.993	691
930.089	642
930.184	1515
930.280	387
930.376	1878
930.471	1356
930.567	529
930.663	1987
930.758	1560
930.854	323
930.950	1284
931.045	900
931.141	1820
931.236	1909
931.332	1185
931.427	600
931.523	1180
931.618	653
931.714	944
931.809	1213
931.905	2009
932.000	780
932.095	832
932.191	1009
932.286	1403
932.381	779
932.476	694
932.572	274
932.667	74
932.762	1032
932.857	1880
932.952	853
933.047	685
933.142	439
933.237	1181
933.332	914
933.427	1573
933.522	549
933.617	1107
933.712	833
933.807	1108
933.902	1140
933.997	1688
934.092	-27
934.187	899
934.282	1287
934.376	717
934.471	1772
934.566	591
934.661	748
934.755	1219
934.850	591
934.945	1710
935.039	632
935.134	2121
935.228	1002
935.323	228
935.417	414
935.512	1588
935.606	95
935.701	1167
935.795	565
935.890	483
935.984	542
936.079	1079
936.173	572
936.267	885
936.362	576
936.456	1416
936.550	1180
936.644	838
936.738	448
936.833	1311
936.927	1183
937.021	1534
937.115	540
937.209	1222
937.303	1235
937.397	900
937.491	1500
937.585	916
937.679	430
937.773	473
937.867	-444
937.961	1172
938.055	-116
938.149	1798
938.243	676
938.337	1557
938.430	706
938.524	1402
938.618	1120
938.712	1844
938.805	1225
938.899	935
938.993	1332
939.086	1772
939.180	1094
939.274	2415
939.367	1440
939.461	1424
939.554	1169
939.648	1189
939.741	647
939.835	1121
939.928	785
940.022	1630
940.115	1670
940.208	1020
940.302	397
940.395	859
940.488	-293
940.582	1418
940.675	30
940.768	1140
940.861	166
940.954	1861
941.048	147
941.141	1229
941.234	880
941.327	1413
941.420	2101
941.513	1816
941.606	515
941.699	1435
941.792	858
941.885	-78
941.978	283
942.071	427
942.164	-302
942.257	979
942.349	440
942.442	497
942.535	90
942.628	393
942.721	532
942.813	687
942.906	1265
942.999	1953
943.091	372
943.184	537
943.277	278
943.369	1604
943.462	99
943.554	1198
943.647	727
943.739	942
943.832	-689
943.924	35
944.017	215
944.109	591
944.201	405
944.294	1010
944.386	658
944.478	855
944.571	578
944.663	551
944.755	770
944.847	717
944.940	-17
945.032	-283
945.124	560
945.216	1556
945.308	554
945.400	884
945.492	1055
945.584	818
945.676	136
945.768	655
945.860	964
945.952	768
946.044	1104
946.136	846
946.228	181
946.320	683
946.412	592
946.503	550
946.595	467
946.687	571
946.779	246
946.870	541
946.962	501
947.054	951
947.145	914
947.237	399
947.329	-170
947.420	968
947.512	448
947.603	-30
947.695	-67
947.786	208
947.878	-523
947.969	1028
948.061	-370
948.152	-30
948.243	8
948.335	301
948.426	293
948.517	211
948.609	251
948.700	353
948.791	303
948.882	416
948.973	-193
949.065	1025
949.156	196
949.247	-254
949.338	-250
949.429	-184
949.520	214
949.611	-1026
949.702	308
949.793	798
949.884	-790
949.975	453
950.066	-177
950.157	-241
950.247	1153
950.338	975
950.429	804
950.520	3447
950.611	2731
950.701	1956
950.792	1833
950.883	1949
950.973	1135
951.064	2288
951.155	1455
951.245	1765
951.336	742
951.427	-58
951.517	1093
951.608	1232
951.698	-483
951.788	290
951.879	275
951.969	-75
952.060	322
952.150	271
952.240	163
952.331	-88
952.421	580
952.511	212
952.602	251
952.692	794
952.782	-149
952.872	322
952.962	-178
953.052	347
953.143	-379
953.233	1184
953.323	309
953.413	-69
953.503	1137
953.593	1102
953.683	702
953.773	45
953.863	304
953.953	64
954.042	549
954.132	706
954.222	773
954.312	1438
954.402	1782
954.492	8411
954.581	12374
954.671	3546
954.761	-34
954.850	1303
954.940	-79
955.030	932
955.119	-230
955.209	616
955.298	-805
955.388	412
955.477	1382
955.567	231
955.656	1028
955.746	1662
955.835	-149
955.925	-566
956.014	-219
956.103	34
956.193	-12
956.282	523
956.371	463
956.461	382
956.550	-409
956.639	520
956.728	-290
956.817	1343
956.906	284
956.995	1060
957.085	-836
957.174	85
957.263	-268
957.352	-28
957.441	-25
957.530	414
957.619	271
957.708	850
957.796	-195
957.885	906
957.974	-676
958.063	801
958.152	-1415
958.241	746
958.329	-1010
958.418	554
958.507	-939
958.596	1509
958.684	-679
958.773	1126
958.861	-63
958.950	1020
959.039	508
959.127	55
959.216	67
959.304	60
959.393	-57
959.481	982
959.570	570
959.658	1433
959.746	2174
959.835	10717
959.923	16423
960.011	5304
960.100	838
960.188	254
960.276	-388
960.365	-265
960.453	-334
960.541	-1
960.629	436
960.717	507
960.805	-1001
960.893	425
960.981	-359
961.069	758
961.158	-8
961.245	780
961.333	15
961.421	-151
961.509	335
961.597	106
961.685	-165
961.773	181
961.861	107
961.949	708
962.036	-594
962.124	1491
962.212	-135
962.299	-47
962.387	-1153
962.475	-177
962.562	-1088
962.650	1337
962.738	783
962.825	-113
962.913	969
963.000	333
963.088	142
963.175	171
963.263	1450
963.350	2059
963.438	2870
963.525	6007
963.612	14023
963.700	38454
963.787	63626
963.874	22999
963.962	1856
964.049	1594
964.136	-8
964.223	481
964.310	823
964.398	1254
964.485	2290
964.572	6106
964.659	13719
964.746	9883
964.833	587
964.920	856
965.007	464
965.094	808
965.181	660
965.268	-75
965.355	-68
965.441	319
965.528	-577
965.615	670
965.702	84
965.789	268
965.875	-359
965.962	596
966.049	780
966.136	1127
966.222	-672
966.309	954
966.395	-714
966.482	469
966.569	-1006
966.655	859
966.742	-394
966.828	933
966.915	674
967.001	2055
967.087	521
967.174	2729
967.260	4831
967.347	12371
967.433	31421
967.519	43684
967.605	11562
967.692	1137
967.778	912
967.864	860
967.950	-91
968.036	-612
968.123	287
968.209	-448
968.295	-874
968.381	1571
968.467	45
968.553	-431
968.639	1948
968.725	4247
968.811	8740
968.897	5367
968.983	501
969.069	51
969.154	-61
969.240	-58
969.326	-33
969.412	-339
969.497	-888
969.583	-560
969.669	5
969.755	358
969.840	-1023
969.926	790
970.012	930
970.097	1605
970.183	1543
970.268	3610
970.354	7548
970.439	20513
970.525	29680
970.610	8554
970.696	1508
970.781	-1103
970.866	125
970.952	551
971.037	-753
971.122	63
971.208	-77
971.293	-414
971.378	-963
971.463	935
971.549	953
971.634	1618
971.719	2746
971.804	6057
971.889	4963
971.974	54
972.059	18
972.144	164
972.229	-76
972.314	430
972.399	297
972.484	1298
972.569	3772
972.654	6855
972.739	18488
972.824	15459
972.908	3243
972.993	4
973.078	-69
973.163	63
973.247	-219
973.332	-1060
973.417	184
973.501	-381
973.586	-88
973.671	416
973.755	-350
973.840	1016
973.924	872
974.009	1711
974.093	2099
974.178	7882
974.262	15200
974.346	12324
974.431	1599
974.515	950
974.600	539
974.684	1125
974.768	-1421
974.852	724
974.937	-1163
975.021	638
975.105	-1242
975.189	3
975.273	344
975.358	-472
975.442	-697
975.526	360
975.610	-940
975.694	-962
975.778	213
975.862	63
975.946	-1690
976.030	958
976.114	-348
976.198	583
976.281	-1492
976.365	752
976.449	-392
976.533	260
976.617	-420
976.700	523
976.784	1659
976.868	3907
976.951	7743
977.035	3912
977.119	-135
977.202	60
977.286	11
977.369	92
977.453	-641
977.536	367
977.620	-470
977.703	505
977.787	-471
977.870	885
977.953	2130
978.037	1977
978.120	5379
978.203	11978
978.287	17286
978.370	7162
978.453	979
978.536	3025
978.620	6924
978.703	10285
978.786	3399
978.869	215
978.952	-855
979.035	435
979.118	-332
979.201	-249
979.284	66
979.367	-876
979.450	-137
979.533	-568
979.616	-747
979.699	-1251
979.782	-462
979.865	-80
979.948	-193
980.030	-166
980.113	-72
980.196	-953
980.279	-954
980.361	-809
980.444	-851
980.526	94
980.609	-417
980.692	-129
980.774	-685
980.857	-958
980.939	796
981.022	-624
981.104	-134
981.187	-606
981.269	-105
981.352	166
981.434	-1320
981.516	-1020
981.599	373
981.681	-761
981.763	-643
981.846	-994
981.928	-1069
982.010	-904
982.092	-2015
982.174	-247
982.256	-689
982.339	-794
982.421	-601
982.503	130
982.585	-1602
982.667	-425
982.749	-758
982.831	233
982.913	-1167
982.995	1332
983.077	902
983.158	2850
983.240	-1477
983.322	-639
983.404	-910
983.486	-1125
983.568	8
983.649	71
983.731	-579
983.813	-1081
983.894	-642
983.976	-658
984.058	-1124
984.139	553
984.221	-1849
984.302	581
984.384	-627
984.465	-874
984.547	-515
984.628	-1491
984.710	-383
984.791	-90
984.872	-1244
984.954	-1079
985.035	-452
985.116	-1457
985.198	-921
985.279	0
985.360	-894
985.441	-757
985.522	-283
985.604	-747
985.685	-2236
985.766	57
985.847	-274
985.928	-1219
986.009	-792
986.090	-791
986.171	227
986.252	-1003
986.333	-999
986.414	-166
986.495	-1334
986.576	-515
986.656	-1468
986.737	-174
986.818	-1351
986.899	-675
986.980	-1269
987.060	-540
987.141	-1764
987.222	-90
987.302	-1230
987.383	-505
987.464	-1430
987.544	-134
987.625	-1084
987.705	159
987.786	-1394
987.866	-663
987.947	-699
988.027	-851
988.108	-1405
988.188	-93
988.268	-846
988.349	-278
988.429	-1233
988.509	14
988.589	-973
988.670	-2577
988.750	-100
988.830	-471
988.910	-1286
988.990	-577
989.070	-2129
989.151	-709
989.231	-2233
989.311	-1260
989.391	-1386
989.471	-869
989.551	-1683
989.631	-1497
989.711	-1105
989.791	-1327
989.870	-1505
989.950	-228
990.030	-898
990.110	-501
990.190	-1833
990.269	-1242
990.349	-1038
990.429	-184
990.509	-749
990.588	-1502
990.668	-1446
990.747	-1297
990.827	-821
990.907	-219
990.986	-1753
991.066	127
991.145	-784
991.225	-872
991.304	-946
991.383	-281
991.463	-423
991.542	78
991.622	-827
991.701	-735
991.780	-1394
991.859	-250
991.939	-944
992.018	-276
992.097	-834
992.176	-735
992.256	-694
992.335	-1408
992.414	-793
992.493	-462
992.572	-234
992.651	1719
992.730	-441
992.809	-646
992.888	-1712
992.967	-665
993.046	-526
993.125	-995
993.203	-1336
993.282	-480
993.361	-795
993.440	-802
993.519	-1991
993.597	-855
993.676	-1334
993.755	-528
993.834	-1081
993.912	-1095
993.991	751
994.069	-1156
994.148	-1309
994.226	-1868
994.305	-539
994.384	-938
994.462	-870
994.540	-1406
994.619	-1662
994.697	-544
994.776	-595
994.854	-179
994.932	-1474
995.011	-1244
995.089	-1069
995.167	-872
995.245	-1428
995.324	-1438
995.402	-499
995.480	-1367
995.558	-1311
995.636	-1045
995.714	-2000
995.792	-35
995.870	-1219
995.948	-799
996.026	-1418
996.104	-1137
996.182	-797
996.260	-721
996.338	-807
996.416	-1514
996.494	-1622
996.572	-1191
996.649	-1669
996.727	-2159
996.805	-1101
996.883	-2034
996.960	-1333
997.038	21
997.116	-1082
997.193	-1985
997.271	-1702
997.348	-1690
997.426	-1348
997.504	-2032
997.581	-1079
997.658	-849
997.736	-2270
997.813	-1682
997.891	-707
997.968	-1147
998.046	-1389
998.123	-257
998.200	-1362
998.277	-2610
998.355	-1148
998.432	-1397
998.509	-939
998.586	-419
998.663	-1179
998.741	-1108
998.818	-1379
998.895	-908
998.972	-1054
999.049	-1362
999.126	-2468
999.203	-830
999.280	-1070
999.357	-1717
999.434	-1259
999.511	-555
999.587	-123
999.664	-911
999.741	260
999.818	736
999.895	-1414
999.971	-1245
1000.048	-534
1000.125	843
1000.202	-530
1000.278	-53
1000.355	-1003
1000.431	-1261
1000.508	-2285
1000.584	-211
1000.661	-997
1000.738	-1691
1000.814	-1019
1000.890	-166
1000.967	-913
1001.043	-211
1001.120	-2054
1001.196	-959
1001.272	-1419
1001.349	-152
1001.425	-624
1001.501	-1285
1001.577	-1782
1001.654	-623
1001.730	-2171
1001.806	-977
1001.882	-1896
1001.958	-1011
1002.034	-1519
1002.110	-907
1002.186	-2473
1002.262	-804
1002.338	-1865
1002.414	-852
1002.490	-1123
1002.566	-1415
1002.642	-1551
1002.718	30
1002.794	-1891
1002.870	-692
1002.945	-1041
1003.021	-1208
1003.097	-902
1003.173	-342
1003.248	-1551
1003.324	-931
1003.400	-1019
1003.475	-1811
1003.551	-1698
1003.626	-1456
1003.702	-1217
1003.777	-899
1003.853	-937
1003.928	-1125
1004.004	-1813
1004.079	-859
1004.155	-1136
1004.230	-1796
1004.305	-518
1004.381	-689
1004.456	-1273
1004.531	-263
1004.607	-1044
1004.682	-711
1004.757	-595
1004.832	-447
1004.907	-1256
1004.982	357
1005.057	-260
1005.133	-860
1005.208	-652
1005.283	-531
1005.358	-271
1005.433	-851
1005.508	-1274
1005.583	-698
1005.657	-473
1005.732	308
1005.807	-1360
1005.882	-1199
1005.957	-778
1006.032	-445
1006.106	-1480
1006.181	-1023
1006.256	-1388
1006.331	-1840
1006.405	-1451
1006.480	-1243
1006.554	-1194
1006.629	-568
1006.704	-1658
1006.778	-1068
1006.853	-1048
1006.927	-1105
1007.002	-1282
1007.076	-83
1007.150	-1192
1007.225	-781
1007.299	-957
1007.373	-1912
1007.448	-1099
1007.522	442
1007.596	-891
1007.671	-735
1007.745	-1088
1007.819	-1575
1007.893	-1272
1007.967	-544
1008.041	-1869
1008.115	-389
1008.190	-1489
1008.264	111
1008.338	-2620
1008.412	-1708
1008.486	-1417
1008.560	-991
1008.633	-2329
1008.707	-797
1008.781	-1690
1008.855	-1081
1008.929	-1353
1009.003	-1182
1009.076	-1471
1009.150	-1353
1009.224	-802
1009.298	-1178
1009.371	-1851
1009.445	-144
1009.519	-1926
1009.592	-1704
1009.666	-1979
1009.739	-721
1009.813	-2056
1009.886	-482
1009.960	-1992
1010.033	-301
1010.107	-827
1010.180	-1051
1010.253	-848
1010.327	-1414
1010.400	-930
1010.473	-466
1010.547	501
1010.620	-1780
1010.693	-1265
1010.766	-1506
1010.840	-461
1010.913	-1111
1010.986	-1915
1011.059	-302
1011.132	-1119
1011.205	-345
1011.278	-2004
1011.351	-1167
1011.424	-1303
1011.497	-1787
1011.570	-734
1011.643	-597
1011.716	-1270
1011.789	-1315
1011.862	-1384
1011.934	117
1012.007	-1970
1012.080	-1040
1012.153	-1044
1012.225	-466
1012.298	-1854
1012.371	-737
1012.443	-1268
1012.516	-1434
1012.588	-588
1012.661	-783
1012.733	-1235
1012.806	-510
1012.879	-811
1012.951	-800
1013.023	-1189
1013.096	-1311
1013.168	-2152
1013.241	-166
1013.313	-1540
1013.385	-1071
1013.458	-1016
1013.530	83
1013.602	-1474
1013.674	-10
1013.746	-1304
1013.819	-1318
1013.891	-877
1013.963	-1527
1014.035	-1013
1014.107	-816
1014.179	-532
1014.251	-1191
1014.323	-1156
1014.395	-760
1014.467	-1103
1014.539	-977
1014.611	-1452
1014.683	-494
1014.754	-755
1014.826	-1753
1014.898	-1554
1014.970	-969
1015.042	-421
1015.113	-523
1015.185	-1734
1015.257	-2254
1015.328	-1154
1015.400	-2406
1015.471	-1276
1015.543	-1175
1015.615	-1606
1015.686	-891
1015.757	-1416
1015.829	178
1015.901	-1175
1015.972	-642
1016.043	-1297
1016.115	-477
1016.186	-1189
1016.257	-1737
1016.328	-963
1016.400	-501
1016.471	-1777
1016.542	-1078
1016.613	-999
1016.685	-1211
1016.756	-1276
1016.827	-833
1016.898	-1590
1016.969	-254
1017.040	-1997
1017.111	-805
1017.182	-727
1017.253	-1133
1017.324	-990
1017.395	-324
1017.466	-1161
1017.537	-1094
1017.608	-1410
1017.678	-1498
1017.749	-1472
1017.820	-822
1017.891	-2539
1017.961	-366
1018.032	-997
1018.103	-395
1018.173	-1357
1018.244	-1514
1018.315	-625
1018.385	-794
1018.456	-1160
1018.526	-546
1018.597	-1595
1018.667	-339
1018.738	-1022
1018.808	-1068
1018.878	-1360
1018.949	-853
1019.019	-1175
1019.089	98
1019.160	-551
1019.230	-945
1019.300	-1223
1019.371	-1344
1019.441	-1148
1019.511	-1076
1019.581	-1860
1019.651	-440
1019.721	-1242
1019.791	-651
1019.861	-1227
1019.931	-333
1020.001	-1159
1020.071	-1275
1020.141	-1958
1020.211	-827
1020.281	-1325
1020.351	-929
1020.421	-294
1020.491	-593
1020.560	-2228
1020.630	-1114
1020.700	-1309
1020.770	-2036
1020.839	-1596
1020.909	-1077
1020.979	-998
1021.048	-1007
1021.118	-1219
1021.187	-308
1021.257	-1641
1021.326	-1431
1021.396	-1476
1021.465	-679
1021.535	-1589
1021.604	-1658
1021.674	-1136
1021.743	-1092
1021.812	-1819
1021.882	-5
1021.951	-1762
1022.020	-1602
1022.089	-1202
1022.159	-802
1022.228	-1583
1022.297	-1320
1022.366	-1923
1022.435	-1040
1022.504	-937
1022.573	-1265
1022.642	-1335
1022.711	-1262
1022.781	-1905
1022.849	-532
1022.918	-1725
1022.987	-1190
1023.056	-911
1023.125	-1278
1023.194	-1452
1023.263	-1037
1023.331	-1086
1023.400	-1321
1023.469	-2017
1023.538	369
1023.606	-1866
1023.675	-1782
1023.744	-1048
1023.812	-1242
1023.881	-1512
1023.949	-531
1024.018	-1182
1024.086	-832
1024.155	-1542
1024.223	-1495
1024.292	-1057
1024.360	-1077
1024.429	-780
1024.497	-1641
1024.565	-1044
1024.634	-1285
1024.702	-1571
1024.770	-420
1024.838	-1525
1024.907	-601
1024.975	-1583
1025.043	-759
1025.111	-2376
1025.179	-1229
1025.247	-2076
1025.315	-1190
1025.383	-1817
1025.451	-1197
1025.519	-1595
1025.587	-936
1025.655	-656
1025.723	-1705
1025.791	-562
1025.859	-985
1025.927	-916
1025.995	-1710
1026.062	-1240
1026.130	-825
1026.198	-1305
1026.266	-842
1026.333	-727
1026.401	20
1026.469	-938
1026.536	-1256
1026.604	-1170
1026.671	-1424
1026.739	-2012
1026.806	-1456
1026.874	-1459
1026.941	-907
1027.009	-1212
1027.076	-883
1027.144	-632
1027.211	-1646
1027.278	-1935
1027.345	-1369
1027.413	-1672
1027.480	-1070
1027.547	-1734
1027.614	-977
1027.682	-744
1027.749	-1212
1027.816	-1297
1027.883	-1223
1027.950	-1745
1028.017	-1047
1028.084	-1105
1028.151	-2120
1028.218	-1329
1028.285	-1250
1028.352	-1968
1028.419	-1613
1028.486	-1629
1028.553	-1204
1028.619	-1754
1028.686	-1446
1028.753	-1525
1028.820	-949
1028.886	-1431
1028.953	-789
1029.020	-1536
1029.086	-1377
1029.153	-2145
1029.220	-1378
1029.286	-1271
1029.353	-609
1029.419	-642
1029.486	-1808
1029.552	-1407
1029.619	-2213
1029.685	-1717
1029.751	-1401
1029.818	-689
1029.884	-1052
1029.951	-788
1030.017	-1078
1030.083	-1474
1030.149	-1499
1030.216	-1506
1030.282	-1053
1030.348	-786
1030.414	-1604
1030.480	-1142
1030.546	-1320
1030.612	-1261
1030.678	-1878
1030.744	-1539
1030.810	-878
1030.876	-1739
1030.942	-1165
1031.008	-1535
1031.074	-1081
1031.140	-1528
1031.206	-600
1031.272	-2201
1031.337	-1615
1031.403	-1234
1031.469	-1487
1031.534	-1619
1031.600	-1577
1031.666	-2341
1031.731	-1053
1031.797	-1876
1031.863	-1310
1031.928	-2030
1031.994	-1800
1032.059	-1528
1032.125	-518
1032.190	-1414
1032.256	-1281
1032.321	-2100
1032.386	-1026
1032.452	-1718
1032.517	-488
1032.582	-1564
1032.647	-1249
1032.713	-1441
1032.778	-1371
1032.843	-1547
1032.908	-1882
1032.974	-1761
1033.039	-1467
1033.104	-1509
1033.169	-1590
1033.234	-1046
1033.299	-1463
1033.364	-1684
1033.429	-1114
1033.494	-731
1033.559	-708
1033.624	-2389
1033.688	-1283
1033.753	-2397
1033.818	-610
1033.883	-1726
1033.948	-1632
1034.013	-931
1034.077	-1435
1034.142	-840
1034.207	-1441
1034.271	-1423
1034.336	-551
1034.400	-721
1034.465	-704
1034.530	-804
1034.594	-1009
1034.658	-1100
1034.723	-1224
1034.787	-2321
1034.852	-1630
1034.916	-1719
1034.981	-1374
1035.045	-1422
1035.109	-1392
1035.173	-1356
1035.238	-1205
1035.302	-1334
1035.366	-1571
1035.430	-2186
1035.495	-1329
1035.559	-611
1035.623	-1248
1035.687	-2085
1035.751	-1359
1035.815	-1673
1035.879	-1151
1035.943	-1024
1036.007	-714
1036.071	-1363
1036.135	-862
1036.198	-1097
1036.262	-1170
1036.326	-1222
1036.390	-1253
1036.454	-1695
1036.517	-1143
1036.581	-1735
1036.645	-897
1036.709	-1317
1036.772	-1845
1036.836	-2048
1036.900	-701
1036.963	-1323
1037.026	-1230
1037.090	-1797
1037.154	-1612
1037.217	-1836
1037.280	-1566
1037.344	-1494
1037.407	-2103
1037.471	-1355
1037.534	-1556
1037.597	-1900
1037.661	-1439
1037.724	-1431
1037.787	-1384
1037.850	-1282
1037.913	-1689
1037.977	-1497
1038.040	-1552
1038.103	-1931
1038.166	-1828
1038.229	-1480
1038.292	-556
1038.355	-1893
1038.418	-850
1038.481	-1221
1038.544	-561
1038.607	-1409
1038.670	-1795
1038.732	-2075
1038.795	-1673
1038.858	-2436
1038.921	-1816
1038.984	-1786
1039.046	-1730
1039.109	-2626
1039.172	-1082
1039.234	-2526
1039.297	-1780
1039.360	-1642
1039.422	-1318
1039.485	-1407
1039.547	-1327
1039.610	-1311
1039.672	-1571
1039.734	-1700
1039.797	-1028
1039.859	-1996
1039.922	-2138
1039.984	-1862
1040.046	-1586
1040.109	-1327
1040.171	-2098
1040.233	-1568
1040.295	-1327
1040.358	-2308
1040.420	-2396
1040.482	-1901
1040.544	-1794
1040.606	-2321
1040.668	-1416
1040.730	-1883
1040.792	-1632
1040.854	-2876
1040.916	-1481
1040.978	-2854
1041.040	-1152
1041.102	-1208
1041.164	-1789
1041.225	-2714
1041.287	-966
1041.349	-1631
1041.411	-1894
1041.472	-1892
1041.534	-1718
1041.596	-1745
1041.657	-1678
1041.719	-2613
1041.781	-1420
1041.842	-1813
1041.904	-1536
1041.965	-2260
1042.027	-1361
1042.088	-792
1042.150	-1077
1042.211	-2137
1042.272	-1732
1042.334	-2927
1042.395	-1768
1042.456	-2342
1042.518	-1995
1042.579	-1679
1042.640	-2128
1042.701	-1647
1042.763	-1302
1042.824	-2649
1042.885	-2021
1042.946	-1678
1043.007	-1694
1043.068	-1890
1043.129	-1927
1043.190	-2228
1043.251	-2307
1043.312	-1733
1043.373	-1598
1043.434	-1401
1043.495	-1511
1043.556	-1731
1043.616	-1110
1043.677	-1321
1043.738	-1465
1043.799	-2211
1043.859	-302
1043.920	-1892
1043.981	-412
1044.041	-1113
1044.102	-2125
1044.162	-1674
1044.223	-2400
1044.284	-1721
1044.344	-1939
1044.405	-1618
1044.465	-1507
1044.525	-2657
1044.586	-2111
1044.646	-1913
1044.707	-1084
1044.767	-2329
1044.827	-1060
1044.887	-1224
1044.948	-653
1045.008	-1453
1045.068	-2062
1045.128	-2092
1045.188	-1835
1045.249	-1730
1045.309	-1077
1045.369	-1908
1045.429	-1765
1045.489	-1887
1045.549	-1563
1045.609	-1547
1045.669	-1401
1045.729	-2505
1045.789	-754
1045.848	-1441
1045.908	-1185
1045.968	-1545
1046.028	-1411
1046.088	-1943
1046.147	-1075
1046.207	-1649
1046.267	-1292
1046.326	-1338
1046.386	-858
1046.446	-1334
1046.505	-768
1046.565	-861
1046.624	-451
1046.684	-1426
1046.743	-377
1046.803	-655
1046.862	153
1046.922	0
