'Start Wavelength	183.907
'End Wavelength	1046.922
'Gate Delay	5.000
'Gate Width (ms)	1.050
'Laser Output Level	0.000
'X Position	0.000
'Y Position	0.000
'Z Position	0.000
'Grid Point Number	1.000
'Shot Number	100.000
183.907	217.000
183.977	-569.000
184.047	232
184.116	530
184.186	419
184.256	-387
184.325	503
184.395	104
184.465	1073
184.534	176
184.604	-257
184.674	235
184.743	657
184.813	-278
184.883	422
184.952	-716
185.022	638
185.092	-139
185.161	104
185.231	241
185.301	620
185.370	407
185.440	-48
185.509	-11
185.579	-288
185.649	577
185.718	61
185.788	411
185.857	-560
185.927	417
185.996	-15
186.066	291
186.136	-224
186.205	552
186.275	1210
186.344	471
186.414	426
186.483	351
186.553	1127
186.622	839
186.692	235
186.761	-147
186.831	102
186.900	-77
186.970	52
187.039	771
187.109	934
187.178	259
187.248	-109
187.317	353
187.387	634
187.456	-352
187.526	135
187.595	-501
187.664	-134
187.734	175
187.803	356
187.873	-423
187.942	115
188.012	577
188.081	395
188.150	13
188.220	563
188.289	164
188.358	106
188.428	54
188.497	164
188.567	591
188.636	326
188.705	37
188.775	295
188.844	129
188.913	-70
188.983	169
189.052	941
189.121	609
189.191	485
189.260	784
189.329	-150
189.399	1207
189.468	227
189.537	-115
189.606	205
189.676	-170
189.745	981
189.814	365
189.883	608
189.953	319
190.022	473
190.091	-5
190.161	-353
190.230	465
190.299	547
190.368	-473
190.437	-318
190.507	-484
190.576	875
190.645	241
190.714	-419
190.783	369
190.853	598
190.922	696
190.991	304
191.060	-487
191.129	199
191.198	-61
191.268	-289
191.337	260
191.406	557
191.475	496
191.544	923
191.613	531
191.682	-279
191.752	332
191.821	-19
191.890	-452
191.959	298
192.028	-293
192.097	689
192.166	-659
192.235	72
192.304	332
192.373	954
192.442	331
192.511	-384
192.580	-307
192.650	-336
192.719	201
192.788	-201
192.857	543
192.926	73
192.995	-347
193.064	904
193.133	194
193.202	308
193.271	677
193.340	271
193.409	629
193.478	669
193.547	512
193.615	418
193.684	229
193.753	-38
193.822	565
193.891	-250
193.960	407
194.029	-1
194.098	371
194.167	-202
194.236	45
194.305	125
194.374	-767
194.443	-65
194.512	66
194.580	650
194.649	699
194.718	262
194.787	887
194.856	-122
194.925	163
194.994	175
195.062	-95
195.131	536
195.200	846
195.269	895
195.338	467
195.407	952
195.475	-549
195.544	-19
195.613	-387
195.682	506
195.751	676
195.819	181
195.888	387
195.957	1011
196.026	11
196.094	-82
196.163	552
196.232	93
196.301	-25
196.369	90
196.438	449
196.507	235
196.576	-107
196.644	194
196.713	993
196.782	795
196.850	249
196.919	587
196.988	-414
197.056	-475
197.125	177
197.194	4
197.262	187
197.331	137
197.400	-411
197.468	32
197.537	132
197.606	228
197.674	553
197.743	-61
197.812	93
197.880	845
197.949	242
198.017	775
198.086	-327
198.155	124
198.223	358
198.292	337
198.360	-211
198.429	99
198.497	353
198.566	19
198.635	622
198.703	1113
198.772	704
198.840	533
198.909	519
198.977	-288
199.046	707
199.114	676
199.183	1009
199.251	98
199.320	617
199.388	1
199.457	45
199.525	423
199.594	302
199.662	-43
199.731	527
199.799	651
199.867	1173
199.936	568
200.004	502
200.073	823
200.141	771
200.210	221
200.278	223
200.346	-422
200.415	132
200.483	327
200.552	622
200.620	698
200.688	197
200.757	836
200.825	807
200.893	-109
200.962	277
201.030	-157
201.098	211
201.167	861
201.235	64
201.303	356
201.372	454
201.440	324
201.508	-277
201.577	359
201.645	235
201.713	558
201.781	-192
201.850	-262
201.918	437
201.986	-259
202.055	-18
202.123	-89
202.191	392
202.259	-89
202.327	269
202.396	-5
202.464	637
202.532	-299
202.600	942
202.669	-57
202.737	463
202.805	442
202.873	145
202.941	287
203.009	417
203.078	38
203.146	927
203.214	-258
203.282	-881
203.350	822
203.418	-75
203.487	190
203.555	-74
203.623	289
203.691	-65
203.759	-154
203.827	162
203.895	758
203.963	-240
204.031	249
204.099	411
204.168	-67
204.236	626
204.304	773
204.372	294
204.440	409
204.508	-643
204.576	-70
204.644	604
204.712	-302
204.780	-395
204.848	354
204.916	285
204.984	502
205.052	478
205.120	687
205.188	331
205.256	507
205.324	-553
205.392	-180
205.460	476
205.528	508
205.596	-249
205.664	-172
205.732	323
205.799	295
205.867	481
205.935	408
206.003	-50
206.071	-89
206.139	107
206.207	536
206.275	141
206.343	-125
206.411	733
206.478	218
206.546	288
206.614	477
206.682	347
206.750	228
206.818	-92
206.885	1086
206.953	221
207.021	586
207.089	1127
207.157	567
207.225	249
207.292	-43
207.360	241
207.428	-514
207.496	-269
207.563	575
207.631	205
207.699	225
207.767	472
207.834	109
207.902	29
207.970	138
208.038	-61
208.105	131
208.173	79
208.241	259
208.309	285
208.376	248
208.444	1037
208.512	161
208.579	-85
208.647	545
208.715	905
208.782	-643
208.850	78
208.918	604
208.985	-216
209.053	-95
209.120	485
209.188	107
209.256	137
209.323	121
209.391	-550
209.459	509
209.526	706
209.594	563
209.661	29
209.729	143
209.796	416
209.864	382
209.932	36
209.999	503
210.067	467
210.134	1111
210.202	286
210.269	771
210.337	69
210.404	468
210.472	593
210.539	238
210.607	665
210.674	294
210.742	332
210.809	265
210.877	-71
210.944	805
211.012	-47
211.079	1458
211.146	760
211.214	356
211.281	101
211.349	1096
211.416	621
211.484	686
211.551	39
211.618	158
211.686	699
211.753	277
211.821	338
211.888	85
211.955	182
212.023	892
212.090	829
212.157	1042
212.225	466
212.292	879
212.359	1607
212.427	2730
212.494	1346
212.561	1130
212.629	367
212.696	284
212.763	1105
212.831	-83
212.898	821
212.965	134
213.032	13
213.100	762
213.167	519
213.234	1025
213.301	1246
213.369	121
213.436	541
213.503	-227
213.570	718
213.638	811
213.705	814
213.772	-131
213.839	473
213.906	1075
213.973	897
214.041	556
214.108	825
214.175	659
214.242	671
214.309	745
214.376	713
214.444	-122
214.511	436
214.578	474
214.645	1061
214.712	885
214.779	316
214.846	897
214.913	824
214.980	1432
215.048	683
215.115	687
215.182	527
215.249	1430
215.316	772
215.383	730
215.450	444
215.517	420
215.584	628
215.651	745
215.718	851
215.785	935
215.852	534
215.919	530
215.986	479
216.053	516
216.120	359
216.187	1016
216.254	788
216.321	525
216.388	145
216.455	509
216.522	78
216.589	738
216.656	1341
216.722	780
216.789	587
216.856	744
216.923	536
216.990	769
217.057	980
217.124	688
217.191	1161
217.258	936
217.324	1719
217.391	582
217.458	472
217.525	1267
217.592	619
217.659	-210
217.725	902
217.792	923
217.859	899
217.926	456
217.993	571
218.059	284
218.126	178
218.193	647
218.260	-399
218.327	-30
218.393	-334
218.460	887
218.527	102
218.594	133
218.660	346
218.727	1129
218.794	139
218.860	1926
218.927	272
218.994	95
219.061	-21
219.127	241
219.194	909
219.261	197
219.327	289
219.394	861
219.461	152
219.527	-332
219.594	926
219.661	161
219.727	-27
219.794	565
219.860	-161
219.927	417
219.994	680
220.060	1062
220.127	1297
220.193	1408
220.260	200
220.326	1617
220.393	2397
220.460	1989
220.526	859
220.593	910
220.659	1348
220.726	491
220.792	2354
220.859	1905
220.925	3441
220.992	3340
221.058	2609
221.125	3230
221.191	803
221.258	638
221.324	332
221.391	453
221.457	-125
221.524	922
221.590	706
221.657	1275
221.723	1460
221.789	699
221.856	1101
221.922	-720
221.989	678
222.055	328
222.121	599
222.188	1865
222.254	26
222.321	1160
222.387	380
222.453	457
222.520	312
222.586	362
222.652	327
222.719	552
222.785	228
222.851	223
222.918	303
222.984	1
223.050	609
223.116	-677
223.183	462
223.249	-256
223.315	-86
223.382	651
223.448	-39
223.514	100
223.580	459
223.647	40
223.713	-386
223.779	198
223.845	-5
223.911	26
223.978	-502
224.044	303
224.110	74
224.176	789
224.242	282
224.309	-49
224.375	-203
224.441	478
224.507	136
224.573	-555
224.639	133
224.705	-198
224.772	27
224.838	188
224.904	209
224.970	593
225.036	326
225.102	-432
225.168	-78
225.234	20
225.300	-321
225.366	409
225.432	248
225.499	241
225.565	370
225.631	14
225.697	159
225.763	328
225.829	316
225.895	365
225.961	717
226.027	843
226.093	991
226.159	1273
226.225	2190
226.291	3704
226.357	4947
226.423	3383
226.489	2022
226.554	1378
226.620	1131
226.686	1877
226.752	2461
226.818	3774
226.884	5742
226.950	5131
227.016	2505
227.082	1751
227.148	2314
227.214	1249
227.279	1216
227.345	821
227.411	1205
227.477	1226
227.543	2116
227.609	1733
227.674	1353
227.740	496
227.806	548
227.872	790
227.938	1204
228.003	1344
228.069	642
228.135	-10
228.201	305
228.267	-182
228.332	749
228.398	491
228.464	573
228.530	-2
228.595	943
228.661	-543
228.727	83
228.792	798
228.858	48
228.924	-1223
228.990	1623
229.055	-489
229.121	-149
229.187	825
229.252	41
229.318	156
229.384	-206
229.449	1073
229.515	-314
229.581	-487
229.646	1741
229.712	-1
229.777	845
229.843	-117
229.909	789
229.974	870
230.040	374
230.105	999
230.171	-275
230.236	458
230.302	417
230.368	227
230.433	275
230.499	450
230.564	1110
230.630	27
230.695	520
230.761	960
230.826	-393
230.892	969
230.957	142
231.023	-370
231.088	698
231.154	-402
231.219	840
231.284	1131
231.350	260
231.415	586
231.481	1055
231.546	605
231.612	789
231.677	99
231.742	-1408
231.808	1095
231.873	301
231.939	-858
232.004	423
232.069	639
232.135	-482
232.200	-17
232.265	274
232.331	-68
232.396	-86
232.461	22
232.527	121
232.592	-245
232.657	842
232.723	-54
232.788	536
232.853	733
232.918	38
232.984	26
233.049	743
233.114	-489
233.179	1053
233.245	837
233.310	1108
233.375	-13
233.440	460
233.506	265
233.571	368
233.636	621
233.701	495
233.766	17
233.832	451
233.897	-397
233.962	-443
234.027	1150
234.092	970
234.157	252
234.222	285
234.288	842
234.353	1626
234.418	1699
234.483	1046
234.548	726
234.613	547
234.678	1125
234.743	-297
234.808	1645
234.873	919
234.938	298
235.004	515
235.069	782
235.134	424
235.199	584
235.264	872
235.329	-127
235.394	418
235.459	1032
235.524	863
235.589	286
235.654	-171
235.719	-859
235.784	724
235.849	369
235.913	1476
235.978	941
236.043	572
236.108	698
236.173	97
236.238	1227
236.303	488
236.368	164
236.433	1146
236.498	1820
236.563	908
236.627	2852
236.692	7986
236.757	5846
236.822	3174
236.887	1791
236.952	1344
237.017	829
237.081	2149
237.146	1871
237.211	5120
237.276	7797
237.341	10855
237.405	5790
237.470	3021
237.535	2245
237.600	1902
237.664	1578
237.729	14
237.794	692
237.859	2829
237.923	1441
237.988	786
238.053	1581
238.118	1552
238.182	2707
238.247	2426
238.312	462
238.376	652
238.441	208
238.506	1880
238.570	-594
238.635	431
238.700	189
238.764	144
238.829	461
238.893	586
238.958	949
239.023	352
239.087	476
239.152	1093
239.216	-473
239.281	77
239.346	550
239.410	498
239.475	265
239.539	2437
239.604	630
239.668	591
239.733	427
239.797	1807
239.862	4207
239.926	2478
239.991	825
240.055	521
240.120	536
240.184	418
240.249	-31
240.313	-61
240.378	672
240.442	771
240.507	1963
240.571	1256
240.635	6
240.700	757
240.764	402
240.829	541
240.893	-439
240.957	925
241.022	1945
241.086	2054
241.151	631
241.215	-679
241.279	1267
241.344	707
241.408	371
241.472	178
241.537	849
241.601	691
241.665	-211
241.730	299
241.794	1581
241.858	-122
241.922	271
241.987	1232
242.051	330
242.115	140
242.179	859
242.244	17
242.308	1121
242.372	399
242.436	555
242.501	985
242.565	549
242.629	-324
242.693	446
242.757	222
242.822	251
242.886	521
242.950	981
243.014	78
243.078	404
243.142	512
243.206	357
243.271	933
243.335	419
243.399	1411
243.463	2503
243.527	7321
243.591	1316
243.655	889
243.719	440
243.783	1648
243.847	1351
243.911	1646
243.975	1715
244.040	631
244.104	1168
244.168	875
244.232	582
244.296	953
244.360	1524
244.424	-53
244.488	858
244.552	1115
244.615	388
244.679	769
244.743	1068
244.807	-306
244.871	-153
244.935	164
244.999	-1232
245.063	622
245.127	56
245.191	890
245.255	325
245.319	1124
245.383	136
245.446	1194
245.510	-351
245.574	1042
245.638	1332
245.702	-545
245.766	1782
245.829	849
245.893	364
245.957	191
246.021	424
246.085	525
246.149	1050
246.212	2480
246.276	2919
246.340	1268
246.404	995
246.467	1389
246.531	141
246.595	1168
246.659	1320
246.722	-192
246.786	1665
246.850	1861
246.913	1820
246.977	-230
247.041	685
247.104	738
247.168	1297
247.232	1833
247.295	3712
247.359	1809
247.423	1180
247.486	1757
247.550	1388
247.614	600
247.677	1661
247.741	236
247.804	338
247.868	740
247.932	1204
247.995	4311
248.059	1096
248.122	11
248.186	1952
248.249	2569
248.313	6637
248.376	6751
248.440	3673
248.503	296
248.567	2510
248.630	1322
248.694	2761
248.757	3584
248.821	7506
248.884	5417
248.948	4270
249.011	5238
249.075	7747
249.138	6236
249.202	2557
249.265	2053
249.328	2935
249.392	1527
249.455	1917
249.519	1061
249.582	926
249.645	2925
249.709	1589
249.772	1021
249.835	1517
249.899	627
249.962	1732
250.025	321
250.089	2292
250.152	3714
250.215	1833
250.279	2378
250.342	1641
250.405	1278
250.468	1309
250.532	1670
250.595	2682
250.658	8044
250.721	10612
250.785	4264
250.848	4049
250.911	1954
250.974	1162
251.038	2820
251.101	4183
251.164	2011
251.227	2217
251.290	1942
251.354	3514
251.417	10520
251.480	8880
251.543	7510
251.606	19059
251.669	13018
251.732	6612
251.795	6171
251.859	6798
251.922	12005
251.985	6559
252.048	3661
252.111	2475
252.174	2358
252.237	4698
252.300	9102
252.363	8861
252.426	15925
252.489	6054
252.552	3281
252.615	2708
252.678	2683
252.741	7252
252.804	8001
252.867	16599
252.930	9056
252.993	5860
253.056	4014
253.119	2407
253.182	1464
253.245	2057
253.308	2241
253.371	1701
253.434	2669
253.497	2123
253.559	4127
253.622	3254
253.685	3949
253.748	3656
253.811	1739
253.874	3301
253.937	2414
254.000	2222
254.062	2635
254.125	4048
254.188	5535
254.251	3411
254.314	1076
254.376	2980
254.439	3473
254.502	2776
254.565	2440
254.628	5718
254.690	2936
254.753	1232
254.816	1164
254.878	1265
254.941	3440
255.004	2244
255.067	1264
255.129	1400
255.192	1151
255.255	-23
255.317	1418
255.380	696
255.443	-174
255.505	-297
255.568	423
255.631	591
255.693	1040
255.756	106
255.819	1290
255.881	39
255.944	726
256.006	288
256.069	740
256.132	-79
256.194	818
256.257	974
256.319	1828
256.382	135
256.444	1277
256.507	595
256.569	213
256.632	1262
256.694	1102
256.757	6718
256.819	13567
256.882	5154
256.944	2545
257.007	3032
257.069	1789
257.132	970
257.194	1379
257.257	820
257.319	432
257.381	855
257.444	5141
257.506	17730
257.569	17298
257.631	8039
257.693	4081
257.756	2152
257.818	1189
257.880	536
257.943	1404
258.005	4
258.067	403
258.130	670
258.192	1237
258.254	1547
258.317	709
258.379	712
258.441	2099
258.503	3022
258.566	1999
258.628	3374
258.690	782
258.753	1005
258.815	1949
258.877	787
258.939	271
259.001	1487
259.064	409
259.126	519
259.188	460
259.250	1340
259.312	1544
259.375	2982
259.437	1485
259.499	715
259.561	725
259.623	1037
259.685	501
259.747	1098
259.809	2560
259.872	3280
259.934	6421
259.996	7376
260.058	2118
260.120	837
260.182	277
260.244	250
260.306	308
260.368	1325
260.430	-40
260.492	2761
260.554	4739
260.616	1540
260.678	3731
260.740	3031
260.802	657
260.864	1680
260.926	219
260.988	1183
261.050	514
261.112	4036
261.174	7621
261.236	3672
261.298	1831
261.359	1321
261.421	3002
261.483	1119
261.545	631
261.607	-707
261.669	1333
261.731	657
261.793	3466
261.854	198
261.916	1316
261.978	1297
262.040	950
262.102	1085
262.164	271
262.225	142
262.287	564
262.349	1495
262.411	1686
262.472	586
262.534	1392
262.596	1949
262.658	1347
262.719	95
262.781	880
262.843	1103
262.904	936
262.966	966
263.028	596
263.090	5179
263.151	11137
263.213	4656
263.275	3123
263.336	1090
263.398	404
263.459	-514
263.521	196
263.583	2269
263.644	941
263.706	617
263.767	14
263.829	1069
263.891	7
263.952	612
264.014	-205
264.075	2526
264.137	4625
264.198	1497
264.260	-367
264.321	329
264.383	1705
264.444	7226
264.506	797
264.567	755
264.629	3542
264.690	5028
264.752	1956
264.813	522
264.875	-28
264.936	990
264.998	115
265.059	818
265.120	159
265.182	1651
265.243	8448
265.305	7443
265.366	1788
265.427	1024
265.489	1647
265.550	3
265.611	21
265.673	153
265.734	190
265.795	-256
265.857	488
265.918	469
265.979	3852
266.040	12832
266.102	9409
266.163	3069
266.224	2518
266.286	1005
266.347	-711
266.408	365
266.469	819
266.530	305
266.592	-416
266.653	947
266.714	1941
266.775	405
266.836	62
266.898	318
266.959	1087
267.020	607
267.081	61
267.142	226
267.203	125
267.264	-1086
267.326	1236
267.387	265
267.448	-570
267.509	-158
267.570	-48
267.631	59
267.692	-1110
267.753	-274
267.814	-1094
267.875	1463
267.936	2455
267.997	2343
268.058	1434
268.119	242
268.180	693
268.241	78
268.302	786
268.363	-142
268.424	-161
268.485	236
268.546	-982
268.607	-164
268.668	-372
268.729	-51
268.790	-138
268.851	695
268.912	1389
268.972	1564
269.033	184
269.094	89
269.155	-311
269.216	22
269.277	35
269.338	70
269.398	739
269.459	-356
269.520	1116
269.581	545
269.642	694
269.702	540
269.763	193
269.824	251
269.885	686
269.945	1506
270.006	724
270.067	-608
270.128	110
270.188	-118
270.249	-642
270.310	-977
270.370	-5
270.431	207
270.492	-193
270.553	-303
270.613	1128
270.674	3142
270.734	731
270.795	-176
270.856	438
270.916	395
270.977	-410
271.038	415
271.098	386
271.159	744
271.219	912
271.280	390
271.340	921
271.401	-641
271.462	574
271.522	1385
271.583	-300
271.643	-320
271.704	-215
271.764	1212
271.825	1782
271.885	7627
271.946	7699
272.006	2820
272.066	4392
272.127	6441
272.187	2174
272.248	903
272.308	1148
272.369	4678
272.429	2817
272.489	2393
272.550	1375
272.610	2189
272.671	1519
272.731	2226
272.791	1296
272.852	187
272.912	1043
272.972	-89
273.033	798
273.093	445
273.153	1766
273.214	1217
273.274	609
273.334	4683
273.394	6725
273.455	1637
273.515	3070
273.575	6414
273.635	2239
273.696	3445
273.756	4604
273.816	2284
273.876	1783
273.936	2389
273.997	4274
274.057	460
274.117	635
274.177	2199
274.237	9441
274.297	6400
274.358	4017
274.418	5307
274.478	4167
274.538	728
274.598	66
274.658	3394
274.718	3724
274.778	1377
274.838	769
274.898	1842
274.958	4174
275.018	6026
275.078	3766
275.138	1748
275.198	408
275.258	800
275.318	682
275.378	1586
275.438	2386
275.498	1494
275.558	2353
275.618	5302
275.678	4060
275.738	3055
275.798	3067
275.858	1816
275.918	-141
275.978	1074
276.038	556
276.098	-172
276.157	1533
276.217	5775
276.277	2619
276.337	968
276.397	36
276.457	353
276.517	856
276.576	457
276.636	-62
276.696	1185
276.756	3514
276.815	721
276.875	129
276.935	145
276.995	1084
277.055	261
277.114	823
277.174	311
277.234	3834
277.293	1262
277.353	498
277.413	654
277.472	-61
277.532	146
277.592	1837
277.651	2402
277.711	4393
277.771	1447
277.830	7426
277.890	5346
277.950	3721
278.009	10202
278.069	3017
278.128	4280
278.188	4388
278.248	2292
278.307	5623
278.367	3065
278.426	1020
278.486	754
278.545	-551
278.605	738
278.664	375
278.724	623
278.783	3407
278.843	5713
278.902	1217
278.962	464
279.021	1853
279.081	2285
279.140	1032
279.199	1060
279.259	1978
279.318	1559
279.378	2223
279.437	5248
279.496	12356
279.556	23990
279.615	14335
279.675	4894
279.734	3752
279.793	6130
279.853	9068
279.912	4059
279.971	2321
280.031	2369
280.090	4853
280.149	7279
280.208	4320
280.268	18126
280.327	14014
280.386	3477
280.445	4000
280.505	3398
280.564	1917
280.623	1288
280.682	1729
280.742	3665
280.801	329
280.860	896
280.919	1493
280.978	-155
281.037	372
281.097	-214
281.156	216
281.215	616
281.274	1139
281.333	4226
281.392	2130
281.451	703
281.510	471
281.569	-54
281.628	345
281.688	214
281.747	580
281.806	239
281.865	362
281.924	-601
281.983	-191
282.042	-147
282.101	461
282.160	348
282.219	-182
282.278	279
282.337	2110
282.396	454
282.454	347
282.513	703
282.572	4217
282.631	1977
282.690	508
282.749	-83
282.808	1307
282.867	-93
282.926	942
282.985	-696
283.043	442
283.102	-89
283.161	654
283.220	2182
283.279	4124
283.338	954
283.396	-60
283.455	30
283.514	1203
283.573	1615
283.631	-106
283.690	167
283.749	584
283.808	1750
283.866	1315
283.925	-543
283.984	1031
284.043	855
284.101	1180
284.160	-456
284.219	1551
284.277	192
284.336	1493
284.395	6176
284.453	4086
284.512	985
284.570	2529
284.629	1153
284.688	1230
284.746	1017
284.805	1735
284.863	1998
284.922	3048
284.981	4047
285.039	6255
285.098	11839
285.156	23678
285.215	31172
285.273	30465
285.332	23823
285.390	13491
285.449	7700
285.507	6080
285.566	3445
285.624	2445
285.683	2058
285.741	1372
285.799	1487
285.858	1211
285.916	608
285.975	883
286.033	517
286.091	666
286.150	387
286.208	715
286.267	679
286.325	871
286.383	1440
286.442	231
286.500	-252
286.558	858
286.616	-258
286.675	823
286.733	994
286.791	-93
286.850	159
286.908	627
286.966	1755
287.024	-117
287.083	683
287.141	-515
287.199	575
287.257	1444
287.315	547
287.374	58
287.432	2639
287.490	1374
287.548	154
287.606	512
287.664	454
287.723	904
287.781	1092
287.839	940
287.897	494
287.955	1197
288.013	1291
288.071	4307
288.129	17491
288.187	39169
288.245	16893
288.303	5350
288.361	3531
288.419	2872
288.477	1759
288.535	873
288.593	1157
288.651	433
288.709	-1016
288.767	543
288.825	23
288.883	293
288.941	849
288.999	10
289.057	175
289.115	-316
289.173	-39
289.231	23
289.289	-156
289.346	-625
289.404	285
289.462	1326
289.520	789
289.578	397
289.636	-881
289.694	335
289.751	-272
289.809	422
289.867	-106
289.925	1114
289.983	914
290.040	178
290.098	-61
290.156	197
290.214	419
290.271	-81
290.329	177
290.387	-243
290.444	412
290.502	-648
290.560	311
290.617	6
290.675	-137
290.733	-106
290.790	603
290.848	170
290.906	-524
290.963	-750
291.021	702
291.078	71
291.136	766
291.194	3132
291.251	5859
291.309	1696
291.366	4
291.424	-107
291.481	830
291.539	-624
291.596	-287
291.654	-734
291.711	-172
291.769	367
291.826	1463
291.884	870
291.941	-394
291.999	251
292.056	330
292.114	259
292.171	91
292.228	389
292.286	395
292.343	1135
292.401	2569
292.458	722
292.515	135
292.573	1812
292.630	-25
292.687	566
292.745	-243
292.802	902
292.859	4833
292.917	5422
292.974	1973
293.031	588
293.089	156
293.146	-436
293.203	-260
293.260	132
293.318	1115
293.375	1407
293.432	727
293.489	319
293.546	265
293.604	650
293.661	3091
293.718	7747
293.775	4669
293.832	2223
293.889	1026
293.947	1623
294.004	252
294.061	849
294.118	3328
294.175	7221
294.232	9542
294.289	3323
294.346	1555
294.403	1065
294.460	1161
294.517	262
294.574	552
294.631	245
294.688	684
294.745	3028
294.802	10573
294.859	13797
294.916	5861
294.973	2210
295.030	1090
295.087	976
295.144	890
295.201	772
295.258	944
295.315	747
295.372	3238
295.429	6037
295.486	3188
295.542	2989
295.599	7015
295.656	12413
295.713	7159
295.770	5845
295.827	1794
295.883	1320
295.940	1221
295.997	2542
296.054	1953
296.111	877
296.167	834
296.224	509
296.281	926
296.338	433
296.394	-463
296.451	1052
296.508	2743
296.564	5995
296.621	4675
296.678	8513
296.734	11254
296.791	4593
296.848	2961
296.904	1661
296.961	5879
297.018	7876
297.074	5200
297.131	1991
297.187	1007
297.244	2226
297.301	6832
297.357	11296
297.414	3583
297.470	1464
297.527	1240
297.583	571
297.640	1003
297.696	302
297.753	461
297.809	776
297.866	-748
297.922	576
297.979	-290
298.035	-20
298.092	1519
298.148	3647
298.204	3639
298.261	2089
298.317	4628
298.374	8686
298.430	4718
298.486	2346
298.543	1082
298.599	1175
298.656	1354
298.712	2900
298.768	6771
298.824	3842
298.881	1600
298.937	1266
298.993	583
299.050	1571
299.106	1065
299.162	309
299.218	947
299.275	-32
299.331	948
299.387	2185
299.443	7236
299.500	9298
299.556	4944
299.612	1471
299.668	1556
299.724	3296
299.780	4237
299.837	2419
299.893	1817
299.949	8684
300.005	9327
300.061	8824
300.117	12025
300.173	5453
300.229	2352
300.285	2849
300.341	3728
300.397	1388
300.453	97
300.510	941
300.566	1014
300.622	1346
300.678	7411
300.734	11768
300.790	8124
300.845	7893
300.901	6293
300.957	9642
301.013	6283
301.069	2163
301.125	1400
301.181	1537
301.237	1521
301.293	143
301.349	-92
301.405	318
301.461	261
301.516	992
301.572	386
301.628	1394
301.684	1699
301.740	3597
301.796	4437
301.851	3439
301.907	5871
301.963	6134
302.019	8965
302.074	19684
302.130	19328
302.186	9662
302.242	4185
302.297	2982
302.353	3477
302.409	4752
302.464	4425
302.520	3357
302.576	8066
302.631	8993
302.687	5471
302.743	2174
302.798	1853
302.854	843
302.910	1482
302.965	1677
303.021	3190
303.076	2256
303.132	4097
303.187	4431
303.243	1699
303.299	1147
303.354	233
303.410	859
303.465	1238
303.521	674
303.576	1104
303.632	499
303.687	2702
303.743	5538
303.798	5181
303.853	2474
303.909	139
303.964	906
304.020	2819
304.075	3658
304.130	3171
304.186	6384
304.241	6910
304.297	4820
304.352	2717
304.358	2622
304.407	1846
304.449	1757
304.463	1732
304.518	1718
304.539	1619
304.573	1439
304.629	1133
304.630	1163
304.684	2589
304.720	3972
304.739	4645
304.794	8395
304.811	7228
304.850	4248
304.902	1971
304.905	1835
304.960	999
304.992	1247
305.015	1453
305.071	827
305.083	896
305.126	1096
305.173	895
305.181	874
305.236	31
305.264	580
305.292	1103
305.347	1568
305.354	1529
305.402	1466
305.445	2119
305.457	2241
305.512	2572
305.535	2488
305.567	2421
305.622	2336
305.626	2368
305.678	3979
305.716	8069
305.733	9398
305.788	10692
305.807	9616
305.843	7786
305.897	8052
305.898	8046
305.953	8442
305.988	5433
306.008	3829
306.063	3946
306.078	3338
306.118	1816
306.168	1210
306.173	1170
306.228	1283
306.259	1286
306.283	1360
306.338	940
306.349	927
306.393	903
306.440	1556
306.448	1682
306.503	2202
306.530	2592
306.558	3808
306.613	6816
306.620	7270
306.668	9615
306.711	11810
306.723	11789
306.778	8427
306.801	6747
306.833	5014
306.888	2261
306.892	2190
306.943	2216
306.982	2048
306.997	2020
307.052	1617
307.072	1623
307.107	2034
307.162	3050
307.163	3061
307.217	4982
307.253	6059
307.272	6201
307.327	5749
307.343	5434
307.381	4578
307.434	4188
307.436	4367
307.491	8628
307.524	12234
307.546	12598
307.600	11698
307.614	10653
307.655	6887
307.704	3560
307.710	3551
307.765	4580
307.795	5587
307.819	7050
307.874	11707
307.885	11885
307.929	9096
307.975	7342
307.984	7615
308.038	9900
308.065	12037
308.093	20174
308.148	39937
308.156	43552
308.202	63878
308.246	77641
308.257	74442
308.312	44607
308.336	31839
308.366	25010
308.421	16176
308.426	15311
308.475	10295
308.517	7257
308.530	6898
308.585	6000
308.607	5872
308.639	5899
308.694	5600
308.697	5625
308.748	10695
308.787	14992
308.803	14559
308.857	11239
308.877	9956
308.912	9132
308.967	7921
308.967	7908
309.021	11264
309.058	13425
309.076	16848
309.130	29624
309.148	34226
309.185	57169
309.238	93758
309.239	94137
309.293	99846
309.328	97572
309.348	85286
309.402	46131
309.418	35324
309.457	25519
309.508	15237
309.511	15028
309.566	12492
309.598	11569
309.620	12482
309.674	14622
309.688	15380
309.729	15169
309.778	13607
309.783	13358
309.837	10593
309.868	8984
309.892	10948
309.946	16031
309.959	17547
310.001	23792
310.049	29937
310.055	28954
310.109	17888
310.139	11563
310.163	9377
310.218	5742
310.229	4990
310.272	4508
310.319	4342
310.326	4243
310.381	3233
310.409	2853
310.435	2858
310.489	2677
310.499	2637
310.543	3143
310.589	3926
310.598	3927
310.652	3847
310.679	3650
310.706	3712
310.760	3733
310.769	3752
310.814	3215
310.859	2525
310.868	2560
310.923	2786
310.948	2960
310.977	3463
311.031	4253
311.038	4369
311.085	3765
311.128	2960
311.139	3013
311.193	3427
311.218	3564
311.247	3507
311.301	3320
311.308	3289
311.356	3603
311.398	3901
311.410	3742
311.464	2851
311.488	2456
311.518	2685
311.572	3093
311.578	3127
311.626	4236
311.668	5234
311.680	5417
311.734	6124
311.758	6393
311.788	5871
311.842	4928
311.847	4815
311.896	7011
311.937	8873
311.950	8804
312.004	8398
312.027	8172
312.058	6673
312.112	3959
312.117	3681
312.165	3732
312.207	3763
312.297	6777
312.386	4746
312.476	4643
312.566	8140
312.656	5161
312.745	3326
312.835	4420
312.925	4730
313.015	4189
313.104	4336
313.194	4136
313.284	3860
313.374	5189
313.463	5095
313.553	3523
313.643	3781
313.732	3272
313.822	3049
313.912	4476
314.001	4571
314.091	4895
314.180	7884
314.270	6194
314.360	6349
314.449	4653
314.539	4085
314.628	3864
314.718	4913
314.808	5607
314.897	4253
314.987	4296
315.076	4106
315.166	5923
315.255	5529
315.345	6516
315.434	5677
315.524	4958
315.613	6654
315.703	6478
315.792	8716
315.881	19726
315.971	9831
316.060	9733
316.150	13804
316.239	14216
316.328	7060
316.418	4092
316.507	4203
316.597	5166
316.686	4836
316.775	6453
316.865	14103
316.954	5214
317.043	4259
317.133	3447
317.222	3357
317.311	3545
317.400	2088
317.490	4928
317.579	5032
317.668	4604
317.757	6318
317.847	11717
317.936	34281
318.025	18614
318.114	10612
318.203	8048
318.293	10209
318.382	19299
318.471	14807
318.560	20393
318.649	40774
318.738	10879
318.828	6697
318.917	6009
319.006	8408
319.095	16541
319.184	46163
319.273	25355
319.362	12307
319.451	5614
319.540	4609
319.629	8069
319.718	15328
319.807	8800
319.896	13713
319.985	54239
320.074	23411
320.163	6300
320.252	9839
320.341	10166
320.430	9231
320.519	9531
320.608	6065
320.697	6155
320.786	6010
320.875	6602
320.964	7005
321.053	10253
321.142	13882
321.230	16978
321.319	12988
321.408	29302
321.497	14334
321.586	13049
321.675	14800
321.764	15842
321.852	10220
321.941	17458
322.030	11921
322.119	12672
322.207	28914
322.296	24894
322.385	14373
322.474	13067
322.562	31521
322.651	20155
322.740	13035
322.829	20490
322.917	19370
323.006	12176
323.095	10036
323.183	7680
323.272	12235
323.361	15865
323.449	46336
323.538	18270
323.626	33068
323.715	26133
323.804	11079
323.892	31075
323.981	19631
324.069	7757
324.158	16798
324.246	19672
324.335	8457
324.424	11884
324.512	5969
324.601	6793
324.689	12044
324.778	22506
324.866	15907
324.954	5808
325.043	4394
325.131	8665
325.220	15651
325.308	18012
325.397	12120
325.485	8716
325.574	3679
325.662	4036
325.750	4651
325.839	4414
325.927	3214
326.015	4765
326.104	5875
326.192	8870
326.280	3446
326.369	4431
326.457	6015
326.545	8111
326.634	4116
326.722	3264
326.810	3162
326.898	3549
326.987	4104
327.075	8057
327.163	9151
327.251	5817
327.340	8307
327.428	13488
327.516	4309
327.604	3539
327.692	3843
327.781	4104
327.869	7282
327.957	4741
328.045	4095
328.133	3485
328.221	3307
328.309	3641
328.397	3555
328.485	3970
328.574	5065
328.662	16516
328.750	10363
328.838	4934
328.926	3748
329.014	3438
329.102	5132
329.190	14532
329.278	9120
329.366	3372
329.454	2458
329.542	2377
329.630	2791
329.718	3048
329.806	4259
329.893	4255
329.981	4615
330.069	5796
330.157	15510
330.245	46247
330.333	27576
330.421	6408
330.509	5964
330.597	19160
330.684	14955
330.772	6396
330.860	10260
330.948	14176
331.036	6546
331.123	3311
331.211	4030
331.299	5375
331.387	10516
331.475	21186
331.562	6715
331.650	3017
331.738	3376
331.825	5979
331.913	3161
332.001	2758
332.089	4359
332.176	9039
332.264	17458
332.352	15123
332.439	5271
332.527	5071
332.614	3299
332.702	5043
332.790	3458
332.877	8484
332.965	17944
333.052	5008
333.140	4246
333.228	8568
333.315	4109
333.403	4303
333.490	9992
333.578	9998
333.665	8838
333.753	6089
333.840	2890
333.928	5627
334.015	12458
334.103	17857
334.190	54926
334.278	18773
334.365	8700
334.452	6878
334.540	4884
334.627	6059
334.715	8923
334.802	14432
334.889	54459
334.977	60797
335.064	13910
335.151	6309
335.239	6885
335.326	8466
335.413	26898
335.501	42338
335.588	7871
335.675	6290
335.762	7286
335.850	14896
335.937	11207
336.024	21104
336.111	70397
336.199	38476
336.286	11633
336.373	5899
336.460	4411
336.547	3192
336.635	5199
336.722	5407
336.809	4246
336.896	6385
336.983	18400
337.070	44499
337.157	59008
337.245	37711
337.332	29047
337.419	5178
337.506	4275
337.593	5519
337.680	14722
337.767	51080
337.854	15105
337.941	17385
338.028	16685
338.115	6312
338.202	8721
338.289	12077
338.376	37617
338.463	16098
338.550	26796
338.637	33007
338.724	9406
338.811	14453
338.898	4791
338.984	3616
339.071	5309
339.158	4560
339.245	11408
339.332	9173
339.419	8916
339.506	9855
339.593	3084
339.679	3552
339.766	2880
339.853	4608
339.940	6787
340.027	3856
340.113	3256
340.200	4777
340.287	3249
340.374	4276
340.460	8309
340.547	4145
340.634	5508
340.720	17058
340.807	11126
340.894	2919
340.980	3148
341.067	2848
341.154	3840
341.240	4719
341.327	10080
341.414	4658
341.500	4763
341.587	3523
341.674	3279
341.760	6927
341.847	7811
341.933	3555
342.020	1254
342.106	2081
342.193	2161
342.279	5033
342.366	4760
342.452	6763
342.539	4940
342.625	8778
342.712	19945
342.798	8468
342.885	4106
342.971	1841
343.058	2025
343.144	2126
343.230	2600
343.317	3161
343.403	2330
343.490	1884
343.576	1249
343.662	2255
343.749	2824
343.835	3419
343.921	5733
344.008	24061
344.094	60330
344.180	16208
344.267	7181
344.353	18185
344.439	22029
344.525	10275
344.612	6566
344.698	5735
344.784	4220
344.870	2357
344.957	2625
345.043	4535
345.129	3235
345.215	6665
345.301	4474
345.387	3593
345.474	2026
345.560	2254
345.646	2752
345.732	3263
345.818	4010
345.904	3958
345.990	2641
346.076	3374
346.162	7980
346.249	4286
346.335	2273
346.421	3013
346.507	7029
346.593	25261
346.679	7147
346.765	4168
346.851	3600
346.937	3316
347.023	2844
347.108	2913
347.194	2715
347.280	2865
347.366	3227
347.452	8563
347.538	30857
347.624	24480
347.710	22082
347.796	4445
347.882	3746
347.967	2825
348.053	5012
348.139	3976
348.225	2749
348.311	2270
348.397	2187
348.482	3341
348.568	3578
348.654	2902
348.740	4857
348.825	4730
348.911	5378
348.997	13458
349.083	28389
349.168	6198
349.254	3028
349.340	4217
349.425	2354
349.511	3498
349.597	4977
349.682	6989
349.768	19264
349.854	11062
349.939	3395
350.025	2825
350.110	3270
350.196	2305
350.282	1631
350.367	2555
350.453	4180
350.538	5258
350.624	3794
350.709	4103
350.795	2420
350.880	2458
350.966	3481
351.051	4783
351.137	3660
351.222	2969
351.308	6272
351.393	19647
351.479	7426
351.564	3238
351.649	2608
351.735	2750
351.820	2266
351.906	2578
351.991	2870
352.076	11939
352.162	18774
352.247	4636
352.332	3295
352.418	6764
352.503	8401
352.588	24908
352.673	23716
352.759	5603
352.844	2770
352.929	3710
353.014	4960
353.100	4081
353.185	8143
353.270	8136
353.355	7721
353.441	3137
353.526	3291
353.611	5577
353.696	8012
353.781	5637
353.866	1948
353.952	2216
354.037	6002
354.122	13971
354.207	12920
354.292	5429
354.377	2577
354.462	3086
354.547	3258
354.632	3489
354.717	7330
354.802	11263
354.887	4723
354.972	3132
355.057	2281
355.142	1385
355.227	3330
355.312	4811
355.397	9115
355.482	21997
355.567	11831
355.652	8473
355.737	8371
355.822	21811
355.907	19601
355.991	3794
356.076	2324
356.161	2468
356.246	1508
356.331	3017
356.416	4919
356.501	31187
356.585	36566
356.670	7994
356.755	5704
356.840	6237
356.924	26358
357.009	83081
357.094	36280
357.179	9847
357.263	6880
357.348	5864
357.433	6590
357.517	5939
357.602	4690
357.687	4277
357.771	7196
357.856	19054
357.941	11989
358.025	18008
358.110	74872
358.195	41118
358.279	8947
358.364	6480
358.448	16709
358.533	45404
358.617	35267
358.702	33240
358.787	13548
358.871	7850
358.956	6765
359.040	2666
359.125	1909
359.209	3121
359.294	9125
359.378	15924
359.462	7274
359.547	4388
359.631	3391
359.716	2341
359.800	3330
359.885	6153
359.969	3364
360.053	3292
360.138	3095
360.222	3419
360.306	6613
360.391	6230
360.475	9525
360.559	23772
360.644	17056
360.728	14182
360.812	18111
360.896	50769
360.981	26817
361.065	17781
361.149	6273
361.233	4328
361.318	3303
361.402	5380
361.486	4203
361.570	3422
361.654	3336
361.739	7839
361.823	31253
361.907	52213
361.991	12586
362.075	7564
362.159	14951
362.243	12836
362.327	15498
362.411	22164
362.495	10970
362.580	6018
362.664	4631
362.748	4572
362.832	5995
362.916	11377
363.000	34994
363.084	69540
363.168	70712
363.252	20384
363.336	8887
363.420	11094
363.503	38114
363.587	48751
363.671	10005
363.755	6926
363.839	9911
363.923	5182
364.007	8866
364.091	11723
364.175	15898
364.258	68148
364.342	61998
364.426	78099
364.510	43877
364.594	19225
364.677	15151
364.761	42463
364.845	33910
364.929	12532
365.013	11277
365.096	8981
365.180	11039
365.264	15115
365.347	60310
365.431	31667
365.515	9667
365.598	3809
365.682	3692
365.766	8830
365.849	13342
365.933	5029
366.017	7174
366.100	6653
366.184	2105
366.267	3556
366.351	2787
366.435	2584
366.518	2250
366.602	2431
366.685	2877
366.769	3134
366.852	7884
366.936	12390
367.019	6395
367.103	6167
367.186	13827
367.270	4129
367.353	1406
367.436	2498
367.520	2935
367.603	3634
367.687	4365
367.770	8642
367.853	5740
367.937	12784
368.020	22486
368.104	6595
368.187	6316
368.270	10652
368.353	9420
368.437	11099
368.520	26125
368.603	17163
368.687	15895
368.770	33242
368.853	10171
368.936	9378
369.020	13143
369.103	4765
369.186	3181
369.269	3884
369.352	5608
369.436	9863
369.519	6475
369.602	2980
369.685	4488
369.768	3436
369.851	3502
369.934	2014
370.018	3096
370.101	7021
370.184	7599
370.267	5356
370.350	7959
370.433	12570
370.516	23428
370.599	31966
370.682	10466
370.765	19602
370.848	22235
370.931	38221
371.014	20245
371.097	3768
371.180	3463
371.263	2951
371.346	1573
371.429	2835
371.511	2235
371.594	4970
371.677	9496
371.760	14495
371.843	7866
371.926	24552
372.009	60881
372.091	24919
372.174	13628
372.257	32748
372.340	14442
372.423	15088
372.505	21052
372.588	8571
372.671	10921
372.754	35968
372.836	20301
372.919	19078
373.002	41318
373.085	12525
373.167	7157
373.250	15561
373.332	33298
373.415	41030
373.498	84363
373.580	37261
373.663	39956
373.746	59049
373.828	16556
373.911	8950
373.993	9580
374.076	36750
374.159	38211
374.241	12221
374.324	32694
374.406	23778
374.489	22565
374.571	66081
374.654	31772
374.736	14550
374.819	40706
374.901	59017
374.983	65223
375.066	13814
375.148	7043
375.231	26662
375.313	60586
375.395	26354
375.478	6830
375.560	3567
375.643	4789
375.725	13073
375.807	51953
375.890	49671
375.972	25723
376.054	12126
376.136	21976
376.219	10616
376.301	14124
376.383	48032
376.465	19740
376.548	12838
376.630	14279
376.712	40018
376.794	20905
376.877	3671
376.959	1668
377.041	3870
377.123	9614
377.205	14086
377.287	2414
377.369	2198
377.452	2779
377.534	2808
377.616	2814
377.698	3077
377.780	1544
377.862	1802
377.944	2765
378.026	1950
378.108	2502
378.190	2663
378.272	2752
378.354	2495
378.436	1743
378.518	5239
378.600	19947
378.682	14761
378.764	22464
378.846	20384
378.928	7471
379.010	9411
379.091	5504
379.173	2611
379.255	2603
379.337	3597
379.419	10158
379.501	32561
379.583	15664
379.664	4187
379.746	7460
379.828	22929
379.910	30654
379.991	27789
380.073	6066
380.155	4366
380.237	3034
380.318	2102
380.400	2580
380.482	5967
380.564	8951
380.645	10590
380.727	10532
380.809	4942
380.890	3864
380.972	3709
381.053	3606
381.135	4444
381.217	7243
381.298	25775
381.380	14047
381.461	10434
381.543	37547
381.624	53074
381.706	11937
381.787	7180
381.869	7155
381.951	15153
382.032	61643
382.113	45101
382.195	12248
382.276	8678
382.358	15497
382.439	36245
382.521	38489
382.602	60692
382.684	29014
382.765	51784
382.846	52462
382.928	58533
383.009	35058
383.090	22050
383.172	78035
383.253	127554
383.334	51494
383.416	57856
383.497	32579
383.578	13318
383.659	21807
383.741	67703
383.822	181355
383.903	101705
383.984	39067
384.066	72564
384.147	49810
384.228	12754
384.309	8919
384.390	7536
384.471	6035
384.553	6572
384.634	8184
384.715	8474
384.796	4014
384.877	6043
384.958	20590
385.039	27215
385.120	11694
385.201	6200
385.282	7839
385.363	10269
385.444	7525
385.525	10307
385.606	27749
385.687	26613
385.768	9256
385.849	11224
385.930	30031
386.011	53716
386.092	18217
386.173	8029
386.254	6227
386.335	5834
386.416	6790
386.496	16006
386.577	27572
386.658	13388
386.739	8684
386.820	9644
386.901	7831
386.981	7401
387.062	6210
387.143	8640
387.224	24111
387.304	25963
387.385	11422
387.466	8579
387.547	11503
387.627	6920
387.708	10276
387.789	37393
387.869	47815
387.950	16123
388.031	5429
388.111	5094
388.192	16199
388.273	25858
388.353	15078
388.434	6653
388.514	7604
388.595	30379
388.676	43795
388.756	25788
388.837	23022
388.917	15754
388.998	4048
389.078	4328
389.159	3170
389.239	2681
389.320	5672
389.400	4197
389.480	9519
389.561	23873
389.641	13941
389.722	5366
389.802	7578
389.883	11116
389.963	25920
390.043	20432
390.124	8616
390.204	9311
390.284	27138
390.365	18810
390.445	24804
390.525	46509
390.605	34057
390.686	14716
390.766	6948
390.846	4935
390.927	2672
391.007	2128
391.087	4656
391.167	5598
391.247	3454
391.328	5924
391.408	11522
391.488	9728
391.568	2475
391.648	3700
391.728	6082
391.808	6529
391.888	6794
391.969	12148
392.049	21716
392.129	13791
392.209	11647
392.289	26646
392.369	17217
392.449	22023
392.529	14183
392.609	9575
392.689	10196
392.769	26391
392.849	26679
392.929	22105
393.009	47670
393.089	38957
393.169	38716
393.248	100859
393.328	298507
393.408	340143
393.488	130890
393.568	42129
393.648	22710
393.728	13685
393.807	10325
393.887	9622
393.967	8007
394.047	8145
394.127	10036
394.206	14119
394.286	37881
394.366	153741
394.446	185613
394.525	56419
394.605	15748
394.685	12548
394.764	28631
394.844	47557
394.924	35447
395.003	10772
395.083	7138
395.163	6658
395.242	5661
395.322	5789
395.402	3157
395.481	7708
395.561	15978
395.640	50543
395.720	43172
395.799	53107
395.879	43536
395.958	22253
396.038	57468
396.117	198976
396.197	240550
396.276	96475
396.356	37267
396.435	28248
396.515	18790
396.594	19770
396.673	33307
396.753	98306
396.832	279757
396.912	239614
396.991	70613
397.070	23418
397.150	11159
397.229	10952
397.308	13777
397.388	27233
397.467	14986
397.546	4736
397.625	2751
397.705	6338
397.784	6043
397.863	4023
397.942	2593
398.022	3670
398.101	12877
398.180	45141
398.259	28127
398.338	7880
398.417	3485
398.497	3753
398.576	4137
398.655	1662
398.734	3099
398.813	3886
398.892	12201
398.971	46128
399.050	24821
399.129	2843
399.208	2104
399.287	2782
399.366	1624
399.445	2599
399.524	1887
399.603	1749
399.682	4055
399.761	11658
399.840	45002
399.919	39785
399.998	6465
400.077	1672
400.156	850
400.235	4585
400.313	1481
400.392	2432
400.471	11436
400.550	22878
400.629	6149
400.708	3386
400.786	3445
400.865	12885
400.944	14034
401.023	7260
401.102	1047
401.180	1540
401.259	1625
401.338	3114
401.416	3998
401.495	3444
401.574	3197
401.652	2331
401.731	4149
401.810	4125
401.888	2305
401.967	1065
402.046	2787
402.124	3057
402.203	4961
402.281	3014
402.360	4545
402.438	15581
402.517	12355
402.596	3913
402.674	4220
402.753	2842
402.831	2196
402.910	2651
402.988	9241
403.066	35162
403.145	22940
403.223	11318
403.302	31027
403.380	25536
403.459	26881
403.537	12181
403.615	5552
403.694	485
403.772	2298
403.850	1231
403.929	1690
404.007	528
404.085	5766
404.164	7829
404.242	3069
404.320	5581
404.398	18613
404.477	21698
404.555	49495
404.633	49368
404.711	18717
404.789	10511
404.868	4545
404.946	1906
405.024	1675
405.102	349
405.180	961
405.258	-193
405.336	1706
405.415	965
405.493	5663
405.571	6924
405.649	1381
405.727	1091
405.805	4539
405.883	4414
405.961	4351
406.039	4970
406.117	1298
406.195	3068
406.273	9602
406.351	44012
406.429	32521
406.507	7825
406.585	2647
406.663	1976
406.740	2934
406.818	2011
406.896	1483
406.974	2079
407.052	2649
407.130	24567
407.208	41078
407.285	9257
407.363	1396
407.441	1519
407.519	1513
407.596	2540
407.674	6978
407.752	32120
407.830	33968
407.907	12498
407.985	4080
408.063	2159
408.141	613
408.218	5160
408.296	5371
408.373	3592
408.451	2911
408.529	2001
408.606	507
408.684	868
408.762	894
408.839	1061
408.917	921
408.994	1299
409.072	1311
409.149	1180
409.227	3122
409.304	4221
409.382	4397
409.459	4206
409.537	6244
409.614	5883
409.692	3992
409.769	3436
409.846	5825
409.924	9147
410.001	5644
410.079	4972
410.156	3957
410.233	4451
410.311	2707
410.388	1082
410.465	2349
410.543	2445
410.620	1695
410.697	2156
410.775	2180
410.852	476
410.929	3119
411.006	3869
411.083	1517
411.161	5091
411.238	7011
411.315	4423
411.392	1150
411.469	3149
411.547	3308
411.624	1046
411.701	586
411.778	1696
411.855	3868
411.932	1806
412.009	1597
412.086	1572
412.163	2110
412.240	1967
412.317	4023
412.394	3618
412.471	1695
412.548	392
412.625	1041
412.702	2040
412.779	4843
412.856	5101
412.933	1062
413.010	739
413.087	1619
413.164	10521
413.241	18321
413.318	4071
413.395	2387
413.471	3683
413.548	1636
413.625	2109
413.702	1295
413.779	2443
413.855	76
413.932	669
414.009	-569
414.086	681
414.162	1236
414.239	2160
414.316	10513
414.393	26368
414.469	9883
414.546	949
414.623	1232
414.699	911
414.776	1422
414.853	356
414.929	1622
415.006	1003
415.082	2264
415.159	1785
415.236	1051
415.312	1271
415.389	2688
415.465	2650
415.542	2029
415.618	1323
415.695	2642
415.771	1108
415.848	1445
415.924	1598
416.000	1630
416.077	1711
416.153	-149
416.230	369
416.306	290
416.383	-161
416.459	919
416.535	51
416.612	-11
416.688	1170
416.764	618
416.841	110
416.917	1124
416.993	1606
417.069	1545
417.146	2044
417.222	2924
417.298	2658
417.374	310
417.451	1270
417.527	1004
417.603	1497
417.679	1376
417.755	1171
417.831	299
417.908	858
417.984	485
418.060	-435
418.136	2648
418.212	3324
418.288	882
418.364	1190
418.440	-29
418.516	2866
418.592	4134
418.668	7521
418.744	7973
418.820	6165
418.896	1672
418.972	26
419.048	896
419.124	3903
419.200	2568
419.276	-118
419.352	110
419.428	1132
419.504	1064
419.579	2577
419.655	1368
419.731	1043
419.807	4936
419.883	8550
419.959	6741
420.034	1445
420.110	3281
420.186	14563
420.262	14088
420.337	2891
420.413	1997
420.489	1610
420.565	1389
420.640	514
420.716	1955
420.792	612
420.867	1788
420.943	965
421.019	3199
421.094	1799
421.170	2234
421.245	1044
421.321	1896
421.397	1108
421.472	5731
421.548	18079
421.623	13996
421.699	5140
421.774	4049
421.850	3093
421.925	5249
422.001	5333
422.076	6372
422.152	6301
422.227	10672
422.302	14640
422.378	21295
422.453	37028
422.529	79056
422.604	156837
422.679	184299
422.755	170410
422.830	101215
422.905	47122
422.981	26499
423.056	17859
423.131	12753
423.207	8496
423.282	6864
423.357	9770
423.432	7534
423.508	7034
423.583	11007
423.658	9055
423.733	3949
423.808	4007
423.883	4385
423.959	4193
424.034	3920
424.109	3395
424.184	894
424.259	1405
424.334	753
424.409	1437
424.484	1390
424.559	1576
424.634	1563
424.709	1805
424.784	2709
424.859	1610
424.934	1747
425.009	10288
425.084	19026
425.159	8235
425.234	1571
425.309	374
425.384	4015
425.459	7011
425.534	2736
425.609	1451
425.683	1099
425.758	879
425.833	883
425.908	1716
425.983	4434
426.058	19980
426.132	9687
426.207	2734
426.282	4500
426.357	3950
426.431	1277
426.506	1490
426.581	1824
426.655	1416
426.730	114
426.805	1135
426.879	1253
426.954	499
427.029	1948
427.103	14397
427.178	39372
427.253	19487
427.327	3506
427.402	4136
427.476	10930
427.551	5390
427.625	2273
427.700	2402
427.774	855
427.849	2161
427.923	1088
427.998	1770
428.072	1773
428.147	4955
428.221	16248
428.296	58854
428.370	36324
428.444	5202
428.519	6139
428.593	12086
428.667	11291
428.742	13193
428.816	12283
428.890	37746
428.965	66279
429.039	22719
429.113	15671
429.188	6057
429.262	1157
429.336	3661
429.410	9055
429.485	6971
429.559	10098
429.633	9746
429.707	2676
429.781	6232
429.855	42266
429.930	70870
430.004	37805
430.078	53635
430.152	49317
430.226	67327
430.300	76495
430.374	15459
430.448	6047
430.522	13022
430.596	46036
430.670	31731
430.744	50099
430.818	78845
430.892	18494
430.966	2955
431.040	1706
431.114	-483
431.188	569
431.262	576
431.336	815
431.410	4145
431.484	13532
431.557	10505
431.631	1329
431.705	1348
431.779	8747
431.853	48347
431.927	39908
432.000	5971
432.074	2282
432.148	2022
432.222	2151
432.295	1435
432.369	287
432.443	1264
432.516	13143
432.590	39357
432.664	17697
432.737	2168
432.811	-68
432.885	5
432.958	300
433.032	-343
433.106	112
433.179	-249
433.253	-452
433.326	245
433.400	-760
433.473	31
433.547	-520
433.620	209
433.694	1157
433.767	2731
433.841	424
433.914	174
433.988	-457
434.061	538
434.134	398
434.208	-737
434.281	-301
434.355	-874
434.428	-49
434.501	-249
434.575	-120
434.648	738
434.721	193
434.795	-98
434.868	57
434.941	72
435.014	-255
435.088	-2
435.161	655
435.234	1622
435.307	1624
435.381	506
435.454	989
435.527	2336
435.600	2378
435.673	2259
435.746	1554
435.819	1209
435.892	489
435.966	63
436.039	-152
436.112	789
436.185	-772
436.258	-38
436.331	-894
436.404	-659
436.477	-589
436.550	-114
436.623	-445
436.696	-548
436.769	247
436.842	694
436.915	-160
436.987	1266
437.060	493
437.133	-37
437.206	-226
437.279	995
437.352	26
437.425	-296
437.498	676
437.570	2394
437.643	2105
437.716	561
437.789	35
437.861	1465
437.934	6991
438.007	3090
438.080	55
438.152	333
438.225	2348
438.298	14934
438.370	49125
438.443	25222
438.516	6848
438.588	1624
438.661	199
438.734	70
438.806	244
438.879	1277
438.951	201
439.024	3309
439.096	575
439.169	-403
439.241	-361
439.314	-76
439.386	1505
439.459	2887
439.531	4190
439.604	1632
439.676	558
439.749	-497
439.821	-664
439.893	-774
439.966	-200
440.038	583
440.110	1110
440.183	-344
440.255	-383
440.327	1337
440.400	7054
440.472	33529
440.544	25367
440.617	3634
440.689	2928
440.761	3429
440.833	5462
440.905	3630
440.978	-142
441.050	-661
441.122	336
441.194	224
441.266	205
441.338	126
441.411	1124
441.483	9979
441.555	17665
441.627	4438
441.699	3522
441.771	3431
441.843	1170
441.915	214
441.987	-8
442.059	895
442.131	774
442.203	2341
442.275	2677
442.347	2729
442.419	4870
442.491	25655
442.563	74327
442.635	37646
442.706	16562
442.778	13169
442.850	2348
442.922	901
442.994	2108
443.066	3981
443.137	1967
443.209	2373
443.281	3791
443.353	8447
443.425	32302
443.496	115317
443.568	130363
443.640	55188
443.711	10620
443.783	4410
443.855	2298
443.926	1540
443.998	1467
444.070	2473
444.141	2512
444.213	1921
444.285	3025
444.356	2573
444.428	2380
444.499	992
444.571	243
444.642	714
444.714	286
444.785	1810
444.857	3580
444.928	10661
445.000	6523
445.071	7167
445.143	10394
445.214	6501
445.285	8963
445.357	27760
445.428	71588
445.500	163927
445.571	124919
445.642	73302
445.714	28494
445.785	22393
445.856	7268
445.928	4110
445.999	3025
446.070	2408
446.141	2154
446.213	3695
446.284	1364
446.355	3102
446.426	1188
446.497	1382
446.569	2361
446.640	4250
446.711	2355
446.782	427
446.853	1126
446.924	1553
446.995	587
447.066	1857
447.138	3303
447.209	2395
447.280	-939
447.351	49
447.422	820
447.493	2125
447.564	1092
447.635	1019
447.706	116
447.777	267
447.847	-196
447.918	-619
447.989	1817
448.060	2179
448.131	5999
448.202	6111
448.273	2949
448.344	1933
448.414	-26
448.485	93
448.556	-90
448.627	-454
448.698	268
448.768	-323
448.839	392
448.910	2999
448.981	3015
449.051	1367
449.122	-19
449.193	108
449.263	713
449.334	220
449.405	449
449.475	2602
449.546	2668
449.616	3046
449.687	3332
449.758	979
449.828	976
449.899	259
449.969	287
450.040	263
450.110	401
450.181	1259
450.251	-755
450.322	698
450.392	622
450.463	344
450.533	134
450.604	318
450.674	240
450.744	600
450.815	134
450.885	194
450.955	657
451.026	46
451.096	634
451.166	1396
451.237	3844
451.307	12968
451.377	5730
451.447	-112
451.518	496
451.588	558
451.658	404
451.728	1889
451.799	11484
451.869	15614
451.939	3133
452.009	288
452.079	-34
452.149	181
452.219	2712
452.289	12725
452.360	12740
452.430	1551
452.500	1101
452.570	2007
452.640	3734
452.710	10764
452.780	19234
452.850	11003
452.920	6532
452.990	2615
453.060	1650
453.129	2103
453.199	2830
453.269	11062
453.339	30041
453.409	49079
453.479	43976
453.549	68251
453.619	77510
453.688	35171
453.758	4412
453.828	1250
453.898	1427
453.968	922
454.037	222
454.087	822
454.107	1064
454.168	-122
454.177	-309
454.247	747
454.249	726
454.316	-130
454.330	111
454.386	1011
454.411	3117
454.456	6434
454.492	8996
454.525	11287
454.574	5222
454.595	2598
454.655	1038
454.665	794
454.734	1179
454.736	1251
454.804	3297
454.817	4888
454.873	10851
454.898	12406
454.943	15073
454.979	9410
455.013	4381
455.060	2869
455.082	2354
455.141	2807
455.152	2833
455.221	8072
455.222	8251
455.291	19004
455.303	18153
455.360	13837
455.384	17809
455.430	24345
455.465	20374
455.499	16593
455.546	13597
455.569	12009
455.627	8890
455.638	8385
455.707	1797
455.708	1798
455.777	366
455.789	550
455.846	1377
455.869	1180
455.916	693
455.950	754
455.985	816
456.031	1102
456.054	1248
456.112	695
456.124	575
456.193	657
456.193	647
456.262	1012
456.274	1194
456.332	1814
456.355	1862
456.401	1967
456.436	1705
456.470	1263
456.516	463
456.540	189
456.597	182
456.609	175
456.678	837
456.678	828
456.747	227
456.759	222
456.817	301
456.840	324
456.886	278
456.920	664
456.955	1079
457.001	453
457.024	211
457.082	858
457.093	914
457.162	834
457.163	848
457.232	2098
457.243	2112
457.301	1717
457.324	1287
457.370	685
457.405	1061
457.439	1366
457.485	1391
457.508	1396
457.566	702
457.577	637
457.646	1407
457.647	1431
457.715	3595
457.727	3872
457.784	5837
457.808	7976
457.853	11289
457.889	13848
457.922	14440
457.969	10441
457.991	10080
458.050	9804
458.060	9881
458.129	16991
458.130	17245
458.198	22137
458.211	20624
458.267	12225
458.292	8541
458.336	4981
458.372	4257
458.405	4948
458.453	7070
458.474	8884
458.533	15840
458.543	16673
458.611	31748
458.614	32041
458.680	25193
458.694	20945
458.749	9426
458.775	6658
458.818	3909
458.855	3018
458.887	2438
458.936	1944
458.955	1774
459.016	1927
459.024	1942
459.093	1741
459.097	1751
459.162	1993
459.177	2091
459.230	2219
459.257	2355
459.299	2634
459.338	2612
459.368	2567
459.418	2737
459.437	2741
459.499	2811
459.505	2788
459.574	1591
459.579	1573
459.643	1605
459.659	1645
459.711	1633
459.740	1751
459.780	2136
459.820	2099
459.849	2050
459.900	2460
459.917	2610
459.981	2939
459.986	2892
460.054	1797
460.061	1770
460.123	2386
460.141	2438
460.191	2540
460.222	2840
460.260	3240
460.302	3451
460.328	3274
460.382	3142
460.397	3225
460.462	3158
460.465	3198
460.534	4760
460.543	4911
460.602	13354
460.623	16697
460.671	26512
460.703	37135
460.739	38056
460.783	36084
460.808	31760
460.864	9108
460.876	7071
460.944	3342
460.945	3293
461.013	2623
461.024	2448
461.081	2189
461.104	2435
461.150	2584
461.184	2556
461.218	2704
461.264	2346
461.286	2166
461.345	2286
461.355	2274
461.423	2476
461.425	2471
461.491	2359
461.505	2376
461.559	4435
461.585	5468
461.628	8963
461.665	12604
461.696	14731
461.745	20143
461.764	18371
461.825	7604
461.832	7344
461.901	3217
461.905	3175
461.969	3242
461.985	3219
462.037	3118
462.065	2946
462.105	2834
462.145	3009
462.173	4570
462.225	7465
462.241	8310
462.305	12597
462.310	12320
462.378	8136
462.385	7315
462.446	3938
462.465	3226
462.514	2990
462.545	2980
462.582	2855
462.625	3115
462.650	3457
462.705	3866
462.718	3757
462.785	3189
462.786	3222
462.854	5247
462.865	5595
462.922	6558
462.945	7167
462.990	5978
463.025	4310
463.058	3423
463.104	2146
463.126	2171
463.184	2748
463.194	2808
463.262	3014
463.264	3039
463.330	3447
463.344	3423
463.398	3979
463.424	4219
463.466	3631
463.504	3471
463.533	3771
463.583	3700
463.601	3633
463.663	3674
463.669	3753
463.737	4523
463.743	4621
463.805	8037
463.823	9000
463.873	13606
463.903	16647
463.940	18560
463.982	21439
464.008	18097
464.062	8673
464.076	7977
464.142	4033
464.144	3997
464.211	3745
464.221	3790
464.279	3915
464.301	3844
464.347	3929
464.381	4147
464.414	4645
464.461	5328
464.482	5747
464.540	7032
464.550	6719
464.617	3946
464.620	3847
464.685	4871
464.699	5147
464.753	5642
464.779	5811
464.820	6483
464.859	7220
464.888	7225
464.938	7155
464.956	7436
465.018	8302
465.023	8135
465.091	5864
465.098	5621
465.158	5007
465.177	4791
465.226	4961
465.257	5055
465.293	5237
465.336	5495
465.361	5777
465.416	6444
465.428	6975
465.495	9786
465.496	9846
465.563	16981
465.575	18255
465.631	23379
465.654	25718
465.698	17285
465.734	9577
465.765	7704
465.813	4555
465.833	4550
465.893	5359
465.900	5392
465.968	5420
465.972	5429
466.035	5036
466.052	4886
466.102	5239
466.131	5437
466.170	5216
466.210	5009
466.237	5227
466.290	5622
466.304	5594
466.369	5290
466.372	5315
466.439	5938
466.449	6018
466.506	7063
466.528	7419
466.573	9264
466.607	10637
466.641	16012
466.687	23518
466.708	26730
466.766	35658
466.775	33031
466.842	12861
466.845	11876
466.909	8381
466.925	7603
466.977	7132
467.004	6937
467.044	7159
467.083	7371
467.111	7816
467.163	8616
467.178	9022
467.242	10668
467.245	10637
467.312	9682
467.321	9542
467.379	8712
467.400	8391
467.446	9695
467.480	10614
467.559	9641
467.638	8410
467.717	7567
467.796	7703
467.875	8548
467.955	9518
468.034	12933
468.113	28650
468.192	44673
468.271	15959
468.350	8184
468.429	9929
468.508	10476
468.588	9418
468.667	7756
468.746	8678
468.825	8230
468.904	6496
468.983	8314
469.062	12437
469.141	15837
469.220	7863
469.299	7114
469.378	7563
469.456	8502
469.535	8264
469.614	7605
469.693	7757
469.772	9629
469.851	13360
469.930	10482
470.009	7046
470.088	6393
470.166	7284
470.245	7274
470.324	7916
470.403	7154
470.482	6620
470.560	7017
470.639	6628
470.718	7649
470.797	7443
470.875	7962
470.954	12295
471.033	13380
471.111	7032
471.190	6768
471.269	5324
471.347	5921
471.426	6435
471.505	7380
471.583	8749
471.662	7786
471.740	7001
471.819	6860
471.898	6500
471.976	6323
472.055	6281
472.133	7231
472.212	10556
472.290	10268
472.369	6672
472.447	6562
472.526	5742
472.604	6235
472.683	7102
472.761	6080
472.839	6526
472.918	6706
472.996	6204
473.075	7448
473.153	7307
473.231	6325
473.310	7602
473.388	7294
473.466	7069
473.545	6626
473.623	7636
473.701	7707
473.780	6625
473.858	5508
473.936	7531
474.014	6264
474.093	7413
474.171	10795
474.249	14276
474.327	10284
474.405	5314
474.484	5589
474.562	5019
474.640	6041
474.718	6264
474.796	6481
474.874	6135
474.952	5296
475.030	6292
475.108	4816
475.187	5894
475.265	7587
475.343	9230
475.421	10605
475.499	6231
475.577	6867
475.655	8578
475.733	14182
475.811	27359
475.889	24431
475.966	19678
476.044	6590
476.122	7807
476.200	8776
476.278	8411
476.356	6190
476.434	6539
476.512	7635
476.590	9806
476.667	8599
476.745	5339
476.823	6138
476.901	6322
476.979	6542
477.056	5984
477.134	6016
477.212	6356
477.290	6322
477.367	5723
477.445	5602
477.523	4962
477.601	5608
477.678	5186
477.756	7350
477.834	7772
477.911	5637
477.989	5253
478.066	6116
478.144	6699
478.222	7505
478.299	11090
478.377	11167
478.454	6222
478.532	5503
478.609	4969
478.687	5710
478.764	5156
478.842	5283
478.919	5880
478.997	6569
479.074	5409
479.152	6201
479.229	8012
479.307	6228
479.384	4078
479.461	4953
479.539	5236
479.616	6934
479.694	5547
479.771	6203
479.848	6368
479.926	8569
480.003	9474
480.080	5731
480.157	4815
480.235	4254
480.312	4998
480.389	6201
480.467	9579
480.544	12345
480.621	7032
480.698	6842
480.775	6864
480.853	7692
480.930	6497
481.007	6152
481.084	7699
481.161	9386
481.238	8884
481.315	5637
481.392	5842
481.470	5682
481.547	6028
481.624	5813
481.701	5781
481.778	6698
481.855	6928
481.932	9599
482.009	15387
482.086	13587
482.163	6629
482.240	7942
482.317	13955
482.393	11842
482.470	6117
482.547	6365
482.624	5261
482.701	7039
482.778	6107
482.855	5038
482.932	5186
483.009	5091
483.085	6562
483.162	7527
483.239	7995
483.316	5052
483.393	5885
483.469	5065
483.546	6863
483.623	6679
483.699	6097
483.776	6150
483.853	7054
483.930	8552
484.006	22286
484.083	40936
484.160	22461
484.236	24691
484.313	21517
484.389	16131
484.466	14870
484.543	14292
484.619	14587
484.696	14777
484.772	15110
484.849	16210
484.925	14336
485.002	12349
485.078	13990
485.155	13621
485.231	12803
485.308	12465
485.384	12974
485.461	14994
485.537	23227
485.614	31718
485.690	14108
485.766	11803
485.843	12281
485.919	14142
485.995	15607
486.072	11283
486.148	10243
486.224	10890
486.301	10720
486.377	12844
486.453	13278
486.530	12476
486.606	15651
486.682	17870
486.758	21838
486.835	24770
486.911	18528
486.987	29394
487.063	28407
487.139	26644
487.215	22110
487.292	14899
487.368	12506
487.444	13801
487.520	18105
487.596	19237
487.672	24890
487.748	54957
487.824	93719
487.900	45798
487.976	18355
488.052	14424
488.128	15876
488.204	13851
488.280	13103
488.356	14235
488.432	27002
488.508	43586
488.584	18108
488.660	10197
488.736	10155
488.812	10223
488.888	12336
488.964	14125
489.039	22430
489.115	33678
489.191	26654
489.267	11966
489.343	10807
489.418	9481
489.494	9686
489.570	8203
489.646	9818
489.722	9416
489.797	9952
489.873	13355
489.949	30351
490.024	31154
490.100	10909
490.176	8996
490.251	9621
490.327	11540
490.403	8853
490.478	8054
490.554	8229
490.629	7819
490.705	7313
490.781	8073
490.856	8453
490.932	8653
491.007	8431
491.083	8832
491.158	8296
491.234	10825
491.309	22239
491.385	27293
491.460	9127
491.536	8960
491.611	7297
491.686	7657
491.762	9612
491.837	13908
491.913	26093
491.988	33196
492.063	42533
492.139	19410
492.214	14075
492.289	7025
492.365	6875
492.440	8481
492.515	8158
492.590	8381
492.666	7062
492.741	9346
492.816	14263
492.891	8751
492.967	6801
493.042	7142
493.117	6400
493.192	7316
493.267	11238
493.342	33159
493.418	56058
493.493	14128
493.568	6290
493.643	5933
493.718	7361
493.793	10116
493.868	11207
493.943	7323
494.018	6833
494.093	6019
494.168	6337
494.243	5393
494.318	5305
494.393	5325
494.468	4978
494.543	5120
494.618	5217
494.693	5418
494.768	5749
494.842	5994
494.917	4976
494.992	5780
495.067	5638
495.142	4429
495.217	5433
495.292	5876
495.366	6559
495.441	7089
495.516	9588
495.591	10823
495.665	25307
495.740	63329
495.815	38950
495.890	10073
495.964	7884
496.039	9521
496.114	8057
496.188	9932
496.263	10132
496.338	7721
496.412	8031
496.487	9734
496.561	8720
496.636	9532
496.710	8214
496.785	8992
496.860	10317
496.934	8287
497.009	7900
497.083	7547
497.158	7482
497.232	9101
497.307	11646
497.381	9612
497.455	10805
497.530	16227
497.604	10881
497.679	10404
497.753	15600
497.827	21443
497.902	18827
497.976	19955
498.050	38879
498.125	150055
498.199	197397
498.273	33816
498.348	18134
498.422	14759
498.496	14363
498.570	13100
498.645	11102
498.719	11001
498.793	14313
498.867	19396
498.941	27105
499.016	58699
499.090	182338
499.164	95028
499.238	11713
499.312	9000
499.386	9813
499.460	10625
499.534	9515
499.609	11700
499.683	17152
499.757	18367
499.831	26942
499.905	114338
499.979	145185
500.053	25223
500.127	21161
500.201	12165
500.275	9679
500.349	9369
500.422	9991
500.496	13243
500.570	21486
500.644	61333
500.718	141694
500.792	47600
500.866	10748
500.940	12009
501.013	12041
501.087	9831
501.161	15041
501.235	20498
501.309	42237
501.382	119961
501.456	135176
501.530	27791
501.603	45268
501.677	24160
501.751	7873
501.825	9299
501.898	16840
501.972	51101
502.046	44936
502.119	10017
502.193	20763
502.266	56267
502.340	37163
502.413	24107
502.487	52215
502.561	33564
502.634	12197
502.708	7622
502.781	6362
502.855	6360
502.928	5744
503.002	6371
503.075	6268
503.149	6847
503.222	6807
503.295	6699
503.369	9824
503.442	11076
503.516	32414
503.589	97535
503.662	79631
503.736	24708
503.809	45856
503.882	45192
503.956	52646
504.029	62409
504.102	36046
504.175	50616
504.249	25236
504.322	12196
504.395	11082
504.468	6762
504.542	6634
504.615	5024
504.688	5636
504.761	3174
504.834	6368
504.907	6464
504.980	9357
505.053	6726
505.127	5577
505.200	10166
505.273	8671
505.346	6571
505.419	4331
505.492	5062
505.565	4030
505.638	3834
505.711	3906
505.784	4335
505.857	3907
505.930	5963
506.003	3690
506.076	6049
506.149	5772
506.221	8711
506.294	8558
506.367	16753
506.440	69346
506.513	49889
506.586	8981
506.659	6159
506.731	5187
506.804	5304
506.877	6655
506.950	5931
507.022	3863
507.095	5612
507.168	8059
507.241	5054
507.313	3456
507.386	3492
507.459	5523
507.531	3996
507.604	3385
507.677	4521
507.749	3001
507.822	5660
507.894	7389
507.967	11812
508.040	7179
508.112	6364
508.185	6624
508.257	5578
508.330	7830
508.402	6822
508.475	5370
508.547	6593
508.620	5769
508.692	10564
508.765	7728
508.837	4314
508.909	4882
508.982	4688
509.054	5641
509.127	4871
509.199	4847
509.271	4331
509.344	4233
509.416	4540
509.488	4384
509.560	5034
509.633	4241
509.705	4812
509.777	4866
509.849	6616
509.922	5326
509.994	4841
510.066	6052
510.138	5492
510.210	10773
510.283	9269
510.355	8223
510.427	6812
510.499	7008
510.571	5959
510.643	5685
510.715	8852
510.787	7445
510.859	7509
510.931	7056
511.003	8708
511.076	10071
511.148	6134
511.219	5289
511.291	9787
511.363	13526
511.435	6856
511.507	5360
511.579	5890
511.651	5608
511.723	5375
511.795	4640
511.867	5640
511.939	6699
512.010	12758
512.082	12475
512.154	6115
512.226	5761
512.298	7689
512.369	11168
512.441	9029
512.513	8624
512.585	6018
512.656	7510
512.728	6941
512.800	7135
512.871	5891
512.943	6044
513.015	5156
513.086	5905
513.158	5795
513.230	5622
513.301	6998
513.373	8550
513.444	6369
513.516	5634
513.588	5347
513.659	6119
513.731	6309
513.802	5971
513.874	9875
513.945	14683
514.016	8973
514.088	5931
514.159	4957
514.231	6793
514.302	10052
514.374	9535
514.445	7554
514.516	15659
514.588	13712
514.659	8060
514.730	14118
514.802	13060
514.873	5872
514.944	8461
515.016	7054
515.087	7122
515.158	9278
515.229	16764
515.301	7734
515.372	9316
515.443	6629
515.514	5888
515.585	4693
515.656	6148
515.728	5107
515.799	4820
515.870	6240
515.941	6166
516.012	4868
516.083	7941
516.154	6950
516.225	8874
516.296	8408
516.367	7312
516.438	7801
516.509	8747
516.580	10473
516.651	23168
516.722	78986
516.793	62612
516.864	14313
516.935	13734
517.006	14596
517.077	16680
517.148	29510
517.219	72239
517.289	151264
517.360	90749
517.431	42191
517.502	9473
517.573	9421
517.643	8331
517.714	8711
517.785	10018
517.856	9004
517.926	11376
517.997	11578
518.068	12891
518.138	15518
518.209	17907
518.280	46214
518.350	185715
518.421	116696
518.492	20276
518.562	12629
518.633	14833
518.703	14191
518.774	23587
518.845	55061
518.915	64497
518.986	25031
519.056	15841
519.127	18269
519.197	26160
519.268	70247
519.338	65731
519.408	14132
519.479	12811
519.549	9961
519.620	8007
519.690	7347
519.760	6181
519.831	6382
519.901	6485
519.971	7256
520.042	7138
520.112	7531
520.182	8109
520.253	8938
520.323	7374
520.393	8605
520.463	13278
520.534	7481
520.604	17056
520.674	11143
520.744	8941
520.814	16969
520.885	19042
520.955	20959
521.025	87132
521.095	50811
521.165	9531
521.235	6881
521.305	6452
521.375	6436
521.445	6030
521.515	6910
521.585	8258
521.655	7567
521.725	7163
521.795	7383
521.865	4327
521.935	10339
522.005	9204
522.075	5866
522.145	6257
522.215	7056
522.285	10780
522.355	11828
522.424	24417
522.494	23767
522.564	10667
522.634	12016
522.704	34192
522.774	20884
522.843	7107
522.913	5548
522.983	6553
523.053	5775
523.122	5556
523.192	6900
523.262	15291
523.331	20666
523.401	8158
523.471	4517
523.540	5183
523.610	3566
523.680	5184
523.749	5277
523.819	6820
523.888	7214
523.958	4743
524.027	5108
524.097	6159
524.166	4866
524.236	4923
524.305	7420
524.375	4981
524.444	4223
524.514	6811
524.583	5439
524.653	6994
524.722	7832
524.791	5514
524.861	6735
524.930	4962
524.999	4415
525.069	7097
525.138	6675
525.207	8419
525.277	6879
525.346	5574
525.415	6255
525.484	5918
525.554	6993
525.623	7609
525.692	7044
525.761	7031
525.830	8284
525.900	10187
525.969	13863
526.038	22265
526.107	36151
526.176	113263
526.245	117268
526.314	38945
526.383	55948
526.452	91444
526.522	118468
526.591	162702
526.660	42942
526.729	21832
526.797	20671
526.867	29801
526.935	110507
527.004	253823
527.073	202742
527.142	26788
527.211	10521
527.280	8272
527.349	7762
527.418	5517
527.487	5905
527.555	3169
527.624	4269
527.693	3626
527.762	5308
527.831	3426
527.899	4114
527.968	5084
528.037	2840
528.106	4908
528.174	7043
528.243	8138
528.312	9522
528.380	13609
528.449	5702
528.518	5382
528.586	2480
528.655	4149
528.723	3423
528.792	2978
528.861	4463
528.929	3174
528.998	5122
529.066	4489
529.135	5855
529.203	5955
529.272	5604
529.340	8831
529.409	8731
529.477	7708
529.545	7979
529.614	11376
529.682	9646
529.751	12808
529.819	13969
529.887	13202
529.956	10161
530.024	10802
530.092	8804
530.161	9537
530.229	10266
530.297	10824
530.365	11329
530.434	10467
530.502	9855
530.570	10040
530.638	7208
530.707	9445
530.775	9770
530.843	7604
530.911	9023
530.979	8380
531.047	9875
531.115	10237
531.183	9495
531.252	8427
531.320	8688
531.388	7974
531.456	9612
531.524	8827
531.592	10567
531.660	12372
531.728	10533
531.796	9202
531.864	9509
531.932	10441
532.000	8652
532.067	11155
532.135	10392
532.203	12548
532.271	12881
532.339	14622
532.407	21377
532.475	18754
532.542	13586
532.610	12562
532.678	12732
532.746	28898
532.814	75732
532.881	34539
532.949	13992
533.017	11427
533.084	10798
533.152	10136
533.220	10163
533.287	9995
533.355	10358
533.423	10326
533.490	10921
533.558	9888
533.625	10038
533.693	9886
533.761	9895
533.828	11640
533.896	9060
533.963	13207
534.031	15009
534.098	17941
534.166	13995
534.233	10146
534.300	11197
534.368	11559
534.435	9059
534.503	10319
534.570	11306
534.637	11314
534.705	12155
534.772	13305
534.840	15167
534.907	47919
534.974	87177
535.041	19712
535.109	12037
535.176	8623
535.243	8634
535.310	9020
535.378	8205
535.445	7306
535.512	7790
535.579	8145
535.646	6293
535.714	7799
535.781	9181
535.848	9446
535.915	9776
535.982	9004
536.049	8852
536.116	10449
536.183	7063
536.250	7627
536.317	8288
536.384	8152
536.451	9255
536.518	9545
536.585	7025
536.652	10774
536.719	11119
536.786	9879
536.853	8241
536.920	11066
536.987	13839
537.053	11698
537.120	33286
537.187	41595
537.254	8115
537.321	6787
537.388	7726
537.454	6079
537.521	5807
537.588	6233
537.654	7032
537.721	8055
537.788	8192
537.855	6489
537.921	6571
537.988	7009
538.055	7530
538.121	6357
538.188	6695
538.254	8048
538.321	11336
538.388	9197
538.454	6677
538.521	6535
538.587	6793
538.654	6584
538.720	6598
538.787	6031
538.853	7014
538.920	7512
538.986	7529
539.053	6789
539.119	7012
539.185	6780
539.252	7708
539.318	8943
539.385	9019
539.451	7147
539.517	9022
539.583	8354
539.650	12331
539.716	30396
539.782	14154
539.849	6890
539.915	7168
539.981	6395
540.047	7485
540.114	6913
540.180	8062
540.246	6684
540.312	7889
540.378	10686
540.444	13267
540.510	12703
540.576	31421
540.643	17175
540.709	6456
540.775	6389
540.841	6172
540.907	8037
540.973	11876
541.039	9327
541.105	9831
541.171	6844
541.237	5893
541.303	7399
541.369	8527
541.435	7539
541.500	10318
541.566	7795
541.632	6404
541.698	5857
541.764	6325
541.830	6010
541.896	5132
541.961	7214
542.027	6118
542.093	7196
542.159	5920
542.224	6204
542.290	8528
542.356	10041
542.421	12514
542.487	9553
542.553	6957
542.618	7680
542.684	6979
542.750	6084
542.815	7502
542.881	9786
542.947	25326
543.012	27890
543.078	7328
543.143	5687
543.209	6585
543.274	6226
543.340	6624
543.405	10947
543.471	19907
543.536	9142
543.602	7451
543.667	5128
543.732	7419
543.798	6155
543.863	6745
543.928	6433
543.994	5319
544.059	5522
544.124	6935
544.190	5523
544.255	7835
544.320	6627
544.386	6049
544.451	7676
544.516	7997
544.581	7819
544.646	16688
544.712	32484
544.777	11990
544.842	8954
544.907	9346
544.972	7524
545.037	7177
545.102	8567
545.168	8134
545.233	8984
545.298	9852
545.363	9356
545.428	9487
545.493	13121
545.558	23995
545.623	16606
545.688	8388
545.753	9088
545.818	8731
545.883	9445
545.947	8295
546.012	9286
546.077	10121
546.142	10011
546.207	8274
546.272	10808
546.337	11085
546.401	10520
546.466	8986
546.531	9457
546.596	10877
546.661	10863
546.725	11258
546.790	10298
546.855	11322
546.919	10657
546.984	12226
547.049	13207
547.113	15510
547.178	15667
547.243	16918
547.307	18835
547.372	21346
547.436	23045
547.501	20385
547.565	22592
547.630	22417
547.695	21099
547.759	22993
547.823	22436
547.888	19751
547.952	20524
548.017	21346
548.081	23897
548.146	26414
548.210	25827
548.274	21958
548.339	22493
548.403	22199
548.468	19423
548.532	20792
548.596	20881
548.660	20380
548.725	22035
548.789	23516
548.853	26123
548.917	23917
548.982	24934
549.046	26345
549.110	19464
549.174	18778
549.238	21183
549.303	22405
549.367	25173
549.431	23271
549.495	21702
549.559	20949
549.623	24597
549.687	26548
549.751	29025
549.815	30353
549.879	32087
549.943	28296
550.007	31280
550.071	32014
550.135	31665
550.199	28010
550.263	28469
550.327	27099
550.391	30138
550.455	31339
550.519	31175
550.582	32143
550.646	35924
550.710	39246
550.774	36103
550.838	35371
550.901	37287
550.965	40323
551.029	41074
551.093	45139
551.156	50478
551.220	64245
551.284	76309
551.347	53918
551.411	58519
551.475	68354
551.538	43003
551.602	38009
551.666	35901
551.729	33221
551.793	34314
551.856	33307
551.920	33484
551.983	32888
552.047	32137
552.110	33164
552.174	32564
552.237	33788
552.301	32955
552.364	31861
552.428	29581
552.491	30827
552.554	31339
552.618	30996
552.681	31532
552.745	31921
552.808	33182
552.871	36492
552.934	34983
552.998	32115
553.061	32639
553.124	31967
553.187	31817
553.251	32475
553.314	34017
553.377	34595
553.440	39772
553.503	60809
553.567	101740
553.630	47516
553.693	36615
553.756	35488
553.819	35571
553.882	34859
553.945	34462
554.008	33942
554.071	32411
554.134	35691
554.197	33262
554.260	32291
554.323	34736
554.386	33896
554.449	33927
554.512	34419
554.575	32540
554.638	32577
554.701	32274
554.764	33471
554.827	32335
554.889	30251
554.952	29199
555.015	28909
555.078	29066
555.141	29869
555.203	28637
555.266	29737
555.329	28908
555.391	27832
555.454	27290
555.517	27380
555.580	26900
555.642	24477
555.705	24457
555.768	23981
555.830	24556
555.893	22562
555.955	23316
556.018	22223
556.080	22497
556.143	22892
556.206	22034
556.268	21882
556.330	22934
556.393	21373
556.455	21861
556.518	23315
556.580	24944
556.643	20036
556.705	19257
556.767	17926
556.830	19097
556.892	17961
556.955	21022
557.017	19554
557.079	18331
557.142	17130
557.204	17271
557.266	20406
557.328	21269
557.391	15306
557.453	14985
557.515	15591
557.577	16401
557.639	15904
557.701	16840
557.764	14584
557.826	16717
557.888	16780
557.950	17393
558.012	17272
558.074	21238
558.136	34481
558.198	94939
558.260	53021
558.322	20228
558.384	18212
558.446	20654
558.508	22451
558.570	26817
558.632	32342
558.694	41979
558.756	51390
558.818	117771
558.880	348335
558.942	169359
559.003	102538
559.065	70517
559.127	27280
559.189	24373
559.251	26073
559.312	31805
559.374	62380
559.436	222178
559.498	169071
559.559	31531
559.621	25426
559.683	26557
559.744	38440
559.806	97759
559.868	196650
559.929	58409
559.991	26877
560.052	32836
560.114	85586
560.176	78197
560.237	47215
560.299	93733
560.360	33520
560.422	13366
560.483	12464
560.545	12689
560.606	11141
560.667	11061
560.729	10434
560.790	10629
560.852	9507
560.913	9897
560.974	10143
561.036	11046
561.097	10002
561.158	9837
561.220	10668
561.281	9907
561.342	9601
561.403	11716
561.465	10814
561.526	16040
561.587	24546
561.648	12109
561.709	10170
561.771	10077
561.832	9472
561.893	9397
561.954	9450
562.015	9037
562.076	9730
562.137	9406
562.198	9309
562.259	9561
562.320	9597
562.381	9193
562.442	10434
562.503	11532
562.564	9543
562.625	9595
562.686	8991
562.747	8870
562.808	9766
562.869	8911
562.930	11701
562.991	10797
563.051	10273
563.112	10165
563.173	9682
563.234	9041
563.294	9954
563.355	8535
563.416	9616
563.477	9576
563.537	8169
563.598	10103
563.659	9998
563.720	9196
563.780	10180
563.841	9233
563.901	9571
563.962	8629
564.023	9030
564.083	9007
564.144	9648
564.204	9276
564.265	9112
564.325	11111
564.386	16331
564.446	17596
564.507	8738
564.567	8292
564.628	8222
564.688	8891
564.749	9078
564.809	9998
564.869	11417
564.930	9423
564.990	8899
565.050	8537
565.111	8432
565.171	8569
565.231	8120
565.292	9621
565.352	7682
565.412	9096
565.472	8954
565.532	8634
565.593	8770
565.653	8267
565.713	8472
565.773	10066
565.833	9316
565.893	10879
565.953	9351
566.013	9093
566.074	9073
566.134	11690
566.194	15053
566.254	17505
566.314	11514
566.374	9700
566.434	8878
566.494	9488
566.554	8652
566.614	9841
566.673	8476
566.733	10582
566.793	10124
566.853	10760
566.913	10431
566.973	10353
567.033	11557
567.092	11612
567.152	9738
567.212	11729
567.272	11670
567.331	12071
567.391	11157
567.451	12127
567.511	14613
567.570	16126
567.630	11053
567.690	11355
567.749	11124
567.809	11664
567.868	12159
567.928	12399
567.988	13869
568.047	14806
568.107	16496
568.166	20092
568.226	25882
568.285	35823
568.345	34638
568.404	28683
568.464	24916
568.523	22726
568.582	22173
568.642	24037
568.701	28791
568.761	37455
568.820	55445
568.879	60537
568.939	49411
568.998	36372
569.057	27543
569.116	23251
569.176	19029
569.235	16507
569.294	15432
569.353	14213
569.413	13410
569.472	12597
569.531	11821
569.590	10295
569.649	10871
569.708	10321
569.767	11022
569.827	11670
569.886	10461
569.945	10395
570.004	9604
570.063	10182
570.122	10115
570.181	10564
570.240	10351
570.299	11849
570.358	10883
570.417	8446
570.475	8674
570.534	9628
570.593	9562
570.652	8622
570.711	9202
570.770	8977
570.829	9349
570.887	9053
570.946	8621
571.005	8872
571.064	9710
571.122	8787
571.181	9505
571.240	9455
571.299	8165
571.357	7885
571.416	8973
571.475	10166
571.533	11300
571.592	8412
571.650	9308
571.709	8381
571.768	8998
571.826	9295
571.885	8617
571.943	8318
572.002	7837
572.060	8707
572.119	7806
572.177	9731
572.236	7833
572.294	8497
572.352	7864
572.411	7886
572.469	8222
572.528	7875
572.586	7733
572.644	8500
572.703	9641
572.761	8613
572.819	8160
572.877	7985
572.936	7667
572.994	7719
573.052	8239
573.110	7615
573.169	7881
573.227	6884
573.285	7707
573.343	6806
573.401	6891
573.459	7900
573.517	6191
573.576	7115
573.634	7268
573.692	8069
573.750	8084
573.808	7545
573.866	8520
573.924	9548
573.982	9129
574.040	7904
574.098	7833
574.155	6770
574.213	7663
574.271	7143
574.329	7025
574.387	7346
574.445	6807
574.503	6113
574.560	7061
574.618	6717
574.676	5746
574.734	6745
574.792	6498
574.849	6486
574.907	5555
574.965	6128
575.022	6332
575.080	6607
575.138	5704
575.195	7150
575.253	6303
575.311	6804
575.368	5310
575.426	6405
575.483	7228
575.541	6566
575.598	6040
575.656	7065
575.713	6531
575.771	6438
575.828	6744
575.886	6648
575.943	7078
576.001	6876
576.058	6886
576.115	7254
576.173	7029
576.230	8824
576.287	8171
576.345	8028
576.402	6739
576.459	7916
576.517	7277
576.574	8150
576.631	8627
576.688	7830
576.746	6653
576.803	6542
576.860	7466
576.917	7041
576.974	7074
577.031	6816
577.089	6750
577.146	7271
577.203	6435
577.260	7324
577.317	7955
577.374	8348
577.431	8210
577.488	7890
577.545	7114
577.602	7557
577.659	6836
577.716	7351
577.773	9156
577.830	7599
577.886	8386
577.943	6235
578.000	7012
578.057	7685
578.114	7751
578.171	8610
578.227	9193
578.284	10042
578.341	8540
578.398	7427
578.454	8860
578.511	8682
578.568	9221
578.625	7285
578.681	6827
578.738	7365
578.794	6909
578.851	6771
578.908	7689
578.964	7515
579.021	8316
579.077	7509
579.134	6422
579.190	7787
579.247	6676
579.303	6541
579.360	6375
579.416	6968
579.473	6955
579.529	6943
579.586	7033
579.642	8072
579.698	8137
579.755	8112
579.811	7821
579.867	7305
579.924	7492
579.980	7608
580.036	8907
580.093	9864
580.149	12111
580.205	13866
580.261	10656
580.317	10104
580.374	9200
580.430	9655
580.486	10204
580.542	8695
580.598	8709
580.619	8610
580.654	8443
580.692	8193
580.710	8072
580.765	8458
580.767	8475
580.823	8304
580.838	8451
580.879	8815
580.911	8414
580.935	8143
580.984	8559
580.991	8622
581.047	9163
581.057	9075
581.103	8711
581.130	9321
581.159	9925
581.203	9880
581.215	9876
581.270	10787
581.276	10678
581.326	9658
581.349	9654
581.382	9662
581.422	10296
581.438	10552
581.494	9849
581.494	9847
581.550	9791
581.567	9823
581.606	9816
581.640	9619
581.661	9538
581.713	10703
581.717	10797
581.773	10143
581.786	10251
581.829	10680
581.859	10582
581.885	10414
581.932	9896
581.940	9830
581.996	10577
582.004	10625
582.052	10804
582.077	10473
582.107	10070
582.150	10352
582.163	10453
582.219	11759
582.223	11673
582.274	10639
582.296	10770
582.330	10931
582.368	10802
582.386	10763
582.441	11665
582.441	11665
582.497	11186
582.514	11577
582.552	12577
582.587	12457
582.608	12304
582.659	12373
582.663	12374
582.719	11468
582.732	11634
582.774	12283
582.805	12168
582.830	12136
582.877	13234
582.885	13394
582.941	12736
582.950	12842
582.996	13591
583.023	14440
583.052	15380
583.095	15722
583.107	15791
583.162	16471
583.168	16549
583.218	17028
583.240	16454
583.273	15420
583.313	14725
583.328	14524
583.384	14389
583.385	14358
583.439	13528
583.458	13481
583.494	13343
583.531	12992
583.549	12938
583.603	12831
583.605	12818
583.660	12697
583.676	12723
583.715	13084
583.748	13625
583.770	13856
583.820	14092
583.825	14135
583.881	13720
583.893	13614
583.936	13032
583.965	13332
583.991	13831
584.038	13998
584.046	13965
584.101	13956
584.110	13957
584.156	14123
584.183	14263
584.211	14315
584.255	14438
584.266	14573
584.321	14249
584.328	14405
584.376	15353
584.400	15281
584.431	15283
584.472	14699
584.486	14491
584.541	16009
584.545	15997
584.596	16223
584.617	16418
584.651	16594
584.689	17155
584.706	17501
584.761	17695
584.762	17689
584.816	17524
584.834	17581
584.871	18044
584.906	18093
584.926	17948
584.978	17541
584.980	17563
585.035	18657
585.051	18782
585.090	19194
585.123	20104
585.145	20688
585.195	21589
585.200	21708
585.254	22807
585.267	23273
585.309	25353
585.340	27075
585.364	28261
585.412	29574
585.419	29784
585.473	31786
585.484	32218
585.528	35869
585.556	39714
585.583	48648
585.628	68952
585.637	78489
585.692	150433
585.700	164936
585.747	237402
585.772	237642
585.801	175082
585.845	76959
585.856	64492
585.910	36166
585.917	33426
585.965	30222
585.989	28738
586.019	27955
586.061	26709
586.074	26432
586.128	25986
586.133	25890
586.183	26370
586.205	26746
586.237	26904
586.277	26976
586.292	26950
586.346	26524
586.349	26468
586.401	26549
586.421	26760
586.455	27445
586.493	28432
586.509	29709
586.564	33661
586.565	33768
586.618	44604
586.637	47607
586.672	44975
586.709	38271
586.727	35794
586.781	32060
586.781	32099
586.835	31089
586.853	30695
586.889	30051
586.925	29472
586.944	29515
586.996	29975
586.998	30055
587.052	31326
587.068	31736
587.106	32470
587.140	32634
587.161	32723
587.212	33316
587.215	33434
587.269	34913
587.284	35225
587.323	36239
587.356	36770
587.377	37095
587.427	38762
587.431	38993
587.485	40432
587.499	40921
587.539	42144
587.571	42661
587.593	43447
587.643	45860
587.648	46164
587.702	48262
587.715	48843
587.755	51777
587.786	53332
587.810	54225
587.858	56862
587.864	57444
587.917	62082
587.930	63099
587.971	67104
588.001	70162
588.025	72996
588.073	78143
588.079	78984
588.133	85441
588.145	86977
588.187	95611
588.217	101418
588.241	106470
588.288	117168
588.295	119250
588.348	135385
588.360	138934
588.402	155597
588.431	166770
588.456	178999
588.503	203673
588.510	208563
588.564	247679
588.575	255741
588.617	301636
588.646	334936
588.671	376748
588.718	458494
588.725	478016
588.778	629635
588.789	660355
588.832	808432
588.861	903980
588.886	921240
588.932	918113
588.939	902572
588.993	738207
589.004	718371
589.047	886122
589.075	984507
589.100	947506
589.147	832902
589.154	811328
589.207	630356
589.218	593789
589.261	535674
589.290	498755
589.314	504319
589.361	520419
589.368	534016
589.421	646504
589.433	670406
589.475	802516
589.504	889083
589.528	883983
589.576	833133
589.582	835341
589.635	868552
589.647	871475
589.689	786419
589.718	705135
589.742	610117
589.790	421187
589.795	410696
589.849	311797
589.861	289220
589.902	251941
589.932	224522
589.955	207185
590.004	169640
590.009	167744
590.062	145086
590.075	139418
590.115	128169
590.146	119056
590.168	114361
590.218	103602
590.222	103290
590.275	96215
590.289	94289
590.328	90437
590.360	86718
590.381	84225
590.431	78132
590.435	78108
590.488	74565
590.503	73367
590.541	71403
590.574	69555
590.594	68721
590.645	65900
590.647	65983
590.700	63815
590.716	63021
590.753	61487
590.787	59852
590.806	59344
590.859	57359
590.859	57489
590.912	56372
590.930	55878
590.965	55225
591.001	54273
591.018	54155
591.071	53581
591.072	53431
591.124	51826
591.143	51052
591.177	50790
591.214	50252
591.230	50569
591.283	51441
591.285	51325
591.336	50710
591.356	50215
591.389	49546
591.427	48680
591.442	48543
591.495	47316
591.498	47106
591.547	46884
591.569	46498
591.600	46186
591.640	45627
591.653	45748
591.706	45669
591.711	45521
591.759	47119
591.782	47832
591.811	49252
591.853	50933
591.864	50401
591.917	46860
591.924	46210
591.969	45835
591.995	45451
592.022	45755
592.066	45820
592.075	46237
592.127	48128
592.137	48315
592.180	52057
592.208	54277
592.233	51756
592.279	46425
592.285	46426
592.338	45357
592.350	44976
592.390	44900
592.421	44648
592.443	44977
592.491	45225
592.495	45398
592.548	45874
592.562	45863
592.600	45359
592.633	44669
592.653	44422
592.704	43199
592.705	43464
592.775	44309
592.846	43352
592.916	46276
592.987	45942
593.058	46026
593.128	43903
593.199	44596
593.270	42989
593.341	43509
593.411	44039
593.482	45059
593.553	45152
593.623	44085
593.694	44701
593.764	47978
593.835	45045
593.906	43783
593.976	44631
594.047	46744
594.117	50599
594.188	53861
594.258	46369
594.329	45518
594.399	45805
594.470	47479
594.540	46419
594.611	48045
594.681	47937
594.751	48031
594.822	49825
594.892	51029
594.963	50899
595.033	53191
595.103	53095
595.174	54401
595.244	62914
595.314	76413
595.384	58924
595.455	56935
595.525	57649
595.595	59316
595.665	58764
595.736	57703
595.806	57675
595.876	59552
595.946	58960
596.016	59061
596.087	60273
596.157	62037
596.227	61208
596.297	64767
596.367	67582
596.437	72257
596.507	76760
596.577	87795
596.647	74502
596.717	72917
596.787	73381
596.857	74357
596.927	74303
596.997	75534
597.067	75282
597.137	81065
597.207	80789
597.277	80121
597.347	76289
597.417	75307
597.487	74877
597.557	76551
597.626	77925
597.696	79888
597.766	84095
597.836	92385
597.906	79439
597.975	73694
598.045	72517
598.115	75878
598.185	78611
598.254	84826
598.324	90548
598.394	92666
598.464	91396
598.533	90700
598.603	86925
598.672	86089
598.742	87003
598.812	87274
598.881	89486
598.951	90045
599.020	89654
599.090	91757
599.159	94058
599.229	90946
599.299	90148
599.368	92941
599.437	93865
599.507	89478
599.576	88774
599.646	90196
599.715	91239
599.785	90452
599.854	88668
599.924	91878
599.993	90256
600.062	90373
600.132	92341
600.201	95582
600.270	104631
600.340	109886
600.409	108441
600.478	109765
600.547	110862
600.617	109520
600.686	97481
600.755	94485
600.824	93787
600.894	93350
600.963	93779
601.032	94097
601.101	93901
601.170	93588
601.239	93053
601.308	96823
601.378	96456
601.447	97902
601.516	98806
601.585	101524
601.654	106593
601.723	106841
601.792	108402
601.861	112678
601.930	118099
601.999	121947
602.068	119304
602.137	120158
602.206	122636
602.275	121252
602.343	123365
602.412	125516
602.481	123650
602.550	123515
602.619	126125
602.688	126386
602.756	128468
602.825	128703
602.894	129978
602.963	128956
603.032	129887
603.100	132341
603.169	129289
603.238	133754
603.307	131274
603.375	129094
603.444	136266
603.513	127738
603.581	129188
603.650	138456
603.719	121785
603.787	113577
603.856	116059
603.924	117121
603.993	121112
604.061	122389
604.130	127043
604.198	128691
604.267	130681
604.335	134813
604.404	133458
604.472	136055
604.541	137576
604.609	141108
604.678	145641
604.746	145660
604.815	153177
604.883	151770
604.951	145358
605.020	148153
605.088	143630
605.156	137437
605.225	136045
605.293	136118
605.361	135841
605.429	136073
605.498	138309
605.566	138543
605.634	143402
605.702	144662
605.771	147496
605.839	152409
605.907	142339
605.975	143975
606.043	141257
606.111	134209
606.180	145026
606.248	140767
606.316	137415
606.384	143092
606.452	129844
606.520	110877
606.588	110358
606.656	108418
606.724	107306
606.792	103223
606.860	94246
606.928	87595
606.996	85805
607.064	82861
607.132	84737
607.200	88080
607.267	91689
607.335	92760
607.403	95135
607.471	94610
607.539	90032
607.607	91859
607.674	81519
607.742	81503
607.810	81724
607.878	81165
607.946	80753
608.013	85385
608.081	84628
608.149	87239
608.216	86971
608.284	91880
608.352	91132
608.419	91494
608.487	95284
608.555	90540
608.622	88852
608.690	91712
608.757	98366
608.825	102984
608.893	98799
608.960	97590
609.028	96562
609.095	100171
609.163	94245
609.230	85520
609.298	77937
609.365	79505
609.432	83904
609.500	90378
609.567	101257
609.635	114581
609.702	122010
609.769	121077
609.837	100677
609.904	87126
609.971	85666
610.039	97551
610.106	119258
610.173	208529
610.241	481196
610.308	430291
610.375	172201
610.442	104477
610.509	89032
610.577	88417
610.644	88227
610.711	90129
610.778	92738
610.845	94955
610.912	100198
610.980	105376
611.047	113628
611.114	108414
611.181	98916
611.248	99031
611.315	102286
611.382	104189
611.449	106747
611.516	111369
611.583	107934
611.650	109960
611.717	109415
611.784	114186
611.851	117742
611.918	126260
611.984	143469
612.051	193221
612.118	352732
612.185	827828
612.252	769189
612.319	213671
612.386	150355
612.452	134991
612.519	128037
612.586	131763
612.653	129824
612.719	127068
612.786	124594
612.853	118246
612.919	111680
612.986	115790
613.053	109181
613.120	104678
613.186	100078
613.253	102145
613.319	100436
613.386	102478
613.453	102569
613.519	105484
613.586	104080
613.652	112046
613.719	107022
613.785	107240
613.852	105219
613.918	102999
613.985	105878
614.051	115153
614.118	133367
614.184	140944
614.250	106147
614.317	106975
614.383	104024
614.449	106543
614.516	106389
614.582	107307
614.648	104546
614.715	104293
614.781	102940
614.847	103277
614.914	103996
614.980	102859
615.046	101128
615.112	102994
615.179	102928
615.245	105969
615.311	107293
615.377	117554
615.443	126552
615.509	115487
615.575	112744
615.642	110025
615.708	112930
615.774	119411
615.840	128616
615.906	140799
615.972	168564
616.038	249162
616.104	454189
616.170	938707
616.236	1091995
616.302	329404
616.368	205369
616.434	158426
616.500	140047
616.565	144667
616.631	176581
616.697	159718
616.763	150169
616.829	197585
616.895	341805
616.961	392429
617.026	199012
617.092	126078
617.158	116415
617.224	113392
617.289	107181
617.355	102932
617.421	102881
617.487	102677
617.552	97658
617.618	96450
617.684	95947
617.749	97518
617.815	92496
617.880	91492
617.946	92449
618.012	94715
618.077	95985
618.143	93688
618.208	92686
618.274	98683
618.339	102275
618.405	90133
618.470	86421
618.536	87356
618.601	88468
618.667	86057
618.732	80981
618.798	81648
618.863	81197
618.928	79371
618.994	80792
619.059	82294
619.124	87230
619.190	84437
619.255	79548
619.320	80264
619.386	80487
619.451	78258
619.516	77003
619.581	78810
619.647	80549
619.712	80907
619.777	79225
619.842	79774
619.907	80910
619.972	81684
620.038	81817
620.103	80619
620.168	78955
620.233	80675
620.298	80510
620.363	81619
620.428	81844
620.493	84230
620.558	84063
620.623	85278
620.688	86658
620.753	84359
620.818	85458
620.883	87327
620.948	86769
621.013	86392
621.078	87063
621.143	85875
621.207	87197
621.272	87426
621.337	86073
621.402	86616
621.467	89957
621.532	96208
621.596	89251
621.661	86737
621.726	83901
621.791	84427
621.855	86969
621.920	86927
621.985	88326
622.049	92335
622.114	91458
622.179	89455
622.243	92070
622.308	92974
622.373	93802
622.437	94553
622.502	90440
622.566	89725
622.631	87825
622.695	90598
622.760	88580
622.824	89478
622.889	89489
622.953	90084
623.018	98425
623.082	102163
623.147	93135
623.211	90427
623.276	89984
623.340	89485
623.404	85705
623.469	86887
623.533	86149
623.597	86304
623.662	85011
623.726	81903
623.790	78869
623.854	77722
623.919	78828
623.983	78472
624.047	79058
624.111	78215
624.176	79313
624.240	81622
624.304	84339
624.368	80035
624.432	80717
624.496	80419
624.560	81771
624.625	84687
624.689	82177
624.753	84699
624.817	81722
624.881	78850
624.945	75698
625.009	75102
625.073	75028
625.137	76057
625.201	79557
625.265	82814
625.329	74901
625.393	76468
625.456	74574
625.520	76452
625.584	78885
625.648	83211
625.712	94712
625.776	137367
625.839	159727
625.903	101383
625.967	69300
626.031	82385
626.095	112578
626.158	80177
626.222	61761
626.286	57970
626.349	56787
626.413	53827
626.477	53930
626.540	52134
626.604	53417
626.668	53009
626.731	50726
626.795	52686
626.858	51326
626.922	51224
626.986	49107
627.049	48944
627.113	49236
627.176	50507
627.240	47706
627.303	47994
627.366	46577
627.430	48003
627.493	46645
627.557	47910
627.620	48086
627.684	48187
627.747	49270
627.810	46405
627.874	43324
627.937	40646
628.000	43878
628.064	43546
628.127	38832
628.190	38080
628.253	38533
628.317	37831
628.380	35733
628.443	36191
628.506	35744
628.569	34533
628.632	33626
628.696	33603
628.759	32792
628.822	31640
628.885	30419
628.948	31012
629.011	30891
629.074	30643
629.137	29764
629.200	30470
629.263	30555
629.326	29667
629.389	28877
629.452	29181
629.515	29048
629.578	28799
629.641	29897
629.704	28438
629.767	28151
629.830	27339
629.892	26617
629.955	26937
630.018	27357
630.081	27152
630.144	29909
630.207	26803
630.269	27852
630.332	27327
630.395	28157
630.458	24733
630.520	24242
630.583	26482
630.646	24496
630.708	25148
630.771	24539
630.834	26937
630.896	25419
630.959	24545
631.021	23988
631.084	25371
631.146	25338
631.209	28655
631.272	25199
631.334	23103
631.397	24712
631.459	24038
631.522	24052
631.584	24573
631.646	26630
631.709	26851
631.771	29936
631.834	28512
631.896	26151
631.958	24362
632.021	23723
632.083	22979
632.145	24287
632.208	23030
632.270	23667
632.332	23455
632.395	22213
632.457	23371
632.519	22249
632.581	22074
632.643	21642
632.706	22636
632.768	20831
632.830	22354
632.892	21651
632.954	22624
633.016	23188
633.078	21744
633.141	20977
633.203	21617
633.265	21472
633.327	22103
633.389	20645
633.451	23095
633.513	23951
633.575	25038
633.637	23618
633.698	23119
633.760	22851
633.822	23609
633.884	23164
633.946	23968
634.008	23541
634.070	24954
634.132	27419
634.193	27677
634.255	27673
634.317	27832
634.379	27160
634.441	26064
634.502	24847
634.564	23410
634.626	21626
634.687	21705
634.749	20576
634.811	21776
634.873	19674
634.934	19594
634.996	21287
635.057	20379
635.119	21301
635.181	20766
635.242	21801
635.304	20750
635.365	22330
635.427	21155
635.488	20825
635.550	20821
635.611	20715
635.673	20224
635.734	22723
635.796	22804
635.857	24475
635.918	24299
635.980	27254
636.041	26827
636.102	28240
636.164	28859
636.225	27517
636.286	26401
636.348	24935
636.409	22758
636.470	20875
636.531	22144
636.593	21334
636.654	22738
636.715	20406
636.776	20125
636.838	17993
636.899	19652
636.960	17670
637.021	18328
637.082	18472
637.143	19264
637.204	17679
637.265	17855
637.326	18406
637.387	18799
637.448	17749
637.509	18410
637.570	18008
637.631	18466
637.692	17210
637.753	16662
637.814	16918
637.875	17470
637.936	17898
637.997	18752
638.058	17560
638.119	19404
638.179	18085
638.240	17395
638.301	18341
638.362	16102
638.423	17544
638.483	18383
638.544	15367
638.605	17086
638.666	15754
638.726	18015
638.787	16952
638.848	16165
638.908	16809
638.969	16724
639.030	16068
639.090	15367
639.151	15692
639.211	17169
639.272	19288
639.332	21961
639.393	19270
639.453	16875
639.514	17167
639.574	16546
639.635	15127
639.695	16794
639.756	14593
639.816	15901
639.877	16013
639.937	18705
639.997	22877
640.058	16665
640.118	14948
640.178	15654
640.239	15836
640.299	15357
640.359	15249
640.420	16049
640.480	16486
640.540	17316
640.600	17955
640.661	18158
640.721	16091
640.781	19998
640.841	19770
640.901	17419
640.961	15666
641.021	16318
641.082	16657
641.142	18307
641.202	17377
641.262	13673
641.322	15626
641.382	14835
641.442	14935
641.502	15164
641.562	15603
641.622	15028
641.682	15587
641.742	16536
641.802	15431
641.861	16062
641.921	14546
641.981	15881
642.041	14177
642.101	17096
642.161	14944
642.221	15155
642.280	13442
642.340	14041
642.400	13468
642.460	15540
642.519	14223
642.579	15225
642.639	13321
642.698	12923
642.758	16154
642.818	14325
642.877	14454
642.937	15238
642.997	15567
643.056	18306
643.116	14835
643.175	15952
643.235	15002
643.294	14505
643.354	15139
643.414	17165
643.473	19809
643.532	21711
643.592	25932
643.651	36528
643.711	58477
643.770	106295
643.830	232298
643.889	578224
643.948	243513
644.008	41745
644.067	24549
644.126	20211
644.186	16993
644.245	17077
644.304	13424
644.363	16187
644.423	13637
644.482	13806
644.541	14232
644.600	14405
644.659	17445
644.719	20756
644.778	27148
644.837	40177
644.896	72943
644.955	184718
645.014	102640
645.073	24870
645.132	17142
645.191	17084
645.250	14738
645.309	16564
645.368	16009
645.427	19247
645.486	24232
645.545	47417
645.604	23105
645.663	14421
645.722	13700
645.781	15619
645.840	15629
645.898	19457
645.957	24129
646.016	32949
646.075	55153
646.134	102791
646.192	237843
646.251	484877
646.310	123091
646.369	29146
646.427	21670
646.486	18683
646.545	15166
646.603	15415
646.662	12655
646.721	14006
646.779	12802
646.838	12561
646.896	15342
646.955	18014
647.014	26751
647.072	44169
647.131	113382
647.189	89750
647.248	16242
647.306	13159
647.365	12366
647.423	10117
647.481	11568
647.540	10569
647.598	11846
647.657	10676
647.715	10415
647.773	10433
647.832	11280
647.890	8992
647.948	10102
648.007	11141
648.065	9599
648.123	10055
648.181	12006
648.240	12243
648.298	10704
648.356	9892
648.414	10514
648.472	11042
648.531	9967
648.589	10096
648.647	9168
648.705	9616
648.763	9553
648.821	10052
648.879	9037
648.937	11221
648.995	11764
649.053	14204
649.111	18902
649.169	29348
649.227	46693
649.285	88550
649.343	260331
649.401	207982
649.459	36473
649.516	24431
649.574	16131
649.632	24921
649.690	33475
649.748	22227
649.806	24469
649.863	43175
649.921	79004
649.979	82126
650.037	15903
650.094	9103
650.152	9455
650.210	9377
650.268	9550
650.325	9958
650.383	11411
650.440	8619
650.498	7963
650.556	8063
650.613	7469
650.671	7960
650.728	8245
650.786	9211
650.843	9109
650.901	8679
650.958	8900
651.016	7485
651.073	7774
651.131	7327
651.188	6487
651.246	7830
651.303	6564
651.360	7420
651.418	6355
651.475	7349
651.532	5727
651.590	7702
651.647	5462
651.704	7248
651.762	6915
651.819	6953
651.876	6340
651.933	6944
651.990	7432
652.048	5441
652.105	6289
652.162	6603
652.219	5779
652.276	6089
652.333	6023
652.390	5976
652.448	6456
652.505	6885
652.562	5827
652.619	7656
652.676	9655
652.733	13048
652.790	6357
652.847	4984
652.904	5727
652.961	5348
653.017	5351
653.074	5962
653.131	6016
653.188	5780
653.245	5179
653.302	6322
653.359	5431
653.415	6702
653.472	6204
653.529	6613
653.586	4886
653.642	5644
653.699	6911
653.756	5405
653.813	5371
653.869	6547
653.926	4872
653.983	5512
654.039	5197
654.096	6088
654.152	6685
654.209	5238
654.266	6005
654.322	4670
654.379	6456
654.435	6858
654.492	6241
654.548	8003
654.605	10079
654.661	8792
654.717	6264
654.774	6571
654.830	6532
654.887	6543
654.943	5844
655.000	6886
655.056	5835
655.112	6417
655.168	6019
655.225	6260
655.281	7144
655.337	7351
655.394	10349
655.450	9710
655.506	7813
655.562	10672
655.618	11896
655.675	5376
655.731	5427
655.787	5370
655.843	6051
655.899	4984
655.955	5921
656.011	5723
656.067	4182
656.123	5942
656.179	5119
656.235	7045
656.291	4976
656.347	6884
656.403	4999
656.459	6044
656.515	5699
656.571	6593
656.627	5853
656.683	4887
656.739	5370
656.795	5552
656.850	4766
656.906	6742
656.962	6221
657.018	5209
657.074	5753
657.129	7492
657.185	9385
657.241	13249
657.297	12230
657.352	6496
657.408	4452
657.464	6760
657.519	6218
657.575	5218
657.630	4628
657.686	5601
657.742	4531
657.797	5781
657.853	4579
657.908	7183
657.964	4257
658.019	5698
658.075	4855
658.130	5929
658.186	3593
658.241	5412
658.297	4093
658.352	5526
658.407	6644
658.463	5293
658.518	5492
658.573	5618
658.629	3823
658.684	5461
658.739	5186
658.795	4245
658.850	5062
658.905	4790
658.960	5565
659.016	4594
659.071	4992
659.126	5151
659.181	4804
659.236	7462
659.291	7822
659.346	6469
659.401	6097
659.457	7272
659.512	8564
659.567	7812
659.622	5458
659.677	5013
659.732	3496
659.787	5781
659.842	5006
659.897	7236
659.952	5678
660.007	5229
660.061	4643
660.116	4559
660.171	5002
660.226	6137
660.281	5964
660.336	3971
660.391	5338
660.445	5099
660.500	4337
660.555	5674
660.610	4719
660.664	6065
660.719	4147
660.774	5200
660.828	5122
660.883	4402
660.938	5178
660.992	5108
661.047	5443
661.101	4555
661.156	4785
661.211	3720
661.265	4855
661.320	5088
661.374	4657
661.429	5383
661.483	5445
661.538	4642
661.592	4465
661.647	4908
661.701	5816
661.755	5105
661.810	4604
661.864	4871
661.919	4237
661.973	5430
662.027	4691
662.081	4724
662.136	4842
662.190	5767
662.244	5451
662.299	4606
662.353	5909
662.407	4770
662.461	4576
662.515	5696
662.569	4265
662.624	6139
662.678	3827
662.732	4668
662.786	4884
662.840	5880
662.894	5164
662.948	4471
663.002	4016
663.056	5900
663.110	3950
663.164	5493
663.218	5226
663.272	4898
663.326	4872
663.380	5089
663.434	5903
663.488	4803
663.542	4426
663.595	4902
663.649	5080
663.703	5150
663.757	4487
663.811	4072
663.864	4837
663.918	5804
663.972	3879
664.026	4884
664.079	4200
664.133	5062
664.187	4448
664.240	5145
664.294	4161
664.348	5914
664.401	4376
664.455	4403
664.508	4589
664.562	4866
664.615	4351
664.669	5260
664.722	4347
664.776	4452
664.829	4333
664.883	4765
664.936	3983
664.990	5881
665.043	4853
665.097	5150
665.150	6665
665.203	5316
665.257	6008
665.310	5554
665.363	4894
665.417	5620
665.470	4393
665.523	4773
665.576	4671
665.630	4775
665.683	5217
665.736	4989
665.789	4652
665.842	4814
665.895	4875
665.949	5692
666.002	4837
666.055	5727
666.108	6105
666.161	6229
666.214	4158
666.267	5314
666.320	5300
666.373	5392
666.426	5082
666.479	5680
666.532	4890
666.585	4533
666.638	6741
666.691	5946
666.744	6877
666.796	6225
666.849	5700
666.902	6057
666.955	4747
667.008	5252
667.060	4646
667.113	4591
667.166	4217
667.219	4923
667.271	5177
667.324	5695
667.377	4829
667.430	5718
667.482	5407
667.535	5995
667.587	4662
667.640	5837
667.693	4440
667.745	6676
667.798	7697
667.850	5565
667.903	4804
667.955	4931
668.008	5018
668.060	6017
668.113	5498
668.165	6825
668.218	5467
668.270	5711
668.322	4783
668.375	5244
668.427	5644
668.479	4823
668.532	4428
668.584	5820
668.636	4300
668.689	5625
668.741	5192
668.793	5485
668.845	4583
668.898	6067
668.950	4824
669.002	5578
669.054	4862
669.106	4995
669.158	5811
669.211	5156
669.263	4559
669.315	6262
669.367	6522
669.419	5600
669.471	6154
669.523	5660
669.575	6283
669.627	5735
669.679	4960
669.731	4669
669.783	6085
669.835	6250
669.886	5180
669.938	5562
669.990	5224
670.042	5188
670.094	5339
670.146	6112
670.197	6389
670.249	7128
670.301	7101
670.353	9465
670.404	10954
670.456	15356
670.508	22286
670.560	36398
670.611	57774
670.663	99979
670.715	205491
670.766	378400
670.818	197786
670.869	39661
670.921	17726
670.972	12737
671.024	10333
671.075	8370
671.127	7032
671.178	7245
671.230	6955
671.281	7041
671.333	5921
671.384	6942
671.436	7855
671.487	8019
671.538	9228
671.590	13680
671.641	17815
671.692	28433
671.744	52458
671.795	51756
671.846	20291
671.897	11639
671.949	8379
672.000	7981
672.051	5484
672.102	6500
672.153	4990
672.204	5675
672.256	5335
672.307	4659
672.358	5655
672.409	6580
672.460	5278
672.511	5022
672.562	5052
672.613	5175
672.664	4586
672.715	5328
672.766	4990
672.817	4346
672.868	4108
672.919	4796
672.970	4058
673.021	4776
673.071	4233
673.122	4345
673.173	3751
673.224	5018
673.275	3821
673.326	4014
673.376	4693
673.427	3596
673.478	4032
673.528	4962
673.579	4209
673.630	4722
673.680	4570
673.731	3516
673.782	3918
673.832	4641
673.883	4079
673.934	3251
673.984	3700
674.035	4759
674.085	4028
674.136	5197
674.186	3835
674.237	4978
674.287	7561
674.338	6552
674.388	4324
674.438	3500
674.489	3733
674.539	3592
674.589	4472
674.640	4586
674.690	4755
674.740	4543
674.791	4554
674.841	4778
674.891	4666
674.942	4524
674.992	3835
675.042	3078
675.092	3629
675.142	4343
675.193	3635
675.243	4494
675.293	3666
675.343	4185
675.393	3434
675.443	4712
675.493	3480
675.543	4230
675.593	3695
675.643	4293
675.693	3700
675.743	4788
675.793	3947
675.843	4108
675.893	4308
675.943	3852
675.993	2819
676.043	3773
676.093	3939
676.142	3611
676.192	4271
676.242	3555
676.292	3279
676.341	3516
676.391	4669
676.441	3863
676.491	3030
676.540	2909
676.590	2781
676.640	2919
676.689	2581
676.739	3228
676.789	2818
676.838	3410
676.888	3232
676.937	3775
676.987	3452
677.037	3624
677.086	2029
677.136	3580
677.185	2515
677.235	2151
677.284	2630
677.333	2565
677.383	3096
677.432	3034
677.482	3104
677.531	3241
677.580	3312
677.630	2545
677.679	2434
677.728	2886
677.778	3230
677.827	2944
677.876	2733
677.925	2334
677.975	3452
678.024	3674
678.073	2534
678.122	3075
678.171	3188
678.220	3003
678.269	3723
678.319	4081
678.368	3658
678.417	3763
678.466	4101
678.515	3599
678.564	3085
678.613	3462
678.662	2722
678.711	3490
678.760	3137
678.809	3501
678.857	2711
678.906	4429
678.955	2715
679.004	3223
679.053	2816
679.102	4222
679.151	4070
679.199	3242
679.248	2106
679.297	3150
679.346	3234
679.394	2752
679.443	3337
679.492	2755
679.540	2056
679.589	3422
679.638	3232
679.686	2750
679.735	2779
679.784	3256
679.832	3385
679.881	2988
679.929	2599
679.978	2297
680.026	2204
680.075	3993
680.123	1619
680.172	2960
680.220	2415
680.268	2657
680.317	3074
680.365	1853
680.414	2136
680.462	2955
680.510	3331
680.559	3292
680.607	2258
680.655	2756
680.703	2739
680.752	2877
680.800	2387
680.848	3331
680.896	3127
680.945	3018
680.993	1435
681.041	2595
681.089	1790
681.137	2101
681.185	1886
681.233	2105
681.258	2278
681.281	2401
681.329	2357
681.377	2380
681.380	2475
681.425	3438
681.473	2962
681.502	3229
681.521	3340
681.569	3441
681.617	3115
681.624	3027
681.665	2134
681.713	4132
681.745	3762
681.761	3518
681.809	3616
681.857	2792
681.867	2941
681.904	3307
681.952	3104
681.989	3589
682.000	3687
682.048	3180
682.096	3572
682.111	3469
682.143	3106
682.191	4081
682.233	4154
682.239	4126
682.286	4360
682.334	3958
682.354	3756
682.382	3380
682.430	4428
682.476	4820
682.477	4791
682.525	3860
682.572	4920
682.598	4889
682.620	4832
682.667	4394
682.715	4709
682.720	4774
682.763	5028
682.810	4662
682.841	5250
682.857	5492
682.905	4779
682.952	5033
682.963	5080
683.000	5047
683.047	5650
683.085	6098
683.095	6202
683.142	5550
683.190	4967
683.206	5143
683.237	5375
683.284	5610
683.328	6012
683.332	6007
683.379	5191
683.426	5544
683.449	5725
683.473	5884
683.521	5764
683.568	6051
683.571	6080
683.615	6071
683.662	6385
683.693	6544
683.709	6587
683.757	5461
683.804	7001
683.814	6817
683.851	6027
683.898	7298
683.936	6593
683.945	6389
683.992	6916
684.039	6858
684.057	7048
684.086	7304
684.133	7670
684.179	7133
684.180	7087
684.227	6883
684.274	7335
684.300	7785
684.321	8130
684.368	7058
684.415	7154
684.422	7275
684.462	7824
684.509	7488
684.543	7360
684.556	7314
684.603	7284
684.649	7575
684.665	7898
684.696	8451
684.743	8112
684.786	7541
684.790	7470
684.837	8465
684.883	8465
684.908	8746
684.930	9027
684.977	8817
685.023	9279
685.029	9284
685.070	9067
685.117	8803
685.150	8887
685.164	8914
685.210	9097
685.257	10628
685.272	10524
685.303	10132
685.350	9336
685.393	9561
685.396	9576
685.443	9380
685.490	10733
685.514	10384
685.536	10001
685.583	10535
685.629	10407
685.636	10411
685.675	10276
685.722	10447
685.757	10025
685.768	9921
685.815	9870
685.861	11064
685.878	11068
685.908	10984
685.954	10540
686.000	10725
686.000	10721
686.047	11245
686.093	12050
686.121	12246
686.139	12281
686.185	12373
686.232	12062
686.242	11916
686.278	11183
686.324	11374
686.363	11009
686.370	10942
686.416	11034
686.463	10985
686.484	11010
686.509	11169
686.555	11146
686.601	11396
686.606	11401
686.647	11409
686.693	11660
686.727	11307
686.739	11129
686.785	12025
686.831	11503
686.848	11612
686.877	11832
686.923	11387
686.969	11809
686.969	11809
687.015	11420
687.061	11432
687.090	11857
687.107	12084
687.153	12565
687.199	12353
687.211	12286
687.245	11973
687.291	12462
687.332	12083
687.336	12088
687.382	12657
687.428	13194
687.453	12895
687.474	12411
687.520	12542
687.565	12453
687.574	12412
687.611	12664
687.657	12946
687.695	13204
687.702	13298
687.748	14179
687.794	15351
687.816	15331
687.839	14725
687.885	13846
687.931	12835
687.937	12763
687.976	12887
688.022	12775
688.058	13204
688.067	13348
688.113	13574
688.158	13384
688.179	13415
688.204	13342
688.249	13324
688.295	13208
688.300	13275
688.340	14302
688.386	14635
688.421	14916
688.431	14867
688.477	14701
688.522	14770
688.542	14483
688.567	14231
688.613	14463
688.658	13709
688.663	13760
688.703	14296
688.749	14149
688.784	14472
688.794	14607
688.839	14340
688.884	14317
688.905	14300
688.930	14241
688.975	14554
689.020	14730
689.026	14752
689.065	15196
689.110	15285
689.146	15488
689.155	15505
689.201	15189
689.246	15358
689.267	15405
689.291	15403
689.336	15057
689.381	14814
689.388	14759
689.426	14741
689.471	14771
689.509	14878
689.516	14930
689.561	15128
689.606	14582
689.630	14721
689.651	14809
689.696	14986
689.741	15105
689.750	15081
689.785	15106
689.830	14786
689.871	14616
689.875	14630
689.920	15078
689.965	15780
689.992	15291
690.010	15026
690.054	15472
690.099	15619
690.112	15684
690.144	15734
690.189	15642
690.233	15469
690.233	15488
690.278	15452
690.323	15318
690.354	15073
690.367	15061
690.412	15712
690.457	15768
690.474	15764
690.501	15814
690.546	16128
690.590	16102
690.595	16064
690.635	15963
690.680	16505
690.716	16416
690.724	16605
690.769	17888
690.813	19191
690.836	19546
690.857	20406
690.902	22912
690.946	25528
690.957	25981
690.991	32613
691.035	42477
691.077	51878
691.080	51999
691.124	51406
691.168	49442
691.198	48888
691.213	45815
691.257	36386
691.301	26972
691.318	23426
691.346	22556
691.390	20349
691.434	18682
691.439	18483
691.478	18172
691.522	17893
691.559	17357
691.567	17416
691.611	17558
691.655	17839
691.680	17727
691.699	17654
691.743	18408
691.787	18189
691.800	18181
691.831	18273
691.875	18338
691.919	18732
691.921	18700
691.964	18573
692.008	18521
692.041	18259
692.052	18193
692.096	18352
692.139	17990
692.162	17842
692.183	17928
692.227	18119
692.271	18454
692.282	18404
692.315	18246
692.359	18224
692.402	18261
692.403	18297
692.447	18339
692.490	18196
692.523	18260
692.534	18391
692.578	18622
692.622	18889
692.643	18897
692.666	18822
692.709	19025
692.753	18532
692.763	18462
692.797	18427
692.840	18648
692.884	18863
692.884	18905
692.928	18911
692.971	19273
693.004	19310
693.015	19271
693.059	19332
693.102	19216
693.124	18968
693.146	18930
693.189	19040
693.233	19471
693.245	19456
693.276	19976
693.320	20922
693.363	21260
693.365	21239
693.407	22104
693.450	23276
693.485	23806
693.493	24183
693.537	25932
693.580	28143
693.605	29231
693.624	31743
693.667	37630
693.710	43400
693.725	45605
693.753	59081
693.797	79899
693.840	101412
693.845	103646
693.883	101375
693.926	97547
693.966	94773
693.970	92852
694.013	70847
694.056	49176
694.086	34044
694.099	32914
694.142	29292
694.185	25820
694.206	23924
694.229	23470
694.272	22906
694.315	21987
694.326	21816
694.358	21859
694.401	21318
694.444	21217
694.446	21150
694.487	20921
694.530	20871
694.566	20516
694.573	20505
694.616	20481
694.659	20272
694.686	20218
694.702	20173
694.745	19571
694.787	18963
694.806	18827
694.830	19063
694.873	19499
694.916	19425
694.926	19416
694.959	19576
695.002	19437
695.044	19814
695.046	19770
695.087	19840
695.130	20148
695.166	20121
695.172	20161
695.215	20105
695.258	20173
695.286	20037
695.301	20061
695.343	20269
695.386	20317
695.406	20263
695.428	20170
695.471	20126
695.514	19872
695.526	19803
695.556	20381
695.599	20897
695.641	21660
695.646	21674
695.684	21625
695.726	21539
695.766	21450
695.769	21498
695.811	21413
695.854	21236
695.886	21235
695.896	21267
695.938	20930
695.981	20599
696.005	20419
696.023	20649
696.065	21188
696.108	21411
696.125	21559
696.150	21974
696.192	22654
696.235	22963
696.245	23070
696.277	23120
696.319	23118
696.361	22830
696.365	22765
696.404	22950
696.446	23031
696.485	23136
696.488	23191
696.530	22916
696.572	22917
696.604	22729
696.614	22727
696.656	22582
696.698	22352
696.724	22180
696.740	22260
696.783	22174
696.825	22394
696.844	22277
696.867	22309
696.909	22598
696.951	22679
696.964	22663
696.992	22581
697.034	22276
697.076	22134
697.083	22033
697.118	22364
697.160	22748
697.202	23115
697.203	23066
697.244	23083
697.286	22950
697.323	22856
697.327	22897
697.369	22716
697.411	22515
697.442	22259
697.453	22386
697.494	22796
697.536	23084
697.562	23236
697.578	23270
697.620	23185
697.661	23096
697.682	23009
697.703	23101
697.744	23148
697.786	23195
697.801	23129
697.828	23319
697.869	23538
697.911	23777
697.921	23781
697.952	23567
697.994	23217
698.035	22802
698.040	22693
698.077	23142
698.118	23522
698.160	24071
698.160	24011
698.201	23819
698.243	23636
698.279	23402
698.284	23511
698.325	23970
698.367	24375
698.399	24637
698.408	24697
698.449	24662
698.491	24635
698.518	24559
698.532	24727
698.573	25051
698.614	25333
698.638	25430
698.656	25262
698.697	24743
698.738	24196
698.757	23875
698.779	24453
698.820	25440
698.862	26403
698.877	26700
698.903	26542
698.944	26158
698.985	25779
698.996	25606
699.026	25581
699.067	25453
699.116	25234
699.235	24818
699.354	25206
699.474	24985
699.593	25033
699.713	25584
699.832	24075
699.951	24258
700.070	24705
700.190	23939
700.309	24054
700.428	23126
700.547	23733
700.667	23777
700.786	22776
700.905	22307
701.024	22691
701.143	23730
701.262	22343
701.381	22446
701.500	22515
701.619	22645
701.738	22245
701.857	22289
701.976	22406
702.095	20323
702.214	23185
702.333	22170
702.452	21894
702.571	21927
702.690	22217
702.809	22560
702.928	20434
703.047	21431
703.165	21818
703.284	20315
703.403	19974
703.522	21210
703.640	21324
703.759	21566
703.878	24730
703.997	21059
704.115	20281
704.234	19598
704.353	20703
704.471	20012
704.590	18927
704.708	19190
704.827	18774
704.946	19446
705.064	19751
705.183	20268
705.301	21643
705.420	28894
705.538	27629
705.656	25480
705.775	24380
705.893	35341
706.012	50845
706.130	26336
706.249	24409
706.367	23360
706.485	23762
706.604	23883
706.722	22649
706.840	26080
706.958	29958
707.077	26933
707.195	21921
707.313	22795
707.431	21486
707.549	21799
707.668	21031
707.786	22028
707.904	21825
708.022	21233
708.140	21801
708.258	21299
708.376	21246
708.494	21146
708.612	22507
708.730	28470
708.848	28594
708.966	25901
709.084	24860
709.202	24990
709.320	25203
709.438	25208
709.556	25037
709.674	24518
709.791	24931
709.909	24133
710.027	24907
710.145	23750
710.263	24596
710.380	23298
710.498	23378
710.616	24036
710.733	22899
710.851	23490
710.969	24333
711.086	23427
711.204	22728
711.322	22792
711.439	22566
711.557	22490
711.674	22356
711.792	22196
711.909	23680
712.027	24870
712.144	21503
712.262	22559
712.379	22787
712.497	30886
712.614	32563
712.732	27239
712.849	25341
712.966	25473
713.084	28982
713.201	26972
713.318	26699
713.436	26382
713.553	26873
713.670	27528
713.787	28102
713.905	27099
714.022	26027
714.139	25694
714.256	27090
714.373	29130
714.490	39542
714.608	68206
714.725	242037
714.842	344683
714.959	45939
715.076	27941
715.193	26012
715.310	25114
715.427	23693
715.544	22418
715.661	23263
715.778	22343
715.895	24456
716.011	24016
716.128	23347
716.245	22587
716.362	23408
716.479	23108
716.596	21395
716.713	22632
716.829	21055
716.946	22143
717.063	20628
717.180	21068
717.296	21069
717.413	20823
717.530	21175
717.646	20310
717.763	20259
717.880	19443
717.996	19654
718.113	20142
718.229	19881
718.346	19066
718.462	18634
718.579	20001
718.695	21780
718.812	22159
718.928	21388
719.045	19899
719.161	18258
719.277	18918
719.394	18017
719.510	19906
719.626	19094
719.743	22585
719.859	24372
719.975	32293
720.092	81675
720.208	213871
720.324	49188
720.440	21054
720.557	20710
720.673	21621
720.789	25934
720.905	44686
721.021	26538
721.137	18684
721.253	18690
721.369	18109
721.486	18851
721.602	22129
721.718	17433
721.834	15796
721.950	17010
722.066	15674
722.181	16330
722.297	16460
722.413	16234
722.529	16341
722.645	15652
722.761	15657
722.877	15861
722.993	15439
723.108	16757
723.224	15937
723.340	15608
723.456	15050
723.571	15739
723.687	14916
723.803	15156
723.918	14383
724.034	15509
724.150	14947
724.265	15240
724.381	21645
724.497	27063
724.612	15523
724.728	14638
724.843	14016
724.959	14284
725.074	20115
725.190	25270
725.305	14735
725.421	14058
725.536	13385
725.651	13626
725.767	13436
725.882	13673
725.997	13797
726.113	13426
726.228	12728
726.343	13366
726.459	11778
726.574	13795
726.689	12939
726.804	12587
726.920	13712
727.035	12886
727.150	13283
727.265	12387
727.380	12711
727.495	12715
727.610	12105
727.725	12868
727.841	14929
727.956	20583
728.071	22583
728.186	13903
728.301	12544
728.416	12352
728.531	12805
728.645	11758
728.760	12833
728.875	11937
728.990	11940
729.105	12301
729.220	12173
729.335	12405
729.449	11793
729.564	11075
729.679	10916
729.794	11797
729.908	11627
730.023	12114
730.138	11302
730.253	11351
730.367	11828
730.482	11110
730.596	11297
730.711	11812
730.826	13075
730.940	13787
731.055	11660
731.169	10438
731.284	10615
731.398	11934
731.513	12972
731.627	11858
731.742	13510
731.856	14407
731.970	13298
732.085	13110
732.199	15865
732.313	21344
732.428	41288
732.542	112878
732.656	91987
732.771	20506
732.885	15826
732.999	14076
733.113	14844
733.227	14796
733.342	13859
733.456	13186
733.570	13266
733.684	12601
733.798	12572
733.912	12444
734.026	12528
734.140	12303
734.254	12792
734.368	16251
734.482	20024
734.596	12890
734.710	12014
734.824	11910
734.938	12694
735.052	12165
735.166	12691
735.280	13312
735.393	11710
735.507	11767
735.621	13318
735.735	18054
735.849	13205
735.962	11094
736.076	12806
736.190	11584
736.303	13618
736.417	15160
736.531	12325
736.644	12429
736.758	11058
736.872	12003
736.985	9767
737.099	11020
737.212	10305
737.326	9982
737.439	10654
737.553	11109
737.666	10549
737.780	10832
737.893	10383
738.007	9708
738.120	11012
738.233	10364
738.347	11136
738.460	10306
738.573	10810
738.687	10265
738.800	10530
738.913	10698
739.026	10951
739.140	10263
739.253	11982
739.366	10042
739.479	10004
739.592	9938
739.705	9072
739.818	10705
739.932	10994
740.045	10102
740.158	10143
740.271	10234
740.384	11118
740.497	8715
740.610	10230
740.723	9859
740.836	8926
740.949	9328
741.062	10600
741.174	10577
741.287	10080
741.400	10222
741.513	9694
741.626	9671
741.739	9232
741.851	9195
741.964	9169
742.077	9070
742.189	8872
742.302	9745
742.415	9090
742.527	9172
742.640	10040
742.753	9002
742.865	9400
742.978	9524
743.090	9032
743.203	9185
743.316	9229
743.428	8550
743.541	8785
743.653	8653
743.766	8954
743.878	9336
743.990	9915
744.103	10269
744.215	8912
744.327	8929
744.440	9098
744.552	10080
744.664	9061
744.777	8824
744.889	8450
745.001	8964
745.113	8565
745.226	8404
745.338	8944
745.450	8956
745.562	8924
745.674	8575
745.786	8713
745.898	8672
746.010	8290
746.122	8990
746.234	8608
746.347	8497
746.459	9762
746.570	7319
746.682	8504
746.794	8982
746.906	8009
747.018	8612
747.130	8780
747.242	8346
747.354	8548
747.466	8357
747.577	8213
747.689	8492
747.801	8604
747.913	7007
748.024	7356
748.136	7777
748.248	7153
748.359	8102
748.471	8267
748.583	8181
748.694	8864
748.806	10149
748.918	9090
749.029	8839
749.141	8155
749.252	9432
749.364	7946
749.475	8952
749.587	9354
749.698	7959
749.809	8256
749.921	7271
750.032	8697
750.144	7850
750.255	7507
750.366	6898
750.478	7936
750.589	8015
750.700	6990
750.811	7870
750.923	8248
751.034	9060
751.145	10560
751.256	7710
751.367	8921
751.479	6681
751.590	6752
751.701	7408
751.812	7687
751.923	7165
752.034	7792
752.145	7653
752.256	7968
752.367	7751
752.478	7190
752.589	8222
752.700	7736
752.811	7337
752.922	6776
753.032	6992
753.143	8334
753.254	8654
753.365	8369
753.476	7604
753.586	7682
753.697	7932
753.808	7319
753.919	6915
754.029	8326
754.140	7617
754.251	7092
754.361	8037
754.472	7416
754.582	7484
754.693	7477
754.804	7969
754.914	7485
755.025	6930
755.135	6857
755.246	7461
755.356	7510
755.466	8066
755.577	7243
755.687	7274
755.798	7157
755.908	7626
756.018	7742
756.129	7553
756.239	8011
756.349	8821
756.460	7752
756.570	7696
756.680	8049
756.790	7699
756.900	8735
757.011	7978
757.121	7658
757.231	8093
757.341	8317
757.451	7769
757.561	7606
757.671	7424
757.781	7794
757.891	8117
758.001	8186
758.111	8270
758.221	8163
758.331	8407
758.441	9406
758.551	9482
758.661	8905
758.771	8705
758.880	9137
758.990	9351
759.100	8648
759.210	8595
759.320	8943
759.429	9049
759.539	9589
759.649	9912
759.758	9919
759.868	10439
759.978	9277
760.087	10449
760.197	10345
760.307	9891
760.416	10248
760.526	9486
760.635	10692
760.745	10343
760.854	10310
760.964	11735
761.073	10560
761.182	11505
761.292	11379
761.401	10734
761.511	10867
761.620	11168
761.729	10800
761.839	11581
761.948	11292
762.057	11841
762.166	11914
762.276	11396
762.385	12617
762.494	13108
762.603	13084
762.712	13266
762.822	14047
762.931	13721
763.040	13401
763.149	14109
763.258	15260
763.367	16115
763.476	15587
763.585	16341
763.694	17528
763.803	17734
763.912	18862
764.021	20121
764.130	19996
764.238	21462
764.347	22446
764.456	23991
764.565	25253
764.674	27818
764.783	29542
764.891	32092
765.000	36202
765.109	39837
765.217	45287
765.326	53145
765.435	62121
765.543	73586
765.652	91679
765.761	114334
765.869	153050
765.978	211829
766.086	301627
766.195	438593
766.303	595041
766.412	541657
766.520	449316
766.629	555080
766.737	459441
766.846	323133
766.954	228653
767.062	169234
767.171	131777
767.279	102193
767.387	82650
767.496	69353
767.604	59559
767.712	52119
767.820	47280
767.928	44607
768.037	39678
768.145	38403
768.253	35112
768.361	34836
768.469	35123
768.577	35367
768.685	37224
768.793	39506
768.901	42093
769.009	48045
769.117	55206
769.225	69625
769.333	92529
769.441	131799
769.549	208160
769.657	347794
769.765	532892
769.873	469520
769.981	473500
770.088	384557
770.196	241479
770.304	158802
770.412	112501
770.519	83461
770.627	68189
770.735	54918
770.842	47730
770.950	41039
771.058	37502
771.165	32721
771.273	30054
771.380	28851
771.488	26496
771.595	25186
771.703	23082
771.810	22603
771.918	19821
772.025	20135
772.133	18933
772.240	18838
772.348	19038
772.455	18917
772.562	16463
772.670	15572
772.777	16540
772.884	14456
772.991	14717
773.099	15585
773.206	14377
773.313	14006
773.420	13628
773.528	13243
773.635	12671
773.742	13061
773.849	12643
773.956	11996
774.063	12601
774.170	11883
774.277	12549
774.384	12093
774.491	11958
774.598	12077
774.705	10483
774.812	10680
774.919	11437
775.026	11768
775.133	11385
775.239	11473
775.346	10379
775.453	10607
775.560	10475
775.667	10757
775.773	10479
775.880	10028
775.987	9601
776.093	9529
776.200	9916
776.307	9307
776.413	9522
776.520	9762
776.627	9349
776.733	9336
776.840	7931
776.946	10004
777.053	9502
777.159	9562
777.266	8420
777.372	9077
777.478	8867
777.585	9038
777.691	7817
777.798	8614
777.904	9234
778.010	10200
778.117	9392
778.223	8497
778.329	8246
778.435	8086
778.542	8550
778.648	8004
778.754	7967
778.860	8778
778.966	8328
779.072	8006
779.178	8361
779.284	7331
779.391	7676
779.497	8473
779.603	10738
779.708	12487
779.815	22621
779.920	65386
780.026	161280
780.132	44061
780.238	11722
780.344	8877
780.450	9092
780.556	8363
780.661	7072
780.767	8092
780.873	6933
780.979	6796
781.085	5731
781.190	7500
781.296	6604
781.402	7095
781.507	6495
781.613	6647
781.719	7162
781.824	7342
781.930	7225
782.035	7267
782.141	7384
782.246	6500
782.352	5749
782.457	6724
782.563	6530
782.668	6505
782.773	6015
782.879	6201
782.984	7341
783.090	6772
783.195	7114
783.300	7514
783.405	6419
783.511	5851
783.616	6766
783.721	6384
783.826	5963
783.932	6147
784.037	6325
784.142	6827
784.247	6396
784.352	6131
784.457	5390
784.562	5785
784.667	6410
784.772	5242
784.877	5186
784.982	5046
785.087	5451
785.192	5883
785.297	5502
785.402	5883
785.507	5217
785.611	5649
785.716	4959
785.821	5021
785.926	5248
786.031	4893
786.135	5062
786.240	5443
786.345	4799
786.450	4960
786.554	5997
786.659	5380
786.763	3427
786.868	5139
786.973	5707
787.077	5098
787.182	4123
787.286	5286
787.391	4839
787.495	4827
787.600	4538
787.704	4470
787.809	4808
787.913	4139
788.017	5260
788.122	5348
788.226	4641
788.330	5018
788.435	4857
788.539	4779
788.643	4936
788.747	4312
788.852	4532
788.956	5037
789.060	5013
789.164	4430
789.268	3831
789.372	4903
789.476	4142
789.580	3913
789.684	4463
789.788	5646
789.892	3788
789.996	5159
790.100	4871
790.204	4515
790.308	5252
790.412	4752
790.516	5564
790.620	5030
790.724	4437
790.828	4582
790.931	3854
791.035	4705
791.139	5471
791.242	4223
791.346	4519
791.450	4356
791.554	4896
791.657	3586
791.761	5098
791.864	5190
791.968	4420
792.072	4926
792.175	4197
792.279	4384
792.382	4557
792.486	4639
792.589	3395
792.693	4553
792.796	4563
792.899	4476
793.003	4515
793.106	3554
793.209	5092
793.313	4728
793.416	2549
793.519	4629
793.623	4406
793.726	5547
793.829	4207
793.932	3803
794.035	3870
794.138	4298
794.242	6334
794.345	5540
794.448	7421
794.551	12884
794.654	37375
794.757	98742
794.860	29819
794.963	7256
795.066	4930
795.169	5311
795.272	4558
795.375	4837
795.477	4214
795.580	4809
795.683	3371
795.786	4221
795.889	3846
795.991	4842
796.094	3982
796.197	4171
796.300	4131
796.402	3237
796.505	3039
796.608	3446
796.710	3315
796.813	3920
796.915	4283
797.018	3575
797.120	4215
797.223	2793
797.326	4086
797.428	3754
797.530	3670
797.633	3545
797.735	4893
797.838	4509
797.940	4898
798.042	3617
798.145	2961
798.247	4333
798.349	3053
798.452	3157
798.554	2875
798.656	3161
798.758	3324
798.860	3251
798.962	3562
799.065	3599
799.167	2623
799.269	3994
799.371	3685
799.473	3878
799.575	4229
799.677	3411
799.779	3875
799.881	2921
799.983	3893
800.085	2723
800.187	3417
800.289	3138
800.390	2704
800.492	3961
800.594	3504
800.696	3308
800.798	3232
800.899	3078
801.001	2899
801.103	2208
801.205	2793
801.306	3075
801.408	3254
801.509	3000
801.611	3030
801.713	2619
801.814	2407
801.916	3204
802.017	2911
802.119	2546
802.220	2714
802.322	1896
802.423	4968
802.525	2891
802.626	3417
802.727	3226
802.829	2816
802.930	1296
803.031	4015
803.133	2620
803.234	2693
803.335	3004
803.436	2515
803.538	2950
803.639	2932
803.740	2953
803.841	1771
803.942	2781
804.043	3281
804.144	2802
804.245	2444
804.346	3253
804.447	2184
804.548	3261
804.649	3630
804.750	2705
804.851	2551
804.952	2284
805.053	2671
805.154	2357
805.255	4187
805.355	2542
805.456	2319
805.557	2109
805.658	1947
805.758	2721
805.859	3000
805.960	1488
806.061	1797
806.161	2125
806.262	3224
806.362	2281
806.463	2559
806.564	3290
806.664	3000
806.765	3359
806.865	3469
806.966	2629
807.066	1876
807.166	2766
807.267	2908
807.367	2338
807.468	3061
807.568	1673
807.668	3372
807.769	3282
807.869	3173
807.969	3280
808.069	2483
808.170	2107
808.270	944
808.370	2231
808.470	2314
808.570	2080
808.670	3020
808.770	2542
808.870	2071
808.970	2688
809.070	2595
809.170	1939
809.271	2543
809.370	2167
809.470	2219
809.570	2036
809.670	2077
809.770	2629
809.870	3290
809.970	3367
810.070	1178
810.169	1966
810.269	871
810.369	3650
810.469	2634
810.568	2202
810.668	1965
810.768	2002
810.867	3137
810.967	2398
811.066	2593
811.166	2798
811.265	2151
811.365	2154
811.464	2595
811.564	2760
811.663	1898
811.763	1157
811.862	1422
811.962	2254
812.061	2224
812.160	2474
812.260	1559
812.359	2494
812.458	2080
812.557	4506
812.657	6222
812.756	3541
812.855	2205
812.954	2532
813.053	2709
813.153	2757
813.252	1813
813.351	2639
813.450	1703
813.549	2127
813.648	2193
813.747	2031
813.846	3284
813.945	1994
814.044	1896
814.143	2022
814.242	2375
814.341	2030
814.439	3135
814.538	3078
814.637	1914
814.736	1579
814.835	3120
814.933	2099
815.032	1457
815.131	2650
815.229	3326
815.328	4908
815.427	3849
815.525	4602
815.624	3728
815.722	3950
815.821	4398
815.919	4168
816.018	3147
816.116	3985
816.215	4667
816.313	4184
816.412	4575
816.510	4530
816.609	5579
816.707	4827
816.805	5298
816.904	4284
817.002	4518
817.100	5483
817.198	5194
817.296	5254
817.395	5607
817.493	6625
817.591	6937
817.689	8306
817.787	9566
817.885	13913
817.983	22462
818.081	43614
818.179	92387
818.277	211311
818.375	223581
818.473	86623
818.571	34032
818.669	20887
818.767	18249
818.865	18476
818.963	19794
819.061	25859
819.158	40933
819.256	78551
819.354	157782
819.452	302360
819.549	244138
819.647	106833
819.745	47041
819.842	27703
819.940	19359
820.038	13212
820.135	10954
820.233	10674
820.330	9324
820.428	7105
820.525	7047
820.623	6460
820.720	4831
820.818	5636
820.915	5338
821.012	5790
821.110	4385
821.207	4730
821.304	4077
821.402	4513
821.499	4877
821.596	3659
821.693	3705
821.791	4775
821.888	3717
821.985	4787
822.082	4038
822.179	4051
822.276	3029
822.373	3529
822.470	3140
822.567	3865
822.664	3323
822.761	4128
822.858	2940
822.955	2711
823.052	3184
823.149	2595
823.246	3819
823.343	2936
823.440	3427
823.536	2856
823.633	2831
823.730	2680
823.827	1886
823.923	2798
824.020	3412
824.117	2042
824.213	2051
824.310	3308
824.407	2694
824.503	2979
824.600	2209
824.696	2572
824.793	3602
824.889	2792
824.986	2603
825.082	2684
825.179	3076
825.275	3181
825.371	2702
825.468	2926
825.564	1494
825.660	2347
825.757	3421
825.853	3329
825.949	1976
826.045	2811
826.142	1596
826.238	2908
826.334	2237
826.430	1460
826.526	2874
826.622	1262
826.718	1515
826.814	2396
826.910	3543
827.006	2487
827.102	2139
827.198	2662
827.294	2642
827.390	2384
827.486	2492
827.582	1418
827.678	1253
827.774	3005
827.869	2215
827.965	2885
828.061	1687
828.157	1716
828.252	2637
828.348	1938
828.444	1964
828.539	1406
828.635	2398
828.731	2055
828.826	1619
828.922	2954
829.017	1955
829.113	2736
829.208	2105
829.304	1799
829.399	3839
829.495	1737
829.590	2392
829.685	1782
829.781	2293
829.876	2721
829.971	2399
830.066	1524
830.162	1922
830.257	3037
830.352	2018
830.447	2663
830.543	2340
830.638	1421
830.733	2730
830.828	2455
830.923	2041
831.018	1806
831.113	1272
831.208	887
831.303	2335
831.398	1906
831.493	1679
831.588	4032
831.683	939
831.778	1499
831.873	1070
831.967	1839
832.062	1865
832.157	1067
832.252	1933
832.346	1072
832.441	2312
832.536	1809
832.631	3499
832.725	3195
832.820	1665
832.914	2145
833.009	1808
833.104	1578
833.198	2219
833.293	1064
833.387	1497
833.482	2384
833.576	838
833.670	2273
833.765	1343
833.859	1346
833.954	1764
834.048	1054
834.142	1146
834.237	715
834.331	1662
834.425	1673
834.519	1613
834.613	2148
834.708	1491
834.802	1185
834.896	1012
834.990	1094
835.084	1523
835.178	1583
835.272	1620
835.366	1462
835.460	1687
835.554	2141
835.648	1044
835.742	1026
835.836	1875
835.930	1316
836.024	1603
836.117	1999
836.211	1394
836.305	1397
836.399	3568
836.493	743
836.586	1640
836.680	1338
836.774	1680
836.867	2876
836.961	1688
837.055	1545
837.148	900
837.242	907
837.335	1214
837.429	2265
837.522	1274
837.616	2641
837.709	2136
837.803	2845
837.896	2606
837.989	1662
838.083	2383
838.176	2606
838.269	2982
838.363	2552
838.456	1175
838.549	2009
838.642	2351
838.735	4080
838.829	2131
838.922	1746
839.015	1786
839.108	1333
839.201	996
839.294	2441
839.387	1119
839.480	1261
839.573	1763
839.666	2127
839.759	1363
839.852	535
839.945	1503
840.038	874
840.131	1092
840.223	1192
840.316	2212
840.409	1005
840.502	1281
840.594	1753
840.687	415
840.780	1611
840.873	882
840.965	607
841.058	1816
841.150	3032
841.243	1948
841.336	1675
841.428	740
841.521	1295
841.613	1166
841.706	1680
841.798	816
841.890	1408
841.983	858
842.075	1765
842.167	861
842.260	895
842.352	2314
842.444	2285
842.537	2609
842.629	4925
842.721	2122
842.813	82
842.905	1511
842.997	1254
843.090	1193
843.182	1794
843.274	2841
843.366	7069
843.458	11422
843.550	10313
843.642	2321
843.734	1200
843.826	1755
843.918	1894
844.009	1140
844.101	749
844.193	1013
844.285	531
844.377	1905
844.469	994
844.560	686
844.652	1049
844.744	761
844.835	1447
844.927	1944
845.019	1414
845.110	1361
845.202	1213
845.293	1101
845.385	624
845.476	768
845.568	2712
845.659	382
845.751	2554
845.842	1234
845.934	357
846.025	654
846.116	1662
846.208	693
846.299	959
846.390	1200
846.482	1337
846.573	561
846.664	1804
846.755	975
846.846	2335
846.937	479
847.029	1229
847.120	1566
847.211	427
847.302	1595
847.393	845
847.484	1035
847.575	827
847.666	826
847.757	1638
847.847	1172
847.938	1065
848.029	1420
848.120	1134
848.211	1156
848.302	713
848.392	1008
848.483	1632
848.574	964
848.664	180
848.755	1864
848.846	1828
848.936	331
849.027	1258
849.118	991
849.208	546
849.299	944
849.389	1581
849.480	3228
849.570	5070
849.661	6865
849.751	12813
849.841	7627
849.932	1593
850.022	636
850.112	998
850.203	569
850.293	1117
850.383	1320
850.474	414
850.564	857
850.654	1064
850.744	938
850.834	560
850.924	677
851.014	1486
851.104	1021
851.194	625
851.284	1544
851.374	1594
851.464	978
851.554	1856
851.644	860
851.734	2277
851.824	3309
851.914	3678
852.004	6987
852.094	10159
852.183	3040
852.273	1237
852.363	864
852.452	241
852.542	538
852.632	896
852.721	230
852.811	559
852.901	1115
852.990	1104
853.080	447
853.169	1054
853.259	1302
853.348	571
853.438	1151
853.527	2206
853.617	1244
853.706	3161
853.795	6031
853.885	11404
853.974	22420
854.063	37772
854.152	65850
854.242	32920
854.331	6513
854.420	2041
854.509	1651
854.598	1796
854.687	1805
854.777	1935
854.866	1273
854.955	1406
855.044	790
855.133	717
855.222	66
855.311	830
855.400	1061
855.488	984
855.577	-421
855.666	988
855.755	2275
855.844	1300
855.933	1839
856.021	1401
856.110	784
856.199	136
856.288	445
856.376	521
856.465	-283
856.554	489
856.642	692
856.731	810
856.819	989
856.908	1285
856.996	19
857.085	744
857.173	438
857.262	174
857.350	700
857.438	-182
857.527	975
857.615	1219
857.703	975
857.792	469
857.880	827
857.968	702
858.056	802
858.145	995
858.233	-96
858.321	1023
858.409	1129
858.497	822
858.585	1035
858.673	925
858.761	492
858.849	583
858.937	-93
859.025	235
859.113	1131
859.201	339
859.289	1596
859.377	1172
859.465	1117
859.552	473
859.640	437
859.728	660
859.816	504
859.903	1019
859.991	877
860.079	832
860.166	994
860.254	313
860.342	1580
860.429	154
860.517	-128
860.604	510
860.692	1084
860.779	1674
860.867	1270
860.954	437
861.042	654
861.129	1062
861.216	1125
861.304	533
861.391	780
861.478	757
861.565	1053
861.653	481
861.740	61
861.827	790
861.914	1381
862.001	740
862.089	957
862.176	944
862.263	368
862.350	958
862.437	625
862.524	678
862.611	652
862.698	688
862.785	480
862.871	433
862.958	862
863.045	636
863.132	500
863.219	713
863.306	148
863.392	744
863.479	920
863.566	453
863.652	330
863.739	899
863.826	850
863.912	845
863.999	-59
864.086	-7
864.172	1500
864.259	1051
864.345	1059
864.432	732
864.518	1024
864.604	103
864.691	32
864.777	685
864.863	1056
864.950	1424
865.036	1483
865.122	2269
865.209	3180
865.295	3340
865.381	2987
865.467	3311
865.553	3290
865.639	3315
865.726	4141
865.812	6717
865.898	12596
865.984	17395
866.070	28871
866.156	40364
866.242	14754
866.328	4444
866.414	2617
866.499	2348
866.585	2330
866.671	1923
866.757	2193
866.843	2056
866.928	1894
867.014	1779
867.100	1934
867.186	2269
867.271	2334
867.357	2517
867.442	2382
867.528	1604
867.614	1588
867.699	1761
867.785	2385
867.870	1790
867.956	1916
868.041	2892
868.127	1793
868.212	1865
868.297	1145
868.383	2594
868.468	2490
868.553	3240
868.639	3267
868.724	2820
868.809	3967
868.894	2394
868.979	1394
869.065	1769
869.150	977
869.235	1541
869.320	923
869.405	1896
869.490	1079
869.575	2207
869.660	1383
869.745	1658
869.830	1903
869.915	1273
870.000	2311
870.085	1477
870.169	1979
870.254	2331
870.339	711
870.424	833
870.509	1109
870.593	1560
870.678	1539
870.763	1175
870.847	1056
870.932	854
871.016	1921
871.101	1641
871.186	1924
871.270	2515
871.355	1704
871.439	1174
871.523	1393
871.608	1303
871.692	644
871.777	1070
871.861	885
871.945	1162
872.030	1492
872.114	1510
872.198	612
872.282	1000
872.367	1302
872.451	1235
872.535	1336
872.619	1238
872.703	882
872.787	1667
872.871	1954
872.955	565
873.039	270
873.123	928
873.207	1869
873.291	920
873.375	1304
873.459	1347
873.543	590
873.627	1301
873.711	1092
873.794	238
873.878	1170
873.962	1331
874.045	418
874.129	724
874.137	747
874.213	975
874.245	954
874.296	922
874.352	1261
874.380	1427
874.460	1489
874.464	1492
874.547	874
874.568	913
874.631	1037
874.676	916
874.714	809
874.784	1502
874.798	1640
874.881	966
874.892	909
874.965	540
874.999	768
875.048	1084
875.107	720
875.131	557
875.215	1476
875.215	1475
875.298	340
875.323	372
875.381	449
875.430	767
875.465	1000
875.538	1102
875.548	1115
875.631	1059
875.646	962
875.714	444
875.753	349
875.798	287
875.861	1018
875.881	1240
875.964	1348
875.968	1333
876.047	1023
876.076	1091
876.130	1282
876.183	1163
876.213	1031
876.291	1078
876.296	1092
876.379	1116
876.398	1057
876.462	822
876.506	801
876.545	792
876.613	934
876.628	959
876.711	502
876.721	558
876.794	1008
876.828	873
876.877	692
876.935	953
876.960	1029
877.043	557
877.043	557
877.125	868
877.150	989
877.208	1156
877.258	1051
877.291	1020
877.365	1109
877.374	1114
877.456	887
877.472	837
877.539	597
877.579	712
877.622	915
877.687	1173
877.704	1203
877.787	1209
877.794	1190
877.869	1180
877.901	1033
877.952	729
878.008	711
878.034	671
878.115	768
878.117	774
878.199	891
878.222	863
878.282	689
878.329	844
878.364	1030
878.437	1148
878.447	1151
878.529	528
878.544	630
878.611	810
878.651	326
878.694	97
878.758	1082
878.776	1266
878.858	972
878.865	944
878.941	908
878.972	715
879.023	366
879.078	506
879.105	582
879.185	686
879.187	684
879.269	892
879.292	778
879.351	669
879.399	446
879.433	258
879.506	900
879.516	982
879.598	495
879.613	432
879.680	2
879.720	355
879.762	957
879.827	904
879.844	803
879.926	925
879.933	908
880.007	827
880.040	611
880.089	182
880.147	1
880.171	131
880.253	1100
880.254	1103
880.335	1243
880.360	1158
880.417	1009
880.467	1571
880.499	2039
880.574	2926
880.580	2950
880.662	2018
880.680	1630
880.744	289
880.787	162
880.825	183
880.893	219
880.907	231
880.989	760
881.000	761
881.070	1033
881.106	1063
881.152	775
881.213	706
881.233	795
881.315	820
881.319	821
881.396	728
881.426	684
881.478	407
881.532	528
881.559	675
881.639	504
881.641	503
881.722	538
881.745	618
881.803	811
881.852	922
881.885	905
881.958	577
881.966	569
882.047	615
882.064	750
882.129	1171
882.171	1024
882.210	993
882.277	1338
882.291	1356
882.372	1304
882.383	1260
882.454	688
882.489	466
882.535	447
882.596	567
882.616	681
882.697	789
882.702	808
882.778	673
882.808	606
882.859	471
882.914	355
882.940	409
883.020	1012
883.021	1015
883.102	631
883.127	596
883.183	1061
883.233	1374
883.264	1109
883.339	614
883.345	625
883.426	473
883.445	562
883.507	623
883.551	443
883.587	636
883.657	1100
883.668	1093
883.749	971
883.763	944
883.830	798
883.869	773
883.910	654
883.975	377
883.991	360
884.072	366
884.081	368
884.152	688
884.187	812
884.233	752
884.292	822
884.314	834
884.394	483
884.398	462
884.475	345
884.504	442
884.555	562
884.610	400
884.636	346
884.716	643
884.716	647
884.797	893
884.821	813
884.877	917
884.927	1129
884.958	994
885.033	590
885.038	598
885.118	613
885.139	664
885.199	337
885.244	275
885.279	630
885.350	658
885.359	608
885.439	919
885.456	881
885.520	497
885.561	275
885.600	261
885.667	211
885.680	295
885.760	1125
885.773	1194
885.840	683
885.878	636
885.920	973
885.984	1012
886.000	877
886.080	434
886.089	375
886.160	359
886.195	528
886.240	484
886.300	29
886.320	114
886.400	742
886.406	777
886.480	633
886.511	556
886.560	621
886.616	701
886.640	707
886.720	842
886.722	842
886.800	931
886.827	949
886.879	597
886.932	145
886.959	323
887.038	990
887.039	990
887.119	633
887.143	578
887.198	511
887.248	474
887.278	524
887.354	389
887.358	385
887.437	491
887.459	485
887.517	852
887.564	1144
887.596	1138
887.669	1170
887.676	1125
887.755	501
887.774	356
887.835	490
887.880	601
887.914	559
887.985	405
887.994	481
888.073	1173
888.090	1306
888.153	1345
888.195	1342
888.232	1150
888.300	891
888.311	857
888.391	472
888.405	437
888.470	767
888.510	890
888.549	1153
888.615	1640
888.628	1576
888.708	1126
888.720	1067
888.787	864
888.825	678
888.866	610
888.930	568
888.945	679
889.024	1272
889.035	1346
889.103	1088
889.140	951
889.182	877
889.245	782
889.261	844
889.340	1122
889.349	1153
889.419	1107
889.454	1097
889.498	993
889.559	817
889.577	825
889.656	890
889.664	898
889.735	925
889.768	938
889.814	844
889.873	719
889.978	1656
890.083	1131
890.187	654
890.292	737
890.397	560
890.501	523
890.606	544
890.710	591
890.815	577
890.919	713
891.024	806
891.128	731
891.233	1000
891.337	358
891.442	1590
891.546	823
891.650	879
891.755	740
891.859	1923
891.963	1125
892.068	1125
892.172	394
892.276	658
892.380	354
892.484	1927
892.589	1264
892.693	1881
892.797	422
892.901	1181
893.005	864
893.109	812
893.213	1492
893.317	987
893.421	1335
893.525	1607
893.629	547
893.733	-39
893.837	622
893.941	1015
894.045	1321
894.148	1766
894.252	2787
894.356	3989
894.460	1236
894.564	717
894.667	338
894.771	1201
894.875	1033
894.978	541
895.082	470
895.186	953
895.289	1306
895.393	918
895.496	1184
895.600	733
895.703	-230
895.807	1017
895.910	279
896.014	1380
896.117	1354
896.221	258
896.324	1069
896.427	1364
896.531	485
896.634	972
896.737	549
896.840	722
896.944	728
897.047	1509
897.150	307
897.253	261
897.356	190
897.460	1014
897.563	1150
897.666	1188
897.769	434
897.872	1297
897.975	1065
898.078	1501
898.181	977
898.284	340
898.387	-24
898.490	943
898.593	796
898.695	790
898.798	262
898.901	1093
899.004	284
899.107	633
899.209	301
899.312	1712
899.415	350
899.518	1309
899.620	-132
899.723	453
899.826	550
899.928	864
900.031	765
900.133	643
900.236	832
900.338	633
900.441	1247
900.543	951
900.646	940
900.748	936
900.851	-185
900.953	880
901.055	1166
901.158	1081
901.260	685
901.362	1223
901.465	883
901.567	782
901.669	646
901.771	956
901.873	835
901.976	907
902.078	144
902.180	396
902.282	-231
902.384	137
902.486	713
902.588	964
902.690	373
902.792	641
902.894	578
902.996	483
903.098	885
903.200	308
903.302	913
903.404	656
903.505	1070
903.607	585
903.709	749
903.811	1841
903.913	904
904.014	507
904.116	262
904.218	-363
904.319	703
904.421	1157
904.523	155
904.624	481
904.726	214
904.827	1331
904.929	193
905.030	920
905.132	-393
905.233	1234
905.335	195
905.436	258
905.537	261
905.639	7
905.740	77
905.841	1774
905.943	438
906.044	-191
906.145	1402
906.247	628
906.348	1304
906.449	1079
906.550	-87
906.651	-57
906.752	-139
906.854	66
906.955	420
907.056	-172
907.157	741
907.258	1654
907.359	351
907.460	467
907.561	56
907.662	-325
907.762	522
907.863	-94
907.964	286
908.065	389
908.166	144
908.267	386
908.367	-235
908.468	346
908.569	1038
908.670	1247
908.770	800
908.871	87
908.971	-57
909.072	1163
909.173	-172
909.273	757
909.374	736
909.474	1030
909.575	1168
909.675	526
909.776	279
909.876	-262
909.977	-142
910.077	716
910.177	826
910.278	793
910.378	323
910.478	-182
910.579	111
910.679	542
910.779	1039
910.879	1156
910.980	473
911.080	583
911.180	201
911.280	849
911.380	-18
911.480	76
911.580	12
911.680	1058
911.780	394
911.880	466
911.980	-318
912.080	684
912.180	645
912.280	257
912.380	-435
912.480	631
912.580	134
912.679	240
912.779	361
912.879	677
912.979	708
913.078	469
913.178	-380
913.278	244
913.377	64
913.477	92
913.577	124
913.676	537
913.776	158
913.875	458
913.975	401
914.074	392
914.174	-283
914.273	-92
914.373	568
914.472	547
914.572	118
914.671	-150
914.770	186
914.870	239
914.969	271
915.068	515
915.167	-35
915.267	626
915.366	142
915.465	16
915.564	784
915.663	740
915.763	473
915.862	909
915.961	257
916.060	-206
916.159	-37
916.258	760
916.357	678
916.456	659
916.555	111
916.654	302
916.752	-255
916.851	-48
916.950	358
917.049	681
917.148	138
917.247	-5
917.345	-437
917.444	141
917.543	104
917.642	467
917.740	-585
917.839	-176
917.937	812
918.036	557
918.135	34
918.233	77
918.332	155
918.430	17
918.529	-185
918.627	-60
918.726	512
918.824	88
918.923	537
919.021	229
919.119	-43
919.218	394
919.316	-99
919.414	197
919.512	529
919.611	965
919.709	274
919.807	688
919.905	209
920.003	188
920.102	698
920.200	708
920.298	1229
920.396	-553
920.494	335
920.592	421
920.690	211
920.788	753
920.886	-60
920.984	611
921.082	566
921.180	1041
921.277	-420
921.375	597
921.473	333
921.571	790
921.669	-106
921.766	546
921.864	218
921.962	569
922.060	451
922.157	422
922.255	113
922.352	767
922.450	1042
922.548	1213
922.645	292
922.743	1108
922.840	1967
922.938	2424
923.035	1708
923.133	2104
923.230	1888
923.327	2321
923.425	2456
923.522	1521
923.619	2081
923.717	1634
923.814	1996
923.911	1287
924.008	1945
924.106	2119
924.203	1100
924.300	1750
924.397	1247
924.494	1586
924.591	1737
924.688	1174
924.786	1774
924.883	924
924.979	1325
925.077	1544
925.173	883
925.270	1763
925.367	1457
925.464	2075
925.561	1409
925.658	1201
925.755	1349
925.852	2276
925.948	1764
926.045	1914
926.142	2008
926.239	1599
926.335	970
926.432	2239
926.529	1657
926.625	974
926.722	1192
926.818	1519
926.915	1291
927.011	1367
927.108	1372
927.204	1092
927.301	1104
927.397	1812
927.494	1018
927.590	254
927.687	843
927.783	1742
927.879	1281
927.976	1111
928.072	1444
928.168	1537
928.264	1207
928.361	1329
928.457	1671
928.553	1083
928.649	1675
928.745	1468
928.841	1894
928.937	1154
929.033	1096
929.129	993
929.225	974
929.321	1999
929.417	644
929.513	1310
929.609	367
929.705	876
929.801	1310
929.897	1548
929.993	670
930.089	1280
930.184	1285
930.280	1282
930.376	1059
930.471	1027
930.567	69
930.663	1716
930.758	1139
930.854	1265
930.950	1244
931.045	1629
931.141	693
931.236	1007
931.332	1281
931.427	1809
931.523	1456
931.618	2414
931.714	781
931.809	1084
931.905	1255
932.000	823
932.095	719
932.191	1382
932.286	1546
932.381	1310
932.476	654
932.572	630
932.667	996
932.762	1159
932.857	1713
932.952	1356
933.047	995
933.142	1146
933.237	779
933.332	2257
933.427	1343
933.522	1042
933.617	746
933.712	1153
933.807	1223
933.902	1436
933.997	1012
934.092	1498
934.187	844
934.282	1719
934.376	522
934.471	1333
934.566	1199
934.661	1050
934.755	1033
934.850	1525
934.945	1232
935.039	1032
935.134	735
935.228	649
935.323	1024
935.417	1182
935.512	1232
935.606	291
935.701	402
935.795	972
935.890	1092
935.984	1226
936.079	476
936.173	1551
936.267	971
936.362	851
936.456	1463
936.550	1273
936.644	1779
936.738	940
936.833	787
936.927	1276
937.021	765
937.115	1177
937.209	495
937.303	1961
937.397	139
937.491	591
937.585	1048
937.679	1403
937.773	1651
937.867	702
937.961	408
938.055	984
938.149	1629
938.243	1629
938.337	138
938.430	1143
938.524	343
938.618	1184
938.712	571
938.805	1129
938.899	-319
938.993	1323
939.086	886
939.180	234
939.274	154
939.367	678
939.461	985
939.554	834
939.648	314
939.741	1246
939.835	933
939.928	628
940.022	1392
940.115	931
940.208	1068
940.302	1231
940.395	343
940.488	432
940.582	269
940.675	1196
940.768	107
940.861	738
940.954	308
941.048	436
941.141	292
941.234	1299
941.327	842
941.420	474
941.513	1030
941.606	734
941.699	991
941.792	1037
941.885	970
941.978	1118
942.071	165
942.164	292
942.257	-187
942.349	393
942.442	1077
942.535	-608
942.628	1033
942.721	781
942.813	232
942.906	1485
942.999	583
943.091	97
943.184	289
943.277	-39
943.369	857
943.462	434
943.554	452
943.647	268
943.739	438
943.832	881
943.924	-171
944.017	525
944.109	533
944.201	914
944.294	602
944.386	478
944.478	1302
944.571	657
944.663	327
944.755	186
944.847	73
944.940	340
945.032	-275
945.124	61
945.216	453
945.308	726
945.400	371
945.492	857
945.584	288
945.676	963
945.768	1227
945.860	1791
945.952	1038
946.044	1017
946.136	233
946.228	1049
946.320	454
946.412	295
946.503	223
946.595	377
946.687	366
946.779	1122
946.870	-233
946.962	-25
947.054	572
947.145	230
947.237	-404
947.329	759
947.420	-153
947.512	706
947.603	-29
947.695	636
947.786	-43
947.878	399
947.969	-400
948.061	594
948.152	135
948.243	577
948.335	-186
948.426	-74
948.517	471
948.609	187
948.700	402
948.791	815
948.882	-251
948.973	243
949.065	-613
949.156	329
949.247	308
949.338	-307
949.429	-136
949.520	48
949.611	-357
949.702	75
949.793	478
949.884	-400
949.975	479
950.066	205
950.157	-211
950.247	-23
950.338	415
950.429	-535
950.520	-421
950.611	349
950.701	191
950.792	620
950.883	-181
950.973	193
951.064	385
951.155	-64
951.245	64
951.336	262
951.427	20
951.517	370
951.608	805
951.698	-3
951.788	57
951.879	-417
951.969	191
952.060	-577
952.150	126
952.240	308
952.331	-1103
952.421	994
952.511	-63
952.602	-220
952.692	-49
952.782	303
952.872	-449
952.962	-2
953.052	-638
953.143	221
953.233	-152
953.323	1017
953.413	261
953.503	364
953.593	-82
953.683	-47
953.773	-862
953.863	-354
953.953	-525
954.042	220
954.132	-578
954.222	-145
954.312	325
954.402	614
954.492	172
954.581	653
954.671	-854
954.761	18
954.850	206
954.940	457
955.030	-486
955.119	-330
955.209	-377
955.298	-333
955.388	293
955.477	708
955.567	-462
955.656	454
955.746	99
955.835	-168
955.925	-327
956.014	-94
956.103	709
956.193	-60
956.282	500
956.371	-270
956.461	-76
956.550	-372
956.639	-485
956.728	-1176
956.817	186
956.906	233
956.995	-297
957.085	-12
957.174	-571
957.263	-627
957.352	-524
957.441	-599
957.530	336
957.619	-713
957.708	-386
957.796	-578
957.885	-320
957.974	-609
958.063	98
958.152	-369
958.241	265
958.329	-309
958.418	-481
958.507	-588
958.596	874
958.684	-788
958.773	41
958.861	-288
958.950	2
959.039	136
959.127	-653
959.216	42
959.304	-79
959.393	160
959.481	-484
959.570	553
959.658	-424
959.746	50
959.835	-244
959.923	217
960.011	789
960.100	403
960.188	317
960.276	-111
960.365	-113
960.453	-761
960.541	-654
960.629	-727
960.717	-496
960.805	302
960.893	-709
960.981	-653
961.069	388
961.158	-86
961.245	-118
961.333	407
961.421	167
961.509	-430
961.597	-497
961.685	630
961.773	-266
961.861	-589
961.949	-586
962.036	-889
962.124	163
962.212	-998
962.299	-957
962.387	30
962.475	-540
962.562	-588
962.650	458
962.738	-406
962.825	-833
962.913	-893
963.000	-547
963.088	-341
963.175	-616
963.263	173
963.350	-348
963.438	78
963.525	-131
963.612	565
963.700	459
963.787	4058
963.874	2505
963.962	357
964.049	-297
964.136	-168
964.223	-415
964.310	-681
964.398	-455
964.485	-359
964.572	-283
964.659	1200
964.746	506
964.833	491
964.920	-164
965.007	-176
965.094	-686
965.181	-456
965.268	-202
965.355	60
965.441	-331
965.528	-165
965.615	-230
965.702	-1047
965.789	-291
965.875	-480
965.962	-230
966.049	-905
966.136	-639
966.222	-616
966.309	272
966.395	-138
966.482	197
966.569	111
966.655	-98
966.742	-406
966.828	-5
966.915	-254
967.001	-530
967.087	-782
967.174	-501
967.260	0
967.347	-440
967.433	345
967.519	2803
967.605	2014
967.692	-931
967.778	-256
967.864	-548
967.950	-1620
968.036	-716
968.123	-108
968.209	-614
968.295	-1109
968.381	172
968.467	-369
968.553	-491
968.639	105
968.725	-833
968.811	-492
968.897	969
968.983	1
969.069	-970
969.154	-690
969.240	315
969.326	-624
969.412	-340
969.497	-318
969.583	159
969.669	-51
969.755	-777
969.840	971
969.926	-39
970.012	-116
970.097	145
970.183	239
970.268	-757
970.354	-153
970.439	-119
970.525	2065
970.610	237
970.696	371
970.781	-713
970.866	-854
970.952	-625
971.037	-411
971.122	-601
971.208	-416
971.293	-857
971.378	271
971.463	-1400
971.549	-269
971.634	-910
971.719	-640
971.804	9
971.889	-213
971.974	-57
972.059	-306
972.144	-434
972.229	-18
972.314	-497
972.399	-350
972.484	-285
972.569	144
972.654	-1215
972.739	565
972.824	67
972.908	164
972.993	-1398
973.078	-555
973.163	-599
973.247	-658
973.332	-2137
973.417	1344
973.501	-1096
973.586	-338
973.671	-325
973.755	-459
973.840	-352
973.924	-513
974.009	-364
974.093	-829
974.178	1424
974.262	28
974.346	370
974.431	-121
974.515	-1272
974.600	-888
974.684	-84
974.768	-707
974.852	-288
974.937	-194
975.021	-268
975.105	-812
975.189	-875
975.273	-5
975.358	-1165
975.442	-561
975.526	72
975.610	-631
975.694	-1655
975.778	1066
975.862	-1362
975.946	-1297
976.030	-138
976.114	-936
976.198	-390
976.281	-827
976.365	-365
976.449	-448
976.533	-894
976.617	-1083
976.700	-1051
976.784	-758
976.868	-736
976.951	-284
977.035	-400
977.119	-619
977.202	-1134
977.286	-396
977.369	-182
977.453	-370
977.536	-315
977.620	520
977.703	148
977.787	-784
977.870	-133
977.953	582
978.037	-1396
978.120	-875
978.203	-1236
978.287	904
978.370	-960
978.453	-518
978.536	-896
978.620	124
978.703	-88
978.786	193
978.869	-1339
978.952	-1553
979.035	199
979.118	-462
979.201	-750
979.284	-322
979.367	-1278
979.450	-828
979.533	-1071
979.616	-1155
979.699	-1014
979.782	74
979.865	-845
979.948	-1020
980.030	-775
980.113	-864
980.196	-1138
980.279	-132
980.361	-349
980.444	-898
980.526	-419
980.609	-697
980.692	-412
980.774	-1321
980.857	-2289
980.939	-361
981.022	-720
981.104	-1245
981.187	-167
981.269	-140
981.352	-712
981.434	-1333
981.516	-1707
981.599	-347
981.681	-775
981.763	-396
981.846	-1280
981.928	-633
982.010	-1403
982.092	-755
982.174	-388
982.256	-948
982.339	-1316
982.421	-382
982.503	-897
982.585	-474
982.667	-877
982.749	-1003
982.831	-738
982.913	-1778
982.995	35
983.077	-1824
983.158	-496
983.240	-1424
983.322	-988
983.404	-523
983.486	-1195
983.568	-315
983.649	-1232
983.731	-596
983.813	-1302
983.894	49
983.976	-1672
984.058	-423
984.139	-510
984.221	-852
984.302	-952
984.384	-532
984.465	-1570
984.547	-540
984.628	-1365
984.710	-495
984.791	-561
984.872	-392
984.954	-617
985.035	-1477
985.116	-1009
985.198	-827
985.279	-248
985.360	-597
985.441	-1118
985.522	51
985.604	-1044
985.685	-1943
985.766	-927
985.847	-151
985.928	-1026
986.009	-1500
986.090	-904
986.171	-180
986.252	-1229
986.333	-518
986.414	-980
986.495	-951
986.576	-1062
986.656	-1025
986.737	-447
986.818	16
986.899	-1246
986.980	-656
987.060	-300
987.141	-984
987.222	-836
987.302	-1241
987.383	-798
987.464	-1039
987.544	-171
987.625	-1627
987.705	-618
987.786	-1003
987.866	-748
987.947	-966
988.027	-1092
988.108	-1094
988.188	-603
988.268	-220
988.349	-1443
988.429	-811
988.509	-741
988.589	-624
988.670	-2096
988.750	-319
988.830	-1663
988.910	-132
988.990	-171
989.070	-555
989.151	-1093
989.231	-927
989.311	-945
989.391	-1133
989.471	-1272
989.551	-1180
989.631	-1448
989.711	264
989.791	-1880
989.870	-1156
989.950	-1296
990.030	-1308
990.110	-1710
990.190	-1436
990.269	-1162
990.349	-1055
990.429	-1112
990.509	42
990.588	-1720
990.668	-388
990.747	-1233
990.827	-1068
990.907	-1648
990.986	-1356
991.066	-975
991.145	-1482
991.225	-800
991.304	-1247
991.383	-1298
991.463	-1566
991.542	-1563
991.622	-1160
991.701	-1015
991.780	-1164
991.859	-859
991.939	-1246
992.018	-1519
992.097	-921
992.176	-1047
992.256	-1312
992.335	-1970
992.414	-784
992.493	-1642
992.572	-960
992.651	-1143
992.730	-1737
992.809	-1104
992.888	-1630
992.967	-1023
993.046	-1312
993.125	-2345
993.203	-806
993.282	-807
993.361	-1128
993.440	-1224
993.519	-1331
993.597	-1482
993.676	-1465
993.755	-1400
993.834	-1658
993.912	-1796
993.991	-833
994.069	-2230
994.148	-1379
994.226	-1215
994.305	-1296
994.384	-944
994.462	-647
994.540	-1239
994.619	-1655
994.697	-1327
994.776	-1992
994.854	-668
994.932	-1273
995.011	-646
995.089	-1227
995.167	-1435
995.245	-1476
995.324	-2299
995.402	-1313
995.480	-2276
995.558	-792
995.636	-1898
995.714	-1699
995.792	-1169
995.870	-1555
995.948	-2069
996.026	-1466
996.104	-1572
996.182	-1252
996.260	-2294
996.338	-1457
996.416	-2599
996.494	-1411
996.572	-1060
996.649	-808
996.727	-2011
996.805	-1569
996.883	-1559
996.960	-1402
997.038	-1689
997.116	-796
997.193	-2061
997.271	-1039
997.348	-1682
997.426	-1509
997.504	-1556
997.581	-1205
997.658	-1281
997.736	-2081
997.813	-2418
997.891	-683
997.968	-1663
998.046	-939
998.123	-1996
998.200	-1055
998.277	-1846
998.355	-71
998.432	-2683
998.509	-1073
998.586	-1082
998.663	-1163
998.741	-2081
998.818	-1333
998.895	-1380
998.972	-382
999.049	-1005
999.126	-1792
999.203	-1870
999.280	-1563
999.357	-1729
999.434	-1613
999.511	-1144
999.587	-826
999.664	-2085
999.741	-1383
999.818	-1486
999.895	-1976
999.971	-2660
1000.048	-1435
1000.125	-825
1000.202	-2295
1000.278	-1560
1000.355	-1588
1000.431	-2215
1000.508	-1533
1000.584	-1532
1000.661	-1693
1000.738	-1989
1000.814	-1248
1000.890	-1379
1000.967	-1102
1001.043	-1192
1001.120	-1943
1001.196	-948
1001.272	-2019
1001.349	-2117
1001.425	-671
1001.501	-1597
1001.577	-1459
1001.654	-1716
1001.730	-1171
1001.806	-1742
1001.882	-1407
1001.958	-1604
1002.034	-1349
1002.110	-1919
1002.186	-1389
1002.262	-1613
1002.338	-2572
1002.414	-1359
1002.490	-1526
1002.566	-1755
1002.642	-1597
1002.718	-1477
1002.794	-2194
1002.870	-1477
1002.945	-1101
1003.021	-1185
1003.097	-2265
1003.173	-1429
1003.248	-1358
1003.324	-1240
1003.400	-710
1003.475	-2140
1003.551	-1561
1003.626	-1316
1003.702	-1103
1003.777	-1419
1003.853	-1853
1003.928	-1389
1004.004	-1875
1004.079	-1203
1004.155	-841
1004.230	-1830
1004.305	-680
1004.381	-1822
1004.456	-1583
1004.531	-1283
1004.607	-1254
1004.682	-2288
1004.757	-1242
1004.832	-1619
1004.907	-1595
1004.982	-1150
1005.057	-1293
1005.133	-1409
1005.208	-1541
1005.283	-1513
1005.358	-449
1005.433	-2673
1005.508	-1865
1005.583	-2079
1005.657	-2076
1005.732	-1119
1005.807	-1628
1005.882	-1552
1005.957	-1583
1006.032	-856
1006.106	-1417
1006.181	-1536
1006.256	-1590
1006.331	-2414
1006.405	-1257
1006.480	-2368
1006.554	-1323
1006.629	-1181
1006.704	-820
1006.778	-1861
1006.853	-1459
1006.927	-2409
1007.002	-1828
1007.076	-2055
1007.150	-1718
1007.225	-1267
1007.299	-1609
1007.373	-2173
1007.448	-1475
1007.522	-1275
1007.596	-1780
1007.671	-2271
1007.745	-629
1007.819	-2304
1007.893	-1312
1007.967	-1574
1008.041	-1739
1008.115	-2125
1008.190	-2165
1008.264	-1221
1008.338	-2408
1008.412	-1795
1008.486	-1512
1008.560	-1522
1008.633	-2193
1008.707	-2055
1008.781	-1561
1008.855	-1962
1008.929	-1430
1009.003	-2122
1009.076	-1500
1009.150	-1245
1009.224	-2013
1009.298	-1161
1009.371	-2322
1009.445	-1225
1009.519	-823
1009.592	-2504
1009.666	-789
1009.739	-1362
1009.813	-1909
1009.886	-1755
1009.960	-2333
1010.033	-1601
1010.107	-1747
1010.180	-2279
1010.253	-1530
1010.327	-2942
1010.400	-2189
1010.473	-1660
1010.547	-1267
1010.620	-2128
1010.693	-1720
1010.766	-2348
1010.840	-893
1010.913	-2028
1010.986	-1505
1011.059	-1627
1011.132	-2032
1011.205	-679
1011.278	-1384
1011.351	-1976
1011.424	-1247
1011.497	-2331
1011.570	-783
1011.643	-1487
1011.716	-1964
1011.789	-1169
1011.862	-1927
1011.934	-1450
1012.007	-1686
1012.080	-1733
1012.153	-2193
1012.225	-1492
1012.298	-1616
1012.371	-2460
1012.443	-1785
1012.516	-2755
1012.588	-2281
1012.661	-1659
1012.733	-1864
1012.806	-1343
1012.879	-2203
1012.951	-1571
1013.023	-2510
1013.096	-1298
1013.168	-1491
1013.241	-1209
1013.313	-1591
1013.385	-2379
1013.458	-1466
1013.530	-2267
1013.602	-1899
1013.674	-1013
1013.746	-2161
1013.819	-1995
1013.891	-1165
1013.963	-2408
1014.035	-1559
1014.107	-2440
1014.179	-1251
1014.251	-2385
1014.323	-1471
1014.395	-1785
1014.467	-1668
1014.539	-1390
1014.611	-1795
1014.683	-2154
1014.754	-1566
1014.826	-1964
1014.898	-1599
1014.970	-2245
1015.042	-1021
1015.113	-1887
1015.185	-2104
1015.257	-2740
1015.328	-2472
1015.400	-2209
1015.471	-2240
1015.543	-2222
1015.615	-1170
1015.686	-2204
1015.757	-1591
1015.829	-2009
1015.901	-2251
1015.972	-2145
1016.043	-1911
1016.115	-1894
1016.186	-1458
1016.257	-2483
1016.328	-1508
1016.400	-1674
1016.471	-2497
1016.542	-2508
1016.613	-2079
1016.685	-1761
1016.756	-1703
1016.827	-2294
1016.898	-2527
1016.969	-1022
1017.040	-2052
1017.111	-1639
1017.182	-1789
1017.253	-1973
1017.324	-2271
1017.395	-2422
1017.466	-1613
1017.537	-1885
1017.608	-1824
1017.678	-2242
1017.749	-2003
1017.820	-2535
1017.891	-2754
1017.961	-2025
1018.032	-2476
1018.103	-2419
1018.173	-2115
1018.244	-2241
1018.315	-2665
1018.385	-1318
1018.456	-1952
1018.526	-2420
1018.597	-2034
1018.667	-1999
1018.738	-3081
1018.808	-1870
1018.878	-2196
1018.949	-2004
1019.019	-2096
1019.089	-2155
1019.160	-1632
1019.230	-3316
1019.300	-2070
1019.371	-2930
1019.441	-1716
1019.511	-2079
1019.581	-1393
1019.651	-1876
1019.721	-2066
1019.791	-2356
1019.861	-2050
1019.931	-2308
1020.001	-1935
1020.071	-2224
1020.141	-2804
1020.211	-2544
1020.281	-1831
1020.351	-2595
1020.421	-1975
1020.491	-1466
1020.560	-2102
1020.630	-2322
1020.700	-1608
1020.770	-2507
1020.839	-2189
1020.909	-2545
1020.979	-2084
1021.048	-2226
1021.118	-2245
1021.187	-2821
1021.257	-2951
1021.326	-2444
1021.396	-3022
1021.465	-1265
1021.535	-1525
1021.604	-3089
1021.674	-2942
1021.743	-2212
1021.812	-2425
1021.882	-2878
1021.951	-2579
1022.020	-2526
1022.089	-1987
1022.159	-3024
1022.228	-2630
1022.297	-2554
1022.366	-2257
1022.435	-2842
1022.504	-2669
1022.573	-3242
1022.642	-1392
1022.711	-2958
1022.781	-1981
1022.849	-2938
1022.918	-2699
1022.987	-2721
1023.056	-2401
1023.125	-1750
1023.194	-2399
1023.263	-2582
1023.331	-1748
1023.400	-2653
1023.469	-3205
1023.538	-2776
1023.606	-2759
1023.675	-2482
1023.744	-2484
1023.812	-3026
1023.881	-1839
1023.949	-2313
1024.018	-1237
1024.086	-2764
1024.155	-1900
1024.223	-1980
1024.292	-2095
1024.360	-2359
1024.429	-2689
1024.497	-2723
1024.565	-2313
1024.634	-2626
1024.702	-2822
1024.770	-2324
1024.838	-2318
1024.907	-2077
1024.975	-3173
1025.043	-1377
1025.111	-2576
1025.179	-3064
1025.247	-2268
1025.315	-2044
1025.383	-2239
1025.451	-2716
1025.519	-2861
1025.587	-2688
1025.655	-2195
1025.723	-3562
1025.791	-1785
1025.859	-2720
1025.927	-1721
1025.995	-2513
1026.062	-2678
1026.130	-3130
1026.198	-2461
1026.266	-1924
1026.333	-2100
1026.401	-2216
1026.469	-2213
1026.536	-2982
1026.604	-2255
1026.671	-2504
1026.739	-2207
1026.806	-2743
1026.874	-2713
1026.941	-2371
1027.009	-2295
1027.076	-2724
1027.144	-2463
1027.211	-2874
1027.278	-2557
1027.345	-2372
1027.413	-2355
1027.480	-2895
1027.547	-3208
1027.614	-2894
1027.682	-2570
1027.749	-2477
1027.816	-2276
1027.883	-2750
1027.950	-2551
1028.017	-3217
1028.084	-1949
1028.151	-3512
1028.218	-2567
1028.285	-2777
1028.352	-2597
1028.419	-3093
1028.486	-2226
1028.553	-3358
1028.619	-2032
1028.686	-2290
1028.753	-2743
1028.820	-1748
1028.886	-2957
1028.953	-2621
1029.020	-2734
1029.086	-2340
1029.153	-1875
1029.220	-3252
1029.286	-2246
1029.353	-2685
1029.419	-3120
1029.486	-2782
1029.552	-2615
1029.619	-2910
1029.685	-2780
1029.751	-2823
1029.818	-1773
1029.884	-2529
1029.951	-1549
1030.017	-3040
1030.083	-1735
1030.149	-3227
1030.216	-2285
1030.282	-2141
1030.348	-2903
1030.414	-2541
1030.480	-2646
1030.546	-3386
1030.612	-2198
1030.678	-2877
1030.744	-1956
1030.810	-2459
1030.876	-2214
1030.942	-2999
1031.008	-3140
1031.074	-3197
1031.140	-2222
1031.206	-2447
1031.272	-2165
1031.337	-3030
1031.403	-1780
1031.469	-2912
1031.534	-1972
1031.600	-2847
1031.666	-2265
1031.731	-2661
1031.797	-2322
1031.863	-2497
1031.928	-2383
1031.994	-3278
1032.059	-2839
1032.125	-2982
1032.190	-2210
1032.256	-2910
1032.321	-2307
1032.386	-2696
1032.452	-1515
1032.517	-2568
1032.582	-2411
1032.647	-2640
1032.713	-2590
1032.778	-2373
1032.843	-2347
1032.908	-2898
1032.974	-2136
1033.039	-3042
1033.104	-2117
1033.169	-2272
1033.234	-3157
1033.299	-2825
1033.364	-2270
1033.429	-3119
1033.494	-1576
1033.559	-3356
1033.624	-2802
1033.688	-2556
1033.753	-2907
1033.818	-2389
1033.883	-1763
1033.948	-2210
1034.013	-2635
1034.077	-3122
1034.142	-2514
1034.207	-2825
1034.271	-1771
1034.336	-2081
1034.400	-1719
1034.465	-2664
1034.530	-2391
1034.594	-2285
1034.658	-2257
1034.723	-2987
1034.787	-2112
1034.852	-2367
1034.916	-2521
1034.981	-2827
1035.045	-2575
1035.109	-2473
1035.173	-1989
1035.238	-2672
1035.302	-3057
1035.366	-2200
1035.430	-2176
1035.495	-2526
1035.559	-1070
1035.623	-2181
1035.687	-2395
1035.751	-2670
1035.815	-2530
1035.879	-2606
1035.943	-2488
1036.007	-1991
1036.071	-2059
1036.135	-2539
1036.198	-2457
1036.262	-3327
1036.326	-1982
1036.390	-3292
1036.454	-3006
1036.517	-2731
1036.581	-2892
1036.645	-2760
1036.709	-2156
1036.772	-2404
1036.836	-2084
1036.900	-2740
1036.963	-2536
1037.026	-2400
1037.090	-2329
1037.154	-2855
1037.217	-1837
1037.280	-2268
1037.344	-2522
1037.407	-3192
1037.471	-2031
1037.534	-3210
1037.597	-2284
1037.661	-3029
1037.724	-3119
1037.787	-2738
1037.850	-2947
1037.913	-3266
1037.977	-1702
1038.040	-2839
1038.103	-2799
1038.166	-2137
1038.229	-1816
1038.292	-2717
1038.355	-2398
1038.418	-2605
1038.481	-2271
1038.544	-3382
1038.607	-1871
1038.670	-2382
1038.732	-2403
1038.795	-3012
1038.858	-2659
1038.921	-3173
1038.984	-2188
1039.046	-3021
1039.109	-2119
1039.172	-3091
1039.234	-2214
1039.297	-2318
1039.360	-2726
1039.422	-2785
1039.485	-2105
1039.547	-2732
1039.610	-2653
1039.672	-2689
1039.734	-2723
1039.797	-2196
1039.859	-2232
1039.922	-3125
1039.984	-2876
1040.046	-2588
1040.109	-2135
1040.171	-2516
1040.233	-3255
1040.295	-2599
1040.358	-2616
1040.420	-2895
1040.482	-2768
1040.544	-2730
1040.606	-2131
1040.668	-2654
1040.730	-2731
1040.792	-3180
1040.854	-2301
1040.916	-1897
1040.978	-2194
1041.040	-1439
1041.102	-1951
1041.164	-2914
1041.225	-3211
1041.287	-2727
1041.349	-2640
1041.411	-2141
1041.472	-2860
1041.534	-2247
1041.596	-2819
1041.657	-2701
1041.719	-2678
1041.781	-2867
1041.842	-2459
1041.904	-2697
1041.965	-2610
1042.027	-2487
1042.088	-2303
1042.150	-2794
1042.211	-2509
1042.272	-2483
1042.334	-2876
1042.395	-2409
1042.456	-2434
1042.518	-2035
1042.579	-2288
1042.640	-2559
1042.701	-3174
1042.763	-2399
1042.824	-3117
1042.885	-2912
1042.946	-2150
1043.007	-1926
1043.068	-2755
1043.129	-2317
1043.190	-3248
1043.251	-2052
1043.312	-2223
1043.373	-3045
1043.434	-2472
1043.495	-2367
1043.556	-1516
1043.616	-1681
1043.677	-3150
1043.738	-2475
1043.799	-2003
1043.859	-2538
1043.920	-2303
1043.981	-2008
1044.041	-1977
1044.102	-2388
1044.162	-2374
1044.223	-2849
1044.284	-1913
1044.344	-2818
1044.405	-2661
1044.465	-2752
1044.525	-2148
1044.586	-2718
1044.646	-2406
1044.707	-1960
1044.767	-1434
1044.827	-2255
1044.887	-1771
1044.948	-2426
1045.008	-1917
1045.068	-3136
1045.128	-2348
1045.188	-1899
1045.249	-2402
1045.309	-2746
1045.369	-2223
1045.429	-1928
1045.489	-2276
1045.549	-2679
1045.609	-2271
1045.669	-2321
1045.729	-2460
1045.789	-2130
1045.848	-2418
1045.908	-2432
1045.968	-2136
1046.028	-1257
1046.088	-1252
1046.147	-1454
1046.207	-1461
1046.267	-2249
1046.326	-2008
1046.386	-2674
1046.446	-1188
1046.505	-1921
1046.565	-1634
1046.624	-1975
1046.684	-1244
1046.743	-1473
1046.803	-1210
1046.862	-537
1046.922	0
