'Start Wavelength	183.907
'End Wavelength	1046.922
'Gate Delay	5.000
'Gate Width (ms)	1.050
'Laser Output Level	0.000
'X Position	0.000
'Y Position	0.000
'Z Position	0.000
'Grid Point Number	1.000
'Shot Number	100.000
183.907	184.000
183.977	144.000
184.047	39
184.116	725
184.186	697
184.256	101
184.325	-56
184.395	-385
184.465	128
184.534	-443
184.604	-34
184.674	-437
184.743	-626
184.813	948
184.883	372
184.952	461
185.022	-290
185.092	418
185.161	429
185.231	319
185.301	233
185.370	-127
185.440	-679
185.509	-272
185.579	475
185.649	295
185.718	511
185.788	484
185.857	-145
185.927	208
185.996	-555
186.066	95
186.136	-13
186.205	659
186.275	57
186.344	-172
186.414	-1065
186.483	-307
186.553	506
186.622	1108
186.692	66
186.761	335
186.831	741
186.900	194
186.970	14
187.039	-143
187.109	1066
187.178	38
187.248	63
187.317	-155
187.387	-492
187.456	993
187.526	781
187.595	350
187.664	207
187.734	472
187.803	714
187.873	-425
187.942	1780
188.012	466
188.081	32
188.150	-3
188.220	205
188.289	601
188.358	83
188.428	116
188.497	-37
188.567	256
188.636	-106
188.705	-596
188.775	-10
188.844	-169
188.913	816
188.983	-280
189.052	-94
189.121	524
189.191	576
189.260	761
189.329	1214
189.399	306
189.468	750
189.537	134
189.606	607
189.676	653
189.745	581
189.814	143
189.883	202
189.953	117
190.022	1268
190.091	3707
190.161	5506
190.230	1949
190.299	260
190.368	-15
190.437	1366
190.507	366
190.576	1119
190.645	62
190.714	774
190.783	411
190.853	470
190.922	392
190.991	-9
191.060	34
191.129	-463
191.198	335
191.268	-459
191.337	-150
191.406	1105
191.475	836
191.544	481
191.613	941
191.682	357
191.752	613
191.821	671
191.890	259
191.959	711
192.028	978
192.097	568
192.166	536
192.235	98
192.304	614
192.373	148
192.442	34
192.511	466
192.580	300
192.650	975
192.719	474
192.788	1015
192.857	543
192.926	612
192.995	1153
193.064	1691
193.133	1898
193.202	2387
193.271	2544
193.340	2202
193.409	2078
193.478	1730
193.547	3019
193.615	4811
193.684	4127
193.753	2654
193.822	1480
193.891	1492
193.960	1978
194.029	1210
194.098	1460
194.167	239
194.236	922
194.305	1229
194.374	538
194.443	90
194.512	600
194.580	1240
194.649	748
194.718	-100
194.787	987
194.856	354
194.925	409
194.994	610
195.062	739
195.131	275
195.200	855
195.269	577
195.338	593
195.407	1227
195.475	472
195.544	944
195.613	584
195.682	799
195.751	1308
195.819	-469
195.888	1137
195.957	1266
196.026	505
196.094	842
196.163	964
196.232	828
196.301	1331
196.369	1054
196.438	749
196.507	1101
196.576	853
196.644	792
196.713	391
196.782	1122
196.850	1520
196.919	690
196.988	1265
197.056	399
197.125	1791
197.194	1115
197.262	538
197.331	1141
197.400	1360
197.468	1162
197.537	1394
197.606	1409
197.674	2580
197.743	6889
197.812	2109
197.880	5884
197.949	4285
198.017	4990
198.086	4089
198.155	1843
198.223	2706
198.292	6845
198.360	3158
198.429	2277
198.497	2541
198.566	3425
198.635	7419
198.703	2646
198.772	2679
198.840	7756
198.909	9593
198.977	3020
199.046	2341
199.114	1989
199.183	1362
199.251	1269
199.320	408
199.388	600
199.457	264
199.525	1525
199.594	915
199.662	1050
199.731	1064
199.799	1558
199.867	1245
199.936	867
200.004	1678
200.073	2741
200.141	1536
200.210	1519
200.278	1016
200.346	1055
200.415	1891
200.483	1789
200.552	1797
200.620	1736
200.688	724
200.757	1176
200.825	1807
200.893	1532
200.962	345
201.030	869
201.098	1111
201.167	1134
201.235	1493
201.303	2529
201.372	1033
201.440	1055
201.508	1124
201.577	1918
201.645	1323
201.713	1423
201.781	437
201.850	843
201.918	1196
201.986	1081
202.055	922
202.123	1899
202.191	1849
202.259	1467
202.327	1615
202.396	1366
202.464	1431
202.532	876
202.600	1393
202.669	1459
202.737	1654
202.805	608
202.873	1285
202.941	1374
203.009	945
203.078	1227
203.146	1496
203.214	1611
203.282	1109
203.350	1318
203.418	743
203.487	1092
203.555	1065
203.623	1419
203.691	2140
203.759	381
203.827	1230
203.895	1399
203.963	1366
204.031	803
204.099	1731
204.168	226
204.236	1590
204.304	1687
204.372	1926
204.440	1856
204.508	1473
204.576	1220
204.644	1302
204.712	1884
204.780	1736
204.848	1666
204.916	804
204.984	1067
205.052	2297
205.120	1700
205.188	1936
205.256	654
205.324	1883
205.392	1501
205.460	2169
205.528	1323
205.596	2406
205.664	1474
205.732	2415
205.799	7482
205.867	13536
205.935	2704
206.003	3184
206.071	2172
206.139	2514
206.207	1361
206.275	2148
206.343	1962
206.411	1364
206.478	2021
206.546	2685
206.614	2110
206.682	1857
206.750	1923
206.818	2493
206.885	3649
206.953	835
207.021	1920
207.089	2413
207.157	1729
207.225	1460
207.292	1596
207.360	2094
207.428	2905
207.496	2238
207.563	1300
207.631	2364
207.699	1911
207.767	1960
207.834	1394
207.902	1935
207.970	2303
208.038	2081
208.105	2280
208.173	1930
208.241	3328
208.309	3573
208.376	1554
208.444	3724
208.512	2969
208.579	1188
208.647	2884
208.715	2782
208.782	1963
208.850	1873
208.918	2235
208.985	2584
209.053	2448
209.120	2569
209.188	1909
209.256	2374
209.323	1458
209.391	2292
209.459	3131
209.526	2723
209.594	1889
209.661	2729
209.729	2321
209.796	2643
209.864	2890
209.932	1786
209.999	3214
210.067	2122
210.134	2350
210.202	1919
210.269	2467
210.337	4193
210.404	2501
210.472	1623
210.539	2331
210.607	2682
210.674	2287
210.742	2616
210.809	2335
210.877	2463
210.944	3023
211.012	1195
211.079	3959
211.146	1906
211.214	2846
211.281	2794
211.349	3153
211.416	3515
211.484	3303
211.551	2884
211.618	3094
211.686	3279
211.753	2227
211.821	3185
211.888	2652
211.955	2466
212.023	2942
212.090	3663
212.157	3400
212.225	4171
212.292	6787
212.359	14468
212.427	47111
212.494	20058
212.561	7350
212.629	5459
212.696	4307
212.763	4107
212.831	2869
212.898	4081
212.965	3541
213.032	3337
213.100	3123
213.167	2664
213.234	3473
213.301	3553
213.369	4181
213.436	3201
213.503	3653
213.570	3835
213.638	2608
213.705	3097
213.772	2492
213.839	2626
213.906	2670
213.973	2995
214.041	2340
214.108	3094
214.175	2321
214.242	2639
214.309	2634
214.376	3304
214.444	2924
214.511	3158
214.578	3738
214.645	3887
214.712	2748
214.779	3896
214.846	2713
214.913	4162
214.980	4510
215.048	5212
215.115	5061
215.182	3566
215.249	2795
215.316	2610
215.383	3593
215.450	2889
215.517	2404
215.584	1976
215.651	2262
215.718	2391
215.785	2656
215.852	1715
215.919	2423
215.986	2172
216.053	2158
216.120	1703
216.187	2296
216.254	2230
216.321	2292
216.388	3302
216.455	2598
216.522	3123
216.589	3213
216.656	3686
216.722	4163
216.789	5075
216.856	6391
216.923	5908
216.990	5302
217.057	3801
217.124	3473
217.191	3823
217.258	6242
217.324	7933
217.391	10722
217.458	7562
217.525	5589
217.592	4582
217.659	2956
217.725	3404
217.792	2955
217.859	3764
217.926	2294
217.993	2111
218.059	3013
218.126	2234
218.193	1600
218.260	2256
218.327	2313
218.393	1805
218.460	1685
218.527	1822
218.594	2195
218.660	1349
218.727	2823
218.794	2786
218.860	2153
218.927	1688
218.994	1312
219.061	1608
219.127	1994
219.194	1735
219.261	2089
219.327	1138
219.394	2426
219.461	718
219.527	2055
219.594	2156
219.661	2151
219.727	1001
219.794	2999
219.860	1735
219.927	2467
219.994	2993
220.060	2908
220.127	4152
220.193	3887
220.260	4261
220.326	5854
220.393	10429
220.460	17730
220.526	10901
220.593	6634
220.659	6687
220.726	7177
220.792	19890
220.859	16721
220.925	18523
220.992	27603
221.058	27868
221.125	30407
221.191	22708
221.258	9543
221.324	5310
221.391	5060
221.457	3274
221.524	4035
221.590	6121
221.657	26346
221.723	19237
221.789	16068
221.856	13812
221.922	6923
221.989	4521
222.055	3759
222.121	2525
222.188	4498
222.254	3096
222.321	2098
222.387	2000
222.453	2729
222.520	1775
222.586	1842
222.652	2023
222.719	1325
222.785	1621
222.851	1422
222.918	2207
222.984	2013
223.050	1233
223.116	876
223.183	2950
223.249	1075
223.315	1820
223.382	1150
223.448	1157
223.514	503
223.580	2268
223.647	1245
223.713	1229
223.779	2049
223.845	1262
223.911	1229
223.978	1037
224.044	1702
224.110	888
224.176	1410
224.242	1877
224.309	657
224.375	2448
224.441	1598
224.507	851
224.573	267
224.639	2483
224.705	876
224.772	1208
224.838	1218
224.904	1668
224.970	1829
225.036	902
225.102	892
225.168	1890
225.234	2517
225.300	1891
225.366	1838
225.432	2284
225.499	1854
225.565	1549
225.631	1789
225.697	1333
225.763	2683
225.829	3554
225.895	2237
225.961	4470
226.027	3311
226.093	4405
226.159	6111
226.225	8649
226.291	21817
226.357	41506
226.423	18881
226.489	8756
226.554	6308
226.620	5503
226.686	6135
226.752	8703
226.818	18572
226.884	51349
226.950	49325
227.016	17037
227.082	9551
227.148	6009
227.214	4612
227.279	4321
227.345	4100
227.411	3243
227.477	3473
227.543	6104
227.609	4441
227.674	3246
227.740	2666
227.806	2489
227.872	2092
227.938	3353
228.003	1568
228.069	1974
228.135	1553
228.201	1995
228.267	1995
228.332	1664
228.398	444
228.464	1773
228.530	1320
228.595	1340
228.661	1025
228.727	1426
228.792	2589
228.858	1055
228.924	1134
228.990	3418
229.055	866
229.121	2205
229.187	1702
229.252	782
229.318	1130
229.384	1701
229.449	927
229.515	-702
229.581	472
229.646	2231
229.712	873
229.777	851
229.843	935
229.909	1578
229.974	1772
230.040	2402
230.105	2534
230.171	2442
230.236	3303
230.302	7534
230.368	3582
230.433	2433
230.499	2785
230.564	3297
230.630	460
230.695	2284
230.761	2817
230.826	579
230.892	1819
230.957	1302
231.023	1245
231.088	1578
231.154	1491
231.219	2097
231.284	1616
231.350	1573
231.415	733
231.481	1927
231.546	1290
231.612	1546
231.677	947
231.742	250
231.808	3180
231.873	2000
231.939	-259
232.004	2641
232.069	2033
232.135	1515
232.200	1298
232.265	2383
232.331	761
232.396	1159
232.461	1366
232.527	825
232.592	209
232.657	1108
232.723	1082
232.788	1176
232.853	1310
232.918	2331
232.984	589
233.049	909
233.114	-156
233.179	1812
233.245	1386
233.310	1469
233.375	891
233.440	1137
233.506	731
233.571	1058
233.636	1453
233.701	466
233.766	1296
233.832	1393
233.897	865
233.962	-820
234.027	1838
234.092	1672
234.157	893
234.222	903
234.288	1744
234.353	3035
234.418	3023
234.483	3343
234.548	1781
234.613	1895
234.678	2459
234.743	1541
234.808	3227
234.873	2581
234.938	3584
235.004	1269
235.069	2040
235.134	1499
235.199	1908
235.264	2346
235.329	445
235.394	2848
235.459	2851
235.524	1691
235.589	2503
235.654	2389
235.719	1312
235.784	2438
235.849	2112
235.913	2957
235.978	3126
236.043	3434
236.108	2506
236.173	1612
236.238	3472
236.303	2246
236.368	3121
236.433	4548
236.498	4025
236.563	6325
236.627	16103
236.692	65566
236.757	54568
236.822	18790
236.887	10417
236.952	11140
237.017	7345
237.081	7930
237.146	10317
237.211	27059
237.276	64951
237.341	112483
237.405	42332
237.470	16114
237.535	9667
237.600	7656
237.664	5738
237.729	4592
237.794	6641
237.859	15940
237.923	8291
237.988	3710
238.053	4531
238.118	3205
238.182	6709
238.247	8093
238.312	2569
238.376	3764
238.441	1355
238.506	3021
238.570	1435
238.635	4084
238.700	2663
238.764	1732
238.829	3375
238.893	2955
238.958	3240
239.023	2112
239.087	1918
239.152	2569
239.216	1503
239.281	1838
239.346	1511
239.410	1905
239.475	1701
239.539	5550
239.604	4117
239.668	3022
239.733	2504
239.797	3241
239.862	7198
239.926	4608
239.991	1987
240.055	1707
240.120	1566
240.184	1873
240.249	1631
240.313	1196
240.378	554
240.442	3025
240.507	4511
240.571	1671
240.635	1307
240.700	2348
240.764	736
240.829	1160
240.893	-501
240.957	2215
241.022	2020
241.086	3893
241.151	1748
241.215	416
241.279	2586
241.344	1648
241.408	2452
241.472	1663
241.537	2472
241.601	2108
241.665	1456
241.730	2400
241.794	2709
241.858	2070
241.922	2169
241.987	2535
242.051	1144
242.115	1055
242.179	2115
242.244	2159
242.308	2391
242.372	2379
242.436	1016
242.501	2610
242.565	1147
242.629	1744
242.693	2157
242.757	1056
242.822	872
242.886	2433
242.950	1670
243.014	1848
243.078	2753
243.142	1416
243.206	1637
243.271	3122
243.335	3433
243.399	8280
243.463	32892
243.527	105814
243.591	31520
243.655	9515
243.719	5710
243.783	6884
243.847	8081
243.911	10889
243.975	3490
244.040	1508
244.104	3337
244.168	2699
244.232	2472
244.296	4198
244.360	8872
244.424	2474
244.488	2678
244.552	2100
244.615	1033
244.679	2377
244.743	1069
244.807	1491
244.871	1766
244.935	2085
244.999	814
245.063	1231
245.127	2582
245.191	6648
245.255	5746
245.319	2861
245.383	320
245.446	2245
245.510	1210
245.574	1871
245.638	2360
245.702	755
245.766	1809
245.829	2836
245.893	660
245.957	1918
246.021	2567
246.085	1417
246.149	1451
246.212	1994
246.276	2235
246.340	1554
246.404	2281
246.467	2157
246.531	-103
246.595	3280
246.659	2731
246.722	841
246.786	2150
246.850	1951
246.913	1237
246.977	587
247.041	1067
247.104	1271
247.168	1596
247.232	1062
247.295	4289
247.359	2721
247.423	1325
247.486	2261
247.550	2545
247.614	887
247.677	2628
247.741	1877
247.804	1159
247.868	3242
247.932	1885
247.995	5797
248.059	1292
248.122	1602
248.186	3498
248.249	3824
248.313	11492
248.376	11421
248.440	4772
248.503	1614
248.567	4305
248.630	2309
248.694	3822
248.757	6335
248.821	14195
248.884	8174
248.948	4090
249.011	8340
249.075	12505
249.138	11244
249.202	4768
249.265	4140
249.328	5578
249.392	3594
249.455	5296
249.519	4695
249.582	4621
249.645	5444
249.709	5104
249.772	6171
249.835	4948
249.899	5012
249.962	5952
250.025	4715
250.089	6438
250.152	8416
250.215	6242
250.279	5876
250.342	7251
250.405	7039
250.468	6241
250.532	9564
250.595	18696
250.658	94319
250.721	177930
250.785	43982
250.848	20230
250.911	13191
250.974	12933
251.038	10714
251.101	12929
251.164	10804
251.227	10510
251.290	13760
251.354	25867
251.417	139511
251.480	141476
251.543	78016
251.606	272601
251.669	197800
251.732	56335
251.795	35317
251.859	44841
251.922	163513
251.985	88165
252.048	26586
252.111	17510
252.174	13146
252.237	15949
252.300	27331
252.363	59337
252.426	192912
252.489	65834
252.552	23407
252.615	15652
252.678	16793
252.741	23409
252.804	63869
252.867	209768
252.930	73863
252.993	23758
253.056	16084
253.119	12007
253.182	12346
253.245	24731
253.308	17340
253.371	7542
253.434	7365
253.497	6997
253.559	7639
253.622	5793
253.685	5103
253.748	4327
253.811	4073
253.874	5579
253.937	4356
254.000	3620
254.062	3757
254.125	5310
254.188	4155
254.251	3973
254.314	2886
254.376	2653
254.439	3718
254.502	3964
254.565	3534
254.628	4963
254.690	3301
254.753	2746
254.816	2344
254.878	2437
254.941	3425
255.004	3186
255.067	2828
255.129	2436
255.192	2430
255.255	1618
255.317	2035
255.380	2679
255.443	1510
255.505	2020
255.568	907
255.631	1152
255.693	1820
255.756	922
255.819	3565
255.881	1862
255.944	2605
256.006	1165
256.069	1909
256.132	2216
256.194	2253
256.257	3118
256.319	3039
256.382	2276
256.444	3729
256.507	3125
256.569	2776
256.632	4184
256.694	7009
256.757	29117
256.819	98374
256.882	34895
256.944	11296
257.007	7932
257.069	5526
257.132	4625
257.194	4939
257.257	4274
257.319	3541
257.381	6728
257.444	20259
257.506	115485
257.569	113202
257.631	28105
257.693	13877
257.756	9145
257.818	5815
257.880	4836
257.943	4168
258.005	2823
258.067	2300
258.130	2153
258.192	2556
258.254	2332
258.317	3111
258.379	2398
258.441	2421
258.503	3169
258.566	3563
258.628	4966
258.690	1544
258.753	3991
258.815	2819
258.877	1674
258.939	2404
259.001	2462
259.064	2252
259.126	1403
259.188	2654
259.250	1887
259.312	2617
259.375	3796
259.437	2474
259.499	2045
259.561	1557
259.623	2524
259.685	868
259.747	934
259.809	3211
259.872	6380
259.934	11193
259.996	8609
260.058	3081
260.120	992
260.182	1493
260.244	1146
260.306	1217
260.368	2089
260.430	698
260.492	1179
260.554	2400
260.616	1327
260.678	2540
260.740	4804
260.802	1231
260.864	1534
260.926	1157
260.988	1200
261.050	847
261.112	935
261.174	4377
261.236	4634
261.298	1863
261.359	2120
261.421	3811
261.483	-303
261.545	1490
261.607	-133
261.669	1127
261.731	1238
261.793	2516
261.854	-156
261.916	1683
261.978	577
262.040	1259
262.102	2286
262.164	1156
262.225	804
262.287	1567
262.349	1299
262.411	1657
262.472	1940
262.534	909
262.596	2501
262.658	2028
262.719	1001
262.781	1943
262.843	2414
262.904	2992
262.966	3466
263.028	6414
263.090	31964
263.151	107911
263.213	29983
263.275	7785
263.336	5295
263.398	4447
263.459	2635
263.521	2387
263.583	2361
263.644	2393
263.706	1535
263.767	15
263.829	2229
263.891	878
263.952	534
264.014	386
264.075	1032
264.137	1072
264.198	1282
264.260	183
264.321	1469
264.383	1470
264.444	1626
264.506	1071
264.567	1113
264.629	2333
264.690	-164
264.752	1080
264.813	1536
264.875	1112
264.936	2088
264.998	1032
265.059	1764
265.120	2920
265.182	5594
265.243	44163
265.305	44757
265.366	9119
265.427	5222
265.489	4460
265.550	1732
265.611	2153
265.673	899
265.734	1608
265.795	2563
265.857	2210
265.918	3451
265.979	12009
266.040	77647
266.102	63099
266.163	13629
266.224	6452
266.286	4366
266.347	3188
266.408	2550
266.469	2770
266.530	1928
266.592	711
266.653	1153
266.714	1561
266.775	519
266.836	997
266.898	857
266.959	1411
267.020	727
267.081	2308
267.142	550
267.203	363
267.264	35
267.326	1590
267.387	933
267.448	140
267.509	638
267.570	969
267.631	191
267.692	-19
267.753	1012
267.814	276
267.875	874
267.936	761
267.997	1029
268.058	1167
268.119	1076
268.180	1246
268.241	192
268.302	318
268.363	-130
268.424	479
268.485	299
268.546	128
268.607	-311
268.668	596
268.729	264
268.790	-339
268.851	1060
268.912	-312
268.972	197
269.033	-69
269.094	221
269.155	897
269.216	247
269.277	-59
269.338	643
269.398	397
269.459	-271
269.520	1341
269.581	703
269.642	1258
269.702	790
269.763	1013
269.824	-379
269.885	-238
269.945	1242
270.006	79
270.067	-210
270.128	860
270.188	644
270.249	170
270.310	272
270.370	637
270.431	-129
270.492	26
270.553	-40
270.613	310
270.674	574
270.734	898
270.795	416
270.856	898
270.916	390
270.977	-537
271.038	-59
271.098	1102
271.159	375
271.219	24
271.280	-245
271.340	206
271.401	-190
271.462	1204
271.522	1109
271.583	310
271.643	-324
271.704	419
271.764	697
271.825	1410
271.885	6009
271.946	10133
272.006	2012
272.066	2908
272.127	6050
272.187	2538
272.248	986
272.308	1059
272.369	2887
272.429	1846
272.489	272
272.550	423
272.610	515
272.671	389
272.731	1238
272.791	613
272.852	485
272.912	1258
272.972	-230
273.033	274
273.093	-383
273.153	654
273.214	140
273.274	800
273.334	1078
273.394	1951
273.455	385
273.515	1200
273.575	822
273.635	1413
273.696	461
273.756	2268
273.816	883
273.876	946
273.936	1443
273.997	3737
274.057	651
274.117	498
274.177	254
274.237	3136
274.297	3639
274.358	2131
274.418	1575
274.478	566
274.538	326
274.598	301
274.658	3050
274.718	2789
274.778	1303
274.838	1000
274.898	593
274.958	4906
275.018	3679
275.078	2830
275.138	898
275.198	111
275.258	393
275.318	-176
275.378	-489
275.438	425
275.498	55
275.558	1725
275.618	4875
275.678	1345
275.738	1309
275.798	815
275.858	51
275.918	-320
275.978	62
276.038	359
276.098	350
276.157	898
276.217	766
276.277	-373
276.337	-327
276.397	133
276.457	-8
276.517	456
276.576	703
276.636	766
276.696	-6
276.756	1202
276.815	427
276.875	686
276.935	-158
276.995	538
277.055	40
277.114	510
277.174	360
277.234	1111
277.293	-83
277.353	396
277.413	972
277.472	42
277.532	163
277.592	99
277.651	575
277.711	1713
277.771	621
277.830	2289
277.890	1552
277.950	1416
278.009	6056
278.069	3119
278.128	1203
278.188	2046
278.248	1420
278.307	2497
278.367	1822
278.426	604
278.486	634
278.545	47
278.605	1059
278.664	384
278.724	579
278.783	2415
278.843	3613
278.902	807
278.962	1087
279.021	1218
279.081	2352
279.140	1948
279.199	987
279.259	2135
279.318	3601
279.378	4983
279.437	6659
279.496	21714
279.556	118173
279.615	108386
279.675	20342
279.734	9964
279.793	8043
279.853	11263
279.912	5343
279.971	2832
280.031	2018
280.090	3382
280.149	6105
280.208	9444
280.268	64720
280.327	80131
280.386	12803
280.445	6595
280.505	4691
280.564	3535
280.623	1601
280.682	2158
280.742	1874
280.801	1083
280.860	698
280.919	743
280.978	424
281.037	653
281.097	515
281.156	1883
281.215	487
281.274	665
281.333	1575
281.392	873
281.451	759
281.510	900
281.569	986
281.628	1524
281.688	2341
281.747	1063
281.806	590
281.865	850
281.924	34
281.983	-301
282.042	305
282.101	1134
282.160	1066
282.219	383
282.278	-241
282.337	165
282.396	114
282.454	505
282.513	768
282.572	-14
282.631	54
282.690	454
282.749	-780
282.808	-83
282.867	-185
282.926	155
282.985	305
283.043	517
283.102	686
283.161	-333
283.220	153
283.279	595
283.338	759
283.396	-84
283.455	433
283.514	452
283.573	833
283.631	481
283.690	-131
283.749	318
283.808	105
283.866	202
283.925	247
283.984	178
284.043	-106
284.101	501
284.160	3
284.219	491
284.277	1010
284.336	842
284.395	1395
284.453	1466
284.512	1266
284.570	719
284.629	742
284.688	937
284.746	900
284.805	1313
284.863	897
284.922	1216
284.981	1219
285.039	2861
285.098	5456
285.156	16923
285.215	95437
285.273	99131
285.332	27526
285.390	11416
285.449	6439
285.507	5539
285.566	3641
285.624	2683
285.683	1670
285.741	1510
285.799	1768
285.858	1160
285.916	766
285.975	885
286.033	789
286.091	1485
286.150	620
286.208	1144
286.267	1418
286.325	1258
286.383	1522
286.442	1010
286.500	886
286.558	1007
286.616	1319
286.675	1875
286.733	890
286.791	843
286.850	1617
286.908	1160
286.966	1493
287.024	1867
287.083	1659
287.141	1470
287.199	2006
287.257	1427
287.315	2655
287.374	1701
287.432	1757
287.490	2249
287.548	3367
287.606	2876
287.664	2362
287.723	3922
287.781	3620
287.839	3787
287.897	5641
287.955	8961
288.013	17553
288.071	45862
288.129	174374
288.187	546436
288.245	242376
288.303	68244
288.361	37383
288.419	26193
288.477	18499
288.535	13886
288.593	9787
288.651	8007
288.709	5036
288.767	3972
288.825	2968
288.883	3053
288.941	2719
288.999	3207
289.057	2392
289.115	1357
289.173	2113
289.231	1971
289.289	1860
289.346	1833
289.404	2585
289.462	629
289.520	1886
289.578	994
289.636	1571
289.694	899
289.751	1657
289.809	1809
289.867	1252
289.925	1354
289.983	1546
290.040	913
290.098	1095
290.156	1089
290.214	915
290.271	1119
290.329	1361
290.387	908
290.444	640
290.502	1019
290.560	749
290.617	434
290.675	498
290.733	181
290.790	961
290.848	599
290.906	266
290.963	-439
291.021	-503
291.078	-256
291.136	-157
291.194	-767
291.251	-175
291.309	507
291.366	-443
291.424	521
291.481	52
291.539	-262
291.596	196
291.654	-385
291.711	-437
291.769	-242
291.826	-87
291.884	372
291.941	143
291.999	40
292.056	-483
292.114	-209
292.171	-881
292.228	80
292.286	-562
292.343	-270
292.401	-520
292.458	336
292.515	-465
292.573	202
292.630	-98
292.687	-262
292.745	-967
292.802	61
292.859	229
292.917	587
292.974	-507
293.031	-358
293.089	-1310
293.146	-233
293.203	233
293.260	-185
293.318	-73
293.375	394
293.432	-27
293.489	-727
293.546	-261
293.604	235
293.661	864
293.718	2516
293.775	595
293.832	704
293.889	-214
293.947	87
294.004	-395
294.061	261
294.118	637
294.175	-670
294.232	-60
294.289	-29
294.346	-105
294.403	702
294.460	-813
294.517	-139
294.574	-120
294.631	-425
294.688	-536
294.745	228
294.802	2739
294.859	1812
294.916	391
294.973	769
295.030	392
295.087	576
295.144	486
295.201	100
295.258	815
295.315	-95
295.372	946
295.429	2017
295.486	63
295.542	-178
295.599	-179
295.656	514
295.713	-490
295.770	1160
295.827	456
295.883	-516
295.940	-559
295.997	850
296.054	182
296.111	36
296.167	619
296.224	-212
296.281	-714
296.338	41
296.394	-81
296.451	-78
296.508	-47
296.564	649
296.621	1426
296.678	4364
296.734	6494
296.791	1872
296.848	1032
296.904	385
296.961	1088
297.018	2449
297.074	2228
297.131	2352
297.187	187
297.244	920
297.301	3324
297.357	5371
297.414	1859
297.470	488
297.527	-170
297.583	458
297.640	379
297.696	108
297.753	-186
297.809	270
297.866	-40
297.922	339
297.979	173
298.035	-272
298.092	148
298.148	1383
298.204	808
298.261	833
298.317	1785
298.374	5008
298.430	3010
298.486	862
298.543	968
298.599	1700
298.656	2195
298.712	6932
298.768	30435
298.824	31005
298.881	8389
298.937	2540
298.993	2354
299.050	2247
299.106	2280
299.162	1413
299.218	1117
299.275	750
299.331	1163
299.387	1682
299.443	4086
299.500	6481
299.556	4130
299.612	1222
299.668	695
299.724	2429
299.780	4226
299.837	658
299.893	1741
299.949	2438
300.005	3591
300.061	3372
300.117	7469
300.173	3817
300.229	739
300.285	864
300.341	348
300.397	131
300.453	-96
300.510	-242
300.566	620
300.622	1247
300.678	6640
300.734	10710
300.790	4932
300.845	3558
300.901	2766
300.957	4801
301.013	1446
301.069	463
301.125	626
301.181	-26
301.237	727
301.293	-521
301.349	289
301.405	38
301.461	-71
301.516	-55
301.572	-309
301.628	434
301.684	382
301.740	282
301.796	155
301.851	469
301.907	898
301.963	2174
302.019	4855
302.074	19798
302.130	20100
302.186	8827
302.242	3456
302.297	2111
302.353	1797
302.409	1208
302.464	1192
302.520	1287
302.576	1929
302.631	2957
302.687	1528
302.743	932
302.798	1319
302.854	747
302.910	1071
302.965	787
303.021	1993
303.076	1551
303.132	928
303.187	1385
303.243	910
303.299	930
303.354	952
303.410	1546
303.465	444
303.521	665
303.576	1454
303.632	248
303.687	1001
303.743	3840
303.798	2771
303.853	1757
303.909	1881
303.964	673
304.020	1004
304.075	697
304.130	847
304.186	1960
304.241	1588
304.297	2108
304.352	1311
304.358	1293
304.407	1143
304.449	1164
304.463	1169
304.518	945
304.539	780
304.573	522
304.629	829
304.630	836
304.684	1183
304.720	2290
304.739	2814
304.794	5965
304.811	5248
304.850	3336
304.902	1680
304.905	1612
304.960	3187
304.992	4859
305.015	5726
305.071	5135
305.083	4568
305.126	2706
305.173	1548
305.181	1387
305.236	1488
305.264	1506
305.292	1500
305.347	1595
305.354	1689
305.402	2908
305.445	4619
305.457	4873
305.512	6174
305.535	5284
305.567	4154
305.622	3611
305.626	3685
305.678	7865
305.716	14968
305.733	16342
305.788	12392
305.807	9826
305.843	7100
305.897	8547
305.898	8547
305.953	9175
305.988	6812
306.008	5586
306.063	3788
306.078	3278
306.118	2357
306.168	2010
306.173	2007
306.228	1913
306.259	2092
306.283	2286
306.338	3290
306.349	3417
306.393	5129
306.440	8949
306.448	9157
306.503	6687
306.530	5393
306.558	5839
306.613	9233
306.620	9718
306.668	9788
306.711	6985
306.723	6388
306.778	4931
306.801	4601
306.833	4337
306.888	3336
306.892	3299
306.943	3588
306.982	3784
306.997	3758
307.052	3659
307.072	3437
307.107	3308
307.162	3986
307.163	3980
307.217	3908
307.253	4269
307.272	4477
307.327	4648
307.343	4748
307.381	4954
307.434	5344
307.436	5424
307.491	6463
307.524	7403
307.546	7583
307.600	8116
307.614	8082
307.655	8030
307.704	7859
307.710	7964
307.765	8891
307.795	10019
307.819	11410
307.874	14394
307.885	14914
307.929	19725
307.975	26309
307.984	29608
308.038	53400
308.065	69410
308.093	146861
308.148	319546
308.156	352982
308.202	525419
308.246	666294
308.257	633080
308.312	312885
308.336	176927
308.366	121762
308.421	59649
308.426	54701
308.475	39096
308.517	29183
308.530	27634
308.585	22931
308.607	21223
308.639	19653
308.694	18247
308.697	18179
308.748	18873
308.787	18727
308.803	18897
308.857	21204
308.877	21941
308.912	25370
308.967	31362
308.967	31396
309.021	48008
309.058	60434
309.076	83346
309.130	161006
309.148	189931
309.185	445203
309.238	856022
309.239	858717
309.293	892620
309.328	818807
309.348	690820
309.402	299012
309.418	196698
309.457	131907
309.508	68303
309.511	66811
309.566	47319
309.598	37054
309.620	34137
309.674	28538
309.688	27160
309.729	23127
309.778	18193
309.783	17862
309.837	14827
309.868	13364
309.892	13112
309.946	13104
309.959	13193
310.001	13277
310.049	12840
310.055	12579
310.109	10054
310.139	8717
310.163	8287
310.218	7523
310.229	7373
310.272	6858
310.319	6391
310.326	6321
310.381	5376
310.409	5207
310.435	5475
310.489	5484
310.499	5530
310.543	5564
310.589	5440
310.598	5379
310.652	5104
310.679	4957
310.706	4793
310.760	4131
310.769	4074
310.814	4661
310.859	5247
310.868	5279
310.923	5015
310.948	5042
310.977	4892
311.031	4491
311.038	4407
311.085	4190
311.128	3993
311.139	4038
311.193	4276
311.218	4386
311.247	4606
311.301	4948
311.308	4966
311.356	4426
311.398	3999
311.410	4110
311.464	4567
311.488	4736
311.518	4437
311.572	3853
311.578	3775
311.626	3571
311.668	3411
311.680	3561
311.734	4111
311.758	4374
311.788	4358
311.842	4308
311.847	4284
311.896	4296
311.937	4301
311.950	4336
312.004	4433
312.027	4464
312.058	4370
312.112	4169
312.117	4138
312.165	4348
312.207	4507
312.297	4346
312.386	4578
312.476	4629
312.566	4340
312.656	3730
312.745	4015
312.835	4489
312.925	5112
313.015	5432
313.104	6068
313.194	4902
313.284	5518
313.374	5047
313.463	4858
313.553	4325
313.643	4958
313.732	4614
313.822	4671
313.912	5575
314.001	5093
314.091	5461
314.180	4395
314.270	5359
314.360	5682
314.449	4806
314.539	4416
314.628	4844
314.718	4850
314.808	5659
314.897	4810
314.987	5541
315.076	6025
315.166	5694
315.255	6862
315.345	6031
315.434	6324
315.524	7411
315.613	8921
315.703	13988
315.792	42782
315.881	198733
315.971	59711
316.060	12788
316.150	6940
316.239	5534
316.328	5117
316.418	4559
316.507	4739
316.597	5586
316.686	5620
316.775	5489
316.865	5548
316.954	5083
317.043	5464
317.133	4174
317.222	5351
317.311	5232
317.400	5150
317.490	8073
317.579	10604
317.668	14752
317.757	27051
317.847	85834
317.936	354977
318.025	87498
318.114	55661
318.203	22383
318.293	7643
318.382	5977
318.471	5831
318.560	5387
318.649	5179
318.738	3542
318.828	2918
318.917	2627
319.006	3289
319.095	3430
319.184	5662
319.273	4702
319.362	4918
319.451	3176
319.540	4038
319.629	4776
319.718	4452
319.807	3076
319.896	3289
319.985	5287
320.074	3867
320.163	3038
320.252	3047
320.341	2530
320.430	2456
320.519	3396
320.608	2704
320.697	4563
320.786	3471
320.875	3900
320.964	4175
321.053	4978
321.142	5753
321.230	6559
321.319	5550
321.408	8526
321.497	6484
321.586	5638
321.675	5020
321.764	4972
321.852	3701
321.941	5203
322.030	4403
322.119	4765
322.207	7562
322.296	5961
322.385	6458
322.474	7087
322.562	10936
322.651	7521
322.740	6249
322.829	6276
322.917	5858
323.006	3759
323.095	4085
323.183	3308
323.272	4824
323.361	4891
323.449	6797
323.538	4204
323.626	5802
323.715	4054
323.804	3911
323.892	4745
323.981	4381
324.069	4850
324.158	4715
324.246	4098
324.335	3811
324.424	3881
324.512	3769
324.601	2801
324.689	4112
324.778	6116
324.866	4795
324.954	3190
325.043	3201
325.131	3158
325.220	5071
325.308	3316
325.397	4203
325.485	2572
325.574	3065
325.662	2071
325.750	3103
325.839	3035
325.927	2727
326.015	3265
326.104	2404
326.192	2575
326.280	2817
326.369	2752
326.457	3077
326.545	3462
326.634	2817
326.722	2729
326.810	3278
326.898	3874
326.987	3623
327.075	2787
327.163	4461
327.251	3159
327.340	4429
327.428	4253
327.516	3543
327.604	3430
327.692	3181
327.781	2494
327.869	3532
327.957	3652
328.045	3167
328.133	2636
328.221	2468
328.309	2872
328.397	3534
328.485	4019
328.574	4079
328.662	6014
328.750	4220
328.838	2323
328.926	3732
329.014	3041
329.102	3177
329.190	3870
329.278	4194
329.366	2854
329.454	3100
329.542	3159
329.630	3908
329.718	4139
329.806	4378
329.893	6053
329.981	9689
330.069	27120
330.157	110162
330.245	341419
330.333	170346
330.421	23363
330.509	8777
330.597	7604
330.684	5991
330.772	3788
330.860	3820
330.948	3689
331.036	2992
331.123	2570
331.211	2411
331.299	2323
331.387	2898
331.475	2613
331.562	2248
331.650	2545
331.738	1779
331.825	2511
331.913	2160
332.001	1994
332.089	2739
332.176	2470
332.264	2472
332.352	1343
332.439	2592
332.527	1846
332.614	1686
332.702	2627
332.790	2050
332.877	1766
332.965	3608
333.052	2286
333.140	2316
333.228	2961
333.315	1858
333.403	1530
333.490	3103
333.578	2063
333.665	3894
333.753	3577
333.840	2673
333.928	2565
334.015	3644
334.103	3952
334.190	6244
334.278	4520
334.365	6774
334.452	7700
334.540	5011
334.627	3901
334.715	5028
334.802	7294
334.889	14359
334.977	20264
335.064	11592
335.151	5569
335.239	4860
335.326	3250
335.413	4196
335.501	5579
335.588	4144
335.675	4622
335.762	4820
335.850	5907
335.937	8527
336.024	14111
336.111	25107
336.199	23780
336.286	10474
336.373	5486
336.460	4105
336.547	2885
336.635	3560
336.722	2667
336.809	3342
336.896	2884
336.983	2992
337.070	4398
337.157	5690
337.245	4824
337.332	4415
337.419	2297
337.506	1980
337.593	1910
337.680	3313
337.767	3535
337.854	2501
337.941	2637
338.028	4804
338.115	4429
338.202	3033
338.289	2815
338.376	4051
338.463	2753
338.550	1964
338.637	2216
338.724	2081
338.811	3566
338.898	1681
338.984	1596
339.071	1680
339.158	3202
339.245	4195
339.332	3049
339.419	2416
339.506	2243
339.593	1548
339.679	2629
339.766	1687
339.853	1612
339.940	2685
340.027	2046
340.113	1502
340.200	2199
340.287	2330
340.374	1790
340.460	2881
340.547	275
340.634	2978
340.720	4516
340.807	2611
340.894	1909
340.980	2152
341.067	1913
341.154	1645
341.240	1905
341.327	2768
341.414	2120
341.500	1851
341.587	2007
341.674	2052
341.760	2170
341.847	1654
341.933	1741
342.020	1152
342.106	2060
342.193	1338
342.279	1772
342.366	1010
342.452	2513
342.539	1744
342.625	2301
342.712	4398
342.798	2153
342.885	1866
342.971	1044
343.058	1236
343.144	1405
343.230	2453
343.317	2385
343.403	1482
343.490	881
343.576	1632
343.662	1949
343.749	2259
343.835	4055
343.921	4628
344.008	22212
344.094	47161
344.180	8126
344.267	3634
344.353	5801
344.439	5994
344.525	1887
344.612	2581
344.698	2687
344.784	2093
344.870	1940
344.957	1335
345.043	1529
345.129	1743
345.215	2059
345.301	1099
345.387	1352
345.474	723
345.560	715
345.646	1244
345.732	1963
345.818	1119
345.904	1461
345.990	2232
346.076	2136
346.162	1370
346.249	2680
346.335	2094
346.421	6025
346.507	6696
346.593	9583
346.679	2390
346.765	2749
346.851	3266
346.937	1756
347.023	2739
347.108	1932
347.194	1590
347.280	1573
347.366	2802
347.452	7120
347.538	15812
347.624	10276
347.710	5730
347.796	1443
347.882	2179
347.967	2537
348.053	1291
348.139	1942
348.225	1738
348.311	1087
348.397	1742
348.482	2641
348.568	1361
348.654	2301
348.740	6181
348.825	5104
348.911	3710
348.997	6286
349.083	12832
349.168	2294
349.254	1596
349.340	1722
349.425	725
349.511	1010
349.597	2884
349.682	2529
349.768	5501
349.854	3093
349.939	2244
350.025	2115
350.110	2379
350.196	1500
350.282	1084
350.367	1893
350.453	1600
350.538	1577
350.624	1916
350.709	1245
350.795	607
350.880	813
350.966	2388
351.051	1716
351.137	1050
351.222	1436
351.308	3029
351.393	4246
351.479	1794
351.564	298
351.649	2093
351.735	1621
351.820	617
351.906	1336
351.991	2178
352.076	2872
352.162	4369
352.247	1586
352.332	1858
352.418	1707
352.503	2145
352.588	5559
352.673	3658
352.759	1425
352.844	481
352.929	1265
353.014	1575
353.100	1574
353.185	2823
353.270	2244
353.355	2886
353.441	2181
353.526	1735
353.611	1683
353.696	1427
353.781	2009
353.866	983
353.952	1477
354.037	1509
354.122	3224
354.207	2888
354.292	1144
354.377	1583
354.462	1541
354.547	1681
354.632	2720
354.717	2882
354.802	2291
354.887	2042
354.972	1207
355.057	1880
355.142	1035
355.227	2596
355.312	1674
355.397	2573
355.482	4397
355.567	2592
355.652	3354
355.737	2292
355.822	6308
355.907	4396
355.991	2555
356.076	1001
356.161	1787
356.246	1911
356.331	2165
356.416	1721
356.501	16667
356.585	15407
356.670	2490
356.755	3924
356.840	3081
356.924	13317
357.009	51805
357.094	16991
357.179	3234
357.263	2950
357.348	2751
357.433	2820
357.517	2201
357.602	1489
357.687	2018
357.771	3590
357.856	3777
357.941	4383
358.025	16263
358.110	80348
358.195	33564
358.279	4250
358.364	1864
358.448	4288
358.533	10205
358.617	7161
358.702	7796
358.787	4097
358.871	1655
358.956	1856
359.040	1751
359.125	1409
359.209	1598
359.294	3038
359.378	3267
359.462	3098
359.547	2038
359.631	1783
359.716	880
359.800	1653
359.885	2213
359.969	169
360.053	2391
360.138	2565
360.222	1536
360.306	1762
360.391	1983
360.475	2401
360.559	3470
360.644	4352
360.728	2920
360.812	8978
360.896	25770
360.981	7438
361.065	3018
361.149	2925
361.233	1176
361.318	1882
361.402	1684
361.486	2634
361.570	2196
361.654	2061
361.739	2816
361.823	16151
361.907	27892
361.991	5298
362.075	3389
362.159	4003
362.243	6906
362.327	13621
362.411	27148
362.495	9279
362.580	3527
362.664	4076
362.748	4038
362.832	6278
362.916	11436
363.000	41871
363.084	79412
363.168	50456
363.252	10803
363.336	4920
363.420	3826
363.503	4751
363.587	4406
363.671	2503
363.755	2751
363.839	5036
363.923	2644
364.007	4243
364.091	5672
364.175	7218
364.258	19039
364.342	45833
364.426	106886
364.510	54084
364.594	14693
364.677	9001
364.761	22008
364.845	16527
364.929	3708
365.013	4210
365.096	3386
365.180	1824
365.264	2734
365.347	5748
365.431	2800
365.515	1447
365.598	1110
365.682	3304
365.766	-97
365.849	1502
365.933	1216
366.017	2478
366.100	1364
366.184	687
366.267	2792
366.351	2353
366.435	916
366.518	1261
366.602	1766
366.685	1952
366.769	1535
366.852	1452
366.936	2099
367.019	2262
367.103	710
367.186	2496
367.270	1416
367.353	1363
367.436	2542
367.520	1546
367.603	1804
367.687	1604
367.770	2544
367.853	3523
367.937	5090
368.020	7087
368.104	2184
368.187	2615
368.270	2641
368.353	1393
368.437	1661
368.520	3084
368.603	1610
368.687	3922
368.770	7399
368.853	2861
368.936	2586
369.020	2393
369.103	1354
369.186	2009
369.269	1226
369.352	2126
369.436	1113
369.519	2152
369.602	662
369.685	3353
369.768	1414
369.851	2349
369.934	1347
370.018	1045
370.101	1912
370.184	3783
370.267	1480
370.350	2673
370.433	3975
370.516	20599
370.599	64775
370.682	28199
370.765	7286
370.848	6342
370.931	9583
371.014	5151
371.097	553
371.180	2554
371.263	2026
371.346	-16
371.429	2450
371.511	952
371.594	1624
371.677	2397
371.760	2554
371.843	4137
371.926	28557
372.009	73032
372.091	19055
372.174	5779
372.257	12234
372.340	5221
372.423	2734
372.505	3000
372.588	2505
372.671	4655
372.754	9464
372.836	5949
372.919	2985
373.002	3803
373.085	1963
373.167	3193
373.250	5000
373.332	11850
373.415	32580
373.498	83701
373.580	36100
373.663	115223
373.746	125400
373.828	19434
373.911	6516
373.993	3390
374.076	3966
374.159	3480
374.241	4209
374.324	8726
374.406	7140
374.489	15175
374.571	41292
374.654	13124
374.736	8402
374.819	22817
374.901	41920
374.983	47300
375.066	8205
375.148	3071
375.231	3837
375.313	4673
375.395	2956
375.478	2359
375.560	3113
375.643	3294
375.725	6759
375.807	31354
375.890	20558
375.972	3014
376.054	3257
376.136	3742
376.219	2178
376.301	7416
376.383	20260
376.465	8220
376.548	2373
376.630	4631
376.712	15232
376.794	7102
376.877	1890
376.959	985
377.041	1815
377.123	1318
377.205	1203
377.287	1600
377.369	2060
377.452	1114
377.534	1454
377.616	1143
377.698	1296
377.780	749
377.862	1241
377.944	2456
378.026	574
378.108	2471
378.190	1374
378.272	2608
378.354	991
378.436	1569
378.518	222
378.600	2031
378.682	2625
378.764	4545
378.846	4709
378.928	1760
379.010	1722
379.091	1711
379.173	1988
379.255	923
379.337	1432
379.419	2749
379.501	8290
379.583	3259
379.664	1958
379.746	1716
379.828	6515
379.910	5258
379.991	6832
380.073	1330
380.155	2236
380.237	1281
380.318	688
380.400	1374
380.482	1858
380.564	2067
380.645	1482
380.727	2643
380.809	2243
380.890	1344
380.972	870
381.053	1169
381.135	2345
381.217	2271
381.298	6105
381.380	3841
381.461	3381
381.543	14990
381.624	19262
381.706	4240
381.787	1718
381.869	3651
381.951	11452
382.032	51181
382.113	29314
382.195	2998
382.276	4065
382.358	4365
382.439	13282
382.521	20353
382.602	37382
382.684	13724
382.765	15065
382.846	14506
382.928	18299
383.009	10819
383.090	7830
383.172	29194
383.253	45838
383.334	16053
383.416	21959
383.497	11839
383.578	4374
383.659	7581
383.741	26478
383.822	76667
383.903	36103
383.984	11274
384.066	20402
384.147	11827
384.228	4756
384.309	4326
384.390	3409
384.471	3556
384.553	2428
384.634	2852
384.715	2995
384.796	1890
384.877	2134
384.958	6381
385.039	4941
385.120	2847
385.201	3361
385.282	2819
385.363	3195
385.444	3152
385.525	4969
385.606	14781
385.687	11714
385.768	3948
385.849	4179
385.930	23776
386.011	45180
386.092	11210
386.173	4176
386.254	4686
386.335	4972
386.416	2793
386.496	4247
386.577	6292
386.658	2910
386.739	1654
386.820	3935
386.901	2205
386.981	3776
387.062	3974
387.143	3710
387.224	7697
387.304	8424
387.385	5650
387.466	3710
387.547	5259
387.627	4638
387.708	6090
387.789	12408
387.869	14563
387.950	6356
388.031	4162
388.111	1144
388.192	3989
388.273	4839
388.353	3254
388.434	3165
388.514	4889
388.595	17531
388.676	17901
388.756	6732
388.837	6197
388.917	4509
388.998	1837
389.078	4236
389.159	4948
389.239	2761
389.320	5149
389.400	2676
389.480	5138
389.561	6797
389.641	6313
389.722	3592
389.802	3618
389.883	5119
389.963	10743
390.043	7211
390.124	4020
390.204	5130
390.284	10800
390.365	12279
390.445	60560
390.525	359285
390.605	319112
390.686	41100
390.766	11459
390.846	7803
390.927	5145
391.007	3882
391.087	6279
391.167	5132
391.247	4619
391.328	5780
391.408	6877
391.488	6108
391.568	4535
391.648	6372
391.728	6769
391.808	7757
391.888	7257
391.969	9641
392.049	10797
392.129	10595
392.209	11404
392.289	16089
392.369	13869
392.449	12872
392.529	12876
392.609	16627
392.689	19045
392.769	25489
392.849	28746
392.929	32805
393.009	48391
393.089	71447
393.169	140037
393.248	522905
393.328	2091191
393.408	2176975
393.488	533645
393.568	138394
393.648	66651
393.728	44424
393.807	33158
393.887	30696
393.967	29063
394.047	31856
394.127	38754
394.206	73284
394.286	284363
394.366	1301026
394.446	1371659
394.525	308159
394.605	75911
394.685	38390
394.764	28206
394.844	25591
394.924	23772
395.003	18666
395.083	16658
395.163	17542
395.242	16532
395.322	17323
395.402	16946
395.481	19459
395.561	20468
395.640	30871
395.720	44643
395.799	42966
395.879	56742
395.958	109207
396.038	433611
396.117	1705112
396.197	1819079
396.276	484738
396.356	129637
396.435	70373
396.515	57511
396.594	64668
396.673	125392
396.753	568008
396.832	1870811
396.912	1195316
396.991	206186
397.070	64675
397.150	35570
397.229	26799
397.308	29939
397.388	43115
397.467	24170
397.546	13850
397.625	9469
397.705	11010
397.784	8867
397.863	7784
397.942	7492
398.022	6805
398.101	5641
398.180	7062
398.259	6113
398.338	5155
398.417	4747
398.497	4285
398.576	4939
398.655	3450
398.734	4566
398.813	4014
398.892	4316
398.971	5029
399.050	3818
399.129	2967
399.208	3219
399.287	3507
399.366	1886
399.445	2368
399.524	2657
399.603	641
399.682	3070
399.761	3106
399.840	5549
399.919	4590
399.998	2594
400.077	1100
400.156	1169
400.235	3776
400.313	1398
400.392	775
400.471	4359
400.550	5177
400.629	1916
400.708	1929
400.786	1168
400.865	789
400.944	1134
401.023	2917
401.102	833
401.180	1333
401.259	1632
401.338	979
401.416	2062
401.495	281
401.574	1942
401.652	1300
401.731	2734
401.810	1003
401.888	1219
401.967	884
402.046	1204
402.124	1638
402.203	299
402.281	1791
402.360	985
402.438	1590
402.517	243
402.596	1033
402.674	793
402.753	895
402.831	992
402.910	2545
402.988	2943
403.066	9286
403.145	6517
403.223	4923
403.302	9897
403.380	6430
403.459	5777
403.537	3033
403.615	2099
403.694	-176
403.772	2099
403.850	1187
403.929	911
404.007	583
404.085	2643
404.164	1343
404.242	1982
404.320	5322
404.398	16349
404.477	12670
404.555	22001
404.633	19758
404.711	10592
404.789	5668
404.868	1884
404.946	1256
405.024	1323
405.102	769
405.180	554
405.258	284
405.336	1633
405.415	287
405.493	1482
405.571	1834
405.649	927
405.727	-72
405.805	2058
405.883	1952
405.961	1809
406.039	535
406.117	256
406.195	1458
406.273	2571
406.351	13757
406.429	9048
406.507	1751
406.585	210
406.663	996
406.740	929
406.818	-89
406.896	726
406.974	1861
407.052	626
407.130	7583
407.208	10066
407.285	3717
407.363	1062
407.441	2348
407.519	3514
407.596	6993
407.674	54181
407.752	276183
407.830	196870
407.907	21961
407.985	4478
408.063	3185
408.141	2074
408.218	2318
408.296	829
408.373	940
408.451	1840
408.529	1157
408.606	478
408.684	1888
408.762	1913
408.839	495
408.917	1205
408.994	1675
409.072	757
409.149	2062
409.227	4327
409.304	5409
409.382	5903
409.459	6879
409.537	8539
409.614	6894
409.692	5145
409.769	4519
409.846	8677
409.924	11054
410.001	5840
410.079	3554
410.156	3878
410.233	4912
410.311	6010
410.388	2484
410.465	2004
410.543	885
410.620	1605
410.697	1294
410.775	1504
410.852	561
410.929	1738
411.006	3070
411.083	879
411.161	606
411.238	2012
411.315	1545
411.392	1036
411.469	1864
411.547	829
411.624	241
411.701	1645
411.778	1529
411.855	1664
411.932	1018
412.009	724
412.086	1284
412.163	562
412.240	761
412.317	1711
412.394	484
412.471	1607
412.548	108
412.625	1020
412.702	1002
412.779	1170
412.856	890
412.933	218
413.010	1696
413.087	3478
413.164	2010
413.241	3202
413.318	1031
413.395	1389
413.471	928
413.548	767
413.625	1049
413.702	-105
413.779	192
413.855	876
413.932	-147
414.009	-177
414.086	708
414.162	1448
414.239	1197
414.316	2348
414.393	4507
414.469	1070
414.546	634
414.623	184
414.699	618
414.776	154
414.853	-476
414.929	470
415.006	983
415.082	495
415.159	300
415.236	1342
415.312	958
415.389	1607
415.465	129
415.542	633
415.618	-16
415.695	1503
415.771	152
415.848	655
415.924	936
416.000	-10
416.077	1285
416.153	-99
416.230	-136
416.306	883
416.383	-402
416.459	856
416.535	514
416.612	-510
416.688	233
416.764	461
416.841	-918
416.917	85
416.993	401
417.069	847
417.146	1275
417.222	3773
417.298	1661
417.374	398
417.451	741
417.527	509
417.603	345
417.679	118
417.755	202
417.831	-145
417.908	1140
417.984	564
418.060	323
418.136	1338
418.212	175
418.288	660
418.364	1371
418.440	-377
418.516	1264
418.592	1408
418.668	764
418.744	1057
418.820	1348
418.896	1706
418.972	-242
419.048	621
419.124	1308
419.200	400
419.276	641
419.352	803
419.428	1079
419.504	22
419.579	1192
419.655	1108
419.731	430
419.807	1452
419.883	1455
419.959	1353
420.034	887
420.110	1210
420.186	2622
420.262	2563
420.337	1057
420.413	1075
420.489	1692
420.565	1810
420.640	1131
420.716	1725
420.792	782
420.867	2242
420.943	1622
421.019	1687
421.094	1901
421.170	2087
421.245	1603
421.321	3955
421.397	6916
421.472	44222
421.548	155783
421.623	82383
421.699	10497
421.774	5049
421.850	3511
421.925	5734
422.001	5475
422.076	6613
422.152	6677
422.227	10163
422.302	15036
422.378	22003
422.453	42144
422.529	117177
422.604	481405
422.679	974101
422.755	511145
422.830	124185
422.905	45302
422.981	24000
423.056	14511
423.131	11001
423.207	8352
423.282	6395
423.357	6267
423.432	4294
423.508	4226
423.583	4073
423.658	2978
423.733	2802
423.808	2475
423.883	2950
423.959	3303
424.034	4022
424.109	3443
424.184	2915
424.259	906
424.334	1809
424.409	670
424.484	1846
424.559	1259
424.634	853
424.709	822
424.784	1935
424.859	1380
424.934	1498
425.009	1956
425.084	3346
425.159	817
425.234	844
425.309	436
425.384	1606
425.459	396
425.534	1638
425.609	253
425.683	393
425.758	829
425.833	720
425.908	1204
425.983	786
426.058	3529
426.132	2046
426.207	686
426.282	1271
426.357	-228
426.431	1510
426.506	491
426.581	948
426.655	819
426.730	72
426.805	49
426.879	1436
426.954	486
427.029	539
427.103	2802
427.178	9358
427.253	4275
427.327	1009
427.402	191
427.476	297
427.551	1051
427.625	301
427.700	-33
427.774	8
427.849	830
427.923	992
427.998	594
428.072	1676
428.147	4238
428.221	31938
428.296	134343
428.370	71283
428.444	5787
428.519	2139
428.593	2062
428.667	2124
428.742	2632
428.816	8814
428.890	65754
428.965	113621
429.039	23389
429.113	3596
429.188	1072
429.262	1266
429.336	1686
429.410	1749
429.485	1219
429.559	1253
429.633	1408
429.707	2010
429.781	7344
429.855	56070
429.930	90929
430.004	19623
430.078	8463
430.152	36980
430.226	215695
430.300	222171
430.374	29295
430.448	6390
430.522	4120
430.596	4773
430.670	15497
430.744	91022
430.818	106159
430.892	15241
430.966	2454
431.040	1977
431.114	373
431.188	507
431.262	721
431.336	803
431.410	963
431.484	918
431.557	1671
431.631	711
431.705	2635
431.779	24805
431.853	123770
431.927	83438
432.000	8951
432.074	1379
432.148	663
432.222	164
432.295	-39
432.369	556
432.443	126
432.516	3256
432.590	9482
432.664	4046
432.737	-38
432.811	573
432.885	74
432.958	818
433.032	84
433.106	301
433.179	-186
433.253	-344
433.326	-69
433.400	-440
433.473	97
433.547	-403
433.620	540
433.694	251
433.767	463
433.841	49
433.914	-40
433.988	123
434.061	-14
434.134	-177
434.208	-50
434.281	-194
434.355	-686
434.428	297
434.501	-696
434.575	62
434.648	507
434.721	45
434.795	-142
434.868	-404
434.941	-176
435.014	-288
435.088	-201
435.161	880
435.234	262
435.307	510
435.381	994
435.454	1027
435.527	3641
435.600	4008
435.673	2745
435.746	1113
435.819	1353
435.892	740
435.966	-235
436.039	227
436.112	172
436.185	176
436.258	-660
436.331	-447
436.404	-110
436.477	-503
436.550	-625
436.623	-78
436.696	237
436.769	-18
436.842	-1232
436.915	543
436.987	-516
437.060	141
437.133	-551
437.206	-182
437.279	226
437.352	60
437.425	-47
437.498	-443
437.570	126
437.643	2
437.716	-692
437.789	-387
437.861	-23
437.934	201
438.007	-162
438.080	-1223
438.152	88
438.225	944
438.298	6072
438.370	19599
438.443	7308
438.516	984
438.588	204
438.661	-533
438.734	408
438.806	-550
438.879	-127
438.951	435
439.024	-331
439.096	-521
439.169	-204
439.241	677
439.314	583
439.386	-381
439.459	485
439.531	-87
439.604	-451
439.676	840
439.749	347
439.821	-476
439.893	419
439.966	-231
440.038	-730
440.110	422
440.183	197
440.255	-823
440.327	570
440.400	1746
440.472	7608
440.544	4455
440.617	9
440.689	1100
440.761	639
440.833	-494
440.905	260
440.978	23
441.050	-256
441.122	752
441.194	-136
441.266	-397
441.338	-508
441.411	399
441.483	1037
441.555	1850
441.627	438
441.699	347
441.771	-706
441.843	-443
441.915	604
441.987	77
442.059	109
442.131	623
442.203	1115
442.275	1198
442.347	3452
442.419	7459
442.491	46148
442.563	117726
442.635	40360
442.706	5846
442.778	2101
442.850	751
442.922	678
442.994	867
443.066	314
443.137	1684
443.209	2317
443.281	4618
443.353	11818
443.425	60187
443.496	239877
443.568	213859
443.640	66436
443.711	11053
443.783	3352
443.855	1661
443.926	811
443.998	372
444.070	660
444.141	1416
444.213	1385
444.285	488
444.356	-87
444.428	105
444.499	-108
444.571	600
444.642	467
444.714	842
444.785	1186
444.857	686
444.928	640
445.000	796
445.071	1871
445.143	3163
445.214	4661
445.285	8824
445.357	25851
445.428	153751
445.500	388568
445.571	196664
445.642	91163
445.714	22131
445.785	6417
445.856	3000
445.928	1459
445.999	530
446.070	838
446.141	1523
446.213	880
446.284	306
446.355	286
446.426	27
446.497	78
446.569	-344
446.640	-471
446.711	301
446.782	-601
446.853	-101
446.924	120
446.995	-74
447.066	38
447.138	-273
447.209	526
447.280	-1221
447.351	-147
447.422	-1037
447.493	-390
447.564	7
447.635	-904
447.706	-344
447.777	124
447.847	542
447.918	-1295
447.989	-5
448.060	-494
448.131	402
448.202	-566
448.273	-93
448.344	253
448.414	-430
448.485	105
448.556	67
448.627	-741
448.698	-561
448.768	-184
448.839	-47
448.910	70
448.981	129
449.051	397
449.122	282
449.193	-441
449.263	126
449.334	21
449.405	1934
449.475	1833
449.546	2351
449.616	1280
449.687	2213
449.758	1375
449.828	1269
449.899	827
449.969	468
450.040	986
450.110	1236
450.181	545
450.251	852
450.322	899
450.392	1174
450.463	1155
450.533	-175
450.604	178
450.674	364
450.744	942
450.815	333
450.885	1183
450.955	261
451.026	-323
451.096	-416
451.166	-90
451.237	-134
451.307	608
451.377	247
451.447	100
451.518	301
451.588	-149
451.658	1041
451.728	875
451.799	552
451.869	-23
451.939	211
452.009	211
452.079	492
452.149	-198
452.219	533
452.289	917
452.360	519
452.430	161
452.500	349
452.570	1520
452.640	3937
452.710	9191
452.780	8591
452.850	4776
452.920	2047
452.990	1490
453.060	531
453.129	-62
453.199	181
453.269	506
453.339	629
453.409	762
453.479	1224
453.549	1591
453.619	1619
453.688	-211
453.758	956
453.828	1025
453.898	1259
453.968	416
454.037	904
454.087	615
454.107	491
454.168	433
454.177	417
454.247	250
454.249	260
454.316	266
454.330	117
454.386	-506
454.411	-281
454.456	71
454.492	78
454.525	71
454.574	1005
454.595	1406
454.655	480
454.665	317
454.734	840
454.736	844
454.804	677
454.817	596
454.873	225
454.898	217
454.943	179
454.979	461
455.013	767
455.060	506
455.082	334
455.141	1145
455.152	1340
455.221	1480
455.222	1529
455.291	5504
455.303	8419
455.360	20298
455.384	34542
455.430	59433
455.465	43250
455.499	28442
455.546	11554
455.569	3743
455.627	1663
455.638	1267
455.707	656
455.708	660
455.777	263
455.789	463
455.846	1279
455.869	948
455.916	250
455.950	793
455.985	1342
456.031	639
456.054	267
456.112	317
456.124	333
456.193	616
456.193	611
456.262	736
456.274	729
456.332	619
456.355	378
456.401	36
456.436	437
456.470	662
456.516	235
456.540	66
456.597	271
456.609	304
456.678	400
456.678	394
456.747	827
456.759	663
456.817	-181
456.840	-152
456.886	-123
456.920	195
456.955	508
457.001	323
457.024	147
457.082	418
457.093	535
457.162	-9
457.163	1
457.232	501
457.243	513
457.301	227
457.324	83
457.370	100
457.405	400
457.439	646
457.485	521
457.508	498
457.566	1219
457.577	1316
457.646	1552
457.647	1561
457.715	2536
457.727	2863
457.784	4946
457.808	7322
457.853	10943
457.889	13497
457.922	14852
457.969	9400
457.991	8014
458.050	8749
458.060	8954
458.129	17385
458.130	17614
458.198	23221
458.211	20801
458.267	10244
458.292	7214
458.336	3801
458.372	3212
458.405	3750
458.453	5460
458.474	6766
458.533	14307
458.543	15112
458.611	31914
458.614	31915
458.680	22523
458.694	18279
458.749	7029
458.775	5334
458.818	2758
458.855	2296
458.887	2084
458.936	1490
458.955	1321
459.016	934
459.024	920
459.093	1544
459.097	1549
459.162	822
459.177	744
459.230	883
459.257	1108
459.299	1401
459.338	1575
459.368	1560
459.418	1288
459.437	1332
459.499	1218
459.505	1138
459.574	899
459.579	863
459.643	731
459.659	765
459.711	791
459.740	864
459.780	850
459.820	612
459.849	747
459.900	1239
459.917	1345
459.981	1240
459.986	1195
460.054	1233
460.061	1228
460.123	1027
460.141	1026
460.191	1485
460.222	1733
460.260	1711
460.302	1355
460.328	1623
460.382	2565
460.397	2598
460.462	2689
460.465	2856
460.534	7517
460.543	8037
460.602	30331
460.623	40030
460.671	62479
460.703	91987
460.739	100010
460.783	87770
460.808	76083
460.864	16623
460.876	9786
460.944	3185
460.945	3099
461.013	1509
461.024	1329
461.081	1704
461.104	1966
461.150	1912
461.184	1783
461.218	1754
461.264	1575
461.286	1436
461.345	723
461.355	662
461.423	1213
461.425	1214
461.491	916
461.505	948
461.559	1454
461.585	1447
461.628	1063
461.665	1199
461.696	1582
461.745	1479
461.764	1148
461.825	474
461.832	566
461.901	1520
461.905	1578
461.969	673
461.985	482
462.037	1332
462.065	1588
462.105	969
462.145	761
462.173	1085
462.225	1240
462.241	1078
462.305	872
462.310	911
462.378	1307
462.385	1349
462.446	1306
462.465	1235
462.514	1427
462.545	1651
462.582	1415
462.625	1325
462.650	1496
462.705	1515
462.718	1416
462.785	772
462.786	775
462.854	1008
462.865	1080
462.922	966
462.945	1045
462.990	1504
463.025	1519
463.058	1379
463.104	1140
463.126	940
463.184	604
463.194	662
463.262	1268
463.264	1282
463.330	1643
463.344	1669
463.398	1530
463.424	1532
463.466	1113
463.504	901
463.533	1173
463.583	1317
463.601	1328
463.663	1228
463.669	1158
463.737	927
463.743	879
463.805	1643
463.823	1777
463.873	1200
463.903	1239
463.940	1595
463.982	1442
464.008	1334
464.062	1229
464.076	1213
464.142	1356
464.144	1354
464.211	1054
464.221	1022
464.279	1451
464.301	1614
464.347	1530
464.381	1312
464.414	1267
464.461	1419
464.482	1346
464.540	1078
464.550	1175
464.617	1803
464.620	1829
464.685	2981
464.699	3171
464.753	5215
464.779	6314
464.820	7265
464.859	8484
464.888	8025
464.938	6386
464.956	6065
465.018	5077
465.023	5087
465.091	5198
465.098	5216
465.158	5438
465.177	5488
465.226	5442
465.257	5455
465.293	5408
465.336	5206
465.361	4952
465.416	4479
465.428	4655
465.495	5576
465.496	5580
465.563	5279
465.575	5218
465.631	5249
465.654	5314
465.698	5248
465.734	5032
465.765	4984
465.813	5058
465.833	5216
465.893	5555
465.900	5538
465.968	5345
465.972	5332
466.035	5778
466.052	5888
466.102	6212
466.131	6350
466.170	6264
466.210	6190
466.237	6644
466.290	7550
466.304	7670
466.369	8184
466.372	8212
466.439	8754
466.449	8814
466.506	9191
466.528	9347
466.573	9242
466.607	9128
466.641	9141
466.687	9147
466.708	9347
466.766	9884
466.775	9963
466.842	10450
466.845	10463
466.909	11123
466.925	11270
466.977	10868
467.004	10635
467.044	10816
467.083	10961
467.111	11989
467.163	13914
467.178	14284
467.242	15759
467.245	15641
467.312	12841
467.321	12458
467.379	10558
467.400	9851
467.446	9720
467.480	9608
467.559	10091
467.638	8406
467.717	8838
467.796	9148
467.875	7238
467.955	7891
468.034	7806
468.113	8394
468.192	8267
468.271	7496
468.350	9175
468.429	9278
468.508	10277
468.588	8071
468.667	6832
468.746	7381
468.825	6195
468.904	6348
468.983	5946
469.062	6214
469.141	6460
469.220	6330
469.299	6780
469.378	7532
469.456	11310
469.535	10021
469.614	9004
469.693	7885
469.772	7954
469.851	7040
469.930	6980
470.009	7568
470.088	7667
470.166	7053
470.245	6159
470.324	8196
470.403	6808
470.482	7054
470.560	6374
470.639	5862
470.718	6219
470.797	6047
470.875	6310
470.954	6206
471.033	6070
471.111	5270
471.190	5172
471.269	5525
471.347	6112
471.426	6129
471.505	6857
471.583	8734
471.662	8883
471.740	7756
471.819	7055
471.898	6689
471.976	7027
472.055	6467
472.133	7199
472.212	7841
472.290	6646
472.369	7174
472.447	5921
472.526	5789
472.604	5824
472.683	5463
472.761	5573
472.839	5390
472.918	5336
472.996	3989
473.075	4994
473.153	5369
473.231	5124
473.310	5054
473.388	5334
473.466	5349
473.545	5745
473.623	6988
473.701	6171
473.780	6032
473.858	4484
473.936	6650
474.014	5643
474.093	6357
474.171	6938
474.249	6505
474.327	4508
474.405	4890
474.484	4850
474.562	5992
474.640	4925
474.718	6344
474.796	6458
474.874	6351
474.952	5675
475.030	5906
475.108	5817
475.187	8329
475.265	8117
475.343	6768
475.421	6256
475.499	5093
475.577	5060
475.655	4785
475.733	4619
475.811	4735
475.889	4264
475.966	5086
476.044	3805
476.122	4244
476.200	4235
476.278	4406
476.356	3397
476.434	4954
476.512	2878
476.590	3476
476.667	4873
476.745	3056
476.823	3974
476.901	3878
476.979	3519
477.056	4069
477.134	3637
477.212	4074
477.290	3996
477.367	2517
477.445	3372
477.523	2837
477.601	3669
477.678	3875
477.756	3600
477.834	3128
477.911	2715
477.989	4313
478.066	2265
478.144	3151
478.222	3070
478.299	4145
478.377	3651
478.454	3828
478.532	2852
478.609	2175
478.687	3207
478.764	2765
478.842	2173
478.919	2887
478.997	2097
479.074	2508
479.152	2604
479.229	2541
479.307	2104
479.384	3511
479.461	1885
479.539	1347
479.616	2294
479.694	1971
479.771	2649
479.848	1506
479.926	703
480.003	3158
480.080	1814
480.157	2270
480.235	1921
480.312	1638
480.389	1971
480.467	1897
480.544	1334
480.621	1650
480.698	1892
480.775	2683
480.853	2205
480.930	1852
481.007	2110
481.084	3419
481.161	6118
481.238	4897
481.315	2129
481.392	2548
481.470	1824
481.547	1388
481.624	1242
481.701	1599
481.778	1524
481.855	1613
481.932	1731
482.009	2074
482.086	1907
482.163	2196
482.240	1894
482.317	3679
482.393	2873
482.470	1875
482.547	1155
482.624	1790
482.701	1731
482.778	2206
482.855	514
482.932	1321
483.009	624
483.085	2904
483.162	4151
483.239	4813
483.316	1538
483.393	2427
483.469	1636
483.546	1721
483.623	1506
483.699	1084
483.776	940
483.853	1735
483.930	2136
484.006	4474
484.083	6843
484.160	22009
484.236	46962
484.313	38585
484.389	25330
484.466	21671
484.543	19112
484.619	20334
484.696	22380
484.772	18956
484.849	19376
484.925	18653
485.002	19176
485.078	17564
485.155	18283
485.231	17953
485.308	16951
485.384	18248
485.461	16739
485.537	17453
485.614	16864
485.690	16310
485.766	16252
485.843	15963
485.919	15568
485.995	16678
486.072	14811
486.148	14823
486.224	14935
486.301	15402
486.377	15195
486.453	14520
486.530	16916
486.606	25561
486.682	29172
486.758	23920
486.835	20798
486.911	18645
486.987	19677
487.063	19781
487.139	19814
487.215	20424
487.292	20148
487.368	19081
487.444	18053
487.520	19523
487.596	22066
487.672	29038
487.748	53348
487.824	78869
487.900	36411
487.976	18349
488.052	15352
488.128	15275
488.204	13098
488.280	14230
488.356	13994
488.432	12946
488.508	13795
488.584	12249
488.660	12667
488.736	12701
488.812	12059
488.888	15405
488.964	16531
489.039	14625
489.115	16603
489.191	14545
489.267	12707
489.343	13325
489.418	11779
489.494	12161
489.570	9995
489.646	13447
489.722	11085
489.797	10740
489.873	11067
489.949	12308
490.024	11731
490.100	8818
490.176	11103
490.251	9975
490.327	10251
490.403	8482
490.478	10216
490.554	9092
490.629	8908
490.705	8630
490.781	9780
490.856	8390
490.932	9730
491.007	9540
491.083	8748
491.158	7712
491.234	8016
491.309	8884
491.385	7998
491.460	8081
491.536	7858
491.611	7299
491.686	6809
491.762	7877
491.837	6267
491.913	10002
491.988	8609
492.063	9367
492.139	6597
492.214	7105
492.289	6796
492.365	6784
492.440	6768
492.515	5128
492.590	6578
492.666	5832
492.741	6044
492.816	6750
492.891	5036
492.967	7452
493.042	5262
493.117	7423
493.192	7402
493.267	13815
493.342	49804
493.418	75039
493.493	14496
493.568	5435
493.643	4312
493.718	6446
493.793	3959
493.868	5688
493.943	3253
494.018	5117
494.093	3185
494.168	4074
494.243	4568
494.318	3958
494.393	3946
494.468	4524
494.543	3560
494.618	4800
494.693	3682
494.768	2835
494.842	4662
494.917	3135
494.992	3337
495.067	4203
495.142	3041
495.217	3521
495.292	3653
495.366	3080
495.441	3466
495.516	3914
495.591	3985
495.665	5412
495.740	8085
495.815	5865
495.890	3417
495.964	1345
496.039	5820
496.114	4862
496.188	8424
496.263	8868
496.338	2200
496.412	3327
496.487	3958
496.561	3571
496.636	4422
496.710	4305
496.785	4066
496.860	5818
496.934	4120
497.009	5453
497.083	5931
497.158	7065
497.232	6199
497.307	6824
497.381	8839
497.455	8750
497.530	10281
497.604	11474
497.679	11679
497.753	16579
497.827	23933
497.902	28498
497.976	26866
498.050	23733
498.125	23728
498.199	30123
498.273	40091
498.348	40877
498.422	29911
498.496	22474
498.570	17613
498.645	13853
498.719	11477
498.793	10489
498.867	8938
498.941	7381
499.016	6618
499.090	7907
499.164	7207
499.238	5531
499.312	4015
499.386	5230
499.460	4331
499.534	3369
499.609	3329
499.683	2764
499.757	3670
499.831	2987
499.905	4620
499.979	4003
500.053	2728
500.127	3659
500.201	1824
500.275	2502
500.349	2415
500.422	2280
500.496	1853
500.570	2122
500.644	3271
500.718	3671
500.792	2926
500.866	2469
500.940	1212
501.013	2097
501.087	1274
501.161	1950
501.235	271
501.309	2907
501.382	1363
501.456	3280
501.530	1546
501.603	-229
501.677	917
501.751	61
501.825	2139
501.898	2608
501.972	1370
502.046	1672
502.119	231
502.193	1867
502.266	433
502.340	1344
502.413	1726
502.487	1370
502.561	-261
502.634	1723
502.708	1973
502.781	600
502.855	1950
502.928	837
503.002	1123
503.075	449
503.149	1359
503.222	1438
503.295	1111
503.369	1637
503.442	444
503.516	1929
503.589	693
503.662	2127
503.736	1167
503.809	3411
503.882	1693
503.956	3445
504.029	5861
504.102	21635
504.175	37161
504.249	13007
504.322	4339
504.395	2139
504.468	707
504.542	328
504.615	489
504.688	1769
504.761	-298
504.834	1993
504.907	622
504.980	1130
505.053	502
505.127	-1256
505.200	2794
505.273	1045
505.346	-290
505.419	596
505.492	1730
505.565	764
505.638	2082
505.711	1186
505.784	-84
505.857	914
505.930	1354
506.003	-780
506.076	1728
506.149	-689
506.221	-1926
506.294	880
506.367	-34
506.440	518
506.513	973
506.586	634
506.659	-455
506.731	584
506.804	358
506.877	-765
506.950	-274
507.022	348
507.095	-1045
507.168	364
507.241	450
507.313	-212
507.386	-562
507.459	336
507.531	844
507.604	-116
507.677	906
507.749	-683
507.822	1588
507.894	7228
507.967	16917
508.040	10298
508.112	7873
508.185	6968
508.257	3587
508.330	5633
508.402	3796
508.475	4780
508.547	4310
508.620	4766
508.692	4208
508.765	4590
508.837	3474
508.909	3899
508.982	3258
509.054	4626
509.127	4048
509.199	2964
509.271	1886
509.344	2819
509.416	2490
509.488	2728
509.560	4260
509.633	3188
509.705	3689
509.777	3297
509.849	3531
509.922	2932
509.994	3396
510.066	4861
510.138	4945
510.210	17404
510.283	17742
510.355	12484
510.427	9532
510.499	8109
510.571	7656
510.643	5974
510.715	8581
510.787	5560
510.859	8422
510.931	7007
511.003	6498
511.076	7436
511.148	5943
511.219	6228
511.291	6251
511.363	6951
511.435	5661
511.507	5659
511.579	6653
511.651	5974
511.723	5117
511.795	5422
511.867	5769
511.939	5963
512.010	5354
512.082	5785
512.154	4080
512.226	6032
512.298	11040
512.369	18378
512.441	13718
512.513	10184
512.585	8524
512.656	9614
512.728	6482
512.800	7912
512.871	8197
512.943	8016
513.015	6493
513.086	8082
513.158	7250
513.230	5997
513.301	6234
513.373	7719
513.444	7243
513.516	5956
513.588	5550
513.659	5718
513.731	6761
513.802	4658
513.874	8031
513.945	6320
514.016	5842
514.088	6340
514.159	4970
514.231	7932
514.302	12942
514.374	12900
514.445	9891
514.516	10454
514.588	7495
514.659	8403
514.730	7378
514.802	10780
514.873	12930
514.944	16891
515.016	10258
515.087	8046
515.158	7693
515.229	10849
515.301	15057
515.372	24120
515.443	12887
515.514	9067
515.585	6874
515.656	7151
515.728	7330
515.799	5662
515.870	6252
515.941	6078
516.012	6165
516.083	11514
516.154	10255
516.225	9200
516.296	8798
516.367	7585
516.438	6245
516.509	6651
516.580	6138
516.651	9734
516.722	16616
516.793	12545
516.864	5741
516.935	6339
517.006	7514
517.077	6372
517.148	8434
517.219	20178
517.289	30169
517.360	8580
517.431	6805
517.502	4030
517.573	6063
517.643	5718
517.714	7373
517.785	9019
517.856	5234
517.926	8108
517.997	6905
518.068	6133
518.138	7967
518.209	6319
518.280	14247
518.350	47453
518.421	24817
518.492	8617
518.562	7343
518.633	8253
518.703	8297
518.774	18488
518.845	44827
518.915	53358
518.986	14865
519.056	8203
519.127	8015
519.197	7905
519.268	7547
519.338	6108
519.408	5960
519.479	5259
519.549	3042
519.620	5801
519.690	3977
519.760	4338
519.831	3492
519.901	3992
519.971	4414
520.042	2980
520.112	2430
520.182	4340
520.253	4338
520.323	5013
520.393	3200
520.463	5585
520.534	449
520.604	5568
520.674	3835
520.744	2730
520.814	3598
520.885	4715
520.955	3239
521.025	3854
521.095	3374
521.165	4301
521.235	2646
521.305	2738
521.375	3069
521.445	4099
521.515	2298
521.585	4142
521.655	1514
521.725	4238
521.795	4018
521.865	1461
521.935	5000
522.005	2815
522.075	2278
522.145	4232
522.215	1902
522.285	2849
522.355	2556
522.424	3096
522.494	1725
522.564	3244
522.634	3067
522.704	5872
522.774	2646
522.843	2754
522.913	2642
522.983	2053
523.053	1826
523.122	2905
523.192	1573
523.262	1526
523.331	2046
523.401	3217
523.471	1962
523.540	2315
523.610	751
523.680	1834
523.749	2669
523.819	2667
523.888	2276
523.958	2082
524.027	1892
524.097	1726
524.166	1309
524.236	277
524.305	2336
524.375	45
524.444	610
524.514	2809
524.583	1516
524.653	1527
524.722	1798
524.791	360
524.861	3205
524.930	112
524.999	-50
525.069	2203
525.138	1284
525.207	1134
525.277	2204
525.346	1048
525.415	1924
525.484	2217
525.554	587
525.623	2612
525.692	5163
525.761	3901
525.830	3590
525.900	5014
525.969	7837
526.038	13689
526.107	28679
526.176	100049
526.245	94005
526.314	24756
526.383	45342
526.452	71024
526.522	114232
526.591	136646
526.660	19118
526.729	10706
526.797	12191
526.867	13664
526.935	48016
527.004	230913
527.073	190267
527.142	15084
527.211	3916
527.280	3516
527.349	2942
527.418	571
527.487	2072
527.555	413
527.624	731
527.693	-602
527.762	1964
527.831	-177
527.899	377
527.968	69
528.037	-632
528.106	1962
528.174	1304
528.243	862
528.312	731
528.380	458
528.449	-1228
528.518	1644
528.586	-1853
528.655	1510
528.723	139
528.792	-43
528.861	-1798
528.929	-797
528.998	686
529.066	-3
529.135	-332
529.203	-1236
529.272	-1223
529.340	906
529.409	913
529.477	-411
529.545	-1001
529.614	2135
529.682	-2455
529.751	-894
529.819	2247
529.887	-660
529.956	-1526
530.024	781
530.092	-557
530.161	398
530.229	-103
530.297	-498
530.365	734
530.434	196
530.502	-963
530.570	-323
530.638	-2627
530.707	-154
530.775	564
530.843	398
530.911	-183
530.979	-16
531.047	-223
531.115	-6
531.183	-228
531.252	37
531.320	-1140
531.388	-1539
531.456	-272
531.524	-2268
531.592	577
531.660	728
531.728	-1464
531.796	-423
531.864	210
531.932	-1185
532.000	-1245
532.067	325
532.135	-777
532.203	-21
532.271	-2011
532.339	1727
532.407	931
532.475	296
532.542	19
532.610	459
532.678	-1380
532.746	2126
532.814	4046
532.881	1337
532.949	441
533.017	112
533.084	-442
533.152	760
533.220	-398
533.287	-770
533.355	142
533.423	479
533.490	-904
533.558	825
533.625	66
533.693	1316
533.761	1060
533.828	2014
533.896	-724
533.963	1559
534.031	1096
534.098	1506
534.166	1342
534.233	-205
534.300	1591
534.368	1787
534.435	455
534.503	1254
534.570	1677
534.637	1061
534.705	2468
534.772	3152
534.840	6228
534.907	41623
534.974	68636
535.041	8049
535.109	1869
535.176	132
535.243	349
535.310	742
535.378	-74
535.445	761
535.512	602
535.579	1602
535.646	237
535.714	1249
535.781	4637
535.848	3571
535.915	2492
535.982	1387
536.049	394
536.116	3062
536.183	362
536.250	913
536.317	427
536.384	2051
536.451	1268
536.518	1779
536.585	388
536.652	2184
536.719	1518
536.786	77
536.853	878
536.920	1616
536.987	1564
537.053	490
537.120	3836
537.187	3911
537.254	669
537.321	544
537.388	2231
537.454	-180
537.521	599
537.588	1138
537.654	3009
537.721	4613
537.788	4565
537.855	2585
537.921	2777
537.988	2322
538.055	2439
538.121	770
538.188	1201
538.254	1751
538.321	2344
538.388	1720
538.454	1539
538.521	2644
538.587	1486
538.654	2119
538.720	1607
538.787	2626
538.853	1274
538.920	1165
538.986	961
539.053	1365
539.119	1559
539.185	1712
539.252	2061
539.318	1160
539.385	3922
539.451	3447
539.517	4370
539.583	4145
539.650	2847
539.716	3704
539.782	2680
539.849	1301
539.915	2740
539.981	1318
540.047	1030
540.114	1560
540.180	3605
540.246	1078
540.312	1821
540.378	1766
540.444	2537
540.510	2487
540.576	2976
540.643	2813
540.709	506
540.775	2173
540.841	1346
540.907	3246
540.973	4858
541.039	4785
541.105	4270
541.171	3608
541.237	1837
541.303	4216
541.369	4322
541.435	3364
541.500	2735
541.566	1166
541.632	1829
541.698	1602
541.764	2435
541.830	1639
541.896	993
541.961	3030
542.027	630
542.093	2076
542.159	3145
542.224	1139
542.290	4937
542.356	3354
542.421	3643
542.487	4123
542.553	2254
542.618	4140
542.684	2288
542.750	1858
542.815	2352
542.881	1159
542.947	2665
543.012	3448
543.078	2129
543.143	1607
543.209	3075
543.274	1770
543.340	2701
543.405	3237
543.471	3353
543.536	3191
543.602	3253
543.667	873
543.732	3985
543.798	1543
543.863	3010
543.928	1712
543.994	1896
544.059	2587
544.124	3061
544.190	2328
544.255	4510
544.320	3237
544.386	1641
544.451	3238
544.516	3038
544.581	1964
544.646	3969
544.712	6761
544.777	4806
544.842	2726
544.907	2057
544.972	2998
545.037	3396
545.102	3934
545.168	2394
545.233	3790
545.298	3607
545.363	4365
545.428	4195
545.493	4777
545.558	2303
545.623	2890
545.688	3331
545.753	3578
545.818	3119
545.883	4538
545.947	2963
546.012	4095
546.077	3391
546.142	5033
546.207	2744
546.272	3897
546.337	4244
546.401	6310
546.466	6084
546.531	4343
546.596	5652
546.661	4930
546.725	5391
546.790	3903
546.855	5739
546.919	4516
546.984	6040
547.049	6173
547.113	6924
547.178	7853
547.243	8305
547.307	10681
547.372	12207
547.436	12216
547.501	11663
547.565	13694
547.630	13117
547.695	12172
547.759	12475
547.823	11922
547.888	12137
547.952	13337
548.017	13950
548.081	18190
548.146	15230
548.210	13433
548.274	15139
548.339	14891
548.403	14111
548.468	12562
548.532	12436
548.596	13363
548.660	12528
548.725	13341
548.789	14390
548.853	16731
548.917	13938
548.982	13201
549.046	11877
549.110	11007
549.174	11501
549.238	12389
549.303	14279
549.367	16362
549.431	14604
549.495	13335
549.559	12373
549.623	15639
549.687	17005
549.751	16053
549.815	20276
549.879	21317
549.943	18619
550.007	20180
550.071	21090
550.135	18609
550.199	16817
550.263	16497
550.327	16807
550.391	17325
550.455	18174
550.519	19053
550.582	20390
550.646	22768
550.710	23412
550.774	23303
550.838	23641
550.901	23286
550.965	25895
551.029	26203
551.093	29072
551.156	30654
551.220	36355
551.284	47564
551.347	35840
551.411	26484
551.475	24691
551.538	24368
551.602	23839
551.666	21087
551.729	19788
551.793	20342
551.856	19399
551.920	19114
551.983	17963
552.047	17472
552.110	18247
552.174	19805
552.237	19475
552.301	17972
552.364	16232
552.428	15742
552.491	17108
552.554	17531
552.618	17380
552.681	18440
552.745	15942
552.808	17665
552.871	18793
552.934	18996
552.998	16379
553.061	17236
553.124	16594
553.187	16503
553.251	16574
553.314	17570
553.377	17023
553.440	20665
553.503	35035
553.567	56362
553.630	23011
553.693	18857
553.756	16327
553.819	16277
553.882	16382
553.945	15853
554.008	15216
554.071	15532
554.134	16983
554.197	14685
554.260	14037
554.323	15602
554.386	16266
554.449	15245
554.512	17012
554.575	14066
554.638	14878
554.701	15188
554.764	14972
554.827	14015
554.889	12949
554.952	12507
555.015	11564
555.078	11484
555.141	12911
555.203	13200
555.266	12061
555.329	13384
555.391	11681
555.454	11828
555.517	11076
555.580	11879
555.642	9939
555.705	9941
555.768	10611
555.830	11112
555.893	8880
555.955	10220
556.018	8775
556.080	8336
556.143	9226
556.206	8823
556.268	9727
556.330	9323
556.393	7807
556.455	8225
556.518	8680
556.580	8160
556.643	6223
556.705	7215
556.767	6403
556.830	7169
556.892	6882
556.955	6364
557.017	6855
557.079	6581
557.142	6894
557.204	6071
557.266	7281
557.328	6717
557.391	4105
557.453	4988
557.515	5928
557.577	5700
557.639	5227
557.701	6889
557.764	6068
557.826	6418
557.888	7319
557.950	7843
558.012	8728
558.074	12337
558.136	30147
558.198	91236
558.260	38453
558.322	9909
558.384	11514
558.446	14873
558.508	18260
558.570	22006
558.632	27102
558.694	34719
558.756	56378
558.818	184393
558.880	560811
558.942	193581
559.003	100779
559.065	58035
559.127	20422
559.189	18575
559.251	21586
559.312	31885
559.374	78340
559.436	311180
559.498	182278
559.559	23500
559.621	18572
559.683	21094
559.744	33966
559.806	119036
559.868	224005
559.929	42002
559.991	17847
560.052	25391
560.114	84070
560.176	61947
560.237	41448
560.299	86089
560.360	18088
560.422	4916
560.483	3239
560.545	2808
560.606	2165
560.667	2209
560.729	1277
560.790	1458
560.852	1953
560.913	2152
560.974	1774
561.036	2148
561.097	1616
561.158	1858
561.220	1821
561.281	1434
561.342	1817
561.403	2330
561.465	786
561.526	3018
561.587	3283
561.648	1225
561.709	1243
561.771	1774
561.832	988
561.893	1944
561.954	623
562.015	1640
562.076	1129
562.137	959
562.198	994
562.259	1465
562.320	1292
562.381	1665
562.442	812
562.503	1502
562.564	915
562.625	1804
562.686	999
562.747	1281
562.808	972
562.869	1395
562.930	1029
562.991	775
563.051	579
563.112	1551
563.173	869
563.234	1221
563.294	845
563.355	974
563.416	713
563.477	1000
563.537	714
563.598	1452
563.659	593
563.720	1095
563.780	991
563.841	970
563.901	1324
563.962	1710
564.023	663
564.083	1464
564.144	1048
564.204	1000
564.265	960
564.325	1053
564.386	544
564.446	1776
564.507	1300
564.567	2204
564.628	1598
564.688	1459
564.749	1150
564.809	1807
564.869	1112
564.930	1261
564.990	1905
565.050	1863
565.111	2651
565.171	1309
565.231	2289
565.292	3287
565.352	1921
565.412	3292
565.472	1952
565.532	2317
565.593	1758
565.653	3111
565.713	3038
565.773	3046
565.833	2539
565.893	3930
565.953	3574
566.013	4811
566.074	3244
566.134	4643
566.194	3529
566.254	4429
566.314	4780
566.374	4661
566.434	5884
566.494	6488
566.554	6900
566.614	7586
566.673	7500
566.733	8865
566.793	8365
566.853	8448
566.913	10162
566.973	10555
567.033	10505
567.092	9738
567.152	9088
567.212	10736
567.272	10760
567.331	12234
567.391	13592
567.451	14491
567.511	15222
567.570	16277
567.630	13109
567.690	12998
567.749	14945
567.809	15954
567.868	19777
567.928	23980
567.988	27750
568.047	35537
568.107	45301
568.166	69158
568.226	125851
568.285	193762
568.345	152985
568.404	105290
568.464	85881
568.523	79511
568.582	78736
568.642	89630
568.701	117288
568.761	187811
568.820	333638
568.879	324405
568.939	201944
568.998	135096
569.057	97468
569.116	74695
569.176	59807
569.235	47459
569.294	39556
569.353	33664
569.413	29757
569.472	23866
569.531	21826
569.590	19827
569.649	17749
569.708	15761
569.767	14293
569.827	12396
569.886	11416
569.945	10875
570.004	10021
570.063	9209
570.122	8668
570.181	8303
570.240	8085
570.299	7104
570.358	5919
570.417	6343
570.475	5287
570.534	7095
570.593	5905
570.652	5955
570.711	5598
570.770	5166
570.829	7182
570.887	6068
570.946	5003
571.005	3305
571.064	3938
571.122	3399
571.181	4117
571.240	3534
571.299	3487
571.357	3645
571.416	3525
571.475	2754
571.533	3494
571.592	3238
571.650	2996
571.709	3260
571.768	3161
571.826	3170
571.885	2996
571.943	2606
572.002	2055
572.060	2491
572.119	2209
572.177	2218
572.236	2143
572.294	1651
572.352	3258
572.411	2942
572.469	2386
572.528	2364
572.586	1172
572.644	2376
572.703	1809
572.761	601
572.819	2111
572.877	2129
572.936	1842
572.994	2226
573.052	2363
573.110	1462
573.169	1812
573.227	2035
573.285	2391
573.343	1701
573.401	1225
573.459	2727
573.517	2278
573.576	1610
573.634	2804
573.692	2141
573.750	1487
573.808	2012
573.866	2056
573.924	1384
573.982	2151
574.040	891
574.098	1463
574.155	2488
574.213	1493
574.271	1685
574.329	2420
574.387	1526
574.445	1220
574.503	1902
574.560	783
574.618	2095
574.676	1680
574.734	2354
574.792	1787
574.849	1395
574.907	1187
574.965	2097
575.022	1479
575.080	1750
575.138	619
575.195	1969
575.253	1643
575.311	1229
575.368	1673
575.426	1289
575.483	1818
575.541	2158
575.598	1318
575.656	1185
575.713	1083
575.771	2382
575.828	1467
575.886	2029
575.943	1870
576.001	1545
576.058	1578
576.115	1041
576.173	1079
576.230	478
576.287	1366
576.345	1723
576.402	1304
576.459	1854
576.517	1235
576.574	1926
576.631	1416
576.688	1392
576.746	1255
576.803	1395
576.860	1367
576.917	1945
576.974	1357
577.031	2092
577.089	1508
577.146	1748
577.203	2078
577.260	2500
577.317	3183
577.374	2439
577.431	1972
577.488	2760
577.545	1745
577.602	2310
577.659	1446
577.716	3444
577.773	2538
577.830	1790
577.886	2772
577.943	2187
578.000	1533
578.057	1905
578.114	2485
578.171	2038
578.227	2290
578.284	2459
578.341	3017
578.398	2471
578.454	2366
578.511	1386
578.568	1195
578.625	1651
578.681	1136
578.738	2301
578.794	1630
578.851	1578
578.908	1240
578.964	1537
579.021	2400
579.077	2514
579.134	1828
579.190	1843
579.247	1923
579.303	1587
579.360	2108
579.416	2073
579.473	1669
579.529	2428
579.586	2603
579.642	1685
579.698	1433
579.755	3063
579.811	2420
579.867	2409
579.924	2340
579.980	1710
580.036	2091
580.093	3048
580.149	4285
580.205	4273
580.261	3852
580.317	2376
580.374	2721
580.430	3079
580.486	2897
580.542	3481
580.598	2737
580.619	2871
580.654	3101
580.692	2844
580.710	2712
580.765	2955
580.767	2956
580.823	2927
580.838	2894
580.879	2773
580.911	3240
580.935	3597
580.984	2228
580.991	2031
581.047	2923
581.057	2888
581.103	2710
581.130	3111
581.159	3501
581.203	3617
581.215	3654
581.270	3128
581.276	3042
581.326	2092
581.349	2404
581.382	2875
581.422	3164
581.438	3267
581.494	3205
581.494	3213
581.550	3633
581.567	3398
581.606	2758
581.640	3033
581.661	3218
581.713	4364
581.717	4451
581.773	3854
581.786	3745
581.829	3314
581.859	3702
581.885	4034
581.932	3424
581.940	3331
581.996	4441
582.004	4329
582.052	3544
582.077	3650
582.107	3779
582.150	3896
582.163	3930
582.219	4994
582.223	4927
582.274	4000
582.296	3848
582.330	3688
582.368	4513
582.386	4897
582.441	5099
582.441	5094
582.497	4616
582.514	4609
582.552	4898
582.587	5071
582.608	5038
582.659	6170
582.663	6252
582.719	5831
582.732	5667
582.774	5202
582.805	5032
582.830	4957
582.877	5805
582.885	5932
582.941	6250
582.950	6206
582.996	5829
583.023	5877
583.052	6234
583.095	7317
583.107	7532
583.162	7887
583.168	7904
583.218	7814
583.240	7561
583.273	7334
583.313	7411
583.328	7453
583.384	7391
583.385	7407
583.439	7628
583.458	7328
583.494	6838
583.531	7466
583.549	7908
583.603	8385
583.605	8389
583.660	8054
583.676	8186
583.715	8727
583.748	8829
583.770	8913
583.820	9189
583.825	9181
583.881	9108
583.893	8917
583.936	8546
583.965	9022
583.991	9387
584.038	9248
584.046	9267
584.101	10001
584.110	9983
584.156	9842
584.183	10251
584.211	10744
584.255	11050
584.266	11130
584.321	11134
584.328	11223
584.376	11945
584.400	11859
584.431	11808
584.472	11946
584.486	11991
584.541	12346
584.545	12343
584.596	12494
584.617	12620
584.651	13147
584.689	14047
584.706	14319
584.761	14884
584.762	14862
584.816	14263
584.834	14676
584.871	15879
584.906	16044
584.926	15864
584.978	16941
584.980	17034
585.035	17889
585.051	18201
585.090	19162
585.123	20194
585.145	21081
585.195	22621
585.200	22906
585.254	26889
585.267	27933
585.309	32035
585.340	35733
585.364	37685
585.412	37942
585.419	38084
585.473	40360
585.484	41191
585.528	49356
585.556	56115
585.583	75970
585.628	117279
585.637	136603
585.692	276350
585.700	300799
585.747	378581
585.772	360465
585.801	244714
585.845	91196
585.856	77729
585.910	45693
585.917	42069
585.965	37211
585.989	35410
586.019	34511
586.061	32592
586.074	32316
586.128	32713
586.133	32643
586.183	32774
586.205	32814
586.237	33664
586.277	34297
586.292	34562
586.346	35315
586.349	35336
586.401	37490
586.421	37883
586.455	38400
586.493	39368
586.509	40148
586.564	41091
586.565	41049
586.618	43649
586.637	44121
586.672	45831
586.709	48494
586.727	49961
586.781	52830
586.781	52953
586.835	52395
586.853	52326
586.889	53343
586.925	54133
586.944	54981
586.996	57403
586.998	57637
587.052	60241
587.068	61120
587.106	64039
587.140	66007
587.161	67104
587.212	69844
587.215	70234
587.269	74077
587.284	75236
587.323	79410
587.356	82357
587.377	84696
587.427	89312
587.431	89970
587.485	96613
587.499	98008
587.539	103729
587.571	108211
587.593	111780
587.643	119060
587.648	120376
587.702	131575
587.715	133966
587.755	143103
587.786	150005
587.810	156937
587.858	170284
587.864	172547
587.917	190662
587.930	194518
587.971	213850
588.001	227799
588.025	240958
588.073	265720
588.079	270628
588.133	310172
588.145	318146
588.187	357140
588.217	384683
588.241	413551
588.288	469125
588.295	479634
588.348	561036
588.360	577393
588.402	663103
588.431	722430
588.456	789094
588.503	916722
588.510	943613
588.564	1148837
588.575	1190552
588.617	1438709
588.646	1610674
588.671	1844354
588.718	2298448
588.725	2410004
588.778	3273950
588.789	3452342
588.832	4182331
588.861	4684851
588.886	4757589
588.932	4762447
588.939	4751743
588.993	4356541
589.004	4310498
589.047	4742448
589.075	4889999
589.100	4514438
589.147	3732503
589.154	3630386
589.207	2835910
589.218	2674863
589.261	2450119
589.290	2303892
589.314	2384890
589.361	2551755
589.368	2645892
589.421	3410232
589.433	3574124
589.475	4269006
589.504	4757066
589.528	4775102
589.576	4587984
589.582	4608648
589.635	4675870
589.647	4646664
589.689	3737784
589.718	3081147
589.742	2611475
589.790	1709136
589.795	1663664
589.849	1214566
589.861	1109484
589.902	928673
589.932	792836
589.955	734483
590.004	608821
590.009	602391
590.062	513256
590.075	489817
590.115	442844
590.146	404579
590.168	387112
590.218	344216
590.222	342751
590.275	309261
590.289	299416
590.328	281213
590.360	265006
590.381	257278
590.431	236094
590.435	235840
590.488	217460
590.503	211507
590.541	202544
590.574	193638
590.594	189492
590.645	176470
590.647	176721
590.700	166008
590.716	162226
590.753	156677
590.787	150396
590.806	148258
590.859	140262
590.859	140691
590.912	134197
590.930	131497
590.965	128192
591.001	124125
591.018	122705
591.071	116796
591.072	116285
591.124	112774
591.143	110854
591.177	108491
591.214	105247
591.230	105058
591.283	103050
591.285	102553
591.336	99147
591.356	97311
591.389	95502
591.427	92486
591.442	92092
591.495	89212
591.498	88646
591.547	86878
591.569	85532
591.600	84686
591.640	82802
591.653	82784
591.706	81330
591.711	80842
591.759	78937
591.782	77423
591.811	76929
591.853	75484
591.864	75651
591.917	74923
591.924	74501
591.969	73652
591.995	72699
592.022	71932
592.066	69838
592.075	69944
592.127	68793
592.137	68295
592.180	68243
592.208	67706
592.233	67298
592.279	65760
592.285	65979
592.338	65461
592.350	65065
592.390	63958
592.421	62653
592.443	62827
592.491	62397
592.495	62578
592.548	61491
592.562	60938
592.600	61500
592.633	61502
592.653	60993
592.704	58662
592.705	58983
592.775	58001
592.846	58188
592.916	57019
592.987	56651
593.058	55339
593.128	53969
593.199	52959
593.270	53080
593.341	52289
593.411	51167
593.482	50544
593.553	51408
593.623	50949
593.694	50977
593.764	51061
593.835	48234
593.906	50065
593.976	49476
594.047	48885
594.117	49742
594.188	49399
594.258	48624
594.329	48262
594.399	48921
594.470	47735
594.540	48977
594.611	49827
594.681	50101
594.751	52250
594.822	58752
594.892	61930
594.963	56891
595.033	53492
595.103	51692
595.174	51082
595.244	50888
595.314	50241
595.384	50630
595.455	51252
595.525	52004
595.595	52131
595.665	51966
595.736	50555
595.806	51462
595.876	51348
595.946	51845
596.016	52761
596.087	53648
596.157	53976
596.227	52863
596.297	54807
596.367	57290
596.437	59497
596.507	59442
596.577	57554
596.647	60321
596.717	61369
596.787	62065
596.857	63011
596.927	62119
596.997	62796
597.067	64908
597.137	66703
597.207	64799
597.277	63661
597.347	61214
597.417	60080
597.487	60723
597.557	60671
597.626	61699
597.696	61693
597.766	62565
597.836	59341
597.906	56981
597.975	55312
598.045	55480
598.115	56616
598.185	61013
598.254	65651
598.324	70106
598.394	71636
598.464	69017
598.533	67683
598.603	64424
598.672	63102
598.742	64464
598.812	65147
598.881	65312
598.951	64541
599.020	65279
599.090	66781
599.159	68624
599.229	65554
599.299	65313
599.368	66348
599.437	66559
599.507	61307
599.576	58834
599.646	58843
599.715	59426
599.785	57237
599.854	54329
599.924	53871
599.993	54203
600.062	54675
600.132	55305
600.201	58465
600.270	67216
600.340	69735
600.409	67973
600.478	68087
600.547	68789
600.617	62969
600.686	52866
600.755	47789
600.824	45085
600.894	44514
600.963	45856
601.032	43726
601.101	42855
601.170	40106
601.239	40522
601.308	40351
601.378	39085
601.447	39429
601.516	39513
601.585	39978
601.654	41797
601.723	40522
601.792	42022
601.861	43908
601.930	47205
601.999	44753
602.068	44015
602.137	44808
602.206	45278
602.275	45692
602.343	46219
602.412	45626
602.481	47372
602.550	46495
602.619	48124
602.688	48700
602.756	48327
602.825	48488
602.894	48974
602.963	51255
603.032	51245
603.100	51817
603.169	51507
603.238	52261
603.307	52759
603.375	53317
603.444	53326
603.513	54069
603.581	54778
603.650	56027
603.719	53600
603.787	55655
603.856	57996
603.924	58382
603.993	59467
604.061	63076
604.130	65207
604.198	67682
604.267	68345
604.335	68162
604.404	69997
604.472	70996
604.541	71408
604.609	71735
604.678	71681
604.746	72074
604.815	74181
604.883	74706
604.951	74964
605.020	76834
605.088	76490
605.156	78961
605.225	80280
605.293	80373
605.361	80090
605.429	80910
605.498	82893
605.566	85226
605.634	89468
605.702	93019
605.771	94150
605.839	95941
605.907	93356
605.975	88459
606.043	87577
606.111	88576
606.180	88274
606.248	90766
606.316	91209
606.384	84009
606.452	84979
606.520	88521
606.588	91377
606.656	91083
606.724	89661
606.792	85609
606.860	76274
606.928	71400
606.996	67661
607.064	66420
607.132	66337
607.200	71482
607.267	75443
607.335	74679
607.403	77256
607.471	74397
607.539	73953
607.607	74432
607.674	64626
607.742	65963
607.810	63818
607.878	64127
607.946	67230
608.013	68714
608.081	70255
608.149	70544
608.216	72837
608.284	75610
608.352	75734
608.419	73533
608.487	72899
608.555	72068
608.622	74246
608.690	79553
608.757	87174
608.825	89164
608.893	84337
608.960	80744
609.028	77227
609.095	78452
609.163	76484
609.230	69264
609.298	63831
609.365	67525
609.432	71782
609.500	77874
609.567	88229
609.635	102058
609.702	106690
609.769	102955
609.837	81907
609.904	73334
609.971	77272
610.039	95818
610.106	143038
610.173	326068
610.241	832779
610.308	445314
610.375	115099
610.442	82486
610.509	76384
610.577	74077
610.644	75705
610.711	77079
610.778	77628
610.845	81651
610.912	87037
610.980	93495
611.047	99005
611.114	90408
611.181	83933
611.248	83930
611.315	89086
611.382	91456
611.449	94888
611.516	95977
611.583	94651
611.650	96530
611.717	99794
611.784	104070
611.851	112554
611.918	128855
611.984	172385
612.051	295526
612.118	730174
612.185	2002265
612.252	1236044
612.319	225316
612.386	147797
612.452	125549
612.519	114407
612.586	110875
612.653	110295
612.719	115437
612.786	108779
612.853	99511
612.919	97615
612.986	100001
613.053	92530
613.120	87220
613.186	83074
613.253	84915
613.319	84243
613.386	85105
613.453	86564
613.519	85534
613.586	84596
613.652	88544
613.719	85483
613.785	87224
613.852	88757
613.918	90301
613.985	97690
614.051	121634
614.118	187233
614.184	179718
614.250	97017
614.317	92116
614.383	88961
614.449	90084
614.516	90584
614.582	89197
614.648	88166
614.715	88805
614.781	84036
614.847	85933
614.914	86118
614.980	85643
615.046	86422
615.112	91600
615.179	96826
615.245	111312
615.311	148116
615.377	249668
615.443	285999
615.509	163507
615.575	124427
615.642	112476
615.708	115896
615.774	126501
615.840	150174
615.906	200971
615.972	343709
616.038	728374
616.104	1316087
616.170	2701457
616.236	2269778
616.302	419033
616.368	246444
616.434	164531
616.500	138806
616.565	155198
616.631	204198
616.697	160478
616.763	166519
616.829	273778
616.895	532386
616.961	522431
617.026	198696
617.092	112397
617.158	98352
617.224	90038
617.289	83123
617.355	77345
617.421	73831
617.487	73946
617.552	70235
617.618	69248
617.684	66955
617.749	71116
617.815	65802
617.880	63749
617.946	63408
618.012	65684
618.077	66116
618.143	62754
618.208	62828
618.274	68526
618.339	67955
618.405	55476
618.470	56465
618.536	55825
618.601	53826
618.667	51498
618.732	48069
618.798	46699
618.863	46826
618.928	47283
618.994	46679
619.059	47881
619.124	48916
619.190	47247
619.255	45949
619.320	46652
619.386	45437
619.451	44862
619.516	43570
619.581	44810
619.647	46027
619.712	45618
619.777	43274
619.842	43948
619.907	44548
619.972	45648
620.038	44651
620.103	43753
620.168	43883
620.233	45309
620.298	44485
620.363	44760
620.428	46599
620.493	47511
620.558	48126
620.623	47818
620.688	48025
620.753	47794
620.818	49093
620.883	48671
620.948	49823
621.013	47209
621.078	46478
621.143	47104
621.207	50629
621.272	47563
621.337	46153
621.402	46518
621.467	45514
621.532	44497
621.596	45410
621.661	43346
621.726	43069
621.791	43305
621.855	44113
621.920	42454
621.985	42711
622.049	45245
622.114	44615
622.179	45630
622.243	47144
622.308	47612
622.373	50610
622.437	49422
622.502	44810
622.566	44455
622.631	44163
622.695	47973
622.760	45842
622.824	45413
622.889	46178
622.953	45266
623.018	50797
623.082	51402
623.147	50503
623.211	48053
623.276	47834
623.340	43451
623.404	44867
623.469	43786
623.533	44886
623.597	43455
623.662	44020
623.726	40933
623.790	38675
623.854	37576
623.919	39249
623.983	38369
624.047	39532
624.111	40003
624.176	41074
624.240	41016
624.304	41844
624.368	40160
624.432	41495
624.496	42702
624.560	44898
624.625	45478
624.689	44739
624.753	47208
624.817	45033
624.881	43358
624.945	39080
625.009	37726
625.073	37823
625.137	39697
625.201	42371
625.265	42338
625.329	40721
625.393	40620
625.456	41189
625.520	42778
625.584	43454
625.648	44154
625.712	45844
625.776	45496
625.839	43474
625.903	35746
625.967	33653
626.031	37271
626.095	43954
626.158	40128
626.222	30908
626.286	30185
626.349	25969
626.413	25683
626.477	26754
626.540	26423
626.604	26232
626.668	25859
626.731	25303
626.795	24993
626.858	25660
626.922	24733
626.986	25527
627.049	22709
627.113	26619
627.176	25644
627.240	24725
627.303	24890
627.366	23572
627.430	25447
627.493	24837
627.557	24233
627.620	26284
627.684	25975
627.747	26942
627.810	23653
627.874	22900
627.937	21308
628.000	23624
628.064	21985
628.127	18813
628.190	20255
628.253	18636
628.317	18036
628.380	17835
628.443	16913
628.506	17815
628.569	17533
628.632	15575
628.696	15691
628.759	15905
628.822	15752
628.885	15644
628.948	15599
629.011	15446
629.074	15082
629.137	13194
629.200	14177
629.263	14890
629.326	13128
629.389	13848
629.452	13923
629.515	13686
629.578	14733
629.641	14922
629.704	13401
629.767	13539
629.830	14421
629.892	13722
629.955	13378
630.018	15559
630.081	12900
630.144	15023
630.207	12705
630.269	15008
630.332	13698
630.395	13717
630.458	13218
630.520	11788
630.583	13737
630.646	13515
630.708	13808
630.771	12608
630.834	15495
630.896	13015
630.959	14317
631.021	13144
631.084	13783
631.146	14949
631.209	14751
631.272	14998
631.334	16085
631.397	16295
631.459	15150
631.522	17190
631.584	18472
631.646	20249
631.709	22061
631.771	22919
631.834	21676
631.896	19873
631.958	17280
632.021	17140
632.083	14644
632.145	15484
632.208	14414
632.270	15098
632.332	13093
632.395	13420
632.457	14804
632.519	13301
632.581	14399
632.643	12832
632.706	13858
632.768	13369
632.830	14086
632.892	13532
632.954	13911
633.016	15136
633.078	14095
633.141	13974
633.203	13191
633.265	14117
633.327	13929
633.389	14129
633.451	15009
633.513	14153
633.575	15500
633.637	14337
633.698	14893
633.760	16023
633.822	17296
633.884	17433
633.946	18625
634.008	18947
634.070	22003
634.132	26319
634.193	27302
634.255	28897
634.317	30262
634.379	30221
634.441	26705
634.502	24314
634.564	26309
634.626	29381
634.687	33697
634.749	21649
634.811	17526
634.873	15555
634.934	15441
634.996	16537
635.057	14610
635.119	14660
635.181	15819
635.242	17161
635.304	13572
635.365	17930
635.427	14602
635.488	15791
635.550	16055
635.611	17009
635.673	14445
635.734	18892
635.796	20640
635.857	22791
635.918	24684
635.980	28613
636.041	30999
636.102	34641
636.164	35107
636.225	33591
636.286	26040
636.348	24388
636.409	21675
636.470	18624
636.531	17498
636.593	15456
636.654	15766
636.715	13972
636.776	14319
636.838	12856
636.899	14379
636.960	14930
637.021	15680
637.082	19416
637.143	17735
637.204	11775
637.265	12064
637.326	12084
637.387	12522
637.448	11174
637.509	12156
637.570	11145
637.631	11935
637.692	10232
637.753	9256
637.814	10873
637.875	10690
637.936	11802
637.997	10670
638.058	11419
638.119	11733
638.179	10285
638.240	9987
638.301	10446
638.362	8742
638.423	9768
638.483	11731
638.544	8690
638.605	11048
638.666	10374
638.726	10197
638.787	11249
638.848	10320
638.908	9830
638.969	10471
639.030	8413
639.090	7923
639.151	8303
639.211	10468
639.272	10099
639.332	12135
639.393	11050
639.453	12509
639.514	12724
639.574	10038
639.635	8718
639.695	9745
639.756	7376
639.816	8417
639.877	9387
639.937	9752
639.997	10570
640.058	8485
640.118	8084
640.178	9310
640.239	9206
640.299	9470
640.359	9600
640.420	11069
640.480	12859
640.540	16491
640.600	16183
640.661	15228
640.721	15795
640.781	25944
640.841	29024
640.901	11874
640.961	10498
641.021	11465
641.082	11465
641.142	10463
641.202	10737
641.262	7896
641.322	9520
641.382	7666
641.442	8359
641.502	9020
641.562	9446
641.622	9332
641.682	10085
641.742	12971
641.802	12286
641.861	10547
641.921	8633
641.981	9237
642.041	8893
642.101	7961
642.161	7371
642.221	8053
642.280	7507
642.340	7727
642.400	7428
642.460	9293
642.519	8699
642.579	8515
642.639	9934
642.698	6307
642.758	11942
642.818	8946
642.877	8449
642.937	9331
642.997	9932
643.056	9843
643.116	7791
643.175	11372
643.235	10189
643.294	11057
643.354	12405
643.414	16486
643.473	20451
643.532	28800
643.592	46691
643.651	82252
643.711	158198
643.770	335804
643.830	859871
643.889	1895949
643.948	397178
644.008	56686
644.067	32532
644.126	22704
644.186	18689
644.245	15247
644.304	12173
644.363	14064
644.423	11415
644.482	11782
644.541	12717
644.600	12352
644.659	18580
644.719	22697
644.778	38189
644.837	70507
644.896	155094
644.955	375663
645.014	113785
645.073	23919
645.132	15460
645.191	13221
645.250	12675
645.309	13687
645.368	14300
645.427	20424
645.486	36480
645.545	65651
645.604	18662
645.663	12639
645.722	12593
645.781	14485
645.840	18616
645.898	26319
645.957	42955
646.016	72644
646.075	146630
646.134	300503
646.192	847880
646.251	1265668
646.310	161261
646.369	36467
646.427	28712
646.486	19454
646.545	15913
646.603	13897
646.662	12264
646.721	11619
646.779	10428
646.838	10951
646.896	15731
646.955	22993
647.014	40341
647.072	79667
647.131	228634
647.189	104810
647.248	14527
647.306	10710
647.365	10304
647.423	5938
647.481	8893
647.540	6118
647.598	7163
647.657	7113
647.715	7725
647.773	6283
647.832	6723
647.890	5359
647.948	5659
648.007	6730
648.065	5514
648.123	5559
648.181	7903
648.240	9189
648.298	7127
648.356	5786
648.414	6378
648.472	6053
648.531	7401
648.589	6422
648.647	6915
648.705	7489
648.763	6556
648.821	6864
648.879	8012
648.937	9688
648.995	12448
649.053	18328
649.111	29555
649.169	55622
649.227	104265
649.285	232051
649.343	704126
649.401	309730
649.459	35192
649.516	24109
649.574	26369
649.632	52417
649.690	62644
649.748	25694
649.806	33182
649.863	62904
649.921	156545
649.979	100880
650.037	13949
650.094	6715
650.152	8664
650.210	6978
650.268	9535
650.325	12092
650.383	17980
650.440	7204
650.498	5504
650.556	4866
650.613	4913
650.671	5705
650.728	5238
650.786	5467
650.843	8358
650.901	4705
650.958	5602
651.016	4323
651.073	4408
651.131	4308
651.188	3926
651.246	4460
651.303	3702
651.360	5480
651.418	4555
651.475	5237
651.532	4019
651.590	4100
651.647	3845
651.704	3919
651.762	3889
651.819	4580
651.876	5082
651.933	3957
651.990	4499
652.048	3182
652.105	4076
652.162	4365
652.219	2862
652.276	4375
652.333	4848
652.390	3512
652.448	4474
652.505	4592
652.562	4707
652.619	5380
652.676	7834
652.733	9307
652.790	3790
652.847	3229
652.904	4429
652.961	2906
653.017	3506
653.074	4295
653.131	3686
653.188	3224
653.245	4142
653.302	3630
653.359	3046
653.415	3038
653.472	3125
653.529	4189
653.586	3700
653.642	3008
653.699	4952
653.756	3560
653.813	3276
653.869	4194
653.926	3517
653.983	3822
654.039	3805
654.096	3945
654.152	4577
654.209	2334
654.266	3342
654.322	2852
654.379	4007
654.435	4274
654.492	3280
654.548	4844
654.605	4539
654.661	5678
654.717	4810
654.774	3801
654.830	4233
654.887	4697
654.943	5894
655.000	9564
655.056	6645
655.112	4260
655.168	2748
655.225	3574
655.281	4622
655.337	3786
655.394	3294
655.450	3371
655.506	3952
655.562	4073
655.618	5104
655.675	3066
655.731	4323
655.787	3677
655.843	5092
655.899	3954
655.955	5575
656.011	5360
656.067	5656
656.123	7059
656.179	7358
656.235	9295
656.291	6409
656.347	8884
656.403	4695
656.459	5555
656.515	4887
656.571	4674
656.627	4449
656.683	3583
656.739	4105
656.795	4015
656.850	4050
656.906	4350
656.962	3733
657.018	2421
657.074	3989
657.129	4895
657.185	6611
657.241	15414
657.297	7715
657.352	4686
657.408	2627
657.464	3801
657.519	2573
657.575	2464
657.630	2735
657.686	3018
657.742	2594
657.797	3043
657.853	2565
657.908	3292
657.964	2786
658.019	3118
658.075	2504
658.130	2737
658.186	1971
658.241	3145
658.297	2092
658.352	2214
658.407	2733
658.463	2493
658.518	3347
658.573	3671
658.629	2086
658.684	2736
658.739	3390
658.795	2165
658.850	2039
658.905	2847
658.960	2755
659.016	2498
659.071	2406
659.126	2168
659.181	2602
659.236	4313
659.291	3467
659.346	2669
659.401	3560
659.457	5311
659.512	5372
659.567	4295
659.622	2355
659.677	2437
659.732	1732
659.787	1726
659.842	2416
659.897	2275
659.952	2826
660.007	1813
660.061	2676
660.116	2181
660.171	1665
660.226	2751
660.281	3252
660.336	1043
660.391	2787
660.445	1809
660.500	2480
660.555	2919
660.610	1548
660.664	3374
660.719	1320
660.774	2531
660.828	3265
660.883	2251
660.938	2720
660.992	1269
661.047	2328
661.101	1925
661.156	1827
661.211	1769
661.265	2062
661.320	2309
661.374	1921
661.429	2269
661.483	3328
661.538	1262
661.592	2385
661.647	4859
661.701	8268
661.755	3278
661.810	1504
661.864	1816
661.919	1648
661.973	2987
662.027	1804
662.081	1757
662.136	1782
662.190	2748
662.244	1948
662.299	1881
662.353	1967
662.407	1751
662.461	1616
662.515	2422
662.569	1087
662.624	2543
662.678	1104
662.732	1651
662.786	2149
662.840	2473
662.894	1941
662.948	1347
663.002	2082
663.056	1774
663.110	1465
663.164	2407
663.218	2133
663.272	2297
663.326	2208
663.380	1974
663.434	2640
663.488	965
663.542	2600
663.595	2395
663.649	1984
663.703	2549
663.757	2167
663.811	1453
663.864	1855
663.918	2034
663.972	1711
664.026	1541
664.079	2615
664.133	2276
664.187	1748
664.240	2507
664.294	2749
664.348	4035
664.401	2094
664.455	2066
664.508	1300
664.562	2285
664.615	2028
664.669	1643
664.722	1613
664.776	1629
664.829	1810
664.883	1299
664.936	1537
664.990	2207
665.043	2515
665.097	2097
665.150	2497
665.203	436
665.257	1664
665.310	1467
665.363	1768
665.417	2302
665.470	1446
665.523	2409
665.576	2636
665.630	1899
665.683	1978
665.736	1633
665.789	1997
665.842	1399
665.895	935
665.949	1953
666.002	1970
666.055	1382
666.108	2267
666.161	1533
666.214	1853
666.267	1984
666.320	1873
666.373	2363
666.426	2388
666.479	1704
666.532	2009
666.585	1644
666.638	2662
666.691	1673
666.744	2185
666.796	1685
666.849	1614
666.902	1797
666.955	1793
667.008	1531
667.060	1259
667.113	1836
667.166	1850
667.219	1641
667.271	2769
667.324	1643
667.377	2532
667.430	1643
667.482	2923
667.535	2282
667.587	693
667.640	1829
667.693	1011
667.745	1500
667.798	2157
667.850	1580
667.903	1354
667.955	579
668.008	644
668.060	1138
668.113	1237
668.165	1993
668.218	995
668.270	2177
668.322	2080
668.375	1332
668.427	1692
668.479	1855
668.532	1978
668.584	1206
668.636	795
668.689	1936
668.741	1079
668.793	1342
668.845	1450
668.898	1921
668.950	1415
669.002	1757
669.054	1021
669.106	1010
669.158	2099
669.211	2928
669.263	2655
669.315	4207
669.367	5916
669.419	5138
669.471	9098
669.523	13181
669.575	21760
669.627	15061
669.679	7781
669.731	6556
669.783	7843
669.835	11498
669.886	9164
669.938	5321
669.990	2721
670.042	2510
670.094	2186
670.146	2395
670.197	2049
670.249	3043
670.301	2193
670.353	3459
670.404	4690
670.456	5584
670.508	7839
670.560	12879
670.611	21612
670.663	37701
670.715	92119
670.766	142539
670.818	35003
670.869	5772
670.921	4357
670.972	3851
671.024	2045
671.075	2472
671.127	2128
671.178	1762
671.230	2460
671.281	1746
671.333	2560
671.384	2063
671.436	4307
671.487	5768
671.538	8232
671.590	14799
671.641	25097
671.692	46415
671.744	86521
671.795	60092
671.846	19511
671.897	8979
671.949	5437
672.000	5265
672.051	3293
672.102	3000
672.153	1966
672.204	2265
672.256	1518
672.307	1463
672.358	1545
672.409	1760
672.460	1575
672.511	1041
672.562	982
672.613	958
672.664	1010
672.715	1092
672.766	1444
672.817	1581
672.868	1763
672.919	619
672.970	-87
673.021	818
673.071	464
673.122	738
673.173	2007
673.224	1017
673.275	-298
673.326	802
673.376	591
673.427	371
673.478	31
673.528	1098
673.579	569
673.630	700
673.680	1187
673.731	327
673.782	512
673.832	736
673.883	515
673.934	505
673.984	550
674.035	861
674.085	399
674.136	1303
674.186	744
674.237	205
674.287	1112
674.338	1299
674.388	757
674.438	983
674.489	755
674.539	1177
674.589	218
674.640	387
674.690	537
674.740	897
674.791	586
674.841	320
674.891	531
674.942	653
674.992	597
675.042	219
675.092	743
675.142	402
675.193	461
675.243	635
675.293	592
675.343	746
675.393	144
675.443	1357
675.493	379
675.543	455
675.593	825
675.643	440
675.693	1252
675.743	234
675.793	967
675.843	-269
675.893	648
675.943	847
675.993	607
676.043	519
676.093	660
676.142	-130
676.192	129
676.242	283
676.292	-13
676.341	-594
676.391	-391
676.441	-345
676.491	184
676.540	223
676.590	602
676.640	113
676.689	-519
676.739	469
676.789	950
676.838	163
676.888	68
676.937	-531
676.987	125
677.037	396
677.086	-481
677.136	219
677.185	126
677.235	-15
677.284	-303
677.333	-319
677.383	-280
677.432	-531
677.482	257
677.531	510
677.580	-231
677.630	0
677.679	-310
677.728	-167
677.778	-205
677.827	225
677.876	140
677.925	512
677.975	-194
678.024	669
678.073	317
678.122	-192
678.171	293
678.220	442
678.269	603
678.319	758
678.368	379
678.417	691
678.466	514
678.515	804
678.564	-203
678.613	-278
678.662	3
678.711	137
678.760	-575
678.809	352
678.857	-466
678.906	577
678.955	146
679.004	1023
679.053	2004
679.102	1619
679.151	834
679.199	70
679.248	-75
679.297	-329
679.346	90
679.394	-439
679.443	-522
679.492	352
679.540	197
679.589	-321
679.638	-113
679.686	198
679.735	526
679.784	836
679.832	354
679.881	167
679.929	258
679.978	-118
680.026	-155
680.075	51
680.123	-2
680.172	-449
680.220	-226
680.268	26
680.317	-547
680.365	135
680.414	-375
680.462	-936
680.510	346
680.559	126
680.607	-665
680.655	-527
680.703	316
680.752	-193
680.800	-814
680.848	-15
680.896	-647
680.945	-365
680.993	-583
681.041	36
681.089	-133
681.137	-861
681.185	49
681.233	-634
681.258	12
681.281	610
681.329	33
681.377	-150
681.380	-98
681.425	586
681.473	-51
681.502	-330
681.521	-556
681.569	-369
681.617	-149
681.624	-125
681.665	-66
681.713	397
681.745	87
681.761	-85
681.809	127
681.857	244
681.867	156
681.904	-195
681.952	922
681.989	451
682.000	291
682.048	480
682.096	247
682.111	304
682.143	370
682.191	-771
682.233	266
682.239	407
682.286	628
682.334	113
682.354	109
682.382	63
682.430	951
682.476	402
682.477	377
682.525	462
682.572	488
682.598	347
682.620	223
682.667	938
682.715	640
682.720	700
682.763	1126
682.810	46
682.841	-188
682.857	-332
682.905	387
682.952	1751
682.963	1491
683.000	493
683.047	535
683.085	1239
683.095	1424
683.142	1043
683.190	1352
683.206	911
683.237	50
683.284	1540
683.328	924
683.332	866
683.379	559
683.426	675
683.449	1094
683.473	1515
683.521	1341
683.568	486
683.571	509
683.615	613
683.662	1277
683.693	1114
683.709	989
683.757	1203
683.804	1271
683.814	1318
683.851	1520
683.898	1541
683.936	1341
683.945	1259
683.992	1624
684.039	1850
684.057	1845
684.086	1823
684.133	1181
684.179	1455
684.180	1456
684.227	2037
684.274	1727
684.300	1569
684.321	1420
684.368	1399
684.415	1220
684.422	1263
684.462	1532
684.509	1389
684.543	1530
684.556	1556
684.603	1777
684.649	1644
684.665	1731
684.696	1928
684.743	2926
684.786	2303
684.790	2244
684.837	1634
684.883	2647
684.908	2169
684.930	1651
684.977	2216
685.023	2297
685.029	2245
685.070	1916
685.117	1955
685.150	2299
685.164	2388
685.210	2559
685.257	2818
685.272	2503
685.303	1807
685.350	2065
685.393	1618
685.396	1590
685.443	2215
685.490	2517
685.514	2476
685.536	2363
685.583	2618
685.629	2110
685.636	2206
685.675	2714
685.722	1953
685.757	2143
685.768	2225
685.815	2648
685.861	3173
685.878	3128
685.908	3045
685.954	2383
686.000	2133
686.000	2124
686.047	2526
686.093	2945
686.121	2678
686.139	2516
686.185	3022
686.232	3059
686.242	2965
686.278	2598
686.324	3119
686.363	2571
686.370	2477
686.416	2624
686.463	2649
686.484	2826
686.509	3020
686.555	2850
686.601	3089
686.606	3046
686.647	2594
686.693	3551
686.727	3001
686.739	2820
686.785	3340
686.831	3155
686.848	3320
686.877	3534
686.923	3307
686.969	3196
686.969	3194
687.015	3605
687.061	3414
687.090	3283
687.107	3209
687.153	3625
687.199	3869
687.211	3630
687.245	3148
687.291	3430
687.332	3561
687.336	3560
687.382	3934
687.428	3942
687.453	4185
687.474	4387
687.520	4054
687.565	4320
687.574	4367
687.611	4952
687.657	5189
687.695	5554
687.702	5721
687.748	8419
687.794	10832
687.816	10670
687.839	9218
687.885	7038
687.931	5333
687.937	5147
687.976	4907
688.022	4356
688.058	3828
688.067	3814
688.113	4126
688.158	4324
688.179	4299
688.204	4193
688.249	4341
688.295	4420
688.300	4364
688.340	3922
688.386	4745
688.421	4606
688.431	4612
688.477	4247
688.522	4348
688.542	4690
688.567	5038
688.613	4789
688.658	4303
688.663	4300
688.703	4372
688.749	4717
688.784	4556
688.794	4522
688.839	4626
688.884	4734
688.905	4793
688.930	4799
688.975	4732
689.020	4244
689.026	4248
689.065	4525
689.110	4736
689.146	4626
689.155	4628
689.201	5262
689.246	5039
689.267	5443
689.291	5629
689.336	5203
689.381	4619
689.388	4618
689.426	4803
689.471	4513
689.509	4927
689.516	5052
689.561	4349
689.606	5046
689.630	5246
689.651	5298
689.696	4582
689.741	5064
689.750	5040
689.785	4965
689.830	4772
689.871	4820
689.875	4845
689.920	4966
689.965	4784
689.992	4776
690.010	4770
690.054	4707
690.099	4404
690.112	4531
690.144	5037
690.189	5236
690.233	5339
690.233	5347
690.278	5544
690.323	5260
690.354	5232
690.367	5241
690.412	5597
690.457	5488
690.474	5444
690.501	5486
690.546	5679
690.590	5784
690.595	5812
690.635	6080
690.680	5826
690.716	6116
690.724	6247
690.769	6354
690.813	7066
690.836	7121
690.857	7478
690.902	8667
690.946	9702
690.957	10015
690.991	11892
691.035	14319
691.077	16664
691.080	16699
691.124	15909
691.168	14818
691.198	14703
691.213	14186
691.257	12130
691.301	10219
691.318	9447
691.346	8944
691.390	8383
691.434	7552
691.439	7489
691.478	7582
691.522	7661
691.559	7372
691.567	7350
691.611	7279
691.655	7033
691.680	7072
691.699	7003
691.743	6548
691.787	6463
691.800	6296
691.831	6235
691.875	6259
691.919	6345
691.921	6337
691.964	6393
692.008	6292
692.041	6118
692.052	6090
692.096	6116
692.139	6523
692.162	6406
692.183	6291
692.227	6486
692.271	6283
692.282	6265
692.315	6452
692.359	6818
692.402	7129
692.403	7144
692.447	7243
692.490	6641
692.523	6518
692.534	6498
692.578	6795
692.622	6626
692.643	6616
692.666	6713
692.709	6770
692.753	6857
692.763	6885
692.797	6848
692.840	6747
692.884	6886
692.884	6904
692.928	6800
692.971	7160
693.004	6901
693.015	6842
693.059	7196
693.102	7132
693.124	7118
693.146	7169
693.189	7455
693.233	7696
693.245	7711
693.276	7760
693.320	7866
693.363	8160
693.365	8142
693.407	8399
693.450	8565
693.485	8964
693.493	9180
693.537	10278
693.580	10995
693.605	11378
693.624	12052
693.667	14014
693.710	15956
693.725	16619
693.753	20590
693.797	27020
693.840	33785
693.845	34379
693.883	32849
693.926	30613
693.966	29059
693.970	28677
694.013	24335
694.056	20095
694.086	17172
694.099	16571
694.142	14268
694.185	12327
694.206	11265
694.229	11049
694.272	10628
694.315	10420
694.326	10210
694.358	9832
694.401	9510
694.444	9519
694.446	9480
694.487	9332
694.530	9372
694.566	9133
694.573	9083
694.616	8783
694.659	8500
694.686	8411
694.702	8575
694.745	8647
694.787	8924
694.806	9012
694.830	8932
694.873	8811
694.916	8208
694.926	8149
694.959	8316
695.002	8480
695.044	8556
695.046	8536
695.087	8486
695.130	8537
695.166	8502
695.172	8529
695.215	8412
695.258	8585
695.286	8597
695.301	8637
695.343	8604
695.386	8713
695.406	8541
695.428	8497
695.471	8939
695.514	9176
695.526	9225
695.556	9145
695.599	8928
695.641	8698
695.646	8641
695.684	8652
695.726	8893
695.766	8896
695.769	8902
695.811	8632
695.854	8541
695.886	8305
695.896	8325
695.938	8336
695.981	8434
696.005	8423
696.023	8490
696.065	8718
696.108	8950
696.125	8930
696.150	8963
696.192	9043
696.235	9263
696.245	9267
696.277	9367
696.319	9512
696.361	9657
696.365	9647
696.404	10016
696.446	10198
696.485	10563
696.488	10599
696.530	10493
696.572	10494
696.604	10334
696.614	10275
696.656	10097
696.698	10081
696.724	9752
696.740	9720
696.783	9960
696.825	10077
696.844	10103
696.867	10158
696.909	10071
696.951	10128
696.964	10138
696.992	10199
697.034	9938
697.076	10022
697.083	9984
697.118	10238
697.160	10532
697.202	10877
697.203	10855
697.244	10734
697.286	10646
697.323	10506
697.327	10563
697.369	10819
697.411	11033
697.442	11268
697.453	11203
697.494	10687
697.536	10321
697.562	9952
697.578	10195
697.620	10808
697.661	11414
697.682	11707
697.703	11744
697.744	11718
697.786	11792
697.801	11747
697.828	11707
697.869	11582
697.911	11473
697.921	11417
697.952	11502
697.994	11647
698.035	11648
698.040	11627
698.077	11569
698.118	11371
698.160	11275
698.160	11243
698.201	11443
698.243	11596
698.279	11725
698.284	11750
698.325	11690
698.367	11613
698.399	11477
698.408	11538
698.449	11726
698.491	11912
698.518	11975
698.532	11970
698.573	11896
698.614	11804
698.638	11715
698.656	11866
698.697	12151
698.738	12424
698.757	12527
698.779	12580
698.820	12603
698.862	12629
698.877	12609
698.903	12798
698.944	13030
698.985	13274
698.996	13307
699.026	13149
699.067	12877
699.116	12521
699.235	13498
699.354	13041
699.474	13184
699.593	13203
699.713	14212
699.832	14155
699.951	14045
700.070	13718
700.190	13190
700.309	14317
700.428	14481
700.547	14247
700.667	14784
700.786	13608
700.905	13325
701.024	13099
701.143	13012
701.262	12744
701.381	13094
701.500	12191
701.619	12870
701.738	12495
701.857	12989
701.976	11939
702.095	11946
702.214	12503
702.333	12136
702.452	11783
702.571	12091
702.690	12714
702.809	12286
702.928	11964
703.047	12406
703.165	12703
703.284	12208
703.403	12431
703.522	12707
703.640	13825
703.759	13367
703.878	12395
703.997	12768
704.115	13069
704.234	12835
704.353	12459
704.471	10873
704.590	10217
704.708	10126
704.827	10670
704.946	10036
705.064	10275
705.183	11191
705.301	9914
705.420	11002
705.538	10905
705.656	10785
705.775	10759
705.893	18865
706.012	18979
706.130	9573
706.249	9837
706.367	10609
706.485	9436
706.604	9678
706.722	10734
706.840	14439
706.958	25635
707.077	15553
707.195	10212
707.313	10804
707.431	9699
707.549	8828
707.668	9315
707.786	9338
707.904	9432
708.022	8642
708.140	9318
708.258	9974
708.376	9605
708.494	8725
708.612	10044
708.730	9391
708.848	8894
708.966	9703
709.084	10045
709.202	9908
709.320	8317
709.438	8094
709.556	9031
709.674	8638
709.791	9641
709.909	8250
710.027	8288
710.145	8725
710.263	8637
710.380	9036
710.498	9024
710.616	8062
710.733	8642
710.851	8559
710.969	8645
711.086	8280
711.204	7508
711.322	7997
711.439	7179
711.557	8232
711.674	8154
711.792	8317
711.909	10316
712.027	8826
712.144	7867
712.262	8052
712.379	7835
712.497	8440
712.614	8210
712.732	8819
712.849	8287
712.966	7775
713.084	8777
713.201	8072
713.318	7984
713.436	8156
713.553	8269
713.670	8669
713.787	9103
713.905	7831
714.022	9141
714.139	9641
714.256	14017
714.373	20357
714.490	40100
714.608	121965
714.725	559864
714.842	476885
714.959	30145
715.076	13714
715.193	11288
715.310	10875
715.427	8561
715.544	9676
715.661	9940
715.778	7834
715.895	8063
716.011	7822
716.128	9053
716.245	7614
716.362	9733
716.479	8437
716.596	9680
716.713	9951
716.829	9862
716.946	8405
717.063	9019
717.180	7981
717.296	8265
717.413	8412
717.530	7218
717.646	7657
717.763	7241
717.880	7153
717.996	6753
718.113	6717
718.229	7995
718.346	7282
718.462	8115
718.579	8337
718.695	8357
718.812	7632
718.928	7149
719.045	7379
719.161	7640
719.277	7741
719.394	8179
719.510	7782
719.626	8324
719.743	9854
719.859	15534
719.975	32426
720.092	142209
720.208	282645
720.324	27621
720.440	9096
720.557	7522
720.673	7401
720.789	7494
720.905	7868
721.021	6818
721.137	6933
721.253	6661
721.369	6300
721.486	6480
721.602	6949
721.718	6774
721.834	5403
721.950	5930
722.066	5549
722.181	6725
722.297	6794
722.413	7980
722.529	8163
722.645	7857
722.761	7586
722.877	6951
722.993	7620
723.108	8491
723.224	7877
723.340	8352
723.456	7737
723.571	8511
723.687	7704
723.803	7213
723.918	6317
724.034	6313
724.150	6407
724.265	5986
724.381	6354
724.497	6107
724.612	6230
724.728	6854
724.843	6089
724.959	8167
725.074	9183
725.190	9095
725.305	8019
725.421	6638
725.536	6810
725.651	6517
725.767	6497
725.882	6642
725.997	5931
726.113	5730
726.228	6391
726.343	5586
726.459	5775
726.574	6939
726.689	5651
726.804	6609
726.920	5750
727.035	6832
727.150	5879
727.265	7688
727.380	8331
727.495	8603
727.610	7554
727.725	6758
727.841	7993
727.956	12953
728.071	9486
728.186	6216
728.301	6442
728.416	7390
728.531	7707
728.645	8149
728.760	11026
728.875	15375
728.990	15714
729.105	11894
729.220	10238
729.335	8092
729.449	7482
729.564	6981
729.679	6423
729.794	6998
729.908	6380
730.023	7008
730.138	5215
730.253	6323
730.367	5185
730.482	5937
730.596	5753
730.711	6423
730.826	9200
730.940	11112
731.055	6482
731.169	5539
731.284	6095
731.398	6224
731.513	6036
731.627	6486
731.742	6774
731.856	7490
731.970	7521
732.085	9385
732.199	11828
732.313	20570
732.428	54546
732.542	153295
732.656	73162
732.771	15859
732.885	9286
732.999	9418
733.113	7849
733.227	7818
733.342	6982
733.456	5523
733.570	6058
733.684	6959
733.798	6666
733.912	6800
734.026	6292
734.140	6343
734.254	6447
734.368	6512
734.482	6904
734.596	6749
734.710	5551
734.824	6361
734.938	6248
735.052	6309
735.166	6729
735.280	6867
735.393	6158
735.507	6884
735.621	6395
735.735	6394
735.849	7035
735.962	6956
736.076	6975
736.190	6285
736.303	7144
736.417	6392
736.531	6764
736.644	7203
736.758	6650
736.872	6464
736.985	7148
737.099	6664
737.212	6322
737.326	6651
737.439	5924
737.553	7100
737.666	6883
737.780	5131
737.893	6032
738.007	6935
738.120	5545
738.233	5948
738.347	6012
738.460	6395
738.573	5814
738.687	5408
738.800	6503
738.913	5603
739.026	6418
739.140	6909
739.253	7273
739.366	5806
739.479	4370
739.592	5136
739.705	5907
739.818	6913
739.932	5581
740.045	6110
740.158	6303
740.271	7489
740.384	7975
740.497	10668
740.610	12815
740.723	11452
740.836	12196
740.949	12612
741.062	9165
741.174	8662
741.287	8211
741.400	8877
741.513	11655
741.626	15666
741.739	12167
741.851	9304
741.964	9168
742.077	9039
742.189	11352
742.302	18907
742.415	18674
742.527	12083
742.640	8735
742.753	7862
742.865	6494
742.978	6107
743.090	5589
743.203	5267
743.316	4921
743.428	4983
743.541	4714
743.653	5012
743.766	5190
743.878	5984
743.990	4974
744.103	9761
744.215	15109
744.327	7013
744.440	5725
744.552	5516
744.664	4537
744.777	4873
744.889	4902
745.001	4819
745.113	3475
745.226	4112
745.338	5024
745.450	4972
745.562	4064
745.674	4009
745.786	4125
745.898	4656
746.010	3852
746.122	4589
746.234	3936
746.347	5078
746.459	5229
746.570	4457
746.682	8878
746.794	20189
746.906	10475
747.018	4887
747.130	4395
747.242	3586
747.354	3603
747.466	3984
747.577	4375
747.689	4434
747.801	3940
747.913	4535
748.024	3943
748.136	3885
748.248	3902
748.359	4054
748.471	4736
748.583	3920
748.694	3719
748.806	4686
748.918	3269
749.029	4343
749.141	4111
749.252	4066
749.364	3117
749.475	4093
749.587	4037
749.698	3627
749.809	3551
749.921	3017
750.032	3850
750.144	3581
750.255	3103
750.366	3638
750.478	4184
750.589	3575
750.700	3706
750.811	3779
750.923	4206
751.034	4364
751.145	4572
751.256	3480
751.367	3582
751.479	3880
751.590	3782
751.701	3641
751.812	3441
751.923	4636
752.034	3038
752.145	3764
752.256	3201
752.367	3856
752.478	2846
752.589	3864
752.700	3505
752.811	3388
752.922	4534
753.032	3098
753.143	3111
753.254	2577
753.365	3846
753.476	3040
753.586	3324
753.697	3762
753.808	2963
753.919	3066
754.029	2793
754.140	3607
754.251	3618
754.361	2566
754.472	3502
754.582	2753
754.693	3474
754.804	3430
754.914	3119
755.025	3487
755.135	3614
755.246	3856
755.356	3001
755.466	3303
755.577	3028
755.687	3885
755.798	3219
755.908	2785
756.018	2852
756.129	3438
756.239	3652
756.349	4052
756.460	4274
756.570	4570
756.680	3193
756.790	3489
756.900	3468
757.011	2855
757.121	3241
757.231	3430
757.341	3215
757.451	3053
757.561	2309
757.671	3531
757.781	2595
757.891	4007
758.001	2805
758.111	3464
758.221	3705
758.331	4135
758.441	3642
758.551	3957
758.661	3722
758.771	3950
758.880	4439
758.990	3438
759.100	3502
759.210	4021
759.320	4085
759.429	4098
759.539	4445
759.649	4318
759.758	6037
759.868	4928
759.978	4444
760.087	5586
760.197	4779
760.307	4924
760.416	5045
760.526	4321
760.635	4467
760.745	5060
760.854	6131
760.964	6262
761.073	5574
761.182	5550
761.292	5083
761.401	4984
761.511	4311
761.620	4882
761.729	3860
761.839	4270
761.948	4405
762.057	4129
762.166	4634
762.276	3133
762.385	5277
762.494	4859
762.603	4402
762.712	3506
762.822	2554
762.931	4362
763.040	4510
763.149	4263
763.258	4771
763.367	4303
763.476	4129
763.585	4007
763.694	5210
763.803	5334
763.912	4446
764.021	4983
764.130	4633
764.238	4737
764.347	4782
764.456	5579
764.565	6505
764.674	6202
764.783	7101
764.891	6037
765.000	7998
765.109	8897
765.217	9458
765.326	12100
765.435	13409
765.543	16109
765.652	19150
765.761	24439
765.869	38197
765.978	61664
766.086	115562
766.195	245517
766.303	653096
766.412	1495483
766.520	1166818
766.629	325549
766.737	121560
766.846	68308
766.954	46213
767.062	34254
767.171	26545
767.279	20064
767.387	15853
767.496	13748
767.604	12606
767.712	11824
767.820	11335
767.928	10287
768.037	8569
768.145	10014
768.253	10423
768.361	9124
768.469	9452
768.577	9116
768.685	8903
768.793	9845
768.901	9858
769.009	11739
769.117	13838
769.225	18386
769.333	26871
769.441	45020
769.549	91708
769.657	225659
769.765	723996
769.873	1187611
769.981	394401
770.088	93131
770.196	44548
770.304	29541
770.412	22592
770.519	16315
770.627	11967
770.735	10243
770.842	9225
770.950	8901
771.058	7370
771.165	7513
771.273	6341
771.380	6746
771.488	6638
771.595	5616
771.703	5949
771.810	6234
771.918	4487
772.025	4474
772.133	5155
772.240	5239
772.348	5855
772.455	4979
772.562	4610
772.670	4102
772.777	4372
772.884	5807
772.991	4609
773.099	4335
773.206	4351
773.313	5360
773.420	4858
773.528	4582
773.635	4461
773.742	4204
773.849	3812
773.956	4137
774.063	4382
774.170	3360
774.277	4870
774.384	4135
774.491	3448
774.598	4300
774.705	3982
774.812	3680
774.919	3778
775.026	3983
775.133	4554
775.239	4011
775.346	3220
775.453	3765
775.560	3169
775.667	4333
775.773	2766
775.880	4277
775.987	3560
776.093	4298
776.200	3103
776.307	3064
776.413	3037
776.520	3380
776.627	3752
776.733	4311
776.840	3943
776.946	7830
777.053	15426
777.159	43154
777.266	25455
777.372	34345
777.478	30787
777.585	16145
777.691	4686
777.798	4243
777.904	4123
778.010	3757
778.117	3556
778.223	2868
778.329	2400
778.435	3514
778.542	3489
778.648	3258
778.754	3060
778.860	3175
778.966	2725
779.072	2594
779.178	2652
779.284	2692
779.391	2570
779.497	2647
779.603	4412
779.708	3669
779.815	9186
779.920	28960
780.026	35738
780.132	5860
780.238	2861
780.344	2809
780.450	4058
780.556	2759
780.661	3606
780.767	2800
780.873	2312
780.979	4058
781.085	2051
781.190	3028
781.296	3302
781.402	3098
781.507	2416
781.613	2981
781.719	2199
781.824	3033
781.930	3789
782.035	2855
782.141	2980
782.246	3626
782.352	2664
782.457	3060
782.563	3688
782.668	2583
782.773	3497
782.879	2942
782.984	3002
783.090	3052
783.195	3684
783.300	3942
783.405	3686
783.511	4062
783.616	4165
783.721	4269
783.826	3807
783.932	3881
784.037	3806
784.142	3479
784.247	4377
784.352	3816
784.457	3126
784.562	4293
784.667	4296
784.772	2984
784.877	3047
784.982	4415
785.087	2890
785.192	3662
785.297	2582
785.402	3909
785.507	2813
785.611	2900
785.716	2717
785.821	2598
785.926	1998
786.031	2647
786.135	3260
786.240	2672
786.345	860
786.450	2298
786.554	2637
786.659	1562
786.763	1216
786.868	2478
786.973	2813
787.077	2226
787.182	2649
787.286	2589
787.391	1841
787.495	1931
787.600	2000
787.704	2553
787.809	1832
787.913	1646
788.017	1709
788.122	2975
788.226	1767
788.330	1300
788.435	2275
788.539	1706
788.643	1542
788.747	1642
788.852	1976
788.956	1842
789.060	1935
789.164	1153
789.268	1840
789.372	2354
789.476	1642
789.580	984
789.684	1074
789.788	1982
789.892	1886
789.996	2200
790.100	2410
790.204	1636
790.308	2347
790.412	2009
790.516	2362
790.620	1737
790.724	2117
790.828	2255
790.931	1293
791.035	3871
791.139	1463
791.242	1222
791.346	2730
791.450	1979
791.554	1835
791.657	2473
791.761	4526
791.864	3974
791.968	2989
792.072	2144
792.175	2567
792.279	2556
792.382	2185
792.486	3478
792.589	1548
792.693	2353
792.796	1995
792.899	2934
793.003	2941
793.106	2047
793.209	2803
793.313	3974
793.416	1525
793.519	4027
793.623	3514
793.726	3078
793.829	2446
793.932	2857
794.035	1610
794.138	4079
794.242	4719
794.345	3220
794.448	3538
794.551	4687
794.654	14712
794.757	19001
794.860	3347
794.963	2514
795.066	2136
795.169	3128
795.272	1827
795.375	1954
795.477	1630
795.580	1231
795.683	231
795.786	1536
795.889	649
795.991	2043
796.094	1376
796.197	321
796.300	2241
796.402	2009
796.505	1051
796.608	1486
796.710	2138
796.813	1484
796.915	345
797.018	1493
797.120	1519
797.223	206
797.326	2472
797.428	1295
797.530	1186
797.633	1778
797.735	2033
797.838	506
797.940	1788
798.042	590
798.145	341
798.247	1398
798.349	-117
798.452	2300
798.554	1209
798.656	1001
798.758	3049
798.860	551
798.962	724
799.065	977
799.167	-72
799.269	2183
799.371	1168
799.473	1761
799.575	810
799.677	1256
799.779	2153
799.881	382
799.983	1179
800.085	1292
800.187	941
800.289	581
800.390	726
800.492	1494
800.594	1676
800.696	559
800.798	1498
800.899	774
801.001	680
801.103	1296
801.205	362
801.306	842
801.408	108
801.509	637
801.611	1070
801.713	1163
801.814	248
801.916	904
802.017	1055
802.119	576
802.220	1838
802.322	-645
802.423	2034
802.525	-244
802.626	1067
802.727	1241
802.829	1508
802.930	-303
803.031	2681
803.133	1546
803.234	1462
803.335	830
803.436	759
803.538	1132
803.639	709
803.740	1691
803.841	931
803.942	647
804.043	1584
804.144	418
804.245	759
804.346	58
804.447	507
804.548	658
804.649	1559
804.750	804
804.851	991
804.952	175
805.053	807
805.154	600
805.255	1899
805.355	1272
805.456	1216
805.557	825
805.658	16
805.758	1402
805.859	462
805.960	664
806.061	310
806.161	776
806.262	1166
806.362	365
806.463	757
806.564	1390
806.664	226
806.765	813
806.865	728
806.966	679
807.066	274
807.166	2222
807.267	1262
807.367	573
807.468	1243
807.568	459
807.668	1863
807.769	2292
807.869	415
807.969	1560
808.069	642
808.170	1232
808.270	399
808.370	1902
808.470	959
808.570	401
808.670	936
808.770	1092
808.870	942
808.970	1932
809.070	1105
809.170	1037
809.271	1154
809.370	2136
809.470	1028
809.570	1001
809.670	1242
809.770	1059
809.870	2129
809.970	1193
810.070	981
810.169	751
810.269	-791
810.369	1807
810.469	988
810.568	442
810.668	-216
810.768	432
810.867	1619
810.967	699
811.066	654
811.166	44
811.265	2170
811.365	911
811.464	1157
811.564	699
811.663	642
811.763	693
811.862	1321
811.962	2209
812.061	201
812.160	767
812.260	1539
812.359	1600
812.458	799
812.557	2120
812.657	962
812.756	1873
812.855	1728
812.954	1598
813.053	2100
813.153	2143
813.252	815
813.351	1619
813.450	1004
813.549	1381
813.648	2092
813.747	1111
813.846	2446
813.945	1076
814.044	1393
814.143	2117
814.242	2795
814.341	1476
814.439	3177
814.538	3183
814.637	1769
814.736	2731
814.835	3299
814.933	2274
815.032	2323
815.131	3216
815.229	3618
815.328	4495
815.427	2714
815.525	4577
815.624	4786
815.722	2968
815.821	4470
815.919	5015
816.018	3974
816.116	6350
816.215	5455
816.313	5935
816.412	6060
816.510	7115
816.609	8419
816.707	8780
816.805	8448
816.904	7988
817.002	9665
817.100	11127
817.198	13301
817.296	14145
817.395	17163
817.493	20028
817.591	23887
817.689	34169
817.787	45610
817.885	76064
817.983	131974
818.081	272651
818.179	626199
818.277	1340898
818.375	1058921
818.473	411427
818.571	190611
818.669	120356
818.767	100495
818.865	98902
818.963	110282
819.061	155861
819.158	255482
819.256	509097
819.354	1109054
819.452	1896018
819.549	1268109
819.647	537167
819.745	260529
819.842	155570
819.940	104353
820.038	76441
820.135	57496
820.233	46615
820.330	35838
820.428	28952
820.525	25939
820.623	22158
820.720	18360
820.818	17219
820.915	16757
821.012	14697
821.110	12047
821.207	12172
821.304	9915
821.402	11619
821.499	13138
821.596	20726
821.693	13823
821.791	8065
821.888	7164
821.985	7113
822.082	6501
822.179	8054
822.276	9759
822.373	7984
822.470	4492
822.567	4674
822.664	3613
822.761	4812
822.858	2203
822.955	4444
823.052	4044
823.149	3539
823.246	3293
823.343	3215
823.440	2767
823.536	3106
823.633	2055
823.730	3305
823.827	2823
823.923	2063
824.020	4809
824.117	4990
824.213	5461
824.310	5200
824.407	2523
824.503	2393
824.600	2283
824.696	2837
824.793	3222
824.889	1674
824.986	2890
825.082	2219
825.179	2247
825.275	3008
825.371	1420
825.468	2025
825.564	653
825.660	1801
825.757	1643
825.853	2430
825.949	642
826.045	1792
826.142	225
826.238	2011
826.334	1501
826.430	-93
826.526	1286
826.622	1156
826.718	296
826.814	832
826.910	1134
827.006	345
827.102	234
827.198	1321
827.294	1156
827.390	458
827.486	858
827.582	-582
827.678	548
827.774	981
827.869	55
827.965	1445
828.061	-122
828.157	1017
828.252	546
828.348	479
828.444	1206
828.539	-196
828.635	100
828.731	985
828.826	550
828.922	830
829.017	833
829.113	951
829.208	1167
829.304	185
829.399	2074
829.495	-246
829.590	1410
829.685	96
829.781	701
829.876	689
829.971	640
830.066	217
830.162	772
830.257	414
830.352	-172
830.447	1019
830.543	560
830.638	-1020
830.733	266
830.828	1029
830.923	959
831.018	326
831.113	201
831.208	-5
831.303	246
831.398	518
831.493	-544
831.588	1037
831.683	-172
831.778	1000
831.873	582
831.967	1101
832.062	-789
832.157	-220
832.252	1018
832.346	124
832.441	924
832.536	807
832.631	399
832.725	334
832.820	-686
832.914	27
833.009	-384
833.104	-384
833.198	651
833.293	-674
833.387	689
833.482	713
833.576	-384
833.670	1425
833.765	691
833.859	382
833.954	564
834.048	279
834.142	714
834.237	-140
834.331	-16
834.425	393
834.519	-947
834.613	829
834.708	-482
834.802	14
834.896	-626
834.990	-192
835.084	551
835.178	-594
835.272	-511
835.366	292
835.460	650
835.554	524
835.648	157
835.742	-526
835.836	491
835.930	-1144
836.024	-650
836.117	524
836.211	-549
836.305	288
836.399	454
836.493	-923
836.586	584
836.680	5
836.774	-922
836.867	695
836.961	-708
837.055	-132
837.148	528
837.242	-282
837.335	-150
837.429	23
837.522	159
837.616	-787
837.709	1026
837.803	-450
837.896	18
837.989	-473
838.083	319
838.176	-867
838.269	-562
838.363	686
838.456	-1121
838.549	692
838.642	-359
838.735	-185
838.829	556
838.922	-195
839.015	384
839.108	-558
839.201	106
839.294	242
839.387	-711
839.480	-67
839.573	-570
839.666	-585
839.759	-326
839.852	-901
839.945	228
840.038	89
840.131	140
840.223	-11
840.316	760
840.409	-561
840.502	-579
840.594	1314
840.687	-842
840.780	1168
840.873	33
840.965	-154
841.058	-624
841.150	174
841.243	-1116
841.336	216
841.428	258
841.521	-525
841.613	-1069
841.706	32
841.798	-428
841.890	-7
841.983	-692
842.075	-177
842.167	-468
842.260	203
842.352	410
842.444	-549
842.537	-779
842.629	1026
842.721	-1028
842.813	603
842.905	-742
842.997	70
843.090	-329
843.182	-633
843.274	-1485
843.366	266
843.458	-51
843.550	117
843.642	-564
843.734	176
843.826	-92
843.918	168
844.009	871
844.101	99
844.193	298
844.285	1401
844.377	2780
844.469	6055
844.560	11577
844.652	10280
844.744	3766
844.835	206
844.927	-77
845.019	90
845.110	-523
845.202	243
845.293	128
845.385	-137
845.476	-499
845.568	370
845.659	105
845.751	679
845.842	-582
845.934	-242
846.025	-434
846.116	43
846.208	-375
846.299	-304
846.390	110
846.482	201
846.573	427
846.664	-540
846.755	-1378
846.846	325
846.937	-1666
847.029	386
847.120	-980
847.211	-876
847.302	-27
847.393	-1328
847.484	155
847.575	-1260
847.666	-311
847.757	-24
847.847	-533
847.938	-37
848.029	-2
848.120	-81
848.211	-62
848.302	-664
848.392	-434
848.483	456
848.574	-556
848.664	-416
848.755	46
848.846	336
848.936	-339
849.027	482
849.118	306
849.208	818
849.299	2370
849.389	4632
849.480	11106
849.570	23691
849.661	47120
849.751	78701
849.841	28782
849.932	3596
850.022	1651
850.112	1740
850.203	446
850.293	774
850.383	894
850.474	200
850.564	209
850.654	340
850.744	449
850.834	48
850.924	-96
851.014	-50
851.104	-485
851.194	-185
851.284	-577
851.374	764
851.464	-327
851.554	-73
851.644	-855
851.734	781
851.824	-166
851.914	74
852.004	19
852.094	-450
852.183	29
852.273	929
852.363	31
852.452	602
852.542	-608
852.632	512
852.721	-182
852.811	501
852.901	131
852.990	409
853.080	1134
853.169	1833
853.259	1464
853.348	2071
853.438	3639
853.527	5476
853.617	8976
853.706	18286
853.795	36994
853.885	85377
853.974	164503
854.063	297458
854.152	460766
854.242	171324
854.331	30262
854.420	11995
854.509	7802
854.598	6613
854.687	4253
854.777	4555
854.866	3140
854.955	2771
855.044	772
855.133	1346
855.222	1008
855.311	1363
855.400	1999
855.488	842
855.577	766
855.666	2709
855.755	1131
855.844	663
855.933	444
856.021	630
856.110	1554
856.199	-271
856.288	-259
856.376	699
856.465	-25
856.554	251
856.642	-7
856.731	125
856.819	-274
856.908	-1112
856.996	-198
857.085	-984
857.173	526
857.262	-199
857.350	402
857.438	-592
857.527	-202
857.615	-86
857.703	164
857.792	-817
857.880	8
857.968	-761
858.056	-268
858.145	365
858.233	-156
858.321	-237
858.409	-545
858.497	-738
858.585	-433
858.673	-496
858.761	-834
858.849	-963
858.937	-564
859.025	652
859.113	79
859.201	-69
859.289	1261
859.377	1198
859.465	884
859.552	-532
859.640	-645
859.728	-369
859.816	-843
859.903	-73
859.991	-916
860.079	-89
860.166	20
860.254	-199
860.342	-273
860.429	-882
860.517	-493
860.604	-717
860.692	275
860.779	-398
860.867	-639
860.954	-680
861.042	-79
861.129	-689
861.216	-778
861.304	-257
861.391	-106
861.478	-831
861.565	-822
861.653	-51
861.740	-464
861.827	64
861.914	116
862.001	-532
862.089	-62
862.176	-461
862.263	-233
862.350	90
862.437	199
862.524	-6
862.611	812
862.698	1771
862.785	2021
862.871	3341
862.958	1236
863.045	186
863.132	-181
863.219	206
863.306	-976
863.392	133
863.479	-828
863.566	-747
863.652	-488
863.739	316
863.826	254
863.912	-338
863.999	-243
864.086	-283
864.172	-720
864.259	188
864.345	221
864.432	125
864.518	-97
864.604	964
864.691	930
864.777	725
864.863	1250
864.950	1481
865.036	947
865.122	1690
865.209	1661
865.295	2340
865.381	3179
865.467	4361
865.553	5564
865.639	9176
865.726	17268
865.812	39098
865.898	74944
865.984	113775
866.070	212809
866.156	226597
866.242	60319
866.328	12737
866.414	5300
866.499	4277
866.585	3954
866.671	2764
866.757	2189
866.843	1765
866.928	821
867.014	942
867.100	1223
867.186	697
867.271	1088
867.357	1242
867.442	147
867.528	1051
867.614	1948
867.699	3518
867.785	6221
867.870	8131
867.956	11184
868.041	7289
868.127	4763
868.212	5958
868.297	5324
868.383	3244
868.468	2338
868.553	3598
868.639	417
868.724	1255
868.809	344
868.894	137
868.979	253
869.065	412
869.150	-633
869.235	-419
869.320	-541
869.405	215
869.490	-419
869.575	-217
869.660	-763
869.745	1091
869.830	-475
869.915	162
870.000	867
870.085	570
870.169	2258
870.254	2241
870.339	231
870.424	-432
870.509	-390
870.593	87
870.678	613
870.763	776
870.847	903
870.932	874
871.016	1829
871.101	2522
871.186	1346
871.270	312
871.355	-357
871.439	520
871.523	-123
871.608	298
871.692	897
871.777	2489
871.861	1523
871.945	-381
872.030	251
872.114	-384
872.198	-314
872.282	-224
872.367	78
872.451	-232
872.535	-126
872.619	-46
872.703	-241
872.787	97
872.871	220
872.955	-29
873.039	-143
873.123	493
873.207	982
873.291	-192
873.375	836
873.459	-213
873.543	170
873.627	-374
873.711	-328
873.794	894
873.878	465
873.962	133
874.045	638
874.129	1353
874.137	1363
874.213	1465
874.245	1542
874.296	1675
874.352	931
874.380	564
874.460	1209
874.464	1234
874.547	759
874.568	748
874.631	733
874.676	604
874.714	484
874.784	1158
874.798	1304
874.881	1678
874.892	1589
874.965	944
874.999	1380
875.048	1969
875.107	1270
875.131	991
875.215	545
875.215	545
875.298	1541
875.323	1254
875.381	561
875.430	714
875.465	859
875.538	-428
875.548	-617
875.631	87
875.646	95
875.714	164
875.753	-202
875.798	-578
875.861	116
875.881	309
875.964	70
875.968	92
876.047	486
876.076	297
876.130	-10
876.183	306
876.213	491
876.291	537
876.296	533
876.379	181
876.398	209
876.462	382
876.506	661
876.545	807
876.613	-24
876.628	-160
876.711	663
876.721	677
876.794	813
876.828	664
876.877	355
876.935	907
876.960	1154
877.043	1263
877.043	1268
877.125	2323
877.150	2396
877.208	2526
877.258	2702
877.291	2819
877.365	2538
877.374	2502
877.456	2678
877.472	2707
877.539	2801
877.579	2722
877.622	2683
877.687	2589
877.704	2543
877.787	1944
877.794	1912
877.869	1626
877.901	1701
877.952	1817
878.008	1638
878.034	1514
878.115	1020
878.117	1011
878.199	788
878.222	844
878.282	1034
878.329	1292
878.364	1496
878.437	917
878.447	826
878.529	910
878.544	814
878.611	291
878.651	393
878.694	627
878.758	793
878.776	828
878.858	535
878.865	538
878.941	319
878.972	231
879.023	184
879.078	114
879.105	182
879.185	879
879.187	886
879.269	-221
879.292	-111
879.351	358
879.399	625
879.433	727
879.506	221
879.516	168
879.598	-187
879.613	-82
879.680	490
879.720	433
879.762	232
879.827	68
879.844	-2
879.926	426
879.933	347
880.007	-91
880.040	-232
880.089	-488
880.147	39
880.171	275
880.253	63
880.254	59
880.335	-344
880.360	-203
880.417	44
880.467	245
880.499	514
880.574	898
880.580	879
880.662	449
880.680	286
880.744	153
880.787	70
880.825	-92
880.893	-43
880.907	-37
880.989	115
881.000	130
881.070	178
881.106	-2
881.152	-48
881.213	137
881.233	103
881.315	174
881.319	160
881.396	381
881.426	447
881.478	379
881.532	515
881.559	640
881.639	365
881.641	353
881.722	493
881.745	417
881.803	189
881.852	-185
881.885	-212
881.958	-96
881.966	-128
882.047	-201
882.064	-268
882.129	-229
882.171	-123
882.210	-141
882.277	-223
882.291	-206
882.372	-312
882.383	-302
882.454	44
882.489	391
882.535	428
882.596	-109
882.616	-159
882.697	-197
882.702	-163
882.778	964
882.808	1187
882.859	634
882.914	95
882.940	61
883.020	-300
883.021	-299
883.102	-68
883.127	88
883.183	469
883.233	230
883.264	-167
883.339	-302
883.345	-247
883.426	-125
883.445	52
883.507	393
883.551	228
883.587	99
883.657	421
883.668	464
883.749	267
883.763	210
883.830	-94
883.869	-15
883.910	35
883.975	-34
883.991	64
884.072	494
884.081	550
884.152	518
884.187	396
884.233	622
884.292	851
884.314	627
884.394	-366
884.398	-396
884.475	-147
884.504	-123
884.555	-238
884.610	-287
884.636	-137
884.716	125
884.716	128
884.797	178
884.821	147
884.877	470
884.927	576
884.958	268
885.033	-231
885.038	-225
885.118	-357
885.139	-360
885.199	-177
885.244	-83
885.279	-157
885.350	-103
885.359	-3
885.439	836
885.456	938
885.520	490
885.561	238
885.600	212
885.667	301
885.680	352
885.760	521
885.773	529
885.840	542
885.878	532
885.920	180
885.984	5
886.000	195
886.080	772
886.089	810
886.160	163
886.195	-116
886.240	47
886.300	434
886.320	444
886.400	274
886.406	258
886.480	393
886.511	508
886.560	379
886.616	44
886.640	84
886.720	132
886.722	137
886.800	124
886.827	19
886.879	-215
886.932	-433
886.959	-111
887.038	733
887.039	738
887.119	622
887.143	662
887.198	658
887.248	479
887.278	457
887.354	339
887.358	339
887.437	305
887.459	323
887.517	561
887.564	625
887.596	627
887.669	794
887.676	771
887.755	370
887.774	261
887.835	222
887.880	229
887.914	245
887.985	185
887.994	204
888.073	355
888.090	387
888.153	795
888.195	1023
888.232	764
888.300	338
888.311	330
888.391	265
888.405	239
888.470	81
888.510	-27
888.549	179
888.615	573
888.628	574
888.708	487
888.720	478
888.787	411
888.825	358
888.866	254
888.930	63
888.945	114
889.024	399
889.035	441
889.103	727
889.140	853
889.182	676
889.245	435
889.261	527
889.340	920
889.349	969
889.419	632
889.454	440
889.498	370
889.559	292
889.577	355
889.656	615
889.664	641
889.735	1234
889.768	1509
889.814	975
889.873	260
889.978	639
890.083	438
890.187	335
890.292	167
890.397	1284
890.501	765
890.606	999
890.710	1270
890.815	897
890.919	780
891.024	205
891.128	1393
891.233	1077
891.337	1130
891.442	599
891.546	-157
891.650	1094
891.755	288
891.859	904
891.963	1180
892.068	94
892.172	712
892.276	423
892.380	416
892.484	322
892.589	509
892.693	1231
892.797	525
892.901	-189
893.005	451
893.109	415
893.213	632
893.317	542
893.421	483
893.525	-38
893.629	-106
893.733	933
893.837	743
893.941	93
894.045	982
894.148	572
894.252	157
894.356	99
894.460	-25
894.564	164
894.667	873
894.771	735
894.875	229
894.978	286
895.082	-124
895.186	1389
895.289	929
895.393	357
895.496	1044
895.600	228
895.703	723
895.807	285
895.910	325
896.014	715
896.117	-222
896.221	288
896.324	270
896.427	-14
896.531	1217
896.634	474
896.737	302
896.840	398
896.944	315
897.047	41
897.150	284
897.253	252
897.356	-328
897.460	259
897.563	418
897.666	228
897.769	4
897.872	722
897.975	277
898.078	-118
898.181	1250
898.284	371
898.387	474
898.490	-368
898.593	114
898.695	181
898.798	-856
898.901	-171
899.004	449
899.107	538
899.209	424
899.312	302
899.415	1003
899.518	428
899.620	-474
899.723	116
899.826	11
899.928	-5
900.031	120
900.133	9
900.236	-96
900.338	-87
900.441	455
900.543	53
900.646	843
900.748	325
900.851	490
900.953	-32
901.055	283
901.158	142
901.260	539
901.362	609
901.465	214
901.567	390
901.669	908
901.771	135
901.873	553
901.976	-630
902.078	-526
902.180	250
902.282	-3
902.384	-655
902.486	274
902.588	-22
902.690	479
902.792	-158
902.894	1307
902.996	-157
903.098	396
903.200	-162
903.302	309
903.404	315
903.505	-704
903.607	259
903.709	455
903.811	180
903.913	20
904.014	402
904.116	364
904.218	297
904.319	526
904.421	330
904.523	770
904.624	424
904.726	527
904.827	350
904.929	1103
905.030	335
905.132	674
905.233	233
905.335	669
905.436	-262
905.537	67
905.639	348
905.740	129
905.841	909
905.943	73
906.044	1415
906.145	434
906.247	248
906.348	81
906.449	630
906.550	-101
906.651	1229
906.752	276
906.854	-287
906.955	-820
907.056	-61
907.157	352
907.258	421
907.359	311
907.460	285
907.561	-97
907.662	-477
907.762	-139
907.863	-452
907.964	-118
908.065	-231
908.166	-922
908.267	-401
908.367	-192
908.468	-134
908.569	-117
908.670	-329
908.770	734
908.871	-677
908.971	-69
909.072	-147
909.173	34
909.273	92
909.374	276
909.474	-488
909.575	-161
909.675	-612
909.776	-203
909.876	-331
909.977	-393
910.077	-380
910.177	-644
910.278	-139
910.378	419
910.478	-272
910.579	-952
910.679	-679
910.779	-475
910.879	-724
910.980	667
911.080	-133
911.180	-853
911.280	-554
911.380	-540
911.480	-258
911.580	84
911.680	-163
911.780	178
911.880	-383
911.980	-58
912.080	-343
912.180	-118
912.280	424
912.380	-498
912.480	437
912.580	-268
912.679	-109
912.779	14
912.879	-189
912.979	-452
913.078	-329
913.178	-149
913.278	-801
913.377	604
913.477	-324
913.577	-630
913.676	224
913.776	-251
913.875	-672
913.975	-133
914.074	-164
914.174	-458
914.273	-782
914.373	-122
914.472	-51
914.572	-354
914.671	-6
914.770	165
914.870	-354
914.969	-36
915.068	-284
915.167	974
915.267	-346
915.366	-653
915.465	1068
915.564	620
915.663	-660
915.763	-550
915.862	367
915.961	424
916.060	-911
916.159	-84
916.258	-1094
916.357	1137
916.456	-436
916.555	343
916.654	62
916.752	-815
916.851	-233
916.950	465
917.049	1
917.148	147
917.247	-110
917.345	77
917.444	513
917.543	-374
917.642	-69
917.740	203
917.839	-266
917.937	237
918.036	-332
918.135	-569
918.233	416
918.332	-178
918.430	77
918.529	-3
918.627	-231
918.726	192
918.824	92
918.923	-6
919.021	689
919.119	394
919.218	273
919.316	-439
919.414	258
919.512	-1141
919.611	-87
919.709	137
919.807	-121
919.905	-421
920.003	-19
920.102	379
920.200	560
920.298	-376
920.396	300
920.494	-71
920.592	-749
920.690	120
920.788	-18
920.886	540
920.984	174
921.082	-668
921.180	444
921.277	319
921.375	232
921.473	147
921.571	-223
921.669	57
921.766	-655
921.864	124
921.962	869
922.060	567
922.157	-531
922.255	97
922.352	110
922.450	804
922.548	-40
922.645	336
922.743	414
922.840	583
922.938	32
923.035	340
923.133	555
923.230	847
923.327	991
923.425	976
923.522	1367
923.619	1358
923.717	785
923.814	560
923.911	541
924.008	1204
924.106	107
924.203	535
924.300	350
924.397	719
924.494	596
924.591	176
924.688	418
924.786	341
924.883	177
924.979	434
925.077	769
925.173	627
925.270	1479
925.367	200
925.464	636
925.561	1410
925.658	671
925.755	1094
925.852	-60
925.948	1330
926.045	2282
926.142	2238
926.239	2100
926.335	3247
926.432	2797
926.529	2233
926.625	2852
926.722	1395
926.818	322
926.915	790
927.011	696
927.108	259
927.204	505
927.301	871
927.397	796
927.494	722
927.590	782
927.687	556
927.783	574
927.879	41
927.976	1283
928.072	672
928.168	-177
928.264	887
928.361	83
928.457	762
928.553	-244
928.649	436
928.745	386
928.841	-389
928.937	640
929.033	587
929.129	322
929.225	198
929.321	570
929.417	330
929.513	34
929.609	-564
929.705	702
929.801	129
929.897	403
929.993	618
930.089	1102
930.184	281
930.280	257
930.376	311
930.471	-154
930.567	176
930.663	408
930.758	-512
930.854	635
930.950	-364
931.045	287
931.141	872
931.236	264
931.332	21
931.427	78
931.523	-367
931.618	599
931.714	403
931.809	555
931.905	472
932.000	252
932.095	439
932.191	-304
932.286	453
932.381	134
932.476	336
932.572	758
932.667	-14
932.762	624
932.857	55
932.952	676
933.047	103
933.142	324
933.237	504
933.332	419
933.427	1181
933.522	379
933.617	472
933.712	-111
933.807	-330
933.902	-233
933.997	840
934.092	638
934.187	813
934.282	-239
934.376	468
934.471	10
934.566	-735
934.661	636
934.755	507
934.850	-319
934.945	-30
935.039	27
935.134	632
935.228	20
935.323	201
935.417	-595
935.512	-236
935.606	-150
935.701	-216
935.795	445
935.890	-68
935.984	334
936.079	98
936.173	279
936.267	539
936.362	-414
936.456	379
936.550	804
936.644	125
936.738	589
936.833	-298
936.927	131
937.021	-329
937.115	375
937.209	-666
937.303	833
937.397	663
937.491	-68
937.585	537
937.679	24
937.773	600
937.867	-242
937.961	617
938.055	513
938.149	538
938.243	446
938.337	80
938.430	1309
938.524	1519
938.618	1898
938.712	2280
938.805	927
938.899	551
938.993	175
939.086	1377
939.180	2260
939.274	4932
939.367	2581
939.461	-35
939.554	-503
939.648	275
939.741	110
939.835	883
939.928	262
940.022	398
940.115	-618
940.208	495
940.302	-94
940.395	812
940.488	-94
940.582	758
940.675	-601
940.768	436
940.861	-27
940.954	326
941.048	-290
941.141	419
941.234	46
941.327	1140
941.420	2193
941.513	924
941.606	148
941.699	1243
941.792	288
941.885	415
941.978	152
942.071	-33
942.164	-542
942.257	878
942.349	325
942.442	791
942.535	-344
942.628	803
942.721	520
942.813	-19
942.906	252
942.999	112
943.091	-403
943.184	-195
943.277	421
943.369	315
943.462	125
943.554	861
943.647	-435
943.739	747
943.832	-333
943.924	-650
944.017	-228
944.109	-1062
944.201	-384
944.294	-301
944.386	-609
944.478	-82
944.571	-39
944.663	123
944.755	-64
944.847	-838
944.940	6
945.032	-1149
945.124	-37
945.216	122
945.308	-160
945.400	533
945.492	-453
945.584	91
945.676	11
945.768	421
945.860	-247
945.952	-132
946.044	572
946.136	730
946.228	-385
946.320	-376
946.412	346
946.503	-27
946.595	-333
946.687	-621
946.779	-571
946.870	456
946.962	-382
947.054	-140
947.145	120
947.237	-691
947.329	88
947.420	-275
947.512	234
947.603	-906
947.695	-269
947.786	-657
947.878	-769
947.969	-364
948.061	-640
948.152	-248
948.243	-206
948.335	-187
948.426	-639
948.517	-163
948.609	-270
948.700	-354
948.791	-47
948.882	-426
948.973	-752
949.065	-806
949.156	-223
949.247	-402
949.338	397
949.429	200
949.520	-104
949.611	-795
949.702	1009
949.793	-552
949.884	-112
949.975	-180
950.066	-418
950.157	-656
950.247	-667
950.338	-858
950.429	-980
950.520	-668
950.611	-86
950.701	-400
950.792	-621
950.883	201
950.973	-163
951.064	-184
951.155	-788
951.245	47
951.336	-1262
951.427	-822
951.517	151
951.608	-769
951.698	-1022
951.788	-281
951.879	-308
951.969	-232
952.060	-519
952.150	-833
952.240	196
952.331	-1205
952.421	943
952.511	98
952.602	89
952.692	-177
952.782	70
952.872	-980
952.962	-364
953.052	-232
953.143	-1346
953.233	39
953.323	-81
953.413	-1051
953.503	-989
953.593	-104
953.683	165
953.773	-767
953.863	-270
953.953	-425
954.042	-735
954.132	-110
954.222	-333
954.312	-773
954.402	-905
954.492	-747
954.581	-385
954.671	-785
954.761	-1395
954.850	640
954.940	-1172
955.030	-461
955.119	-545
955.209	140
955.298	-842
955.388	-490
955.477	-69
955.567	-666
955.656	129
955.746	343
955.835	-253
955.925	-691
956.014	-933
956.103	-237
956.193	-1029
956.282	-63
956.371	-490
956.461	-381
956.550	-761
956.639	-567
956.728	-1203
956.817	-214
956.906	20
956.995	43
957.085	-958
957.174	-957
957.263	-1132
957.352	-1110
957.441	-654
957.530	-587
957.619	-300
957.708	-819
957.796	-1018
957.885	-513
957.974	-293
958.063	191
958.152	-1151
958.241	-73
958.329	-490
958.418	-675
958.507	-365
958.596	10
958.684	-819
958.773	-598
958.861	-86
958.950	269
959.039	401
959.127	-144
959.216	228
959.304	-669
959.393	-922
959.481	-590
959.570	-313
959.658	-704
959.746	-990
959.835	-680
959.923	-1065
960.011	-1542
960.100	-275
960.188	257
960.276	-740
960.365	-375
960.453	-457
960.541	-465
960.629	-1117
960.717	-594
960.805	-983
960.893	-491
960.981	-320
961.069	-447
961.158	-810
961.245	-95
961.333	-889
961.421	-385
961.509	-151
961.597	-739
961.685	-627
961.773	362
961.861	-698
961.949	-1207
962.036	-626
962.124	31
962.212	-507
962.299	-309
962.387	-545
962.475	-676
962.562	-1377
962.650	-146
962.738	337
962.825	-621
962.913	-567
963.000	-1179
963.088	-1388
963.175	-416
963.263	-575
963.350	-290
963.438	-575
963.525	-1213
963.612	-343
963.700	-714
963.787	-456
963.874	-1067
963.962	-427
964.049	100
964.136	-975
964.223	-1026
964.310	-1303
964.398	-538
964.485	-1291
964.572	-756
964.659	-638
964.746	-835
964.833	-510
964.920	-895
965.007	-986
965.094	-372
965.181	-1153
965.268	-19
965.355	-180
965.441	-213
965.528	-780
965.615	-148
965.702	-400
965.789	-889
965.875	276
965.962	-735
966.049	-1283
966.136	-826
966.222	-946
966.309	-286
966.395	-732
966.482	-462
966.569	-1379
966.655	-577
966.742	-1143
966.828	-690
966.915	-676
967.001	-1313
967.087	-1283
967.174	-928
967.260	-1045
967.347	-1269
967.433	-1174
967.519	-535
967.605	-1126
967.692	-290
967.778	31
967.864	-464
967.950	-707
968.036	-913
968.123	-884
968.209	-694
968.295	-1353
968.381	3
968.467	474
968.553	-2224
968.639	202
968.725	-1210
968.811	68
968.897	-595
968.983	-968
969.069	-443
969.154	-47
969.240	565
969.326	-1845
969.412	-853
969.497	-1114
969.583	-845
969.669	-565
969.755	-673
969.840	-950
969.926	-431
970.012	-167
970.097	598
970.183	-1335
970.268	-1146
970.354	-463
970.439	-1648
970.525	-146
970.610	-1675
970.696	263
970.781	-810
970.866	-1765
970.952	-278
971.037	-901
971.122	-66
971.208	-125
971.293	-593
971.378	-1772
971.463	-1069
971.549	509
971.634	-310
971.719	-692
971.804	-1309
971.889	-331
971.974	-971
972.059	-1435
972.144	-556
972.229	-640
972.314	-776
972.399	-691
972.484	-409
972.569	-360
972.654	-1739
972.739	875
972.824	-1290
972.908	-1024
972.993	-616
973.078	-1020
973.163	-345
973.247	-555
973.332	-2169
973.417	-549
973.501	-1179
973.586	-1764
973.671	-177
973.755	-1020
973.840	-770
973.924	-263
974.009	40
974.093	-738
974.178	426
974.262	-1152
974.346	-1140
974.431	-887
974.515	-363
974.600	-807
974.684	-931
974.768	-256
974.852	674
974.937	-1035
975.021	-370
975.105	-1470
975.189	-596
975.273	463
975.358	-1135
975.442	-1330
975.526	463
975.610	-1402
975.694	-885
975.778	-81
975.862	-519
975.946	-2705
976.030	1216
976.114	-1553
976.198	-413
976.281	-514
976.365	-22
976.449	-1094
976.533	-291
976.617	-1014
976.700	-1350
976.784	-1027
976.868	-475
976.951	-353
977.035	-1234
977.119	-1248
977.202	-536
977.286	-171
977.369	-1005
977.453	-552
977.536	-800
977.620	-1535
977.703	-766
977.787	-1057
977.870	188
977.953	65
978.037	-1611
978.120	333
978.203	-1226
978.287	-536
978.370	-1046
978.453	-203
978.536	-401
978.620	-217
978.703	-664
978.786	-680
978.869	-846
978.952	-688
979.035	-86
979.118	-796
979.201	-1338
979.284	-903
979.367	-1530
979.450	-413
979.533	-1643
979.616	-1098
979.699	-544
979.782	-998
979.865	-493
979.948	-892
980.030	-1306
980.113	-1010
980.196	-924
980.279	-252
980.361	-1132
980.444	-722
980.526	-710
980.609	-926
980.692	-1048
980.774	-447
980.857	-1381
980.939	-109
981.022	-1213
981.104	-426
981.187	-977
981.269	-776
981.352	15
981.434	-1195
981.516	-888
981.599	270
981.681	166
981.763	-85
981.846	-139
981.928	-988
982.010	-1683
982.092	-1135
982.174	425
982.256	-1389
982.339	-829
982.421	-71
982.503	-291
982.585	-2102
982.667	-704
982.749	-1060
982.831	-805
982.913	-1712
982.995	189
983.077	-1064
983.158	420
983.240	-1913
983.322	-1199
983.404	-954
983.486	-868
983.568	304
983.649	-312
983.731	-403
983.813	-525
983.894	-823
983.976	-1662
984.058	-2073
984.139	483
984.221	-565
984.302	-209
984.384	-138
984.465	-1458
984.547	-172
984.628	-1684
984.710	-399
984.791	-1098
984.872	-818
984.954	-533
985.035	-491
985.116	-1182
985.198	-1685
985.279	168
985.360	-784
985.441	-941
985.522	-480
985.604	-480
985.685	-1816
985.766	2
985.847	289
985.928	-1209
986.009	-552
986.090	-1131
986.171	616
986.252	-716
986.333	-1174
986.414	-845
986.495	-208
986.576	-725
986.656	-743
986.737	-1193
986.818	-666
986.899	-1199
986.980	-379
987.060	-24
987.141	-849
987.222	-769
987.302	-395
987.383	-1113
987.464	-1012
987.544	-579
987.625	-718
987.705	-344
987.786	-651
987.866	-585
987.947	-1014
988.027	-1077
988.108	-950
988.188	-498
988.268	-309
988.349	-1148
988.429	-925
988.509	132
988.589	-1206
988.670	-2219
988.750	-227
988.830	-1313
988.910	-539
988.990	-1107
989.070	200
989.151	-259
989.231	-510
989.311	-447
989.391	-260
989.471	-487
989.551	-1817
989.631	-954
989.711	-93
989.791	-1581
989.870	-1022
989.950	85
990.030	-1323
990.110	-871
990.190	-410
990.269	-378
990.349	-1567
990.429	-675
990.509	-920
990.588	-1188
990.668	-1927
990.747	-479
990.827	-514
990.907	117
990.986	-1370
991.066	-1064
991.145	-1406
991.225	-432
991.304	-861
991.383	-181
991.463	-1121
991.542	-1211
991.622	-387
991.701	-495
991.780	-1463
991.859	-382
991.939	-1122
992.018	-662
992.097	-259
992.176	-842
992.256	-1217
992.335	-1760
992.414	-69
992.493	-1370
992.572	-977
992.651	577
992.730	-1312
992.809	-65
992.888	-1040
992.967	-577
993.046	-374
993.125	-1518
993.203	-1042
993.282	-21
993.361	-313
993.440	-791
993.519	-1559
993.597	-316
993.676	-1384
993.755	-186
993.834	-812
993.912	-1765
993.991	114
994.069	-1202
994.148	-780
994.226	-570
994.305	-418
994.384	-1495
994.462	-513
994.540	-2003
994.619	-1332
994.697	-934
994.776	-1436
994.854	-695
994.932	-1526
995.011	-1004
995.089	-608
995.167	-880
995.245	-1403
995.324	-1400
995.402	-626
995.480	-1482
995.558	-203
995.636	-1568
995.714	-1365
995.792	-401
995.870	-990
995.948	-775
996.026	-57
996.104	-2504
996.182	-790
996.260	-1036
996.338	-588
996.416	-2002
996.494	-1110
996.572	908
996.649	-1275
996.727	-2109
996.805	-348
996.883	-999
996.960	-1916
997.038	-641
997.116	-1381
997.193	-1458
997.271	-1378
997.348	-1405
997.426	-472
997.504	-1455
997.581	-367
997.658	-1007
997.736	-1415
997.813	-1915
997.891	-812
997.968	-1138
998.046	-1575
998.123	-1143
998.200	-1255
998.277	-1595
998.355	-884
998.432	-1628
998.509	-941
998.586	-925
998.663	-1288
998.741	-1254
998.818	-733
998.895	-1725
998.972	-1620
999.049	-1307
999.126	-1961
999.203	-1100
999.280	-1479
999.357	-1346
999.434	-1289
999.511	-1377
999.587	-688
999.664	-1284
999.741	-1161
999.818	-1034
999.895	-1606
999.971	-1503
1000.048	-1658
1000.125	-744
1000.202	-1955
1000.278	-1730
1000.355	-1459
1000.431	-1082
1000.508	-1729
1000.584	-862
1000.661	-821
1000.738	-1769
1000.814	-2041
1000.890	-649
1000.967	-1707
1001.043	-762
1001.120	-2498
1001.196	-1049
1001.272	-1409
1001.349	-1686
1001.425	-857
1001.501	-1367
1001.577	-1985
1001.654	-1223
1001.730	-921
1001.806	-1701
1001.882	-1891
1001.958	-1151
1002.034	-1498
1002.110	-1292
1002.186	-1864
1002.262	-1372
1002.338	-1736
1002.414	-1075
1002.490	-928
1002.566	-2021
1002.642	-1683
1002.718	-1076
1002.794	-1088
1002.870	-1561
1002.945	-1710
1003.021	-921
1003.097	-1369
1003.173	-1265
1003.248	-1440
1003.324	-1409
1003.400	-1047
1003.475	-1459
1003.551	-1003
1003.626	-1631
1003.702	-1800
1003.777	-1396
1003.853	-1272
1003.928	-1831
1004.004	-1465
1004.079	-1448
1004.155	-1335
1004.230	-2364
1004.305	-815
1004.381	-2169
1004.456	-1796
1004.531	-1341
1004.607	-1369
1004.682	-1584
1004.757	-1515
1004.832	-1388
1004.907	-1176
1004.982	-581
1005.057	-1667
1005.133	-1578
1005.208	-1863
1005.283	-1343
1005.358	-1788
1005.433	-1620
1005.508	-1708
1005.583	-1788
1005.657	-1686
1005.732	-1457
1005.807	-1825
1005.882	-1506
1005.957	-1722
1006.032	-1177
1006.106	-1429
1006.181	-1845
1006.256	-1659
1006.331	-2015
1006.405	-2133
1006.480	-1298
1006.554	-1893
1006.629	-1731
1006.704	-1168
1006.778	-1677
1006.853	-1523
1006.927	-1107
1007.002	-1927
1007.076	-712
1007.150	-1834
1007.225	-1785
1007.299	-1457
1007.373	-1938
1007.448	-1160
1007.522	-209
1007.596	-1618
1007.671	-1591
1007.745	-1744
1007.819	-1990
1007.893	-1657
1007.967	-975
1008.041	-2273
1008.115	-1494
1008.190	-967
1008.264	-705
1008.338	-2585
1008.412	-1977
1008.486	-1203
1008.560	-1088
1008.633	-1981
1008.707	-1442
1008.781	-994
1008.855	-1329
1008.929	-1258
1009.003	-1895
1009.076	-1884
1009.150	-1551
1009.224	-1919
1009.298	-908
1009.371	-1742
1009.445	-1121
1009.519	-1723
1009.592	-1626
1009.666	-1416
1009.739	-614
1009.813	-2019
1009.886	-919
1009.960	-2104
1010.033	-1419
1010.107	-1169
1010.180	-2662
1010.253	-1373
1010.327	-1964
1010.400	-1083
1010.473	-1761
1010.547	-823
1010.620	-1072
1010.693	-1336
1010.766	-1654
1010.840	-851
1010.913	-1427
1010.986	-890
1011.059	-975
1011.132	-1286
1011.205	-337
1011.278	-818
1011.351	-1300
1011.424	-744
1011.497	-1356
1011.570	-1481
1011.643	-1581
1011.716	-1953
1011.789	-2053
1011.862	-1571
1011.934	-1658
1012.007	-2060
1012.080	-1367
1012.153	-1286
1012.225	-926
1012.298	-1964
1012.371	-2708
1012.443	-1044
1012.516	-1832
1012.588	-889
1012.661	-1395
1012.733	-1952
1012.806	-476
1012.879	-2296
1012.951	-711
1013.023	-1584
1013.096	-1189
1013.168	-2176
1013.241	-968
1013.313	-1354
1013.385	-1209
1013.458	-1795
1013.530	-518
1013.602	-1514
1013.674	-713
1013.746	-2203
1013.819	-1569
1013.891	-382
1013.963	-1513
1014.035	-1149
1014.107	-1779
1014.179	-1814
1014.251	-1198
1014.323	-1355
1014.395	-1556
1014.467	-1316
1014.539	-1944
1014.611	-1971
1014.683	-1272
1014.754	-1694
1014.826	-1457
1014.898	-1478
1014.970	-1812
1015.042	-724
1015.113	-1521
1015.185	-2086
1015.257	-1911
1015.328	-970
1015.400	-1278
1015.471	-1314
1015.543	-1725
1015.615	-1185
1015.686	-1560
1015.757	-1056
1015.829	-1690
1015.901	-1421
1015.972	-1603
1016.043	-1395
1016.115	-1402
1016.186	-2086
1016.257	-1665
1016.328	-2185
1016.400	-913
1016.471	-2081
1016.542	-1225
1016.613	-1390
1016.685	-784
1016.756	-1519
1016.827	-1096
1016.898	-1694
1016.969	-789
1017.040	-1408
1017.111	-1596
1017.182	-1440
1017.253	-1545
1017.324	-2044
1017.395	-1516
1017.466	-1600
1017.537	-1326
1017.608	-1598
1017.678	-1202
1017.749	-1850
1017.820	-1861
1017.891	-1536
1017.961	-1404
1018.032	-1179
1018.103	-1505
1018.173	-1496
1018.244	-1188
1018.315	-1855
1018.385	-679
1018.456	-1679
1018.526	-2249
1018.597	-1417
1018.667	-1747
1018.738	-1830
1018.808	-994
1018.878	-1661
1018.949	-1861
1019.019	-982
1019.089	-1843
1019.160	-1863
1019.230	-2095
1019.300	-1035
1019.371	-2746
1019.441	-1507
1019.511	-1277
1019.581	-815
1019.651	-1830
1019.721	-517
1019.791	-1394
1019.861	-1339
1019.931	-1860
1020.001	-1432
1020.071	-1551
1020.141	-1739
1020.211	-987
1020.281	-2130
1020.351	-1056
1020.421	-883
1020.491	-844
1020.560	-2313
1020.630	-1785
1020.700	-1737
1020.770	-1400
1020.839	-1831
1020.909	-1610
1020.979	-2349
1021.048	-1639
1021.118	-1784
1021.187	-1236
1021.257	-595
1021.326	-1234
1021.396	-1064
1021.465	-1736
1021.535	-851
1021.604	-1993
1021.674	-956
1021.743	-1878
1021.812	-1280
1021.882	-1026
1021.951	-875
1022.020	-1805
1022.089	-1094
1022.159	-1573
1022.228	-1366
1022.297	-1132
1022.366	-1767
1022.435	-792
1022.504	-2014
1022.573	-2367
1022.642	-1373
1022.711	-1328
1022.781	-1527
1022.849	-265
1022.918	-2087
1022.987	-1444
1023.056	-1304
1023.125	-1920
1023.194	-1369
1023.263	-1590
1023.331	-1458
1023.400	-1665
1023.469	-1960
1023.538	-1104
1023.606	-2059
1023.675	-1411
1023.744	-1776
1023.812	-1809
1023.881	-1577
1023.949	-2009
1024.018	-2045
1024.086	-1431
1024.155	-1060
1024.223	-2577
1024.292	-1617
1024.360	-1683
1024.429	-1038
1024.497	-1408
1024.565	-1782
1024.634	-2010
1024.702	-1168
1024.770	-1847
1024.838	-1935
1024.907	-1455
1024.975	-1559
1025.043	-1063
1025.111	-1757
1025.179	-1476
1025.247	-1605
1025.315	-1463
1025.383	-1817
1025.451	-2362
1025.519	-1967
1025.587	-1615
1025.655	-1646
1025.723	-1431
1025.791	-1517
1025.859	-298
1025.927	-916
1025.995	-1260
1026.062	-1862
1026.130	-1493
1026.198	-1765
1026.266	-1872
1026.333	-986
1026.401	-1488
1026.469	-1739
1026.536	-1359
1026.604	-1231
1026.671	-1696
1026.739	-1677
1026.806	-1823
1026.874	-1682
1026.941	-1488
1027.009	-1779
1027.076	-2109
1027.144	-741
1027.211	-2485
1027.278	-2191
1027.345	-1913
1027.413	-846
1027.480	-2328
1027.547	-1903
1027.614	-1382
1027.682	-1596
1027.749	-1497
1027.816	-1608
1027.883	-1822
1027.950	-2270
1028.017	-1706
1028.084	-1672
1028.151	-2354
1028.218	-2097
1028.285	-1451
1028.352	-1505
1028.419	-2038
1028.486	-1281
1028.553	-1800
1028.619	-2310
1028.686	-1585
1028.753	-2149
1028.820	-2283
1028.886	-1850
1028.953	-2004
1029.020	-1481
1029.086	-2393
1029.153	-2733
1029.220	-2271
1029.286	-1559
1029.353	-1713
1029.419	-1848
1029.486	-1677
1029.552	-1489
1029.619	-1639
1029.685	-1446
1029.751	-1578
1029.818	-1130
1029.884	-1676
1029.951	-1505
1030.017	-1998
1030.083	-1473
1030.149	-2181
1030.216	-1298
1030.282	-1540
1030.348	-1328
1030.414	-2424
1030.480	-2035
1030.546	-1792
1030.612	-2144
1030.678	-2279
1030.744	-2077
1030.810	-1933
1030.876	-1644
1030.942	-1483
1031.008	-2157
1031.074	-2942
1031.140	-1536
1031.206	-1292
1031.272	-1772
1031.337	-1629
1031.403	-1536
1031.469	-1765
1031.534	-1492
1031.600	-1985
1031.666	-2107
1031.731	-2232
1031.797	-2240
1031.863	-2083
1031.928	-2426
1031.994	-2125
1032.059	-1939
1032.125	-1899
1032.190	-2358
1032.256	-1084
1032.321	-2040
1032.386	-1617
1032.452	-1965
1032.517	-1767
1032.582	-1532
1032.647	-2070
1032.713	-1953
1032.778	-1578
1032.843	-2015
1032.908	-2270
1032.974	-1292
1033.039	-2194
1033.104	-1847
1033.169	-2193
1033.234	-1712
1033.299	-1697
1033.364	-2085
1033.429	-2666
1033.494	-2073
1033.559	-1950
1033.624	-2990
1033.688	-2310
1033.753	-2396
1033.818	-2110
1033.883	-1846
1033.948	-1282
1034.013	-2594
1034.077	-1760
1034.142	-1821
1034.207	-2007
1034.271	-1624
1034.336	-1674
1034.400	-2179
1034.465	-2586
1034.530	-2000
1034.594	-2080
1034.658	-2279
1034.723	-2321
1034.787	-2351
1034.852	-1923
1034.916	-1791
1034.981	-1824
1035.045	-1681
1035.109	-1676
1035.173	-1419
1035.238	-2199
1035.302	-1509
1035.366	-1605
1035.430	-1731
1035.495	-2355
1035.559	-2016
1035.623	-2526
1035.687	-2957
1035.751	-1826
1035.815	-2467
1035.879	-2367
1035.943	-1813
1036.007	-2594
1036.071	-2118
1036.135	-2540
1036.198	-2036
1036.262	-2145
1036.326	-1689
1036.390	-1692
1036.454	-1981
1036.517	-1192
1036.581	-2202
1036.645	-2379
1036.709	-1226
1036.772	-2557
1036.836	-2209
1036.900	-1707
1036.963	-2048
1037.026	-2054
1037.090	-2183
1037.154	-1157
1037.217	-2168
1037.280	-2711
1037.344	-2458
1037.407	-1534
1037.471	-1992
1037.534	-1596
1037.597	-2271
1037.661	-2514
1037.724	-2476
1037.787	-2165
1037.850	-2347
1037.913	-2238
1037.977	-1317
1038.040	-1875
1038.103	-2445
1038.166	-1538
1038.229	-2547
1038.292	-1626
1038.355	-1670
1038.418	-1346
1038.481	-1721
1038.544	-2572
1038.607	-2025
1038.670	-2399
1038.732	-2344
1038.795	-2339
1038.858	-2426
1038.921	-2801
1038.984	-1664
1039.046	-2419
1039.109	-2601
1039.172	-2165
1039.234	-2050
1039.297	-1709
1039.360	-1863
1039.422	-2143
1039.485	-1456
1039.547	-2440
1039.610	-2309
1039.672	-1712
1039.734	-1949
1039.797	-2132
1039.859	-1304
1039.922	-2227
1039.984	-2052
1040.046	-2117
1040.109	-2151
1040.171	-2859
1040.233	-1294
1040.295	-2530
1040.358	-2716
1040.420	-2230
1040.482	-2285
1040.544	-2476
1040.606	-1838
1040.668	-2581
1040.730	-2297
1040.792	-1962
1040.854	-2116
1040.916	-2452
1040.978	-2429
1041.040	-2403
1041.102	-2342
1041.164	-1824
1041.225	-1967
1041.287	-3045
1041.349	-2091
1041.411	-2270
1041.472	-2449
1041.534	-2476
1041.596	-1944
1041.657	-2790
1041.719	-1796
1041.781	-2449
1041.842	-2486
1041.904	-1535
1041.965	-2387
1042.027	-2795
1042.088	-2012
1042.150	-1917
1042.211	-2544
1042.272	-1446
1042.334	-1394
1042.395	-2314
1042.456	-1721
1042.518	-2070
1042.579	-1793
1042.640	-2278
1042.701	-2364
1042.763	-2164
1042.824	-2201
1042.885	-2578
1042.946	-2295
1043.007	-2282
1043.068	-2417
1043.129	-2274
1043.190	-1601
1043.251	-2696
1043.312	-2657
1043.373	-2448
1043.434	-2060
1043.495	-2245
1043.556	-1778
1043.616	-1517
1043.677	-1574
1043.738	-2129
1043.799	-1974
1043.859	-1819
1043.920	-2060
1043.981	-2530
1044.041	-1965
1044.102	-1524
1044.162	-1672
1044.223	-1199
1044.284	-2006
1044.344	-1750
1044.405	-2580
1044.465	-1596
1044.525	-2050
1044.586	-1426
1044.646	-2288
1044.707	-1864
1044.767	-2137
1044.827	-2003
1044.887	-2005
1044.948	-1706
1045.008	-1512
1045.068	-1578
1045.128	-2078
1045.188	-2468
1045.249	-1720
1045.309	-1849
1045.369	-1657
1045.429	-1601
1045.489	-1307
1045.549	-1913
1045.609	-2071
1045.669	-1995
1045.729	-2558
1045.789	-2077
1045.848	-1991
1045.908	-1147
1045.968	-1291
1046.028	-1553
1046.088	-2180
1046.147	-2292
1046.207	-1386
1046.267	-1378
1046.326	-1270
1046.386	-1508
1046.446	-1245
1046.505	-1151
1046.565	-1059
1046.624	-1112
1046.684	-246
1046.743	-1548
1046.803	-979
1046.862	-427
1046.922	0
