'Start Wavelength	183.907
'End Wavelength	1046.922
'Gate Delay	5.000
'Gate Width (ms)	1.050
'Laser Output Level	0.000
'X Position	0.000
'Y Position	0.000
'Z Position	0.000
'Grid Point Number	1.000
'Shot Number	100.000
183.907	152.000
183.977	-265.000
184.047	-859
184.116	45
184.186	-660
184.256	-130
184.325	-393
184.395	-1060
184.465	409
184.534	159
184.604	-888
184.674	128
184.743	-672
184.813	-177
184.883	-748
184.952	25
185.022	-68
185.092	-388
185.161	-433
185.231	33
185.301	-599
185.370	-18
185.440	-398
185.509	-173
185.579	399
185.649	953
185.718	98
185.788	401
185.857	-945
185.927	-262
185.996	-48
186.066	-520
186.136	-343
186.205	-357
186.275	-104
186.344	95
186.414	-697
186.483	-375
186.553	1030
186.622	746
186.692	-93
186.761	65
186.831	112
186.900	-179
186.970	444
187.039	-104
187.109	700
187.178	-333
187.248	-508
187.317	514
187.387	-71
187.456	104
187.526	692
187.595	-131
187.664	-706
187.734	371
187.803	135
187.873	66
187.942	-7
188.012	-223
188.081	70
188.150	-131
188.220	-55
188.289	791
188.358	-569
188.428	140
188.497	-600
188.567	138
188.636	-624
188.705	457
188.775	-343
188.844	-642
188.913	355
188.983	-460
189.052	951
189.121	278
189.191	583
189.260	483
189.329	215
189.399	184
189.468	53
189.537	946
189.606	-757
189.676	166
189.745	-249
189.814	-257
189.883	-945
189.953	89
190.022	-116
190.091	323
190.161	101
190.230	537
190.299	-592
190.368	34
190.437	-133
190.507	235
190.576	362
190.645	757
190.714	-426
190.783	-56
190.853	678
190.922	-11
190.991	-721
191.060	543
191.129	-230
191.198	365
191.268	-476
191.337	438
191.406	230
191.475	-328
191.544	66
191.613	536
191.682	-641
191.752	-293
191.821	-136
191.890	315
191.959	419
192.028	503
192.097	717
192.166	436
192.235	-828
192.304	388
192.373	-304
192.442	-559
192.511	-930
192.580	331
192.650	-528
192.719	-702
192.788	-334
192.857	46
192.926	-34
192.995	138
193.064	743
193.133	1174
193.202	108
193.271	-95
193.340	147
193.409	280
193.478	211
193.547	523
193.615	377
193.684	271
193.753	-512
193.822	-123
193.891	-109
193.960	433
194.029	-463
194.098	631
194.167	-286
194.236	1064
194.305	-304
194.374	240
194.443	109
194.512	90
194.580	-314
194.649	430
194.718	-39
194.787	148
194.856	12
194.925	534
194.994	-527
195.062	656
195.131	664
195.200	654
195.269	378
195.338	466
195.407	377
195.475	217
195.544	557
195.613	-84
195.682	154
195.751	-407
195.819	-644
195.888	428
195.957	564
196.026	-42
196.094	375
196.163	785
196.232	-164
196.301	-612
196.369	-295
196.438	257
196.507	-92
196.576	92
196.644	85
196.713	317
196.782	-555
196.850	610
196.919	246
196.988	411
197.056	-892
197.125	1029
197.194	-196
197.262	-332
197.331	407
197.400	-126
197.468	502
197.537	-562
197.606	314
197.674	475
197.743	1061
197.812	-9
197.880	-333
197.949	439
198.017	-263
198.086	303
198.155	-243
198.223	433
198.292	1138
198.360	393
198.429	482
198.497	916
198.566	123
198.635	1075
198.703	418
198.772	778
198.840	-233
198.909	908
198.977	-515
199.046	-483
199.114	-65
199.183	539
199.251	228
199.320	-779
199.388	-619
199.457	-248
199.525	347
199.594	380
199.662	-359
199.731	588
199.799	328
199.867	416
199.936	-570
200.004	302
200.073	77
200.141	291
200.210	-517
200.278	-477
200.346	145
200.415	-64
200.483	272
200.552	-42
200.620	88
200.688	-362
200.757	-166
200.825	202
200.893	-359
200.962	434
201.030	53
201.098	-53
201.167	662
201.235	55
201.303	-185
201.372	231
201.440	141
201.508	622
201.577	166
201.645	361
201.713	-544
201.781	-160
201.850	657
201.918	-317
201.986	284
202.055	723
202.123	-649
202.191	-190
202.259	847
202.327	-38
202.396	-384
202.464	708
202.532	-274
202.600	1172
202.669	1009
202.737	-486
202.805	-539
202.873	487
202.941	541
203.009	-235
203.078	246
203.146	-6
203.214	203
203.282	-1398
203.350	397
203.418	-299
203.487	-111
203.555	256
203.623	13
203.691	-192
203.759	-335
203.827	47
203.895	125
203.963	155
204.031	505
204.099	-40
204.168	-66
204.236	570
204.304	470
204.372	-8
204.440	-176
204.508	-174
204.576	-594
204.644	-127
204.712	-263
204.780	218
204.848	-22
204.916	424
204.984	498
205.052	543
205.120	7
205.188	-297
205.256	106
205.324	44
205.392	-186
205.460	192
205.528	-339
205.596	-173
205.664	510
205.732	-181
205.799	-421
205.867	1832
205.935	-745
206.003	146
206.071	393
206.139	-233
206.207	-134
206.275	-178
206.343	18
206.411	129
206.478	-89
206.546	171
206.614	360
206.682	721
206.750	-492
206.818	-41
206.885	496
206.953	-716
207.021	786
207.089	369
207.157	-131
207.225	98
207.292	-457
207.360	-410
207.428	-221
207.496	237
207.563	-66
207.631	-168
207.699	55
207.767	25
207.834	-134
207.902	-561
207.970	-246
208.038	-13
208.105	-208
208.173	-340
208.241	810
208.309	557
208.376	130
208.444	736
208.512	126
208.579	-913
208.647	444
208.715	1112
208.782	-529
208.850	37
208.918	-458
208.985	242
209.053	9
209.120	-45
209.188	-707
209.256	-45
209.323	-721
209.391	444
209.459	908
209.526	1707
209.594	-572
209.661	398
209.729	648
209.796	979
209.864	53
209.932	-280
209.999	900
210.067	999
210.134	-377
210.202	120
210.269	559
210.337	413
210.404	349
210.472	127
210.539	413
210.607	-669
210.674	206
210.742	574
210.809	-737
210.877	-277
210.944	396
211.012	-1360
211.079	1101
211.146	-212
211.214	40
211.281	877
211.349	66
211.416	966
211.484	286
211.551	-270
211.618	276
211.686	832
211.753	-305
211.821	130
211.888	-218
211.955	1188
212.023	429
212.090	-106
212.157	336
212.225	607
212.292	509
212.359	1007
212.427	3913
212.494	2009
212.561	1193
212.629	94
212.696	-133
212.763	-448
212.831	-645
212.898	770
212.965	92
213.032	698
213.100	-211
213.167	586
213.234	534
213.301	-792
213.369	-343
213.436	65
213.503	-716
213.570	700
213.638	413
213.705	-186
213.772	-452
213.839	227
213.906	607
213.973	364
214.041	-123
214.108	459
214.175	487
214.242	149
214.309	898
214.376	-499
214.444	-227
214.511	-431
214.578	-508
214.645	400
214.712	205
214.779	135
214.846	-354
214.913	269
214.980	191
215.048	55
215.115	933
215.182	914
215.249	413
215.316	-542
215.383	428
215.450	310
215.517	359
215.584	1530
215.651	-536
215.718	596
215.785	438
215.852	-406
215.919	-29
215.986	939
216.053	-210
216.120	43
216.187	-149
216.254	191
216.321	307
216.388	-236
216.455	357
216.522	181
216.589	571
216.656	871
216.722	297
216.789	-165
216.856	363
216.923	491
216.990	74
217.057	130
217.124	329
217.191	473
217.258	987
217.324	-30
217.391	1060
217.458	289
217.525	-75
217.592	282
217.659	-801
217.725	1281
217.792	-145
217.859	1795
217.926	-419
217.993	566
218.059	1194
218.126	344
218.193	173
218.260	-278
218.327	41
218.393	204
218.460	-144
218.527	-833
218.594	117
218.660	267
218.727	510
218.794	447
218.860	410
218.927	126
218.994	424
219.061	-6
219.127	17
219.194	258
219.261	244
219.327	-178
219.394	-373
219.461	-747
219.527	-228
219.594	359
219.661	472
219.727	-718
219.794	1176
219.860	-239
219.927	711
219.994	1484
220.060	850
220.127	1549
220.193	114
220.260	372
220.326	696
220.393	918
220.460	1264
220.526	1038
220.593	68
220.659	2066
220.726	719
220.792	2381
220.859	1748
220.925	2517
220.992	3015
221.058	2886
221.125	3220
221.191	3158
221.258	706
221.324	1297
221.391	32
221.457	-306
221.524	170
221.590	906
221.657	2309
221.723	1356
221.789	1680
221.856	1752
221.922	-347
221.989	-54
222.055	-631
222.121	-1738
222.188	958
222.254	325
222.321	301
222.387	86
222.453	545
222.520	14
222.586	-912
222.652	161
222.719	-437
222.785	-85
222.851	717
222.918	-542
222.984	472
223.050	560
223.116	-820
223.183	1642
223.249	-901
223.315	-809
223.382	374
223.448	-34
223.514	-540
223.580	-413
223.647	-1215
223.713	-1062
223.779	-30
223.845	600
223.911	425
223.978	-579
224.044	607
224.110	-326
224.176	236
224.242	-139
224.309	-1043
224.375	585
224.441	356
224.507	-569
224.573	-611
224.639	148
224.705	22
224.772	-11
224.838	-731
224.904	469
224.970	-662
225.036	-83
225.102	-1392
225.168	852
225.234	-268
225.300	-447
225.366	-236
225.432	-431
225.499	298
225.565	-141
225.631	-870
225.697	-764
225.763	78
225.829	693
225.895	360
225.961	-400
226.027	593
226.093	-164
226.159	264
226.225	1728
226.291	2796
226.357	6583
226.423	3152
226.489	1938
226.554	604
226.620	478
226.686	412
226.752	1307
226.818	2925
226.884	8295
226.950	7120
227.016	1943
227.082	1408
227.148	458
227.214	88
227.279	1123
227.345	747
227.411	60
227.477	1395
227.543	3658
227.609	3885
227.674	1325
227.740	397
227.806	637
227.872	143
227.938	634
228.003	500
228.069	8
228.135	-67
228.201	363
228.267	-152
228.332	291
228.398	-898
228.464	-100
228.530	-344
228.595	176
228.661	-570
228.727	-447
228.792	954
228.858	-462
228.924	-1455
228.990	675
229.055	-724
229.121	148
229.187	-380
229.252	-374
229.318	-643
229.384	-313
229.449	-258
229.515	-1857
229.581	-1406
229.646	1489
229.712	-699
229.777	680
229.843	-194
229.909	858
229.974	742
230.040	636
230.105	591
230.171	-19
230.236	383
230.302	1052
230.368	-43
230.433	-239
230.499	435
230.564	927
230.630	-1010
230.695	70
230.761	1126
230.826	-1561
230.892	1665
230.957	-924
231.023	-252
231.088	335
231.154	355
231.219	736
231.284	-848
231.350	489
231.415	-1189
231.481	516
231.546	-156
231.612	275
231.677	-314
231.742	-967
231.808	635
231.873	-1096
231.939	-1572
232.004	1316
232.069	336
232.135	-91
232.200	-352
232.265	553
232.331	-290
232.396	-292
232.461	-330
232.527	-144
232.592	-916
232.657	330
232.723	-404
232.788	8
232.853	198
232.918	574
232.984	-842
233.049	-364
233.114	-211
233.179	435
233.245	1345
233.310	928
233.375	-582
233.440	345
233.506	-941
233.571	-17
233.636	-41
233.701	-413
233.766	-912
233.832	458
233.897	66
233.962	-1192
234.027	469
234.092	324
234.157	-87
234.222	-400
234.288	343
234.353	2608
234.418	2173
234.483	1276
234.548	864
234.613	-427
234.678	308
234.743	-91
234.808	3296
234.873	-626
234.938	1052
235.004	183
235.069	-197
235.134	-650
235.199	166
235.264	203
235.329	-1612
235.394	-66
235.459	276
235.524	-1272
235.589	430
235.654	301
235.719	-832
235.784	675
235.849	-62
235.913	577
235.978	1205
236.043	770
236.108	99
236.173	-165
236.238	222
236.303	-358
236.368	-544
236.433	865
236.498	-306
236.563	546
236.627	1738
236.692	10962
236.757	8915
236.822	3192
236.887	760
236.952	1054
237.017	-767
237.081	1689
237.146	211
237.211	4049
237.276	9150
237.341	19205
237.405	7265
237.470	3106
237.535	1701
237.600	1244
237.664	873
237.729	-103
237.794	-462
237.859	2023
237.923	781
237.988	554
238.053	114
238.118	230
238.182	2302
238.247	4636
238.312	-845
238.376	1097
238.441	-2000
238.506	2129
238.570	-1568
238.635	1110
238.700	14
238.764	-138
238.829	513
238.893	1020
238.958	861
239.023	-187
239.087	-800
239.152	334
239.216	-913
239.281	-12
239.346	265
239.410	-424
239.475	484
239.539	3403
239.604	1917
239.668	1278
239.733	456
239.797	2015
239.862	7913
239.926	5920
239.991	1692
240.055	-150
240.120	26
240.184	1062
240.249	-42
240.313	-256
240.378	124
240.442	1344
240.507	2939
240.571	189
240.635	-21
240.700	2310
240.764	-370
240.829	405
240.893	-889
240.957	938
241.022	1872
241.086	3014
241.151	228
241.215	-726
241.279	672
241.344	896
241.408	-74
241.472	-217
241.537	773
241.601	76
241.665	-993
241.730	-404
241.794	597
241.858	-578
241.922	-342
241.987	409
242.051	120
242.115	-1029
242.179	276
242.244	-1516
242.308	704
242.372	-288
242.436	-768
242.501	475
242.565	-395
242.629	-198
242.693	363
242.757	-1362
242.822	-433
242.886	1229
242.950	1410
243.014	-660
243.078	817
243.142	39
243.206	-772
243.271	703
243.335	-375
243.399	1430
243.463	4053
243.527	15447
243.591	3924
243.655	1778
243.719	-386
243.783	2056
243.847	805
243.911	2121
243.975	368
244.040	-378
244.104	985
244.168	1069
244.232	152
244.296	624
244.360	1991
244.424	-437
244.488	215
244.552	535
244.615	-991
244.679	528
244.743	-297
244.807	-796
244.871	59
244.935	120
244.999	-885
245.063	299
245.127	148
245.191	1626
245.255	538
245.319	1207
245.383	-1045
245.446	1659
245.510	-717
245.574	497
245.638	1067
245.702	-845
245.766	1649
245.829	1841
245.893	-1274
245.957	-1262
246.021	1267
246.085	-889
246.149	-493
246.212	1995
246.276	3444
246.340	1267
246.404	1054
246.467	1436
246.531	-573
246.595	1751
246.659	1308
246.722	-521
246.786	890
246.850	721
246.913	1307
246.977	-482
247.041	-13
247.104	878
247.168	759
247.232	2420
247.295	4746
247.359	2611
247.423	-133
247.486	1159
247.550	1386
247.614	72
247.677	932
247.741	310
247.804	-38
247.868	2306
247.932	893
247.995	4867
248.059	1133
248.122	-368
248.186	966
248.249	1403
248.313	8755
248.376	10178
248.440	5181
248.503	1243
248.567	1878
248.630	93
248.694	1453
248.757	3184
248.821	10088
248.884	6133
248.948	3702
249.011	6783
249.075	10560
249.138	10112
249.202	2687
249.265	1202
249.328	1838
249.392	419
249.455	1168
249.519	459
249.582	950
249.645	2260
249.709	1318
249.772	664
249.835	343
249.899	450
249.962	1513
250.025	324
250.089	2801
250.152	4644
250.215	1242
250.279	548
250.342	1309
250.405	1813
250.468	532
250.532	618
250.595	2575
250.658	12968
250.721	25581
250.785	7268
250.848	4217
250.911	1181
250.974	1336
251.038	2286
251.101	6160
251.164	2762
251.227	2184
251.290	1812
251.354	3160
251.417	18777
251.480	21872
251.543	11709
251.606	37237
251.669	30787
251.732	9242
251.795	8757
251.859	9455
251.922	23629
251.985	14497
252.048	4974
252.111	3490
252.174	2479
252.237	4442
252.300	12768
252.363	11129
252.426	32033
252.489	12000
252.552	4964
252.615	2659
252.678	3912
252.741	8683
252.804	11089
252.867	31703
252.930	17637
252.993	7481
253.056	4873
253.119	2790
253.182	1656
253.245	3425
253.308	3639
253.371	969
253.434	1791
253.497	2136
253.559	5836
253.622	2617
253.685	2308
253.748	2515
253.811	981
253.874	2181
253.937	1141
254.000	967
254.062	1984
254.125	4816
254.188	4850
254.251	3438
254.314	574
254.376	1981
254.439	2772
254.502	2278
254.565	2753
254.628	6619
254.690	2265
254.753	724
254.816	646
254.878	1370
254.941	3601
255.004	3875
255.067	964
255.129	30
255.192	238
255.255	-472
255.317	412
255.380	283
255.443	797
255.505	-588
255.568	-259
255.631	-109
255.693	896
255.756	-356
255.819	1642
255.881	-219
255.944	440
256.006	-1228
256.069	445
256.132	-770
256.194	587
256.257	2658
256.319	1819
256.382	1190
256.444	1710
256.507	-30
256.569	201
256.632	163
256.694	570
256.757	4548
256.819	17459
256.882	5985
256.944	1870
257.007	1733
257.069	1024
257.132	536
257.194	1947
257.257	276
257.319	22
257.381	-79
257.444	4840
257.506	18185
257.569	21589
257.631	7992
257.693	4727
257.756	1942
257.818	1498
257.880	616
257.943	1177
258.005	-108
258.067	366
258.130	888
258.192	1100
258.254	1264
258.317	400
258.379	1035
258.441	2195
258.503	2733
258.566	2948
258.628	5211
258.690	-164
258.753	867
258.815	2320
258.877	40
258.939	492
259.001	803
259.064	62
259.126	-36
259.188	554
259.250	1444
259.312	1157
259.375	2013
259.437	1138
259.499	362
259.561	-90
259.623	965
259.685	398
259.747	306
259.809	3213
259.872	6332
259.934	11161
259.996	11423
260.058	2581
260.120	748
260.182	1277
260.244	-227
260.306	1065
260.368	664
260.430	-1078
260.492	1485
260.554	4279
260.616	1655
260.678	3203
260.740	6596
260.802	910
260.864	682
260.926	-235
260.988	1688
261.050	422
261.112	2751
261.174	8450
261.236	5819
261.298	759
261.359	1719
261.421	4733
261.483	372
261.545	2004
261.607	-1245
261.669	715
261.731	1130
261.793	3233
261.854	723
261.916	1671
261.978	-74
262.040	1200
262.102	900
262.164	269
262.225	1084
262.287	1219
262.349	893
262.411	1240
262.472	901
262.534	350
262.596	2402
262.658	1258
262.719	-582
262.781	1994
262.843	2264
262.904	1875
262.966	387
263.028	1183
263.090	6371
263.151	23056
263.213	7535
263.275	3329
263.336	1276
263.398	1461
263.459	278
263.521	715
263.583	1449
263.644	1705
263.706	551
263.767	-594
263.829	205
263.891	635
263.952	247
264.014	-401
264.075	1513
264.137	3306
264.198	2221
264.260	-205
264.321	-190
264.383	1569
264.444	6395
264.506	1637
264.567	341
264.629	2714
264.690	4961
264.752	1576
264.813	910
264.875	661
264.936	861
264.998	149
265.059	349
265.120	967
265.182	437
265.243	6414
265.305	8030
265.366	1260
265.427	1141
265.489	2105
265.550	-203
265.611	-32
265.673	167
265.734	-120
265.795	211
265.857	-117
265.918	693
265.979	1903
266.040	12587
266.102	12701
266.163	2869
266.224	1156
266.286	1150
266.347	743
266.408	367
266.469	212
266.530	473
266.592	239
266.653	1196
266.714	1309
266.775	-20
266.836	203
266.898	56
266.959	531
267.020	747
267.081	803
267.142	92
267.203	250
267.264	-510
267.326	978
267.387	1055
267.448	204
267.509	-29
267.570	1159
267.631	-530
267.692	-938
267.753	608
267.814	-1148
267.875	857
267.936	1888
267.997	647
268.058	-2
268.119	268
268.180	-489
268.241	-332
268.302	931
268.363	-231
268.424	383
268.485	-242
268.546	-153
268.607	-212
268.668	-454
268.729	8
268.790	-248
268.851	386
268.912	768
268.972	1545
269.033	-17
269.094	-662
269.155	134
269.216	-382
269.277	-686
269.338	86
269.398	-353
269.459	-125
269.520	112
269.581	915
269.642	1469
269.702	421
269.763	-125
269.824	-412
269.885	-168
269.945	274
270.006	94
270.067	50
270.128	150
270.188	-267
270.249	-54
270.310	-718
270.370	967
270.431	-93
270.492	9
270.553	370
270.613	724
270.674	1185
270.734	137
270.795	248
270.856	824
270.916	-767
270.977	110
271.038	204
271.098	6
271.159	222
271.219	695
271.280	-474
271.340	-194
271.401	-235
271.462	1216
271.522	578
271.583	458
271.643	255
271.704	962
271.764	254
271.825	1361
271.885	7474
271.946	13327
272.006	3305
272.066	5193
272.127	10233
272.187	4199
272.248	2319
272.308	1560
272.369	6745
272.429	4069
272.489	1557
272.550	1947
272.610	2041
272.671	1588
272.731	1361
272.791	2724
272.852	885
272.912	935
272.972	676
273.033	410
273.093	999
273.153	1582
273.214	1005
273.274	1325
273.334	4125
273.394	10983
273.455	3059
273.515	3742
273.575	7467
273.635	4061
273.696	5097
273.756	11026
273.816	4598
273.876	3042
273.936	4187
273.997	8387
274.057	2793
274.117	1583
274.177	1662
274.237	10298
274.297	10275
274.358	4327
274.418	5589
274.478	5254
274.538	1386
274.598	986
274.658	4750
274.718	6406
274.778	2777
274.838	1345
274.898	2189
274.958	9176
275.018	8802
275.078	7139
275.138	2448
275.198	967
275.258	710
275.318	1161
275.378	1694
275.438	2250
275.498	996
275.558	3427
275.618	9795
275.678	6691
275.738	2724
275.798	2289
275.858	1010
275.918	961
275.978	1229
276.038	696
276.098	524
276.157	1443
276.217	4486
276.277	2611
276.337	944
276.397	518
276.457	301
276.517	1233
276.576	784
276.636	183
276.696	1338
276.756	2166
276.815	2222
276.875	1947
276.935	1032
276.995	1265
277.055	1036
277.114	1098
277.174	1094
277.234	3947
277.293	1691
277.353	1030
277.413	1070
277.472	506
277.532	1627
277.592	2275
277.651	9660
277.711	23472
277.771	7075
277.830	21919
277.890	22067
277.950	13554
278.009	41314
278.069	17504
278.128	14796
278.188	24991
278.248	10449
278.307	25659
278.367	17684
278.426	4970
278.486	2362
278.545	2483
278.605	1748
278.664	2154
278.724	1600
278.783	4943
278.843	11674
278.902	4445
278.962	2837
279.021	3763
279.081	8681
279.140	7097
279.199	3444
279.259	4407
279.318	4614
279.378	7817
279.437	13417
279.496	38813
279.556	130910
279.615	124023
279.675	35898
279.734	18581
279.793	20138
279.853	27473
279.912	11307
279.971	7470
280.031	5490
280.090	9101
280.149	16643
280.208	21451
280.268	88253
280.327	106181
280.386	27831
280.445	14144
280.505	10744
280.564	7252
280.623	5550
280.682	5425
280.742	6387
280.801	2821
280.860	2054
280.919	1876
280.978	2902
281.037	2065
281.097	1508
281.156	3463
281.215	1339
281.274	2214
281.333	5864
281.392	6766
281.451	1738
281.510	2185
281.569	755
281.628	1764
281.688	837
281.747	1827
281.806	1428
281.865	1481
281.924	849
281.983	935
282.042	272
282.101	575
282.160	628
282.219	575
282.278	1134
282.337	2771
282.396	2903
282.454	1413
282.513	1469
282.572	4658
282.631	2996
282.690	765
282.749	585
282.808	999
282.867	1496
282.926	1202
282.985	1209
283.043	444
283.102	1141
283.161	1726
283.220	2187
283.279	6629
283.338	2888
283.396	1166
283.455	1866
283.514	1929
283.573	2540
283.631	1575
283.690	1313
283.749	2075
283.808	1993
283.866	3677
283.925	1998
283.984	2330
284.043	1988
284.101	3549
284.160	2000
284.219	3807
284.277	3699
284.336	3868
284.395	8274
284.453	8935
284.512	5448
284.570	6274
284.629	6123
284.688	7279
284.746	8650
284.805	10923
284.863	15577
284.922	19571
284.981	23147
285.039	33761
285.098	52663
285.156	94624
285.215	120826
285.273	111251
285.332	100896
285.390	68425
285.449	44843
285.507	30677
285.566	22557
285.624	17166
285.683	13748
285.741	10604
285.799	8465
285.858	8058
285.916	6591
285.975	4389
286.033	4701
286.091	4488
286.150	3597
286.208	3193
286.267	2981
286.325	2612
286.383	3283
286.442	2885
286.500	1628
286.558	2332
286.616	1959
286.675	2617
286.733	1501
286.791	1947
286.850	2293
286.908	1923
286.966	3196
287.024	1703
287.083	1412
287.141	1286
287.199	1890
287.257	1966
287.315	1676
287.374	1151
287.432	3223
287.490	2270
287.548	954
287.606	1005
287.664	1593
287.723	1514
287.781	1919
287.839	1603
287.897	1491
287.955	2637
288.013	3408
288.071	8930
288.129	29599
288.187	92534
288.245	46818
288.303	13706
288.361	7666
288.419	6004
288.477	3964
288.535	3050
288.593	1321
288.651	617
288.709	328
288.767	1320
288.825	830
288.883	1066
288.941	846
288.999	160
289.057	799
289.115	144
289.173	-304
289.231	534
289.289	214
289.346	775
289.404	1163
289.462	1008
289.520	1293
289.578	81
289.636	541
289.694	292
289.751	341
289.809	-126
289.867	-796
289.925	921
289.983	745
290.040	427
290.098	538
290.156	534
290.214	803
290.271	676
290.329	-76
290.387	206
290.444	31
290.502	351
290.560	369
290.617	337
290.675	474
290.733	398
290.790	487
290.848	512
290.906	-286
290.963	1339
291.021	607
291.078	507
291.136	199
291.194	1940
291.251	6692
291.309	2341
291.366	216
291.424	731
291.481	499
291.539	914
291.596	1307
291.654	205
291.711	836
291.769	519
291.826	1618
291.884	788
291.941	238
291.999	345
292.056	73
292.114	178
292.171	263
292.228	816
292.286	516
292.343	1233
292.401	1621
292.458	1119
292.515	672
292.573	1788
292.630	913
292.687	889
292.745	205
292.802	1812
292.859	5297
292.917	7614
292.974	4737
293.031	2222
293.089	560
293.146	622
293.203	-6
293.260	1071
293.318	-92
293.375	1414
293.432	967
293.489	489
293.546	1019
293.604	2024
293.661	4932
293.718	15155
293.775	7674
293.832	3909
293.889	4017
293.947	3649
294.004	1950
294.061	1433
294.118	2827
294.175	7565
294.232	13362
294.289	6493
294.346	2339
294.403	2339
294.460	1213
294.517	1405
294.574	293
294.631	1336
294.688	939
294.745	3639
294.802	13166
294.859	18137
294.916	6934
294.973	2780
295.030	2165
295.087	1431
295.144	1011
295.201	833
295.258	1060
295.315	536
295.372	3873
295.429	10287
295.486	4320
295.542	1876
295.599	5845
295.656	14639
295.713	8059
295.770	9024
295.827	4163
295.883	2313
295.940	771
295.997	2368
296.054	1333
296.111	1610
296.167	1918
296.224	648
296.281	273
296.338	717
296.394	680
296.451	-106
296.508	2430
296.564	8105
296.621	5627
296.678	9903
296.734	16621
296.791	6993
296.848	2743
296.904	2379
296.961	5030
297.018	8821
297.074	8485
297.131	3476
297.187	2198
297.244	3449
297.301	9745
297.357	22669
297.414	8079
297.470	3343
297.527	1766
297.583	1185
297.640	861
297.696	865
297.753	1376
297.809	397
297.866	234
297.922	607
297.979	387
298.035	834
298.092	1187
298.148	5226
298.204	5780
298.261	3046
298.317	4461
298.374	13856
298.430	9736
298.486	3276
298.543	2264
298.599	2607
298.656	2531
298.712	3050
298.768	8796
298.824	8664
298.881	2603
298.937	749
298.993	1288
299.050	926
299.106	1014
299.162	639
299.218	1835
299.275	458
299.331	1301
299.387	3539
299.443	11943
299.500	20563
299.556	13286
299.612	5244
299.668	3977
299.724	7443
299.780	12013
299.837	5217
299.893	4444
299.949	12038
300.005	19394
300.061	13913
300.117	25892
300.173	13669
300.229	5607
300.285	4793
300.341	4656
300.397	2309
300.453	1532
300.510	1740
300.566	2679
300.622	4360
300.678	14032
300.734	25132
300.790	15832
300.845	16599
300.901	13115
300.957	18441
301.013	12414
301.069	5132
301.125	2688
301.181	2309
301.237	2226
301.293	1301
301.349	777
301.405	1195
301.461	665
301.516	1367
301.572	1304
301.628	2082
301.684	2484
301.740	3010
301.796	6239
301.851	4504
301.907	6613
301.963	7347
302.019	10535
302.074	33301
302.130	37388
302.186	18493
302.242	6780
302.297	4019
302.353	3182
302.409	5665
302.464	6403
302.520	5065
302.576	9479
302.631	13547
302.687	7533
302.743	3054
302.798	2020
302.854	1057
302.910	650
302.965	2082
303.021	2684
303.076	3142
303.132	2698
303.187	4714
303.243	2118
303.299	824
303.354	960
303.410	1394
303.465	546
303.521	985
303.576	856
303.632	1715
303.687	3209
303.743	10377
303.798	10973
303.853	4640
303.909	2069
303.964	933
304.020	1158
304.075	3232
304.130	2013
304.186	4922
304.241	5978
304.297	4422
304.352	1567
304.358	1581
304.407	1691
304.449	1331
304.463	1212
304.518	662
304.539	993
304.573	1503
304.629	2284
304.630	2282
304.684	2401
304.720	5437
304.739	6941
304.794	13815
304.811	11896
304.850	7330
304.902	3421
304.905	3170
304.960	2200
304.992	2002
305.015	1853
305.071	1689
305.083	1654
305.126	1520
305.173	820
305.181	709
305.236	-2
305.264	560
305.292	1075
305.347	645
305.354	725
305.402	1373
305.445	1359
305.457	1323
305.512	1949
305.535	1716
305.567	1458
305.622	2079
305.626	2168
305.678	4033
305.716	7591
305.733	8902
305.788	13064
305.807	11689
305.843	9346
305.897	10712
305.898	10718
305.953	12913
305.988	8560
306.008	6092
306.063	3192
306.078	2697
306.118	1745
306.168	1628
306.173	1590
306.228	1498
306.259	1019
306.283	760
306.338	619
306.349	746
306.393	1052
306.440	748
306.448	752
306.503	2116
306.530	2074
306.558	2310
306.613	5196
306.620	5626
306.668	7652
306.711	8713
306.723	8789
306.778	7827
306.801	6037
306.833	4223
306.888	2032
306.892	1992
306.943	1341
306.982	1018
306.997	953
307.052	1552
307.072	1460
307.107	1465
307.162	2481
307.163	2488
307.217	3702
307.253	5315
307.272	5636
307.327	5526
307.343	5168
307.381	4802
307.434	3393
307.436	3395
307.491	6116
307.524	8887
307.546	9646
307.600	9123
307.614	8032
307.655	5004
307.704	3029
307.710	3017
307.765	3646
307.795	4963
307.819	5904
307.874	9619
307.885	9700
307.929	8169
307.975	5936
307.984	5858
308.038	6741
308.065	8428
308.093	14402
308.148	29607
308.156	33582
308.202	52720
308.246	68137
308.257	68074
308.312	37579
308.336	25321
308.366	17040
308.421	10341
308.426	9856
308.475	6857
308.517	6072
308.530	5792
308.585	4611
308.607	4544
308.639	5083
308.694	5698
308.697	5799
308.748	9651
308.787	14206
308.803	14294
308.857	10878
308.877	9112
308.912	7519
308.967	7204
308.967	7227
309.021	10950
309.058	14036
309.076	16378
309.130	26250
309.148	29964
309.185	51730
309.238	89420
309.239	89589
309.293	101688
309.328	94891
309.348	84871
309.402	44651
309.418	34926
309.457	24984
309.508	17296
309.511	17085
309.566	17967
309.598	20081
309.620	23653
309.674	36025
309.688	39598
309.729	39531
309.778	32785
309.783	31998
309.837	20622
309.868	15144
309.892	13506
309.946	12069
309.959	12280
310.001	12499
310.049	12725
310.055	12445
310.109	9182
310.139	6833
310.163	5371
310.218	3312
310.229	3041
310.272	3114
310.319	3465
310.326	3330
310.381	2375
310.409	2000
310.435	2273
310.489	2631
310.499	2755
310.543	2415
310.589	1858
310.598	1901
310.652	2551
310.679	2743
310.706	2379
310.760	1569
310.769	1455
310.814	1330
310.859	1288
310.868	1320
310.923	1437
310.948	1586
310.977	1754
311.031	1728
311.038	1785
311.085	1734
311.128	1428
311.139	1471
311.193	1846
311.218	1946
311.247	1786
311.301	1503
311.308	1486
311.356	1675
311.398	1718
311.410	1626
311.464	1240
311.488	1097
311.518	1140
311.572	1114
311.578	1129
311.626	882
311.668	589
311.680	737
311.734	1445
311.758	1769
311.788	1638
311.842	1395
311.847	1376
311.896	2172
311.937	2887
311.950	2650
312.004	1606
312.027	1159
312.058	1426
312.112	1927
312.117	1981
312.165	1452
312.207	1012
312.297	1985
312.386	1742
312.476	1380
312.566	2192
312.656	1287
312.745	1098
312.835	1839
312.925	1156
313.015	1045
313.104	1160
313.194	1331
313.284	1121
313.374	1336
313.463	1268
313.553	2154
313.643	969
313.732	2037
313.822	1769
313.912	1428
314.001	1354
314.091	2188
314.180	1938
314.270	1945
314.360	2235
314.449	1986
314.539	565
314.628	1407
314.718	1438
314.808	3463
314.897	2239
314.987	2427
315.076	2079
315.166	2395
315.255	1882
315.345	2294
315.434	1967
315.524	3867
315.613	3151
315.703	4499
315.792	13609
315.881	52861
315.971	14425
316.060	5851
316.150	7306
316.239	6713
316.328	2403
316.418	1812
316.507	1330
316.597	2762
316.686	2054
316.775	4168
316.865	7880
316.954	2617
317.043	1426
317.133	1492
317.222	877
317.311	1359
317.400	686
317.490	2705
317.579	2559
317.668	3976
317.757	6634
317.847	24146
317.936	84156
318.025	22148
318.114	17165
318.203	6834
318.293	3084
318.382	4306
318.471	3577
318.560	6553
318.649	12310
318.738	2890
318.828	1238
318.917	2445
319.006	2472
319.095	8346
319.184	16002
319.273	6673
319.362	1962
319.451	1346
319.540	844
319.629	2264
319.718	2841
319.807	3099
319.896	5232
319.985	19676
320.074	4989
320.163	2244
320.252	3842
320.341	3127
320.430	1869
320.519	1899
320.608	1314
320.697	2029
320.786	1213
320.875	3187
320.964	2538
321.053	3450
321.142	3977
321.230	4971
321.319	4740
321.408	7082
321.497	5233
321.586	4210
321.675	6745
321.764	6799
321.852	4368
321.941	4887
322.030	3694
322.119	4246
322.207	7416
322.296	10444
322.385	5785
322.474	7001
322.562	8041
322.651	6330
322.740	4522
322.829	6589
322.917	8991
323.006	3833
323.095	2808
323.183	3475
323.272	4666
323.361	9485
323.449	31132
323.538	10224
323.626	20779
323.715	13148
323.804	5362
323.892	18096
323.981	7605
324.069	3500
324.158	11399
324.246	8524
324.335	2021
324.424	1953
324.512	1271
324.601	3657
324.689	6925
324.778	11648
324.866	6705
324.954	1985
325.043	1837
325.131	3822
325.220	8021
325.308	8637
325.397	5665
325.485	3280
325.574	908
325.662	2030
325.750	626
325.839	1899
325.927	1377
326.015	1120
326.104	3497
326.192	5067
326.280	701
326.369	1316
326.457	1093
326.545	1470
326.634	-294
326.722	885
326.810	510
326.898	1998
326.987	1717
327.075	1953
327.163	3984
327.251	2726
327.340	4887
327.428	6293
327.516	1177
327.604	1529
327.692	1626
327.781	2243
327.869	4031
327.957	2118
328.045	1094
328.133	1432
328.221	1189
328.309	1237
328.397	748
328.485	1399
328.574	1894
328.662	4714
328.750	2876
328.838	2316
328.926	1056
329.014	973
329.102	1438
329.190	3033
329.278	1032
329.366	1383
329.454	87
329.542	1146
329.630	-439
329.718	1606
329.806	400
329.893	1362
329.981	295
330.069	461
330.157	765
330.245	1947
330.333	-340
330.421	1212
330.509	1193
330.597	3896
330.684	2261
330.772	2846
330.860	2566
330.948	3399
331.036	1362
331.123	735
331.211	99
331.299	1443
331.387	2646
331.475	3654
331.562	1316
331.650	1039
331.738	950
331.825	2555
331.913	757
332.001	381
332.089	1325
332.176	4332
332.264	9445
332.352	5651
332.439	1720
332.527	1488
332.614	1069
332.702	1967
332.790	636
332.877	5030
332.965	10652
333.052	3923
333.140	4098
333.228	10259
333.315	1821
333.403	1421
333.490	6785
333.578	6553
333.665	13946
333.753	5643
333.840	1862
333.928	2443
334.015	6192
334.103	10965
334.190	25998
334.278	7148
334.365	6026
334.452	4815
334.540	1696
334.627	4167
334.715	6160
334.802	11343
334.889	46029
334.977	44043
335.064	9332
335.151	2955
335.239	3044
335.326	3949
335.413	12266
335.501	13314
335.588	2819
335.675	3004
335.762	3961
335.850	6353
335.937	6411
336.024	17343
336.111	49117
336.199	24036
336.286	6897
336.373	4779
336.460	1458
336.547	2073
336.635	2079
336.722	1871
336.809	1636
336.896	2529
336.983	7261
337.070	14816
337.157	21945
337.245	24507
337.332	15499
337.419	2590
337.506	1130
337.593	2260
337.680	5315
337.767	13054
337.854	3381
337.941	3804
338.028	6398
338.115	1643
338.202	3660
338.289	6744
338.376	21906
338.463	6408
338.550	8672
338.637	7175
338.724	4033
338.811	6724
338.898	1546
338.984	962
339.071	942
339.158	1850
339.245	2423
339.332	2085
339.419	4449
339.506	4585
339.593	-119
339.679	1012
339.766	825
339.853	939
339.940	1554
340.027	1130
340.113	786
340.200	1444
340.287	327
340.374	722
340.460	1476
340.547	-223
340.634	1423
340.720	4886
340.807	1217
340.894	935
340.980	744
341.067	500
341.154	1085
341.240	2015
341.327	1423
341.414	1470
341.500	-242
341.587	1023
341.674	1048
341.760	2264
341.847	1164
341.933	729
342.020	-95
342.106	806
342.193	741
342.279	1524
342.366	598
342.452	2316
342.539	749
342.625	2020
342.712	2540
342.798	1914
342.885	770
342.971	-369
343.058	550
343.144	903
343.230	261
343.317	1093
343.403	167
343.490	1182
343.576	-82
343.662	1316
343.749	397
343.835	1973
343.921	2663
344.008	17986
344.094	31126
344.180	6007
344.267	2338
344.353	6945
344.439	6487
344.525	2162
344.612	1928
344.698	1265
344.784	-684
344.870	673
344.957	256
345.043	1819
345.129	596
345.215	1335
345.301	1786
345.387	1175
345.474	3
345.560	219
345.646	365
345.732	1513
345.818	507
345.904	507
345.990	579
346.076	1918
346.162	1958
346.249	2261
346.335	408
346.421	1192
346.507	3833
346.593	8936
346.679	814
346.765	2055
346.851	783
346.937	453
347.023	1475
347.108	1187
347.194	303
347.280	783
347.366	1796
347.452	6793
347.538	11926
347.624	9070
347.710	5216
347.796	2002
347.882	1456
347.967	681
348.053	927
348.139	1748
348.225	1072
348.311	772
348.397	610
348.482	2192
348.568	1466
348.654	1836
348.740	3975
348.825	2239
348.911	3234
348.997	7436
349.083	11076
349.168	2392
349.254	669
349.340	672
349.425	779
349.511	700
349.597	929
349.682	2320
349.768	4990
349.854	2043
349.939	585
350.025	320
350.110	403
350.196	501
350.282	-422
350.367	2120
350.453	1890
350.538	2336
350.624	445
350.709	1659
350.795	10
350.880	801
350.966	1251
351.051	2470
351.137	1853
351.222	1034
351.308	1677
351.393	4347
351.479	929
351.564	423
351.649	742
351.735	246
351.820	23
351.906	1096
351.991	1180
352.076	2860
352.162	2982
352.247	651
352.332	251
352.418	1464
352.503	1759
352.588	6369
352.673	2916
352.759	2128
352.844	438
352.929	1246
353.014	766
353.100	1167
353.185	841
353.270	1548
353.355	1771
353.441	1292
353.526	831
353.611	1507
353.696	1276
353.781	2706
353.866	366
353.952	1467
354.037	410
354.122	3653
354.207	2299
354.292	1728
354.377	420
354.462	692
354.547	-132
354.632	1277
354.717	1763
354.802	472
354.887	442
354.972	1065
355.057	633
355.142	-114
355.227	1228
355.312	989
355.397	1575
355.482	3582
355.567	1070
355.652	2743
355.737	1813
355.822	6271
355.907	2450
355.991	2185
356.076	-114
356.161	612
356.246	431
356.331	1623
356.416	1932
356.501	16451
356.585	11751
356.670	1170
356.755	2843
356.840	2482
356.924	12637
357.009	35000
357.094	10705
357.179	2060
357.263	1399
357.348	2042
357.433	1173
357.517	2140
357.602	767
357.687	1343
357.771	1969
357.856	4950
357.941	3231
358.025	11358
358.110	42826
358.195	15933
358.279	1892
358.364	2070
358.448	4606
358.533	10142
358.617	6592
358.702	7573
358.787	1623
358.871	2067
358.956	641
359.040	1021
359.125	269
359.209	2019
359.294	1927
359.378	2655
359.462	1323
359.547	1766
359.631	525
359.716	453
359.800	276
359.885	2035
359.969	-362
360.053	982
360.138	782
360.222	822
360.306	1421
360.391	1520
360.475	1754
360.559	4295
360.644	3229
360.728	2175
360.812	9624
360.896	19782
360.981	6330
361.065	3050
361.149	1090
361.233	1332
361.318	-284
361.402	531
361.486	1694
361.570	628
361.654	1336
361.739	3588
361.823	15559
361.907	20910
361.991	2677
362.075	2836
362.159	2967
362.243	5634
362.327	12428
362.411	18688
362.495	6875
362.580	3693
362.664	2253
362.748	2509
362.832	4493
362.916	11138
363.000	38076
363.084	55090
363.168	32626
363.252	7405
363.336	3698
363.420	6156
363.503	15897
363.587	14206
363.671	2657
363.755	1996
363.839	3471
363.923	1825
364.007	3009
364.091	4755
364.175	10120
364.258	36649
364.342	47071
364.426	73095
364.510	29273
364.594	10498
364.677	8224
364.761	19781
364.845	11151
364.929	3307
365.013	1964
365.096	2977
365.180	2172
365.264	8386
365.347	24548
365.431	9424
365.515	1247
365.598	445
365.682	3053
365.766	2126
365.849	1539
365.933	940
366.017	2979
366.100	506
366.184	-198
366.267	2427
366.351	1194
366.435	759
366.518	295
366.602	1010
366.685	673
366.769	1423
366.852	1701
366.936	2174
367.019	903
367.103	636
367.186	4145
367.270	494
367.353	-165
367.436	1949
367.520	-129
367.603	1289
367.687	30
367.770	1389
367.853	2441
367.937	5525
368.020	5988
368.104	566
368.187	2076
368.270	1745
368.353	826
368.437	4996
368.520	14752
368.603	5880
368.687	4581
368.770	7281
368.853	1548
368.936	3061
369.020	2535
369.103	435
369.186	-95
369.269	438
369.352	957
369.436	1480
369.519	1061
369.602	-120
369.685	2358
369.768	-693
369.851	1295
369.934	487
370.018	223
370.101	1303
370.184	3656
370.267	2002
370.350	1355
370.433	4016
370.516	12237
370.599	27313
370.682	9416
370.765	5892
370.848	6272
370.931	9813
371.014	4342
371.097	201
371.180	1488
371.263	1599
371.346	-225
371.429	1839
371.511	688
371.594	1032
371.677	2431
371.760	3897
371.843	3038
371.926	18870
372.009	33749
372.091	10817
372.174	6030
372.257	14234
372.340	4385
372.423	5710
372.505	5042
372.588	1903
372.671	4807
372.754	10555
372.836	4806
372.919	8357
373.002	11097
373.085	2959
373.167	3092
373.250	6385
373.332	11953
373.415	24595
373.498	42246
373.580	19087
373.663	49900
373.746	47271
373.828	6552
373.911	3793
373.993	3570
374.076	14337
374.159	10108
374.241	4956
374.324	8530
374.406	7000
374.489	14339
374.571	32191
374.654	9235
374.736	7712
374.819	21388
374.901	33209
374.983	28631
375.066	5652
375.148	3224
375.231	13327
375.313	18053
375.395	5472
375.478	2015
375.560	2381
375.643	2177
375.725	8677
375.807	25717
375.890	24175
375.972	10821
376.054	6424
376.136	12407
376.219	4834
376.301	9129
376.383	17463
376.465	5027
376.548	2951
376.630	5163
376.712	14684
376.794	4623
376.877	1518
376.959	-189
377.041	2056
377.123	2297
377.205	2308
377.287	468
377.369	1368
377.452	-31
377.534	836
377.616	82
377.698	-60
377.780	-186
377.862	963
377.944	2170
378.026	343
378.108	1439
378.190	770
378.272	941
378.354	486
378.436	364
378.518	293
378.600	3902
378.682	3919
378.764	5409
378.846	4437
378.928	777
379.010	957
379.091	2100
379.173	2269
379.255	231
379.337	1510
379.419	3242
379.501	8611
379.583	1878
379.664	1271
379.746	1436
379.828	7577
379.910	6090
379.991	5842
380.073	832
380.155	1243
380.237	592
380.318	1242
380.400	792
380.482	2937
380.564	1768
380.645	1979
380.727	1086
380.809	1964
380.890	925
380.972	722
381.053	660
381.135	2582
381.217	2033
381.298	7122
381.380	2714
381.461	4743
381.543	16483
381.624	17131
381.706	3363
381.787	2722
381.869	3887
381.951	12013
382.032	34774
382.113	20116
382.195	2979
382.276	4851
382.358	6720
382.439	16199
382.521	22199
382.602	32156
382.684	16460
382.765	29000
382.846	58168
382.928	111691
383.009	55527
383.090	53460
383.172	166148
383.253	200706
383.334	59629
383.416	34177
383.497	20108
383.578	19905
383.659	43478
383.741	147828
383.822	297264
383.903	131975
383.984	34468
384.066	30873
384.147	15732
384.228	8302
384.309	6164
384.390	5074
384.471	4025
384.553	5029
384.634	4264
384.715	4581
384.796	3447
384.877	3812
384.958	8499
385.039	6837
385.120	2911
385.201	3935
385.282	3272
385.363	4868
385.444	4487
385.525	6206
385.606	13091
385.687	9157
385.768	3822
385.849	5121
385.930	19779
386.011	28610
386.092	6967
386.173	3678
386.254	2687
386.335	3671
386.416	1734
386.496	5142
386.577	6102
386.658	3412
386.739	2356
386.820	4424
386.901	2237
386.981	3728
387.062	3197
387.143	3769
387.224	6714
387.304	7690
387.385	5407
387.466	3222
387.547	5364
387.627	3228
387.708	5864
387.789	14088
387.869	12850
387.950	5707
388.031	1819
388.111	1196
388.192	5802
388.273	8075
388.353	4227
388.434	2328
388.514	4892
388.595	16598
388.676	14355
388.756	6078
388.837	6247
388.917	2858
388.998	-332
389.078	2395
389.159	1916
389.239	1120
389.320	4358
389.400	575
389.480	4036
389.561	6566
389.641	3074
389.722	1117
389.802	903
389.883	4452
389.963	9015
390.043	6536
390.124	1673
390.204	3882
390.284	6659
390.365	4293
390.445	9461
390.525	20682
390.605	15795
390.686	2377
390.766	2494
390.846	3008
390.927	942
391.007	1152
391.087	2467
391.167	1261
391.247	1140
391.328	3854
391.408	4597
391.488	3179
391.568	243
391.648	2028
391.728	2382
391.808	4109
391.888	2877
391.969	5483
392.049	6255
392.129	6056
392.209	5855
392.289	10937
392.369	7284
392.449	7600
392.529	5314
392.609	7267
392.689	8701
392.769	14386
392.849	13019
392.929	17871
393.009	27176
393.089	33727
393.169	62506
393.248	184545
393.328	472705
393.408	431775
393.488	144209
393.568	50616
393.648	24351
393.728	14935
393.807	10344
393.887	9687
393.967	6724
394.047	6218
394.127	5644
394.206	8265
394.286	27295
394.366	108229
394.446	94011
394.525	16944
394.605	5684
394.685	6098
394.764	10688
394.844	17128
394.924	11019
395.003	4327
395.083	3020
395.163	2507
395.242	2470
395.322	2973
395.402	534
395.481	5112
395.561	8108
395.640	21604
395.720	22851
395.799	22062
395.879	12803
395.958	9513
396.038	36391
396.117	139771
396.197	125894
396.276	29683
396.356	12035
396.435	11769
396.515	13902
396.594	20204
396.673	51049
396.753	181175
396.832	409070
396.912	255496
396.991	62615
397.070	23031
397.150	11563
397.229	11626
397.308	19201
397.388	25168
397.467	10903
397.546	5184
397.625	1411
397.705	4700
397.784	3055
397.863	2036
397.942	1749
398.022	3316
398.101	6064
398.180	14701
398.259	5639
398.338	3845
398.417	2018
398.497	1207
398.576	1774
398.655	305
398.734	1110
398.813	1749
398.892	6821
398.971	16851
399.050	6034
399.129	917
399.208	355
399.287	1951
399.366	301
399.445	1057
399.524	451
399.603	-563
399.682	817
399.761	5443
399.840	19136
399.919	11968
399.998	1675
400.077	-163
400.156	-651
400.235	2652
400.313	-393
400.392	71
400.471	3251
400.550	4271
400.629	-96
400.708	1083
400.786	337
400.865	2508
400.944	518
401.023	2579
401.102	-630
401.180	202
401.259	508
401.338	680
401.416	726
401.495	514
401.574	775
401.652	525
401.731	674
401.810	-513
401.888	-337
401.967	315
402.046	66
402.124	1038
402.203	89
402.281	814
402.360	181
402.438	3884
402.517	-164
402.596	638
402.674	99
402.753	688
402.831	-92
402.910	2474
402.988	1751
403.066	7540
403.145	3306
403.223	3994
403.302	4203
403.380	3627
403.459	3448
403.537	1580
403.615	276
403.694	-423
403.772	337
403.850	-99
403.929	-282
404.007	192
404.085	1675
404.164	355
404.242	-168
404.320	5033
404.398	10427
404.477	8612
404.555	23124
404.633	17697
404.711	7051
404.789	2694
404.868	110
404.946	-221
405.024	129
405.102	-165
405.180	-468
405.258	-1175
405.336	687
405.415	375
405.493	631
405.571	1113
405.649	-199
405.727	-69
405.805	1410
405.883	997
405.961	870
406.039	512
406.117	-826
406.195	986
406.273	3097
406.351	15282
406.429	7341
406.507	1364
406.585	-831
406.663	710
406.740	-317
406.818	339
406.896	-307
406.974	1694
407.052	-414
407.130	9573
407.208	9346
407.285	2214
407.363	-752
407.441	-250
407.519	-567
407.596	-146
407.674	473
407.752	4080
407.830	3621
407.907	2208
407.985	-1623
408.063	718
408.141	297
408.218	1141
408.296	-857
408.373	363
408.451	87
408.529	766
408.606	187
408.684	211
408.762	-13
408.839	132
408.917	456
408.994	-80
409.072	-165
409.149	168
409.227	3033
409.304	3972
409.382	3665
409.459	5633
409.537	7381
409.614	5183
409.692	3791
409.769	4805
409.846	7551
409.924	9582
410.001	2843
410.079	3214
410.156	2248
410.233	2223
410.311	352
410.388	440
410.465	439
410.543	569
410.620	1671
410.697	1139
410.775	341
410.852	-126
410.929	1469
411.006	2351
411.083	9
411.161	1410
411.238	1271
411.315	246
411.392	-660
411.469	1220
411.547	202
411.624	-915
411.701	-422
411.778	49
411.855	-26
411.932	-186
412.009	-168
412.086	398
412.163	172
412.240	513
412.317	211
412.394	-22
412.471	-138
412.548	-65
412.625	-644
412.702	674
412.779	437
412.856	727
412.933	-300
413.010	761
413.087	362
413.164	2109
413.241	2250
413.318	-169
413.395	886
413.471	-43
413.548	-23
413.625	712
413.702	-415
413.779	902
413.855	-586
413.932	-157
414.009	-1383
414.086	70
414.162	193
414.239	-80
414.316	2270
414.393	6230
414.469	238
414.546	-241
414.623	138
414.699	-26
414.776	-743
414.853	-111
414.929	-209
415.006	-315
415.082	305
415.159	413
415.236	236
415.312	138
415.389	664
415.465	-225
415.542	-634
415.618	154
415.695	83
415.771	310
415.848	-606
415.924	453
416.000	-1002
416.077	291
416.153	-1586
416.230	-1235
416.306	-600
416.383	-210
416.459	722
416.535	-101
416.612	-177
416.688	262
416.764	-250
416.841	-648
416.917	-313
416.993	315
417.069	143
417.146	-215
417.222	154
417.298	298
417.374	-1114
417.451	676
417.527	-452
417.603	-386
417.679	-1184
417.755	419
417.831	-1387
417.908	-61
417.984	-683
418.060	-318
418.136	-77
418.212	23
418.288	161
418.364	742
418.440	-995
418.516	149
418.592	419
418.668	1197
418.744	655
418.820	1348
418.896	-1209
418.972	-1621
419.048	-1091
419.124	1162
419.200	-738
419.276	-122
419.352	-692
419.428	-223
419.504	-689
419.579	347
419.655	-232
419.731	119
419.807	580
419.883	1356
419.959	793
420.034	1307
420.110	516
420.186	3090
420.262	1873
420.337	1076
420.413	-482
420.489	1141
420.565	1074
420.640	368
420.716	399
420.792	-241
420.867	969
420.943	-327
421.019	870
421.094	1337
421.170	561
421.245	1281
421.321	725
421.397	1018
421.472	2199
421.548	2448
421.623	2450
421.699	2741
421.774	2834
421.850	2345
421.925	4430
422.001	5000
422.076	5902
422.152	7698
422.227	11414
422.302	18338
422.378	28002
422.453	51097
422.529	101875
422.604	182570
422.679	239419
422.755	178120
422.830	83758
422.905	40979
422.981	24196
423.056	16313
423.131	12158
423.207	8913
423.282	6824
423.357	7070
423.432	4434
423.508	3819
423.583	3719
423.658	4668
423.733	2589
423.808	1992
423.883	2716
423.959	3086
424.034	3236
424.109	3173
424.184	1001
424.259	1144
424.334	396
424.409	-51
424.484	44
424.559	628
424.634	-458
424.709	943
424.784	799
424.859	703
424.934	373
425.009	3028
425.084	3733
425.159	433
425.234	261
425.309	-270
425.384	1126
425.459	1627
425.534	694
425.609	181
425.683	-454
425.758	119
425.833	237
425.908	1202
425.983	587
426.058	4038
426.132	686
426.207	438
426.282	1539
426.357	273
426.431	-587
426.506	847
426.581	-178
426.655	165
426.730	-738
426.805	-568
426.879	461
426.954	427
427.029	793
427.103	6012
427.178	11076
427.253	3989
427.327	41
427.402	797
427.476	1926
427.551	228
427.625	484
427.700	229
427.774	-386
427.849	747
427.923	-1041
427.998	-279
428.072	407
428.147	4676
428.221	21913
428.296	56408
428.370	23207
428.444	3048
428.519	460
428.593	2523
428.667	1819
428.742	3621
428.816	8193
428.890	41310
428.965	45905
429.039	9877
429.113	3133
429.188	1311
429.262	-581
429.336	1075
429.410	1846
429.485	2245
429.559	2558
429.633	1631
429.707	1022
429.781	8021
429.855	38438
429.930	42689
430.004	15191
430.078	18137
430.152	30870
430.226	83178
430.300	63145
430.374	9245
430.448	3438
430.522	7075
430.596	14646
430.670	16478
430.744	51499
430.818	46540
430.892	6334
430.966	934
431.040	619
431.114	-926
431.188	-307
431.262	-159
431.336	-477
431.410	1941
431.484	1773
431.557	1757
431.631	156
431.705	2061
431.779	17289
431.853	55957
431.927	28084
432.000	3081
432.074	306
432.148	54
432.222	-315
432.295	74
432.369	16
432.443	570
432.516	5396
432.590	11925
432.664	2311
432.737	-498
432.811	-1239
432.885	-776
432.958	-693
433.032	-1102
433.106	-578
433.179	-342
433.253	-1021
433.326	-150
433.400	-1408
433.473	167
433.547	-995
433.620	-238
433.694	-809
433.767	32
433.841	-718
433.914	198
433.988	-1602
434.061	-631
434.134	6
434.208	-561
434.281	-777
434.355	-596
434.428	-1376
434.501	-121
434.575	-579
434.648	-409
434.721	-1352
434.795	-355
434.868	-1079
434.941	-830
435.014	-1080
435.088	-774
435.161	777
435.234	686
435.307	778
435.381	1441
435.454	1840
435.527	4335
435.600	2440
435.673	2661
435.746	594
435.819	433
435.892	654
435.966	538
436.039	-577
436.112	14
436.185	-545
436.258	-675
436.331	-1515
436.404	-1376
436.477	-1600
436.550	-378
436.623	-687
436.696	-1339
436.769	-1387
436.842	-798
436.915	-1316
436.987	-690
437.060	-1128
437.133	-657
437.206	-2067
437.279	495
437.352	-1297
437.425	-1263
437.498	-1297
437.570	288
437.643	-1318
437.716	-362
437.789	-1605
437.861	86
437.934	55
438.007	-1025
438.080	-1563
438.152	-501
438.225	-111
438.298	10363
438.370	21503
438.443	8165
438.516	-337
438.588	-1247
438.661	-2004
438.734	-919
438.806	-609
438.879	-789
438.951	-918
439.024	-460
439.096	-1328
439.169	-47
439.241	-1233
439.314	-1229
439.386	323
439.459	620
439.531	-203
439.604	-614
439.676	-1037
439.749	-912
439.821	-1274
439.893	-558
439.966	34
440.038	-932
440.110	-288
440.183	-510
440.255	-1243
440.327	126
440.400	2564
440.472	11557
440.544	5925
440.617	459
440.689	217
440.761	-91
440.833	-1213
440.905	-415
440.978	-2016
441.050	137
441.122	-604
441.194	-543
441.266	-991
441.338	-247
441.411	154
441.483	2553
441.555	2464
441.627	38
441.699	10
441.771	-66
441.843	-1607
441.915	-258
441.987	-526
442.059	-944
442.131	-595
442.203	899
442.275	848
442.347	2152
442.419	8216
442.491	43092
442.563	72641
442.635	24986
442.706	5621
442.778	3367
442.850	-152
442.922	55
442.994	205
443.066	1174
443.137	1097
443.209	1884
443.281	4023
443.353	11614
443.425	51679
443.496	137908
443.568	119678
443.640	40105
443.711	7333
443.783	1991
443.855	900
443.926	943
443.998	129
444.070	1004
444.141	-499
444.213	470
444.285	133
444.356	582
444.428	298
444.499	-614
444.571	-812
444.642	382
444.714	-758
444.785	-329
444.857	371
444.928	3569
445.000	1953
445.071	2959
445.143	2978
445.214	3678
445.285	8235
445.357	26707
445.428	98837
445.500	170078
445.571	112236
445.642	61328
445.714	18446
445.785	7419
445.856	1353
445.928	1151
445.999	356
446.070	-351
446.141	-206
446.213	-168
446.284	-496
446.355	709
446.426	-615
446.497	115
446.569	-660
446.640	162
446.711	-547
446.782	-487
446.853	-92
446.924	729
446.995	-607
447.066	-39
447.138	-5
447.209	-253
447.280	-1912
447.351	-681
447.422	-1827
447.493	-667
447.564	-857
447.635	-834
447.706	-1261
447.777	-1544
447.847	-1125
447.918	-1297
447.989	-1231
448.060	-675
448.131	483
448.202	495
448.273	-1188
448.344	-1065
448.414	-932
448.485	-1026
448.556	-262
448.627	-851
448.698	-408
448.768	-80
448.839	-1509
448.910	-346
448.981	-998
449.051	-411
449.122	-764
449.193	-653
449.263	-1444
449.334	-1439
449.405	-1275
449.475	-58
449.546	277
449.616	1198
449.687	-552
449.758	-826
449.828	-1049
449.899	-738
449.969	-1925
450.040	-830
450.110	-637
450.181	-139
450.251	-862
450.322	-976
450.392	-1100
450.463	-1220
450.533	-1690
450.604	-1156
450.674	-1286
450.744	-353
450.815	-1879
450.885	-579
450.955	46
451.026	-762
451.096	-1338
451.166	-765
451.237	428
451.307	2473
451.377	435
451.447	-1000
451.518	-1555
451.588	-679
451.658	-1117
451.728	-342
451.799	2138
451.869	2355
451.939	-1095
452.009	-842
452.079	-1154
452.149	-374
452.219	-146
452.289	2905
452.360	1199
452.430	-667
452.500	-311
452.570	597
452.640	3607
452.710	10787
452.780	8816
452.850	4387
452.920	2178
452.990	586
453.060	-550
453.129	154
453.199	-65
453.269	4737
453.339	9959
453.409	15212
453.479	15929
453.549	22328
453.619	21123
453.688	6865
453.758	232
453.828	-947
453.898	-1999
453.968	-1345
454.037	-1162
454.087	-668
454.107	-506
454.168	-851
454.177	-948
454.247	-1281
454.249	-1239
454.316	-1222
454.330	-963
454.386	-193
454.411	397
454.456	854
454.492	1797
454.525	2530
454.574	984
454.595	324
454.655	-9
454.665	-66
454.734	34
454.736	141
454.804	1161
454.817	2034
454.873	4022
454.898	4327
454.943	4554
454.979	2669
455.013	1177
455.060	923
455.082	1067
455.141	1553
455.152	1460
455.221	5359
455.222	5519
455.291	6294
455.303	6810
455.360	8538
455.384	10144
455.430	11639
455.465	9773
455.499	8043
455.546	6469
455.569	5216
455.627	3247
455.638	3025
455.707	1340
455.708	1384
455.777	1071
455.789	1034
455.846	579
455.869	785
455.916	1149
455.950	1192
455.985	1076
456.031	1168
456.054	1193
456.112	1129
456.124	1076
456.193	1362
456.193	1318
456.262	1500
456.274	1841
456.332	3128
456.355	2992
456.401	2261
456.436	2183
456.470	2235
456.516	1961
456.540	1729
456.597	2175
456.609	2219
456.678	2036
456.678	1994
456.747	2274
456.759	2287
456.817	2223
456.840	2267
456.886	2116
456.920	2421
456.955	3022
457.001	3622
457.024	3774
457.082	4250
457.093	4255
457.162	5090
457.163	5145
457.232	4747
457.243	4714
457.301	4271
457.324	3852
457.370	3595
457.405	4289
457.439	4930
457.485	4983
457.508	5021
457.566	7131
457.577	7826
457.646	10580
457.647	10696
457.715	26274
457.727	29511
457.784	54467
457.808	67710
457.853	78363
457.889	84860
457.922	71064
457.969	47380
457.991	55151
458.050	81244
458.060	86968
458.129	137839
458.130	139466
458.198	102954
458.211	93784
458.267	49163
458.292	30646
458.336	26556
458.372	26322
458.405	41971
458.453	66113
458.474	87030
458.533	153846
458.543	158071
458.611	202767
458.614	204472
458.680	96253
458.694	72093
458.749	36869
458.775	23457
458.818	17286
458.855	13732
458.887	12522
458.936	11139
458.955	10680
459.016	8926
459.024	8819
459.093	9069
459.097	9087
459.162	8309
459.177	8308
459.230	8534
459.257	8413
459.299	7979
459.338	8060
459.368	8261
459.418	8130
459.437	7850
459.499	7356
459.505	7330
459.574	7171
459.579	7199
459.643	7255
459.659	7245
459.711	7488
459.740	7878
459.780	8131
459.820	7877
459.849	7798
459.900	8130
459.917	8012
459.981	7612
459.986	7565
460.054	7484
460.061	7443
460.123	7526
460.141	7728
460.191	8718
460.222	9063
460.260	8905
460.302	9151
460.328	9041
460.382	8416
460.397	8344
460.462	8621
460.465	8698
460.534	10206
460.543	10494
460.602	19465
460.623	22714
460.671	32418
460.703	39653
460.739	33752
460.783	24799
460.808	19980
460.864	8896
460.876	8746
460.944	8773
460.945	8756
461.013	8438
461.024	8307
461.081	8581
461.104	9014
461.150	8964
461.184	8660
461.218	8863
461.264	9290
461.286	9401
461.345	9111
461.355	8961
461.423	9077
461.425	9079
461.491	9707
461.505	9797
461.559	13589
461.585	15272
461.628	20945
461.665	26385
461.696	27664
461.745	29964
461.764	25963
461.825	12413
461.832	12389
461.901	10851
461.905	10827
461.969	9831
461.985	9562
462.037	10086
462.065	10621
462.105	11167
462.145	11367
462.173	13485
462.225	17685
462.241	18852
462.305	23719
462.310	23193
462.378	14726
462.385	13683
462.446	11537
462.465	11073
462.514	10765
462.545	10478
462.582	10395
462.625	10383
462.650	10429
462.705	10248
462.718	10380
462.785	11650
462.786	11691
462.854	13120
462.865	13436
462.922	15511
462.945	16232
462.990	13297
463.025	10934
463.058	10956
463.104	11115
463.126	11018
463.184	10505
463.194	10571
463.262	10949
463.264	10972
463.330	11407
463.344	11408
463.398	12421
463.424	12888
463.466	12207
463.504	11590
463.533	11827
463.583	12162
463.601	12369
463.663	12866
463.669	12986
463.737	14826
463.743	14932
463.805	19625
463.823	21031
463.873	28281
463.903	32680
463.940	33654
463.982	34898
464.008	29151
464.062	16042
464.076	15405
464.142	12504
464.144	12503
464.211	12052
464.221	11991
464.279	12674
464.301	12794
464.347	12786
464.381	12940
464.414	13539
464.461	14316
464.482	14776
464.540	15854
464.550	15618
464.617	13816
464.620	13730
464.685	13959
464.699	13959
464.753	15370
464.779	16084
464.820	16888
464.859	17627
464.888	17252
464.938	16491
464.956	17035
465.018	18910
465.023	18780
465.091	16624
465.098	16345
465.158	15627
465.177	15502
465.226	16202
465.257	16443
465.293	16197
465.336	15908
465.361	16534
465.416	17871
465.428	18639
465.495	22641
465.496	22752
465.563	33405
465.575	35238
465.631	40712
465.654	42983
465.698	29456
465.734	17976
465.765	17115
465.813	15634
465.833	15610
465.893	15833
465.900	15815
465.968	15142
465.972	15071
466.035	15437
466.052	15487
466.102	15326
466.131	15161
466.170	15317
466.210	15456
466.237	15943
466.290	16841
466.304	16737
466.369	15927
466.372	15989
466.439	16890
466.449	16966
466.506	17655
466.528	17910
466.573	22131
466.607	25155
466.641	33851
466.687	45916
466.708	49295
466.766	58242
466.775	54342
466.842	24103
466.845	22613
466.909	18741
466.925	17780
466.977	17840
467.004	17813
467.044	18088
467.083	18311
467.111	19581
467.163	21805
467.178	22349
467.242	24383
467.245	24389
467.312	23333
467.321	23139
467.379	23178
467.400	23115
467.446	24314
467.480	25084
467.559	23405
467.638	22341
467.717	22399
467.796	22739
467.875	25615
467.955	26426
468.034	34629
468.113	62289
468.192	84591
468.271	41954
468.350	46617
468.429	57584
468.508	59260
468.588	41571
468.667	32252
468.746	29079
468.825	25614
468.904	22593
468.983	25193
469.062	30945
469.141	34185
469.220	21620
469.299	21259
469.378	22141
469.456	24598
469.535	23096
469.614	22647
469.693	23809
469.772	26441
469.851	33500
469.930	27252
470.009	24473
470.088	27963
470.166	34895
470.245	52257
470.324	67200
470.403	51299
470.482	33519
470.560	26474
470.639	24469
470.718	24497
470.797	22553
470.875	23527
470.954	27395
471.033	29543
471.111	19362
471.190	19245
471.269	18871
471.347	19417
471.426	19777
471.505	22706
471.583	22377
471.662	21494
471.740	20332
471.819	20648
471.898	19355
471.976	19349
472.055	19805
472.133	20577
472.212	24314
472.290	24501
472.369	20544
472.447	19579
472.526	19417
472.604	19775
472.683	19976
472.761	19815
472.839	19781
472.918	20063
472.996	20730
473.075	22466
473.153	21620
473.231	20340
473.310	21332
473.388	21224
473.466	20560
473.545	21276
473.623	23825
473.701	22154
473.780	21299
473.858	20433
473.936	22377
474.014	19539
474.093	21799
474.171	26336
474.249	31660
474.327	24476
474.405	19061
474.484	20005
474.562	19046
474.640	19874
474.718	19553
474.796	19768
474.874	18267
474.952	17979
475.030	17972
475.108	18399
475.187	18764
475.265	18731
475.343	20515
475.421	22289
475.499	19291
475.577	19969
475.655	23479
475.733	34233
475.811	51998
475.889	47684
475.966	34881
476.044	19166
476.122	19501
476.200	20556
476.278	19348
476.356	17880
476.434	19800
476.512	19399
476.590	21699
476.667	21225
476.745	17858
476.823	18813
476.901	19907
476.979	19862
477.056	19266
477.134	20232
477.212	19810
477.290	19835
477.367	17322
477.445	19077
477.523	18113
477.601	18224
477.678	18192
477.756	21007
477.834	21785
477.911	18818
477.989	18674
478.066	19370
478.144	19486
478.222	18836
478.299	20435
478.377	19968
478.454	18423
478.532	19115
478.609	18128
478.687	18705
478.764	17527
478.842	18396
478.919	18666
478.997	18744
479.074	18306
479.152	19386
479.229	21580
479.307	18001
479.384	17367
479.461	17741
479.539	18709
479.616	20069
479.694	18155
479.771	18464
479.848	20034
479.926	21531
480.003	25369
480.080	18245
480.157	17983
480.235	18887
480.312	19524
480.389	19713
480.467	24826
480.544	29535
480.621	21463
480.698	21564
480.775	21962
480.853	21889
480.930	19784
481.007	19574
481.084	21207
481.161	21890
481.238	21008
481.315	18595
481.392	19616
481.470	20296
481.547	19857
481.624	19491
481.701	19553
481.778	19432
481.855	22128
481.932	27199
482.009	37075
482.086	30067
482.163	24749
482.240	26804
482.317	28914
482.393	25563
482.470	23757
482.547	23241
482.624	21264
482.701	21567
482.778	21088
482.855	21413
482.932	20686
483.009	21835
483.085	24030
483.162	24923
483.239	27782
483.316	27082
483.393	26457
483.469	23602
483.546	23615
483.623	24517
483.699	21921
483.776	20762
483.853	22092
483.930	25548
484.006	46557
484.083	72973
484.160	38913
484.236	47922
484.313	39971
484.389	35135
484.466	35693
484.543	38214
484.619	43367
484.696	45220
484.772	38557
484.849	36450
484.925	32033
485.002	30937
485.078	30804
485.155	29903
485.231	27649
485.308	28347
485.384	28807
485.461	32736
485.537	46339
485.614	52742
485.690	28401
485.766	26968
485.843	26901
485.919	29852
485.995	30738
486.072	25613
486.148	25595
486.224	25958
486.301	26092
486.377	27828
486.453	27687
486.530	28464
486.606	33955
486.682	35431
486.758	42760
486.835	46055
486.911	39224
486.987	57664
487.063	50494
487.139	53590
487.215	45304
487.292	40036
487.368	44819
487.444	53274
487.520	71727
487.596	94682
487.672	188674
487.748	558587
487.824	851291
487.900	309189
487.976	98265
488.052	59758
488.128	47931
488.204	39493
488.280	35831
488.356	36419
488.432	56464
488.508	75851
488.584	32157
488.660	27483
488.736	27197
488.812	26007
488.888	30188
488.964	32137
489.039	47627
489.115	61373
489.191	43981
489.267	26256
489.343	25614
489.418	22829
489.494	23867
489.570	22366
489.646	24588
489.722	24688
489.797	24362
489.873	32695
489.949	57513
490.024	46719
490.100	24135
490.176	23951
490.251	25838
490.327	27748
490.403	22794
490.478	22439
490.554	21957
490.629	21867
490.705	21596
490.781	22274
490.856	21804
490.932	24108
491.007	22765
491.083	22887
491.158	22543
491.234	28437
491.309	46739
491.385	44026
491.460	22628
491.536	23682
491.611	20787
491.686	21984
491.762	24532
491.837	35009
491.913	48359
491.988	63902
492.063	70941
492.139	36118
492.214	26393
492.289	20140
492.365	20315
492.440	21866
492.515	21579
492.590	22129
492.666	19889
492.741	25304
492.816	31157
492.891	21773
492.967	20750
493.042	19658
493.117	20539
493.192	21672
493.267	27553
493.342	58329
493.418	71602
493.493	25015
493.568	19663
493.643	19291
493.718	21986
493.793	25870
493.868	25473
493.943	21640
494.018	20217
494.093	19754
494.168	19955
494.243	18231
494.318	19005
494.393	19710
494.468	19218
494.543	19177
494.618	20332
494.693	20092
494.768	20224
494.842	20773
494.917	19435
494.992	20611
495.067	19466
495.142	19663
495.217	20398
495.292	20656
495.366	22069
495.441	24168
495.516	26872
495.591	28969
495.665	60005
495.740	112348
495.815	52003
495.890	24889
495.964	21733
496.039	26178
496.114	23909
496.188	25601
496.263	25754
496.338	22439
496.412	23895
496.487	26648
496.561	25023
496.636	25074
496.710	23873
496.785	24041
496.860	26659
496.934	22639
497.009	23030
497.083	22889
497.158	23724
497.232	26385
497.307	29567
497.381	27733
497.455	30170
497.530	32187
497.604	24167
497.679	27270
497.753	34514
497.827	37559
497.902	34226
497.976	39307
498.050	84440
498.125	315815
498.199	284198
498.273	42328
498.348	29749
498.422	29657
498.496	32295
498.570	33559
498.645	24731
498.719	24373
498.793	29507
498.867	40218
498.941	50478
499.016	132512
499.090	338437
499.164	106879
499.238	26504
499.312	26099
499.386	29015
499.460	29933
499.534	31452
499.609	38852
499.683	41847
499.757	34674
499.831	64263
499.905	232993
499.979	194526
500.053	39506
500.127	37723
500.201	27731
500.275	26770
500.349	27945
500.422	30372
500.496	36414
500.570	56093
500.644	139918
500.718	239893
500.792	51232
500.866	23406
500.940	26753
501.013	23140
501.087	23736
501.161	31311
501.235	38288
501.309	79972
501.382	211905
501.456	161637
501.530	44283
501.603	72750
501.677	31224
501.751	18020
501.825	21868
501.898	36526
501.972	88197
502.046	51785
502.119	21773
502.193	41806
502.266	93781
502.340	44771
502.413	46394
502.487	80054
502.561	45399
502.634	21466
502.708	18815
502.781	17624
502.855	16715
502.928	15544
503.002	16793
503.075	15827
503.149	18044
503.222	19501
503.295	19990
503.369	24109
503.442	28333
503.516	70526
503.589	162264
503.662	103505
503.736	48768
503.809	94189
503.882	85105
503.956	130638
504.029	163025
504.102	300399
504.175	421625
504.249	170966
504.322	72182
504.395	44853
504.468	31076
504.542	25381
504.615	21836
504.688	19580
504.761	17023
504.834	19588
504.907	19118
504.980	22421
505.053	16825
505.127	15416
505.200	22334
505.273	20702
505.346	15129
505.419	13895
505.492	14377
505.565	12456
505.638	14093
505.711	13406
505.784	12224
505.857	12781
505.930	15580
506.003	12048
506.076	16861
506.149	16111
506.221	18176
506.294	19212
506.367	36429
506.440	112652
506.513	52679
506.586	19442
506.659	13692
506.731	13194
506.804	13160
506.877	15127
506.950	15166
507.022	13205
507.095	13976
507.168	17589
507.241	14051
507.313	11555
507.386	11889
507.459	13730
507.531	11835
507.604	11068
507.677	12821
507.749	10609
507.822	13975
507.894	18013
507.967	20605
508.040	15214
508.112	15516
508.185	14813
508.257	12091
508.330	18429
508.402	14881
508.475	16037
508.547	15507
508.620	15127
508.692	19968
508.765	15347
508.837	12747
508.909	12791
508.982	13295
509.054	14395
509.127	13549
509.199	12059
509.271	11134
509.344	12036
509.416	13408
509.488	13214
509.560	14125
509.633	12385
509.705	15134
509.777	15238
509.849	17680
509.922	14881
509.994	14921
510.066	15080
510.138	13691
510.210	22146
510.283	18900
510.355	17272
510.427	16069
510.499	16063
510.571	16057
510.643	13204
510.715	19007
510.787	15378
510.859	16366
510.931	18039
511.003	18720
511.076	17638
511.148	14568
511.219	15913
511.291	23387
511.363	24155
511.435	15630
511.507	15055
511.579	14456
511.651	15116
511.723	13795
511.795	13713
511.867	14529
511.939	16713
512.010	26336
512.082	21483
512.154	13302
512.226	13779
512.298	18103
512.369	20787
512.441	18173
512.513	17148
512.585	14705
512.656	16702
512.728	16258
512.800	13461
512.871	14972
512.943	15045
513.015	12516
513.086	15080
513.158	15114
513.230	13910
513.301	16513
513.373	17035
513.444	14176
513.516	13226
513.588	13986
513.659	14718
513.731	15040
513.802	13297
513.874	21805
513.945	27309
514.016	15321
514.088	14221
514.159	12669
514.231	16447
514.302	19551
514.374	17450
514.445	16601
514.516	30679
514.588	20800
514.659	17180
514.730	26870
514.802	19738
514.873	12618
514.944	16901
515.016	16469
515.087	15703
515.158	20254
515.229	26596
515.301	14389
515.372	16235
515.443	12736
515.514	13775
515.585	13781
515.656	15232
515.728	15215
515.799	14590
515.870	16441
515.941	18021
516.012	17407
516.083	22762
516.154	23277
516.225	27137
516.296	32200
516.367	34870
516.438	42813
516.509	55699
516.580	80782
516.651	267741
516.722	868696
516.793	305769
516.864	75927
516.935	71841
517.006	86213
517.077	108096
517.148	229067
517.219	929962
517.289	1264076
517.360	290871
517.431	86138
517.502	43792
517.573	37962
517.643	35701
517.714	37009
517.785	40850
517.856	44583
517.926	54927
517.997	68475
518.068	89323
518.138	119725
518.209	185636
518.280	616888
518.350	1703270
518.421	724963
518.492	151431
518.562	97125
518.633	97699
518.703	119589
518.774	228667
518.845	535846
518.915	459188
518.986	147309
519.056	73691
519.127	60568
519.197	64975
519.268	127746
519.338	77710
519.408	31103
519.479	28590
519.549	22742
519.620	22912
519.690	18683
519.760	17963
519.831	17306
519.901	17884
519.971	17284
520.042	17571
520.112	18373
520.182	18918
520.253	19279
520.323	17964
520.393	19676
520.463	25201
520.534	18809
520.604	33171
520.674	21115
520.744	21828
520.814	33590
520.885	31030
520.955	43685
521.025	137836
521.095	47889
521.165	17763
521.235	16884
521.305	14829
521.375	14807
521.445	15693
521.515	15702
521.585	18235
521.655	15550
521.725	16864
521.795	17005
521.865	14063
521.935	20807
522.005	17444
522.075	14014
522.145	16359
522.215	16175
522.285	20501
522.355	24812
522.424	41157
522.494	33084
522.564	19548
522.634	25738
522.704	55770
522.774	23423
522.843	15440
522.913	14833
522.983	16727
523.053	14340
523.122	15486
523.192	16624
523.262	32966
523.331	29343
523.401	16243
523.471	12956
523.540	14299
523.610	12118
523.680	14400
523.749	14910
523.819	16351
523.888	15598
523.958	13410
524.027	15472
524.097	15784
524.166	14574
524.236	14256
524.305	16914
524.375	13728
524.444	13600
524.514	16386
524.583	15403
524.653	16721
524.722	18530
524.791	13802
524.861	15816
524.930	14091
524.999	15511
525.069	18670
525.138	17588
525.207	19018
525.277	17932
525.346	17285
525.415	18985
525.484	20198
525.554	24880
525.623	28934
525.692	33265
525.761	40188
525.830	51123
525.900	67368
525.969	103687
526.038	179238
526.107	370086
526.176	997431
526.245	716643
526.314	231273
526.383	515746
526.452	626303
526.522	941966
526.591	777912
526.660	159680
526.729	102675
526.797	111503
526.867	159929
526.935	486042
527.004	1374470
527.073	772226
527.142	120539
527.211	55340
527.280	38452
527.349	31740
527.418	23067
527.487	21540
527.555	19149
527.624	18221
527.693	16070
527.762	18006
527.831	16681
527.899	17118
527.968	14434
528.037	14296
528.106	15712
528.174	19244
528.243	18691
528.312	22168
528.380	22879
528.449	14132
528.518	14943
528.586	11936
528.655	14429
528.723	13163
528.792	13818
528.861	13402
528.929	12255
528.998	14809
529.066	15939
529.135	20905
529.203	19616
529.272	23018
529.340	27216
529.409	25491
529.477	23496
529.545	24336
529.614	28214
529.682	31833
529.751	32933
529.819	35811
529.887	35327
529.956	32276
530.024	31383
530.092	27266
530.161	28997
530.229	31607
530.297	30896
530.365	31704
530.434	32626
530.502	31370
530.570	29799
530.638	25771
530.707	27291
530.775	26608
530.843	27087
530.911	28434
530.979	28220
531.047	31667
531.115	31075
531.183	27314
531.252	27075
531.320	26904
531.388	25908
531.456	30044
531.524	28698
531.592	31184
531.660	35553
531.728	31515
531.796	30546
531.864	30690
531.932	30493
532.000	29547
532.067	33031
532.135	34000
532.203	38063
532.271	39392
532.339	44370
532.407	51436
532.475	43048
532.542	38439
532.610	37705
532.678	40015
532.746	72190
532.814	118848
532.881	50548
532.949	36744
533.017	34900
533.084	34201
533.152	33313
533.220	31780
533.287	32950
533.355	33424
533.423	34794
533.490	34968
533.558	33121
533.625	32632
533.693	33064
533.761	33566
533.828	33596
533.896	32942
533.963	42414
534.031	43372
534.098	49179
534.166	42370
534.233	38629
534.300	42350
534.368	42213
534.435	40309
534.503	40904
534.570	47176
534.637	50425
534.705	57119
534.772	63175
534.840	107412
534.907	442102
534.974	466913
535.041	71313
535.109	43555
535.176	35060
535.243	33922
535.310	33450
535.378	32483
535.445	31116
535.512	30867
535.579	31531
535.646	29377
535.714	30393
535.781	32042
535.848	33403
535.915	35417
535.982	34932
536.049	34066
536.116	33770
536.183	30284
536.250	27401
536.317	29300
536.384	30689
536.451	32131
536.518	32505
536.585	29264
536.652	33149
536.719	34090
536.786	28643
536.853	29932
536.920	32574
536.987	35222
537.053	32098
537.120	71756
537.187	54926
537.254	30750
537.321	27828
537.388	28349
537.454	26424
537.521	26712
537.588	26533
537.654	27877
537.721	29251
537.788	30105
537.855	26325
537.921	27631
537.988	26877
538.055	25994
538.121	24658
538.188	24912
538.254	26651
538.321	30832
538.388	27384
538.454	27320
538.521	28392
538.587	27503
538.654	26836
538.720	26545
538.787	26624
538.853	26718
538.920	26708
538.986	25051
539.053	24490
539.119	24786
539.185	25541
539.252	26683
539.318	27796
539.385	30897
539.451	27742
539.517	27624
539.583	28243
539.650	36164
539.716	52793
539.782	27603
539.849	24682
539.915	24842
539.981	23622
540.047	24952
540.114	25808
540.180	26542
540.246	26359
540.312	28539
540.378	32407
540.444	32242
540.510	35646
540.576	56719
540.643	28832
540.709	24616
540.775	25586
540.841	23993
540.907	27325
540.973	30475
541.039	27072
541.105	27381
541.171	26185
541.237	26467
541.303	26188
541.369	27966
541.435	27469
541.500	28803
541.566	24620
541.632	22993
541.698	24195
541.764	24742
541.830	22887
541.896	23972
541.961	24115
542.027	23751
542.093	25602
542.159	26067
542.224	23533
542.290	28184
542.356	28657
542.421	29088
542.487	24647
542.553	23759
542.618	25102
542.684	23870
542.750	24745
542.815	25804
542.881	29662
542.947	54554
543.012	39962
543.078	23361
543.143	21888
543.209	24579
543.274	22808
543.340	24720
543.405	33343
543.471	36843
543.536	25220
543.602	24607
543.667	23046
543.732	24401
543.798	23018
543.863	24338
543.928	22279
543.994	23013
544.059	23688
544.124	24748
544.190	23962
544.255	25469
544.320	26526
544.386	25154
544.451	28018
544.516	27698
544.581	28490
544.646	42792
544.712	48555
544.777	28951
544.842	28514
544.907	29310
544.972	27462
545.037	29497
545.102	28785
545.168	30090
545.233	30793
545.298	31429
545.363	32302
545.428	33012
545.493	38170
545.558	48632
545.623	34879
545.688	31242
545.753	32136
545.818	33011
545.883	34311
545.947	34867
546.012	37102
546.077	37443
546.142	38975
546.207	39118
546.272	42986
546.337	42954
546.401	42819
546.466	44682
546.531	46265
546.596	48481
546.661	50690
546.725	53393
546.790	55552
546.855	59584
546.919	63913
546.984	71759
547.049	76603
547.113	88357
547.178	95600
547.243	106897
547.307	124097
547.372	136734
547.436	137199
547.501	140473
547.565	151192
547.630	138893
547.695	134693
547.759	136014
547.823	137223
547.888	137187
547.952	141685
548.017	146259
548.081	148066
548.146	150291
548.210	153535
548.274	164727
548.339	156238
548.403	144560
548.468	135579
548.532	136677
548.596	138103
548.660	139143
548.725	151090
548.789	165205
548.853	158096
548.917	152287
548.982	150354
549.046	134377
549.110	121388
549.174	125907
549.238	145838
549.303	157937
549.367	160819
549.431	152837
549.495	144409
549.559	145829
549.623	171918
549.687	183856
549.751	181181
549.815	216408
549.879	211190
549.943	204584
550.007	214615
550.071	210951
550.135	189007
550.199	182239
550.263	177515
550.327	169040
550.391	176263
550.455	193380
550.519	201117
550.582	216062
550.646	243481
550.710	247046
550.774	239958
550.838	244886
550.901	252802
550.965	268577
551.029	280543
551.093	302044
551.156	329968
551.220	384889
551.284	398360
551.347	307416
551.411	287371
551.475	271654
551.538	258703
551.602	236295
551.666	223206
551.729	208072
551.793	207054
551.856	201504
551.920	199281
551.983	197358
552.047	194763
552.110	195322
552.174	196716
552.237	202064
552.301	187862
552.364	180568
552.428	175589
552.491	183925
552.554	186421
552.618	186697
552.681	192128
552.745	189183
552.808	220938
552.871	253885
552.934	210057
552.998	189535
553.061	182664
553.124	173316
553.187	173609
553.251	179251
553.314	178071
553.377	178793
553.440	194967
553.503	224132
553.567	234958
553.630	191752
553.693	186894
553.756	185571
553.819	179667
553.882	172968
553.945	174151
554.008	173033
554.071	177135
554.134	178327
554.197	167591
554.260	161880
554.323	166022
554.386	168904
554.449	176487
554.512	174722
554.575	167128
554.638	166336
554.701	164625
554.764	161125
554.827	157454
554.889	150908
554.952	141377
555.015	140336
555.078	142640
555.141	146598
555.203	140715
555.266	141541
555.329	139956
555.391	134097
555.454	132135
555.517	128199
555.580	125322
555.642	119010
555.705	117455
555.768	118150
555.830	114861
555.893	110547
555.955	105034
556.018	105850
556.080	105553
556.143	107876
556.206	105456
556.268	103978
556.330	101952
556.393	99937
556.455	98480
556.518	99612
556.580	96981
556.643	88886
556.705	87842
556.767	84671
556.830	85040
556.892	83988
556.955	85947
557.017	81488
557.079	79572
557.142	77383
557.204	78515
557.266	83187
557.328	75158
557.391	68012
557.453	68880
557.515	68547
557.577	69196
557.639	70722
557.701	70654
557.764	71280
557.826	74024
557.888	78855
557.950	82266
558.012	88531
558.074	113070
558.136	263531
558.198	547992
558.260	170763
558.322	85312
558.384	85925
558.446	91912
558.508	101907
558.570	115727
558.632	138194
558.694	170213
558.756	268810
558.818	736341
558.880	1356012
558.942	560456
559.003	605689
559.065	256275
559.127	120441
559.189	115834
559.251	124132
559.312	170372
559.374	405296
559.436	1070221
559.498	484800
559.559	136325
559.621	114890
559.683	128919
559.744	207394
559.806	629923
559.868	776052
559.929	177462
559.991	127889
560.052	210330
560.114	548478
560.176	298341
560.237	337050
560.299	457914
560.360	94443
560.422	50347
560.483	43176
560.545	39215
560.606	38954
560.667	35033
560.729	34585
560.790	32877
560.852	32731
560.913	30667
560.974	30644
561.036	31025
561.097	30864
561.158	30239
561.220	30300
561.281	28622
561.342	28755
561.403	28938
561.465	30545
561.526	36162
561.587	38633
561.648	27040
561.709	26171
561.771	25807
561.832	26849
561.893	25090
561.954	24200
562.015	24859
562.076	25577
562.137	24815
562.198	23951
562.259	25300
562.320	25256
562.381	25002
562.442	26030
562.503	23695
562.564	23218
562.625	22586
562.686	22771
562.747	22496
562.808	21766
562.869	21883
562.930	23974
562.991	23619
563.051	22660
563.112	21976
563.173	22528
563.234	20831
563.294	21648
563.355	20416
563.416	20974
563.477	21769
563.537	21081
563.598	22075
563.659	21018
563.720	20429
563.780	21553
563.841	21409
563.901	20405
563.962	20038
564.023	21007
564.083	19970
564.144	21943
564.204	20110
564.265	19947
564.325	21249
564.386	28738
564.446	26080
564.507	19148
564.567	18969
564.628	18715
564.688	18436
564.749	18502
564.809	20955
564.869	21906
564.930	19779
564.990	18696
565.050	18252
565.111	18953
565.171	18371
565.231	18287
565.292	18531
565.352	17543
565.412	19053
565.472	19266
565.532	19133
565.593	18080
565.653	18960
565.713	19051
565.773	19133
565.833	19956
565.893	21511
565.953	17134
566.013	17730
566.074	18620
566.134	21288
566.194	24607
566.254	24323
566.314	18978
566.374	17016
566.434	18835
566.494	17747
566.554	18562
566.614	18942
566.673	19005
566.733	18872
566.793	18982
566.853	18250
566.913	17986
566.973	18958
567.033	19185
567.092	18209
567.152	18389
567.212	19420
567.272	19390
567.331	20116
567.391	19584
567.451	21232
567.511	22666
567.570	22043
567.630	19701
567.690	17637
567.749	18071
567.809	18703
567.868	18165
567.928	18341
567.988	20007
568.047	19866
568.107	18553
568.166	19291
568.226	19851
568.285	20374
568.345	20892
568.404	19021
568.464	19892
568.523	19689
568.582	18480
568.642	19435
568.701	18719
568.761	19888
568.820	20829
568.879	20567
568.939	22828
568.998	20165
569.057	18407
569.116	18438
569.176	18417
569.235	17406
569.294	18613
569.353	17185
569.413	17137
569.472	16700
569.531	16858
569.590	16013
569.649	17742
569.708	15442
569.767	17293
569.827	18283
569.886	17622
569.945	16891
570.004	17751
570.063	17458
570.122	18315
570.181	18794
570.240	19841
570.299	19088
570.358	17341
570.417	18524
570.475	17255
570.534	17703
570.593	17318
570.652	17700
570.711	17672
570.770	18157
570.829	19260
570.887	18694
570.946	18557
571.005	17944
571.064	20015
571.122	20857
571.181	20099
571.240	18520
571.299	17749
571.357	18060
571.416	17069
571.475	18821
571.533	19368
571.592	19345
571.650	19700
571.709	19517
571.768	20040
571.826	21376
571.885	19171
571.943	17681
572.002	17898
572.060	17681
572.119	16595
572.177	16792
572.236	16601
572.294	17290
572.352	18598
572.411	17918
572.469	16898
572.528	16943
572.586	16757
572.644	16577
572.703	17328
572.761	15926
572.819	16121
572.877	14414
572.936	15136
572.994	15579
573.052	15996
573.110	16050
573.169	16115
573.227	16483
573.285	15415
573.343	16560
573.401	15333
573.459	15778
573.517	16965
573.576	16641
573.634	16571
573.692	16451
573.750	16649
573.808	14723
573.866	15750
573.924	18419
573.982	16468
574.040	16415
574.098	16017
574.155	14458
574.213	15215
574.271	14758
574.329	16987
574.387	14824
574.445	13963
574.503	13819
574.560	13274
574.618	13897
574.676	13567
574.734	14513
574.792	13924
574.849	13568
574.907	12518
574.965	13230
575.022	12395
575.080	11892
575.138	12942
575.195	12860
575.253	12338
575.311	12001
575.368	11921
575.426	11402
575.483	13111
575.541	12655
575.598	12356
575.656	12749
575.713	13476
575.771	13446
575.828	13057
575.886	13386
575.943	12113
576.001	12081
576.058	11904
576.115	12037
576.173	13584
576.230	13964
576.287	15208
576.345	13542
576.402	13805
576.459	13449
576.517	12443
576.574	13201
576.631	13990
576.688	12716
576.746	11959
576.803	11672
576.860	11553
576.917	11850
576.974	12620
577.031	12452
577.089	12287
577.146	12210
577.203	12044
577.260	12566
577.317	12611
577.374	13350
577.431	13042
577.488	12788
577.545	11360
577.602	12164
577.659	12394
577.716	12617
577.773	12872
577.830	12340
577.886	12756
577.943	12211
578.000	12423
578.057	12708
578.114	13282
578.171	16337
578.227	19105
578.284	18163
578.341	15892
578.398	14632
578.454	13119
578.511	14081
578.568	14434
578.625	12284
578.681	11987
578.738	11591
578.794	11629
578.851	11200
578.908	12219
578.964	11841
579.021	12673
579.077	11252
579.134	12670
579.190	12023
579.247	11928
579.303	11306
579.360	11678
579.416	11396
579.473	11924
579.529	11169
579.586	11484
579.642	13005
579.698	12103
579.755	13215
579.811	12691
579.867	13649
579.924	13609
579.980	14395
580.036	16382
580.093	18071
580.149	24407
580.205	27358
580.261	21036
580.317	18455
580.374	17678
580.430	16568
580.486	16303
580.542	13732
580.598	13630
580.619	13517
580.654	13341
580.692	13301
580.710	13308
580.765	13573
580.767	13602
580.823	14400
580.838	14482
580.879	14789
580.911	14692
580.935	14660
580.984	14451
580.991	14442
581.047	14891
581.057	14810
581.103	14570
581.130	14820
581.159	15116
581.203	16271
581.215	16613
581.270	15516
581.276	15375
581.326	14132
581.349	14129
581.382	14201
581.422	13408
581.438	13105
581.494	12975
581.494	12962
581.550	13008
581.567	13169
581.606	13562
581.640	13071
581.661	12844
581.713	14161
581.717	14274
581.773	13123
581.786	13135
581.829	13176
581.859	13365
581.885	13609
581.932	13493
581.940	13468
581.996	13808
582.004	13718
582.052	13287
582.077	13356
582.107	13510
582.150	13122
582.163	13016
582.219	13546
582.223	13488
582.274	12808
582.296	13107
582.330	13617
582.368	13500
582.386	13516
582.441	14012
582.441	14020
582.497	13097
582.514	13280
582.552	13849
582.587	14540
582.608	14962
582.659	13764
582.663	13676
582.719	14408
582.732	14444
582.774	14567
582.805	14677
582.830	14763
582.877	15170
582.885	15250
582.941	15009
582.950	15197
582.996	16104
583.023	16477
583.052	17039
583.095	18026
583.107	18282
583.162	19885
583.168	19894
583.218	19665
583.240	18618
583.273	17179
583.313	15940
583.328	15550
583.384	15167
583.385	15123
583.439	13639
583.458	13392
583.494	12758
583.531	12727
583.549	12907
583.603	12040
583.605	11993
583.660	12671
583.676	12532
583.715	12518
583.748	12538
583.770	12405
583.820	12608
583.825	12637
583.881	12111
583.893	11931
583.936	11381
583.965	11495
583.991	11499
584.038	12089
584.046	12225
584.101	12442
584.110	12502
584.156	12635
584.183	12290
584.211	11802
584.255	11836
584.266	11905
584.321	12329
584.328	12397
584.376	12604
584.400	12461
584.431	12446
584.472	12649
584.486	12561
584.541	12483
584.545	12507
584.596	13046
584.617	12737
584.651	12418
584.689	13272
584.706	13505
584.761	13874
584.762	13883
584.816	13521
584.834	13697
584.871	13914
584.906	14569
584.926	14850
584.978	14644
584.980	14646
585.035	16882
585.051	17229
585.090	17632
585.123	19113
585.145	20268
585.195	21658
585.200	21742
585.254	24069
585.267	25311
585.309	29372
585.340	31884
585.364	33811
585.412	37624
585.419	38126
585.473	45367
585.484	47663
585.528	58353
585.556	73095
585.583	91495
585.628	148326
585.637	162826
585.692	341246
585.700	367134
585.747	477972
585.772	367887
585.801	219157
585.845	91622
585.856	67014
585.910	38204
585.917	36139
585.965	26777
585.989	24095
586.019	21221
586.061	19236
586.074	18567
586.128	17236
586.133	17176
586.183	16262
586.205	16077
586.237	15734
586.277	15172
586.292	14974
586.346	14784
586.349	14795
586.401	14263
586.421	14278
586.455	14243
586.493	14538
586.509	14823
586.564	15918
586.565	16060
586.618	20869
586.637	20824
586.672	19426
586.709	18610
586.727	18427
586.781	19472
586.781	19422
586.835	15074
586.853	14345
586.889	13118
586.925	12299
586.944	11890
586.996	11670
586.998	11623
587.052	11485
587.068	11523
587.106	11841
587.140	11927
587.161	11848
587.212	11540
587.215	11501
587.269	12070
587.284	12221
587.323	12024
587.356	12071
587.377	12068
587.427	11759
587.431	11745
587.485	12730
587.499	12814
587.539	12334
587.571	12338
587.593	12493
587.643	13536
587.648	13533
587.702	13279
587.715	13095
587.755	12741
587.786	12940
587.810	12757
587.858	13138
587.864	13188
587.917	13363
587.930	13519
587.971	13613
588.001	13690
588.025	13538
588.073	13533
588.079	13531
588.133	13860
588.145	14098
588.187	14367
588.217	14554
588.241	14772
588.288	15445
588.295	15401
588.348	15996
588.360	16203
588.402	17507
588.431	18467
588.456	18802
588.503	20391
588.510	20533
588.564	22488
588.575	23125
588.617	25261
588.646	27070
588.671	28727
588.718	33527
588.725	34233
588.778	44990
588.789	48637
588.832	72080
588.861	96490
588.886	134618
588.932	235390
588.939	245243
588.993	294931
589.004	282814
589.047	143265
589.075	74046
589.100	48866
589.147	31274
589.154	29943
589.207	25143
589.218	24694
589.261	24525
589.290	25777
589.314	26702
589.361	30081
589.368	30963
589.421	43565
589.433	48268
589.475	82656
589.504	117790
589.528	154153
589.576	228715
589.582	224643
589.635	103837
589.647	83267
589.689	37583
589.718	21018
589.742	18415
589.790	14846
589.795	14473
589.849	13413
589.861	13554
589.902	14361
589.932	14366
589.955	13178
590.004	11333
590.009	11157
590.062	10224
590.075	10145
590.115	9898
590.146	9897
590.168	9569
590.218	8975
590.222	8905
590.275	9549
590.289	9672
590.328	9944
590.360	10355
590.381	10285
590.431	10260
590.435	10148
590.488	9639
590.503	9615
590.541	9420
590.574	9462
590.594	9531
590.645	9891
590.647	9805
590.700	10007
590.716	10054
590.753	9718
590.787	9791
590.806	9613
590.859	9642
590.859	9556
590.912	10287
590.930	10754
590.965	10420
591.001	10114
591.018	9935
591.071	9644
591.072	9740
591.124	9734
591.143	9813
591.177	9397
591.214	9467
591.230	9599
591.283	10149
591.285	10269
591.336	10365
591.356	10590
591.389	10257
591.427	10130
591.442	9823
591.495	9006
591.498	9045
591.547	9116
591.569	9416
591.600	8979
591.640	8535
591.653	8455
591.706	8512
591.711	8644
591.759	8820
591.782	9123
591.811	9179
591.853	9517
591.864	9353
591.917	8982
591.924	9074
591.969	9156
591.995	9374
592.022	8971
592.066	8716
592.075	8738
592.127	9638
592.137	9959
592.180	9885
592.208	9990
592.233	9438
592.279	8803
592.285	8737
592.338	9461
592.350	9757
592.390	9097
592.421	8865
592.443	8729
592.491	8924
592.495	8805
592.548	9267
592.562	9552
592.600	9277
592.633	9317
592.653	9071
592.704	8790
592.705	8842
592.775	9153
592.846	9066
592.916	8840
592.987	9566
593.058	9639
593.128	9087
593.199	8995
593.270	8173
593.341	9162
593.411	9611
593.482	9503
593.553	10623
593.623	9463
593.694	10891
593.764	10471
593.835	10102
593.906	10648
593.976	10354
594.047	10360
594.117	12921
594.188	11795
594.258	10611
594.329	12063
594.399	11832
594.470	12253
594.540	13460
594.611	12796
594.681	12390
594.751	12692
594.822	14467
594.892	13546
594.963	14521
595.033	14829
595.103	14136
595.174	14849
595.244	17709
595.314	18787
595.384	16566
595.455	16314
595.525	17228
595.595	17795
595.665	16944
595.736	17400
595.806	17424
595.876	17167
595.946	18284
596.016	18637
596.087	19162
596.157	19149
596.227	19118
596.297	20785
596.367	21500
596.437	23655
596.507	23848
596.577	24781
596.647	24413
596.717	25273
596.787	24055
596.857	24306
596.927	24886
596.997	24636
597.067	24836
597.137	26948
597.207	25327
597.277	25953
597.347	24736
597.417	24520
597.487	24385
597.557	25818
597.626	25040
597.696	26872
597.766	25858
597.836	26980
597.906	23908
597.975	22752
598.045	23110
598.115	24066
598.185	25769
598.254	30052
598.324	32517
598.394	31856
598.464	30284
598.533	29668
598.603	28495
598.672	27105
598.742	27914
598.812	28576
598.881	28907
598.951	28782
599.020	30577
599.090	30435
599.159	31545
599.229	29232
599.299	28561
599.368	28969
599.437	29083
599.507	27315
599.576	25785
599.646	26419
599.715	26130
599.785	25769
599.854	24738
599.924	25276
599.993	24493
600.062	25586
600.132	25636
600.201	28398
600.270	31865
600.340	33036
600.409	32149
600.478	32077
600.547	32672
600.617	28871
600.686	23610
600.755	23096
600.824	22007
600.894	21581
600.963	20782
601.032	21625
601.101	21471
601.170	20251
601.239	19134
601.308	20315
601.378	19982
601.447	21153
601.516	20695
601.585	20295
601.654	21393
601.723	20460
601.792	21962
601.861	22221
601.930	24034
601.999	24023
602.068	22947
602.137	23879
602.206	23692
602.275	24969
602.343	24307
602.412	24470
602.481	25507
602.550	24689
602.619	25609
602.688	26458
602.756	26210
602.825	26817
602.894	27106
602.963	27656
603.032	28655
603.100	28454
603.169	27735
603.238	29094
603.307	29356
603.375	29137
603.444	29145
603.513	29106
603.581	29735
603.650	30058
603.719	29220
603.787	28091
603.856	29661
603.924	30671
603.993	31797
604.061	31887
604.130	34048
604.198	33200
604.267	35508
604.335	35899
604.404	35943
604.472	37101
604.541	36961
604.609	37399
604.678	37482
604.746	38530
604.815	39187
604.883	39371
604.951	40384
605.020	39837
605.088	39583
605.156	39830
605.225	41259
605.293	40849
605.361	41612
605.429	41950
605.498	42701
605.566	42999
605.634	45438
605.702	46524
605.771	47036
605.839	47180
605.907	46392
605.975	44450
606.043	43733
606.111	43663
606.180	44240
606.248	43160
606.316	42285
606.384	42740
606.452	42599
606.520	41937
606.588	44115
606.656	42339
606.724	42849
606.792	40351
606.860	35919
606.928	33046
606.996	32205
607.064	31488
607.132	32151
607.200	34246
607.267	34836
607.335	35969
607.403	36831
607.471	34903
607.539	35012
607.607	34888
607.674	30537
607.742	31018
607.810	31237
607.878	30601
607.946	30956
608.013	33667
608.081	32862
608.149	33503
608.216	33493
608.284	36337
608.352	35893
608.419	33588
608.487	35467
608.555	34142
608.622	36838
608.690	36582
608.757	40863
608.825	41413
608.893	40196
608.960	38322
609.028	36128
609.095	38482
609.163	36005
609.230	32433
609.298	30360
609.365	32373
609.432	34755
609.500	36747
609.567	42822
609.635	49210
609.702	50239
609.769	48302
609.837	38801
609.904	33984
609.971	35949
610.039	42240
610.106	61157
610.173	121212
610.241	270686
610.308	138322
610.375	48363
610.442	36318
610.509	34884
610.577	35305
610.644	34748
610.711	36116
610.778	38113
610.845	37533
610.912	40481
610.980	43578
611.047	42918
611.114	42532
611.181	39779
611.248	39449
611.315	42890
611.382	42480
611.449	44642
611.516	46622
611.583	44028
611.650	46204
611.717	46837
611.784	47558
611.851	51466
611.918	57593
611.984	71819
612.051	108347
612.118	223591
612.185	504269
612.252	289417
612.319	83538
612.386	63976
612.452	55592
612.519	52248
612.586	53264
612.653	52642
612.719	53052
612.786	49681
612.853	46748
612.919	45060
612.986	47447
613.053	43377
613.120	39639
613.186	38744
613.253	41315
613.319	40693
613.386	39995
613.453	40734
613.519	41140
613.586	39617
613.652	42723
613.719	41007
613.785	42148
613.852	40956
613.918	40898
613.985	41775
614.051	45233
614.118	50853
614.184	45803
614.250	41828
614.317	43173
614.383	41047
614.449	41953
614.516	41714
614.582	41822
614.648	40454
614.715	41689
614.781	38405
614.847	39594
614.914	39894
614.980	37542
615.046	37861
615.112	39142
615.179	39826
615.245	40772
615.311	40534
615.377	40778
615.443	40736
615.509	42018
615.575	44568
615.642	43599
615.708	45472
615.774	48605
615.840	54139
615.906	61108
615.972	78974
616.038	126456
616.104	271606
616.170	601088
616.236	453034
616.302	128825
616.368	92620
616.434	64722
616.500	58054
616.565	66777
616.631	85271
616.697	68054
616.763	73257
616.829	115129
616.895	206609
616.961	185315
617.026	76475
617.092	48624
617.158	45893
617.224	42230
617.289	38849
617.355	36827
617.421	35348
617.487	36296
617.552	34237
617.618	33677
617.684	32825
617.749	36134
617.815	32571
617.880	32403
617.946	31172
618.012	32738
618.077	33032
618.143	31983
618.208	32125
618.274	34867
618.339	33966
618.405	26727
618.470	29025
618.536	28650
618.601	28397
618.667	25294
618.732	24310
618.798	23745
618.863	24629
618.928	24106
618.994	25011
619.059	25206
619.124	25128
619.190	24980
619.255	22789
619.320	23877
619.386	24149
619.451	23224
619.516	22270
619.581	23092
619.647	23280
619.712	23514
619.777	23306
619.842	22311
619.907	23033
619.972	23919
620.038	22827
620.103	23744
620.168	22555
620.233	24019
620.298	23042
620.363	23475
620.428	24913
620.493	24124
620.558	25085
620.623	26146
620.688	24274
620.753	25096
620.818	25320
620.883	25712
620.948	25322
621.013	25052
621.078	24391
621.143	23835
621.207	27681
621.272	24432
621.337	23118
621.402	24576
621.467	25379
621.532	24202
621.596	24475
621.661	23951
621.726	23585
621.791	23159
621.855	22999
621.920	23403
621.985	23815
622.049	24726
622.114	23511
622.179	24964
622.243	24095
622.308	25529
622.373	28391
622.437	26307
622.502	24634
622.566	23472
622.631	22750
622.695	25966
622.760	25172
622.824	24388
622.889	24058
622.953	24113
623.018	27300
623.082	27403
623.147	26100
623.211	25529
623.276	25273
623.340	22709
623.404	23613
623.469	23736
623.533	24413
623.597	23148
623.662	23342
623.726	21143
623.790	19382
623.854	19309
623.919	19762
623.983	19194
624.047	19808
624.111	20517
624.176	21937
624.240	20137
624.304	21549
624.368	21118
624.432	21837
624.496	21186
624.560	22122
624.625	22586
624.689	23503
624.753	23488
624.817	22419
624.881	21894
624.945	19761
625.009	19078
625.073	20077
625.137	18813
625.201	22485
625.265	22066
625.329	20944
625.393	20579
625.456	22074
625.520	21520
625.584	22044
625.648	23138
625.712	25477
625.776	31752
625.839	32501
625.903	20120
625.967	18075
626.031	23570
626.095	27156
626.158	20119
626.222	13716
626.286	15680
626.349	13796
626.413	12382
626.477	14160
626.540	13389
626.604	13220
626.668	14148
626.731	12624
626.795	11963
626.858	12479
626.922	11931
626.986	13116
627.049	10245
627.113	14364
627.176	13147
627.240	12058
627.303	11860
627.366	12034
627.430	13146
627.493	12525
627.557	11137
627.620	14013
627.684	12393
627.747	12538
627.810	10119
627.874	10457
627.937	9392
628.000	12163
628.064	11101
628.127	7378
628.190	10430
628.253	9410
628.317	7872
628.380	8478
628.443	8231
628.506	7898
628.569	7596
628.632	7014
628.696	7515
628.759	6592
628.822	6829
628.885	6124
628.948	7078
629.011	6628
629.074	5757
629.137	6046
629.200	5377
629.263	6723
629.326	4653
629.389	5401
629.452	5579
629.515	5563
629.578	5692
629.641	6126
629.704	5611
629.767	6033
629.830	5786
629.892	4661
629.955	4855
630.018	7352
630.081	4808
630.144	6127
630.207	4440
630.269	7694
630.332	5421
630.395	5874
630.458	5880
630.520	3821
630.583	5820
630.646	5813
630.708	5472
630.771	4561
630.834	6535
630.896	5083
630.959	5814
631.021	4804
631.084	5539
631.146	5846
631.209	6545
631.272	5487
631.334	5731
631.397	5647
631.459	5372
631.522	7309
631.584	7455
631.646	8423
631.709	7573
631.771	7413
631.834	7503
631.896	7107
631.958	5789
632.021	6700
632.083	4938
632.145	5948
632.208	5479
632.270	7132
632.332	4180
632.395	4756
632.457	5543
632.519	4071
632.581	6538
632.643	4391
632.706	6076
632.768	4473
632.830	5946
632.892	4871
632.954	4515
633.016	5938
633.078	5353
633.141	5325
633.203	4303
633.265	5649
633.327	5221
633.389	4566
633.451	5820
633.513	4744
633.575	5652
633.637	4937
633.698	5135
633.760	6546
633.822	6130
633.884	5418
633.946	7277
634.008	6589
634.070	7970
634.132	8712
634.193	8630
634.255	11622
634.317	9687
634.379	11033
634.441	7937
634.502	7057
634.564	7930
634.626	6957
634.687	6797
634.749	6052
634.811	5922
634.873	5036
634.934	4829
634.996	6568
635.057	5100
635.119	4327
635.181	5706
635.242	6748
635.304	3758
635.365	7330
635.427	5185
635.488	5596
635.550	4638
635.611	5835
635.673	4894
635.734	7552
635.796	7114
635.857	8725
635.918	7892
635.980	11251
636.041	10999
636.102	12323
636.164	11928
636.225	12628
636.286	7664
636.348	8071
636.409	7801
636.470	5723
636.531	6115
636.593	4825
636.654	6648
636.715	5587
636.776	5252
636.838	3535
636.899	5405
636.960	4529
637.021	3623
637.082	3885
637.143	4470
637.204	3634
637.265	3329
637.326	5246
637.387	4589
637.448	3216
637.509	4522
637.570	4196
637.631	5348
637.692	2694
637.753	1742
637.814	3664
637.875	3699
637.936	4693
637.997	3156
638.058	3081
638.119	4560
638.179	3444
638.240	3409
638.301	2572
638.362	2177
638.423	3247
638.483	4992
638.544	1442
638.605	3515
638.666	2647
638.726	3592
638.787	4082
638.848	2751
638.908	3014
638.969	2727
639.030	2151
639.090	2175
639.151	2085
639.211	3416
639.272	3066
639.332	4139
639.393	2865
639.453	2842
639.514	4005
639.574	3229
639.635	1913
639.695	4008
639.756	1487
639.816	2977
639.877	2460
639.937	4519
639.997	3562
640.058	1119
640.118	2130
640.178	3355
640.239	2351
640.299	2730
640.359	2835
640.420	3556
640.480	4491
640.540	4396
640.600	4730
640.661	4329
640.721	2822
640.781	4149
640.841	1109
640.901	4175
640.961	3244
641.021	3530
641.082	2647
641.142	2627
641.202	3473
641.262	1255
641.322	3110
641.382	770
641.442	3290
641.502	1980
641.562	3415
641.622	2799
641.682	3333
641.742	3744
641.802	3342
641.861	3396
641.921	2199
641.981	3309
642.041	2891
642.101	2448
642.161	951
642.221	2102
642.280	2634
642.340	1990
642.400	1431
642.460	3088
642.519	1876
642.579	2695
642.639	3586
642.698	420
642.758	4472
642.818	3163
642.877	1748
642.937	2188
642.997	2220
643.056	3050
643.116	660
643.175	3954
643.235	2834
643.294	3194
643.354	3526
643.414	4838
643.473	6077
643.532	7310
643.592	11625
643.651	20760
643.711	38972
643.770	77271
643.830	188411
643.889	345263
643.948	77031
644.008	15533
644.067	8456
644.126	6164
644.186	5529
644.245	4533
644.304	2464
644.363	5431
644.423	1891
644.482	3517
644.541	4145
644.600	1875
644.659	5691
644.719	6949
644.778	12528
644.837	24555
644.896	52960
644.955	110942
645.014	31489
645.073	6421
645.132	4290
645.191	4114
645.250	3735
645.309	5309
645.368	4634
645.427	7508
645.486	11963
645.545	23462
645.604	5425
645.663	4183
645.722	3023
645.781	4478
645.840	5033
645.898	7239
645.957	12549
646.016	17569
646.075	37186
646.134	71177
646.192	195146
646.251	243151
646.310	35427
646.369	10034
646.427	7881
646.486	4222
646.545	4069
646.603	3754
646.662	2801
646.721	2766
646.779	2775
646.838	2863
646.896	5234
646.955	6693
647.014	13552
647.072	27616
647.131	75825
647.189	29267
647.248	3104
647.306	2621
647.365	3272
647.423	495
647.481	3052
647.540	670
647.598	1677
647.657	1167
647.715	2429
647.773	1050
647.832	1942
647.890	444
647.948	202
648.007	1356
648.065	200
648.123	587
648.181	2653
648.240	2165
648.298	282
648.356	1039
648.414	1985
648.472	1154
648.531	1645
648.589	1427
648.647	696
648.705	1762
648.763	1410
648.821	1385
648.879	1587
648.937	2656
648.995	2724
649.053	4968
649.111	9334
649.169	15512
649.227	30073
649.285	65717
649.343	173593
649.401	70512
649.459	10170
649.516	6400
649.574	3716
649.632	6633
649.690	7811
649.748	6695
649.806	8043
649.863	19567
649.921	54689
649.979	30568
650.037	3414
650.094	308
650.152	1714
650.210	-411
650.268	978
650.325	496
650.383	-75
650.440	-385
650.498	1460
650.556	1258
650.613	974
650.671	700
650.728	718
650.786	1198
650.843	2013
650.901	-898
650.958	1566
651.016	952
651.073	693
651.131	-393
651.188	-375
651.246	-46
651.303	-702
651.360	268
651.418	-631
651.475	818
651.532	-441
651.590	33
651.647	-109
651.704	466
651.762	153
651.819	-724
651.876	1150
651.933	329
651.990	963
652.048	-1479
652.105	-348
652.162	1107
652.219	-493
652.276	-486
652.333	-370
652.390	-692
652.448	-566
652.505	-386
652.562	-64
652.619	-834
652.676	602
652.733	465
652.790	354
652.847	-437
652.904	362
652.961	-1404
653.017	-195
653.074	-132
653.131	101
653.188	-947
653.245	-280
653.302	-714
653.359	-510
653.415	517
653.472	-289
653.529	433
653.586	12
653.642	-752
653.699	837
653.756	-757
653.813	-405
653.869	241
653.926	-311
653.983	-686
654.039	905
654.096	-310
654.152	1032
654.209	-509
654.266	19
654.322	-971
654.379	424
654.435	779
654.492	481
654.548	-38
654.605	-82
654.661	858
654.717	4
654.774	-92
654.830	53
654.887	196
654.943	-55
655.000	948
655.056	270
655.112	9
655.168	-495
655.225	-434
655.281	137
655.337	664
655.394	501
655.450	719
655.506	948
655.562	1346
655.618	1884
655.675	-833
655.731	-289
655.787	183
655.843	914
655.899	-242
655.955	2045
656.011	765
656.067	-81
656.123	1519
656.179	1204
656.235	3135
656.291	79
656.347	2053
656.403	224
656.459	141
656.515	895
656.571	144
656.627	140
656.683	455
656.739	1197
656.795	192
656.850	-234
656.906	204
656.962	872
657.018	-366
657.074	252
657.129	1040
657.185	2049
657.241	5472
657.297	2144
657.352	41
657.408	-312
657.464	917
657.519	93
657.575	-1022
657.630	-360
657.686	-105
657.742	-1149
657.797	-195
657.853	-716
657.908	149
657.964	-1048
658.019	69
658.075	-260
658.130	-292
658.186	-503
658.241	411
658.297	-1559
658.352	7
658.407	-236
658.463	-1023
658.518	-921
658.573	155
658.629	-1031
658.684	-472
658.739	483
658.795	-205
658.850	188
658.905	-737
658.960	-148
659.016	-1104
659.071	-428
659.126	-377
659.181	-604
659.236	522
659.291	1404
659.346	-1271
659.401	-185
659.457	420
659.512	-154
659.567	341
659.622	-172
659.677	-265
659.732	-1517
659.787	-338
659.842	-757
659.897	-310
659.952	195
660.007	-925
660.061	-129
660.116	-1119
660.171	-758
660.226	-165
660.281	488
660.336	-110
660.391	-19
660.445	-1193
660.500	390
660.555	-84
660.610	-1248
660.664	-251
660.719	-902
660.774	-159
660.828	377
660.883	-630
660.938	-531
660.992	-1029
661.047	-227
661.101	-658
661.156	-344
661.211	-861
661.265	-236
661.320	-931
661.374	-986
661.429	-1091
661.483	820
661.538	-1091
661.592	-477
661.647	-816
661.701	-447
661.755	-84
661.810	638
661.864	-1446
661.919	-761
661.973	52
662.027	421
662.081	-945
662.136	-1343
662.190	-47
662.244	-6
662.299	-1228
662.353	-590
662.407	-807
662.461	-169
662.515	-726
662.569	-80
662.624	110
662.678	-926
662.732	-544
662.786	-345
662.840	-383
662.894	-435
662.948	130
663.002	203
663.056	-396
663.110	-838
663.164	85
663.218	0
663.272	-215
663.326	-456
663.380	-635
663.434	-942
663.488	-580
663.542	-244
663.595	-608
663.649	38
663.703	337
663.757	-146
663.811	-984
663.864	225
663.918	-421
663.972	-1144
664.026	-92
664.079	-698
664.133	-366
664.187	-763
664.240	300
664.294	-75
664.348	47
664.401	-81
664.455	-216
664.508	-1176
664.562	-288
664.615	894
664.669	-95
664.722	-94
664.776	-427
664.829	-609
664.883	-254
664.936	115
664.990	-505
665.043	-481
665.097	-436
665.150	229
665.203	34
665.257	-540
665.310	-679
665.363	-590
665.417	197
665.470	-306
665.523	689
665.576	1036
665.630	-248
665.683	-100
665.736	724
665.789	-767
665.842	-710
665.895	-733
665.949	382
666.002	-273
666.055	-693
666.108	685
666.161	11
666.214	368
666.267	784
666.320	-269
666.373	-766
666.426	325
666.479	-197
666.532	55
666.585	-200
666.638	830
666.691	374
666.744	166
666.796	-479
666.849	-428
666.902	467
666.955	-312
667.008	-683
667.060	-66
667.113	594
667.166	162
667.219	-177
667.271	-430
667.324	-67
667.377	84
667.430	444
667.482	-423
667.535	261
667.587	526
667.640	-103
667.693	-510
667.745	398
667.798	110
667.850	322
667.903	923
667.955	64
668.008	909
668.060	-346
668.113	284
668.165	-596
668.218	492
668.270	711
668.322	584
668.375	-372
668.427	137
668.479	138
668.532	-98
668.584	-117
668.636	67
668.689	298
668.741	303
668.793	369
668.845	218
668.898	765
668.950	-496
669.002	-103
669.054	-442
669.106	235
669.158	1120
669.211	146
669.263	11
669.315	10
669.367	541
669.419	-60
669.471	781
669.523	687
669.575	507
669.627	-361
669.679	-139
669.731	493
669.783	324
669.835	855
669.886	431
669.938	1227
669.990	-225
670.042	-333
670.094	132
670.146	524
670.197	514
670.249	1606
670.301	568
670.353	1237
670.404	2497
670.456	2805
670.508	4746
670.560	8148
670.611	13276
670.663	23641
670.715	66992
670.766	111447
670.818	37791
670.869	6181
670.921	3428
670.972	2255
671.024	711
671.075	1402
671.127	1227
671.178	543
671.230	778
671.281	1484
671.333	1234
671.384	1443
671.436	2413
671.487	3248
671.538	5428
671.590	8516
671.641	15034
671.692	29176
671.744	57488
671.795	45594
671.846	17441
671.897	7906
671.949	4523
672.000	3086
672.051	2006
672.102	2361
672.153	983
672.204	719
672.256	1295
672.307	1359
672.358	1075
672.409	98
672.460	1138
672.511	240
672.562	-128
672.613	715
672.664	1088
672.715	1128
672.766	317
672.817	245
672.868	799
672.919	357
672.970	680
673.021	-73
673.071	-310
673.122	164
673.173	615
673.224	9
673.275	-2
673.326	374
673.376	-243
673.427	189
673.478	-279
673.528	506
673.579	354
673.630	-298
673.680	1379
673.731	216
673.782	-365
673.832	-119
673.883	105
673.934	208
673.984	128
674.035	205
674.085	160
674.136	879
674.186	-322
674.237	859
674.287	449
674.338	648
674.388	439
674.438	810
674.489	751
674.539	930
674.589	24
674.640	1496
674.690	1126
674.740	576
674.791	590
674.841	13
674.891	-330
674.942	945
674.992	448
675.042	424
675.092	558
675.142	3
675.193	-627
675.243	316
675.293	1170
675.343	-258
675.393	-25
675.443	821
675.493	533
675.543	-258
675.593	24
675.643	354
675.693	313
675.743	586
675.793	783
675.843	39
675.893	475
675.943	176
675.993	-359
676.043	-96
676.093	188
676.142	-319
676.192	118
676.242	260
676.292	264
676.341	-141
676.391	224
676.441	-666
676.491	-74
676.540	-346
676.590	-602
676.640	506
676.689	-504
676.739	-400
676.789	-180
676.838	251
676.888	254
676.937	-517
676.987	-40
677.037	-220
677.086	-803
677.136	-86
677.185	-1
677.235	159
677.284	-951
677.333	-13
677.383	708
677.432	-264
677.482	399
677.531	235
677.580	-406
677.630	99
677.679	-1113
677.728	-267
677.778	-571
677.827	-359
677.876	19
677.925	-148
677.975	-567
678.024	84
678.073	-16
678.122	1045
678.171	241
678.220	-271
678.269	320
678.319	481
678.368	1052
678.417	645
678.466	150
678.515	652
678.564	-335
678.613	20
678.662	-365
678.711	241
678.760	973
678.809	-480
678.857	-713
678.906	-275
678.955	37
679.004	846
679.053	301
679.102	208
679.151	111
679.199	313
679.248	-136
679.297	212
679.346	-436
679.394	-805
679.443	-330
679.492	-504
679.540	-104
679.589	-233
679.638	317
679.686	361
679.735	148
679.784	-147
679.832	234
679.881	-266
679.929	-777
679.978	53
680.026	-550
680.075	762
680.123	-135
680.172	-338
680.220	-788
680.268	33
680.317	13
680.365	-106
680.414	-306
680.462	-444
680.510	851
680.559	-285
680.607	-510
680.655	-622
680.703	-296
680.752	-882
680.800	-262
680.848	-151
680.896	220
680.945	-1463
680.993	-549
681.041	-242
681.089	651
681.137	250
681.185	99
681.233	-297
681.258	-122
681.281	40
681.329	-418
681.377	-423
681.380	-331
681.425	1278
681.473	70
681.502	-3
681.521	-73
681.569	-167
681.617	121
681.624	73
681.665	-273
681.713	-6
681.745	474
681.761	698
681.809	-899
681.857	181
681.867	175
681.904	114
681.952	-128
681.989	205
682.000	309
682.048	526
682.096	-332
682.111	-443
682.143	-718
682.191	27
682.233	279
682.239	311
682.286	-245
682.334	-721
682.354	-195
682.382	502
682.430	252
682.476	152
682.477	145
682.525	-83
682.572	-636
682.598	-277
682.620	45
682.667	-287
682.715	345
682.720	363
682.763	414
682.810	507
682.841	-80
682.857	-391
682.905	-52
682.952	289
682.963	228
683.000	54
683.047	208
683.085	1078
683.095	1294
683.142	847
683.190	-616
683.206	-418
683.237	-75
683.284	417
683.328	-181
683.332	-232
683.379	304
683.426	-509
683.449	-201
683.473	132
683.521	387
683.568	785
683.571	779
683.615	518
683.662	183
683.693	-33
683.709	-129
683.757	-102
683.804	357
683.814	482
683.851	832
683.898	350
683.936	191
683.945	154
683.992	413
684.039	262
684.057	-100
684.086	-644
684.133	174
684.179	249
684.180	245
684.227	489
684.274	477
684.300	513
684.321	522
684.368	-177
684.415	49
684.422	55
684.462	162
684.509	-222
684.543	516
684.556	740
684.603	178
684.649	-40
684.665	119
684.696	554
684.743	911
684.786	747
684.790	724
684.837	583
684.883	1102
684.908	591
684.930	114
684.977	508
685.023	644
685.029	599
685.070	180
685.117	643
685.150	410
685.164	361
685.210	746
685.257	1385
685.272	1343
685.303	1117
685.350	627
685.393	174
685.396	144
685.443	196
685.490	1111
685.514	916
685.536	703
685.583	801
685.629	184
685.636	163
685.675	189
685.722	783
685.757	693
685.768	603
685.815	1184
685.861	670
685.878	654
685.908	682
685.954	204
686.000	981
686.000	994
686.047	671
686.093	978
686.121	1010
686.139	992
686.185	1620
686.232	421
686.242	603
686.278	1204
686.324	778
686.363	350
686.370	287
686.416	800
686.463	1251
686.484	1283
686.509	1288
686.555	677
686.601	634
686.606	656
686.647	849
686.693	670
686.727	759
686.739	804
686.785	1202
686.831	766
686.848	753
686.877	660
686.923	915
686.969	971
686.969	970
687.015	397
687.061	762
687.090	938
687.107	1053
687.153	762
687.199	1346
687.211	1122
687.245	606
687.291	690
687.332	409
687.336	393
687.382	584
687.428	872
687.453	1189
687.474	1319
687.520	763
687.565	1086
687.574	1065
687.611	1157
687.657	1114
687.695	1281
687.702	1292
687.748	881
687.794	1225
687.816	1387
687.839	1535
687.885	782
687.931	662
687.937	734
687.976	1142
688.022	551
688.058	827
688.067	936
688.113	550
688.158	937
688.179	1080
688.204	1184
688.249	1717
688.295	1335
688.300	1340
688.340	1313
688.386	1787
688.421	1349
688.431	1240
688.477	1002
688.522	1446
688.542	1447
688.567	1467
688.613	1219
688.658	1106
688.663	1132
688.703	1321
688.749	1347
688.784	1303
688.794	1299
688.839	1025
688.884	1105
688.905	1094
688.930	1052
688.975	1351
689.020	1146
689.026	1157
689.065	1280
689.110	1435
689.146	1054
689.155	980
689.201	1336
689.246	1794
689.267	1783
689.291	1727
689.336	1731
689.381	1275
689.388	1309
689.426	1497
689.471	1403
689.509	1344
689.516	1335
689.561	970
689.606	1348
689.630	1186
689.651	1101
689.696	974
689.741	1771
689.750	1725
689.785	1423
689.830	1502
689.871	1119
689.875	1096
689.920	1308
689.965	949
689.992	1261
690.010	1506
690.054	1817
690.099	1342
690.112	1448
690.144	1601
690.189	1542
690.233	1733
690.233	1738
690.278	1801
690.323	1934
690.354	1738
690.367	1548
690.412	1622
690.457	1323
690.474	1349
690.501	1574
690.546	1371
690.590	1413
690.595	1419
690.635	1552
690.680	1556
690.716	1546
690.724	1587
690.769	2340
690.813	2832
690.836	2758
690.857	2737
690.902	3326
690.946	4296
690.957	4460
690.991	6313
691.035	9156
691.077	11967
691.080	11960
691.124	9800
691.168	7866
691.198	6672
691.213	6139
691.257	5060
691.301	3850
691.318	3272
691.346	2783
691.390	2124
691.434	2055
691.439	1999
691.478	2045
691.522	1782
691.559	2208
691.567	2283
691.611	1876
691.655	2289
691.680	2040
691.699	1782
691.743	2001
691.787	1473
691.800	1375
691.831	1416
691.875	1696
691.919	2106
691.921	2101
691.964	1965
692.008	2312
692.041	2142
692.052	2082
692.096	2062
692.139	1942
692.162	2008
692.183	2049
692.227	1775
692.271	1586
692.282	1619
692.315	2031
692.359	2240
692.402	2292
692.403	2297
692.447	2499
692.490	2389
692.523	2353
692.534	2291
692.578	2245
692.622	1747
692.643	1620
692.666	1679
692.709	1864
692.753	2041
692.763	2054
692.797	1990
692.840	1738
692.884	1632
692.884	1640
692.928	1867
692.971	2225
693.004	2354
693.015	2330
693.059	2001
693.102	2009
693.124	1753
693.146	1739
693.189	2095
693.233	2569
693.245	2574
693.276	2342
693.320	2683
693.363	2314
693.365	2307
693.407	2635
693.450	2865
693.485	3165
693.493	3348
693.537	3935
693.580	4784
693.605	5285
693.624	6041
693.667	7794
693.710	9622
693.725	10425
693.753	13591
693.797	18469
693.840	24237
693.845	24612
693.883	21476
693.926	17478
693.966	14318
693.970	13977
694.013	10769
694.056	7461
694.086	5185
694.099	4974
694.142	4543
694.185	3883
694.206	3495
694.229	3230
694.272	3148
694.315	3034
694.326	2869
694.358	2567
694.401	2496
694.444	2382
694.446	2365
694.487	2403
694.530	2668
694.566	2819
694.573	2840
694.616	2655
694.659	2699
694.686	2699
694.702	2671
694.745	2434
694.787	2460
694.806	2324
694.830	2207
694.873	2250
694.916	2281
694.926	2257
694.959	2328
695.002	2506
695.044	2433
695.046	2433
695.087	2528
695.130	2434
695.166	2405
695.172	2394
695.215	2129
695.258	2149
695.286	2012
695.301	2119
695.343	2554
695.386	2960
695.406	3056
695.428	2895
695.471	2718
695.514	2527
695.526	2492
695.556	2741
695.599	2923
695.641	3133
695.646	3169
695.684	3153
695.726	2759
695.766	2631
695.769	2654
695.811	2675
695.854	2867
695.886	2855
695.896	2799
695.938	2751
695.981	2543
696.005	2520
696.023	2654
696.065	2861
696.108	3033
696.125	3094
696.150	3085
696.192	3087
696.235	3010
696.245	3023
696.277	3188
696.319	3178
696.361	3368
696.365	3359
696.404	3188
696.446	3081
696.485	2998
696.488	3025
696.530	3214
696.572	3290
696.604	3470
696.614	3393
696.656	2910
696.698	2539
696.724	2258
696.740	2455
696.783	2850
696.825	3398
696.844	3644
696.867	3415
696.909	2899
696.951	2277
696.964	2127
696.992	2386
697.034	2625
697.076	2956
697.083	2998
697.118	3262
697.160	3666
697.202	3875
697.203	3872
697.244	3684
697.286	3430
697.323	3118
697.327	3141
697.369	3370
697.411	3596
697.442	3706
697.453	3695
697.494	3618
697.536	3575
697.562	3481
697.578	3521
697.620	3662
697.661	3776
697.682	3827
697.703	3769
697.744	3730
697.786	3654
697.801	3565
697.828	3723
697.869	4028
697.911	4313
697.921	4389
697.952	4074
697.994	3577
698.035	3055
698.040	2984
698.077	2962
698.118	2948
698.160	2930
698.160	2920
698.201	3104
698.243	3247
698.279	3391
698.284	3448
698.325	3904
698.367	4334
698.399	4615
698.408	4556
698.449	4283
698.491	3969
698.518	3742
698.532	3758
698.573	3828
698.614	3833
698.638	3838
698.656	3882
698.697	3968
698.738	4034
698.757	4065
698.779	4029
698.820	3916
698.862	3816
698.877	3769
698.903	4064
698.944	4509
698.985	4962
698.996	5075
699.026	4994
699.067	4858
699.116	4686
699.235	4290
699.354	4096
699.474	3429
699.593	2997
699.713	4113
699.832	3527
699.951	4125
700.070	4089
700.190	3149
700.309	3892
700.428	3841
700.547	4099
700.667	3597
700.786	3965
700.905	3611
701.024	3624
701.143	3992
701.262	3394
701.381	3726
701.500	2731
701.619	4415
701.738	3795
701.857	3651
701.976	3542
702.095	3935
702.214	3449
702.333	3453
702.452	3310
702.571	3666
702.690	3222
702.809	3232
702.928	4079
703.047	4076
703.165	2970
703.284	3167
703.403	3302
703.522	3530
703.640	3627
703.759	3763
703.878	4575
703.997	3546
704.115	3351
704.234	3255
704.353	2887
704.471	2788
704.590	2439
704.708	3394
704.827	2290
704.946	3443
705.064	2713
705.183	3455
705.301	2811
705.420	4428
705.538	3317
705.656	2754
705.775	3268
705.893	5084
706.012	4366
706.130	3020
706.249	3316
706.367	2743
706.485	3265
706.604	2311
706.722	2424
706.840	3868
706.958	4369
707.077	3105
707.195	2890
707.313	2941
707.431	2896
707.549	2196
707.668	2737
707.786	3129
707.904	3008
708.022	2199
708.140	2764
708.258	2687
708.376	2060
708.494	3159
708.612	2402
708.730	3860
708.848	3780
708.966	3209
709.084	2467
709.202	3707
709.320	2041
709.438	2869
709.556	2656
709.674	3101
709.791	2890
709.909	1982
710.027	2695
710.145	2136
710.263	2780
710.380	1861
710.498	3194
710.616	2442
710.733	2541
710.851	3413
710.969	3015
711.086	2749
711.204	2473
711.322	3066
711.439	2755
711.557	2585
711.674	2971
711.792	2931
711.909	2532
712.027	3000
712.144	2265
712.262	2996
712.379	2819
712.497	3484
712.614	2844
712.732	3110
712.849	3246
712.966	3072
713.084	2876
713.201	2462
713.318	3296
713.436	2905
713.553	3263
713.670	3802
713.787	3698
713.905	3277
714.022	4200
714.139	3366
714.256	5499
714.373	8648
714.490	16689
714.608	56897
714.725	234964
714.842	170534
714.959	12753
715.076	6201
715.193	3488
715.310	4357
715.427	3058
715.544	3024
715.661	3094
715.778	2930
715.895	3360
716.011	3407
716.128	2295
716.245	3002
716.362	2615
716.479	2964
716.596	2206
716.713	2542
716.829	2350
716.946	2578
717.063	2361
717.180	3042
717.296	2194
717.413	2259
717.530	2290
717.646	1397
717.763	2160
717.880	1872
717.996	1991
718.113	1770
718.229	1775
718.346	1826
718.462	2238
718.579	1653
718.695	2827
718.812	2824
718.928	2112
719.045	2055
719.161	1490
719.277	1951
719.394	2060
719.510	2372
719.626	2137
719.743	3980
719.859	6738
719.975	17546
720.092	75464
720.208	133689
720.324	10003
720.440	2668
720.557	2324
720.673	4294
720.789	4609
720.905	8481
721.021	2570
721.137	2200
721.253	2127
721.369	1222
721.486	2053
721.602	2448
721.718	1802
721.834	2273
721.950	1739
722.066	1524
722.181	1534
722.297	1500
722.413	2000
722.529	2227
722.645	1380
722.761	1351
722.877	1555
722.993	2800
723.108	2381
723.224	2693
723.340	2107
723.456	1599
723.571	1002
723.687	1641
723.803	1548
723.918	1322
724.034	967
724.150	1289
724.265	1756
724.381	3426
724.497	2957
724.612	1744
724.728	773
724.843	1179
724.959	1042
725.074	3541
725.190	2932
725.305	2231
725.421	912
725.536	1402
725.651	1370
725.767	968
725.882	1759
725.997	1660
726.113	1035
726.228	1294
726.343	1363
726.459	1446
726.574	1700
726.689	1499
726.804	1838
726.920	1005
727.035	1406
727.150	1678
727.265	1357
727.380	1060
727.495	1532
727.610	1486
727.725	761
727.841	1181
727.956	1689
728.071	1982
728.186	155
728.301	1220
728.416	819
728.531	1512
728.645	493
728.760	1579
728.875	1959
728.990	1375
729.105	1180
729.220	820
729.335	1430
729.449	535
729.564	695
729.679	704
729.794	1032
729.908	1492
730.023	724
730.138	1119
730.253	851
730.367	601
730.482	1223
730.596	1295
730.711	1504
730.826	1357
730.940	1047
731.055	1213
731.169	911
731.284	902
731.398	705
731.513	1284
731.627	1525
731.742	2363
731.856	1979
731.970	2339
732.085	3193
732.199	5484
732.313	11119
732.428	34743
732.542	98582
732.656	41939
732.771	7695
732.885	3549
732.999	3214
733.113	2962
733.227	2391
733.342	2402
733.456	2334
733.570	2457
733.684	2108
733.798	1485
733.912	1534
734.026	2195
734.140	1465
734.254	2072
734.368	2381
734.482	3102
734.596	1354
734.710	2155
734.824	1476
734.938	1804
735.052	1086
735.166	1872
735.280	2060
735.393	2823
735.507	1935
735.621	2227
735.735	2258
735.849	1954
735.962	1990
736.076	2842
736.190	1824
736.303	1377
736.417	2767
736.531	1623
736.644	1016
736.758	926
736.872	1308
736.985	1387
737.099	1098
737.212	1522
737.326	1588
737.439	824
737.553	1625
737.666	492
737.780	1504
737.893	1375
738.007	949
738.120	1653
738.233	1489
738.347	2307
738.460	905
738.573	1996
738.687	1140
738.800	1073
738.913	1049
739.026	1955
739.140	1003
739.253	817
739.366	1371
739.479	723
739.592	1006
739.705	542
739.818	1207
739.932	1918
740.045	1765
740.158	1052
740.271	790
740.384	334
740.497	1199
740.610	1133
740.723	1076
740.836	1906
740.949	1322
741.062	1939
741.174	1317
741.287	1566
741.400	395
741.513	1747
741.626	912
741.739	424
741.851	206
741.964	1546
742.077	743
742.189	303
742.302	2714
742.415	800
742.527	1243
742.640	1361
742.753	1278
742.865	1047
742.978	245
743.090	413
743.203	340
743.316	923
743.428	899
743.541	863
743.653	299
743.766	1704
743.878	886
743.990	934
744.103	2978
744.215	2339
744.327	887
744.440	1356
744.552	2099
744.664	693
744.777	1362
744.889	279
745.001	760
745.113	1163
745.226	830
745.338	456
745.450	844
745.562	943
745.674	851
745.786	1202
745.898	1040
746.010	505
746.122	654
746.234	221
746.347	919
746.459	625
746.570	738
746.682	2293
746.794	3581
746.906	1428
747.018	1478
747.130	694
747.242	1590
747.354	82
747.466	723
747.577	339
747.689	-115
747.801	478
747.913	321
748.024	687
748.136	181
748.248	414
748.359	297
748.471	898
748.583	388
748.694	839
748.806	1354
748.918	-113
749.029	351
749.141	-96
749.252	740
749.364	300
749.475	1323
749.587	1075
749.698	444
749.809	480
749.921	527
750.032	451
750.144	933
750.255	147
750.366	250
750.478	642
750.589	-357
750.700	109
750.811	196
750.923	1007
751.034	692
751.145	1320
751.256	130
751.367	-113
751.479	134
751.590	1024
751.701	145
751.812	-61
751.923	403
752.034	369
752.145	256
752.256	493
752.367	530
752.478	243
752.589	653
752.700	252
752.811	-323
752.922	83
753.032	-70
753.143	45
753.254	-86
753.365	1006
753.476	317
753.586	1094
753.697	101
753.808	121
753.919	766
754.029	68
754.140	386
754.251	1401
754.361	-129
754.472	642
754.582	247
754.693	376
754.804	-25
754.914	-317
755.025	124
755.135	660
755.246	766
755.356	460
755.466	1294
755.577	1330
755.687	1137
755.798	570
755.908	48
756.018	32
756.129	83
756.239	374
756.349	96
756.460	667
756.570	659
756.680	457
756.790	1099
756.900	378
757.011	678
757.121	1013
757.231	-425
757.341	876
757.451	94
757.561	159
757.671	61
757.781	-524
757.891	1658
758.001	90
758.111	305
758.221	958
758.331	414
758.441	571
758.551	693
758.661	910
758.771	884
758.880	210
758.990	173
759.100	699
759.210	1216
759.320	817
759.429	291
759.539	1338
759.649	1205
759.758	1388
759.868	2185
759.978	1144
760.087	2011
760.197	1858
760.307	1237
760.416	463
760.526	1293
760.635	1486
760.745	866
760.854	1962
760.964	1725
761.073	1882
761.182	1339
761.292	1683
761.401	1135
761.511	279
761.620	1036
761.729	966
761.839	206
761.948	1330
762.057	912
762.166	1173
762.276	753
762.385	2147
762.494	1341
762.603	1187
762.712	1003
762.822	942
762.931	2067
763.040	525
763.149	1523
763.258	1349
763.367	1699
763.476	1382
763.585	1619
763.694	1580
763.803	1919
763.912	2962
764.021	2569
764.130	2559
764.238	2581
764.347	2392
764.456	2290
764.565	2707
764.674	3349
764.783	3073
764.891	3240
765.000	5792
765.109	5316
765.217	4831
765.326	7418
765.435	9312
765.543	12237
765.652	12798
765.761	17910
765.869	25011
765.978	38526
766.086	61261
766.195	105741
766.303	197095
766.412	293901
766.520	251650
766.629	136243
766.737	71489
766.846	42691
766.954	29414
767.062	21881
767.171	15911
767.279	13209
767.387	9401
767.496	8671
767.604	7049
767.712	6030
767.820	5188
767.928	5096
768.037	4452
768.145	4964
768.253	4500
768.361	3752
768.469	3593
768.577	4342
768.685	4845
768.793	4360
768.901	4735
769.009	6996
769.117	7502
769.225	10123
769.333	14561
769.441	24736
769.549	44076
769.657	86707
769.765	188628
769.873	241722
769.981	131866
770.088	53861
770.196	29599
770.304	19967
770.412	13356
770.519	9196
770.627	7812
770.735	6866
770.842	5051
770.950	4592
771.058	3827
771.165	3623
771.273	3221
771.380	2871
771.488	3232
771.595	2572
771.703	2255
771.810	2456
771.918	2157
772.025	3036
772.133	3124
772.240	2104
772.348	2667
772.455	2443
772.562	1477
772.670	1885
772.777	2309
772.884	1873
772.991	2383
773.099	1784
773.206	531
773.313	1062
773.420	1589
773.528	1004
773.635	1209
773.742	1414
773.849	1451
773.956	835
774.063	1782
774.170	1592
774.277	1815
774.384	827
774.491	1664
774.598	1215
774.705	1249
774.812	1035
774.919	1911
775.026	1032
775.133	756
775.239	1068
775.346	294
775.453	49
775.560	214
775.667	379
775.773	763
775.880	665
775.987	321
776.093	2201
776.200	581
776.307	484
776.413	1200
776.520	69
776.627	910
776.733	415
776.840	276
776.946	2642
777.053	4256
777.159	6803
777.266	3014
777.372	6987
777.478	4343
777.585	1783
777.691	730
777.798	1239
777.904	1250
778.010	535
778.117	1160
778.223	481
778.329	770
778.435	850
778.542	992
778.648	-43
778.754	-341
778.860	214
778.966	-114
779.072	791
779.178	771
779.284	404
779.391	-189
779.497	-967
779.603	2016
779.708	-601
779.815	1790
779.920	6681
780.026	9031
780.132	296
780.238	-425
780.344	95
780.450	1077
780.556	-105
780.661	-435
780.767	20
780.873	95
780.979	1183
781.085	-437
781.190	128
781.296	65
781.402	-486
781.507	429
781.613	-188
781.719	-46
781.824	440
781.930	776
782.035	336
782.141	-273
782.246	-881
782.352	-628
782.457	-560
782.563	-424
782.668	172
782.773	-511
782.879	-228
782.984	110
783.090	761
783.195	528
783.300	-528
783.405	259
783.511	541
783.616	50
783.721	137
783.826	-653
783.932	555
784.037	180
784.142	-203
784.247	-282
784.352	-426
784.457	-157
784.562	-517
784.667	-224
784.772	-591
784.877	-181
784.982	274
785.087	-85
785.192	204
785.297	-1190
785.402	24
785.507	-222
785.611	-652
785.716	248
785.821	-485
785.926	-972
786.031	-444
786.135	-300
786.240	289
786.345	-739
786.450	274
786.554	225
786.659	-1242
786.763	-1304
786.868	-227
786.973	384
787.077	-1416
787.182	-1238
787.286	52
787.391	-80
787.495	-67
787.600	-626
787.704	-623
787.809	448
787.913	-934
788.017	-228
788.122	-495
788.226	-424
788.330	-1216
788.435	-489
788.539	-179
788.643	-173
788.747	156
788.852	-848
788.956	-761
789.060	-104
789.164	56
789.268	-1080
789.372	248
789.476	-165
789.580	-604
789.684	-890
789.788	263
789.892	-544
789.996	27
790.100	11
790.204	-912
790.308	325
790.412	-803
790.516	56
790.620	-784
790.724	-226
790.828	-1253
790.931	-355
791.035	891
791.139	-1021
791.242	-1490
791.346	44
791.450	-1012
791.554	-775
791.657	-2054
791.761	115
791.864	328
791.968	-362
792.072	-402
792.175	-444
792.279	-179
792.382	-352
792.486	-1088
792.589	-930
792.693	-242
792.796	-480
792.899	85
793.003	-57
793.106	-1949
793.209	-403
793.313	-363
793.416	-2074
793.519	153
793.623	849
793.726	-505
793.829	-1245
793.932	-1070
794.035	-1185
794.138	-259
794.242	198
794.345	-1157
794.448	32
794.551	-1043
794.654	3584
794.757	4848
794.860	27
794.963	-56
795.066	-1382
795.169	191
795.272	-1341
795.375	-277
795.477	-534
795.580	-126
795.683	-1029
795.786	-350
795.889	-1456
795.991	795
796.094	722
796.197	-2049
796.300	30
796.402	-1210
796.505	-588
796.608	-456
796.710	-27
796.813	-199
796.915	-967
797.018	-106
797.120	-244
797.223	-1546
797.326	780
797.428	-874
797.530	81
797.633	-1073
797.735	1119
797.838	-729
797.940	-96
798.042	-1038
798.145	-494
798.247	-246
798.349	-1662
798.452	241
798.554	-469
798.656	-1628
798.758	475
798.860	-1228
798.962	-1611
799.065	-1045
799.167	-1425
799.269	-115
799.371	67
799.473	-29
799.575	-1472
799.677	-1206
799.779	1159
799.881	-1969
799.983	-223
800.085	84
800.187	-261
800.289	-1643
800.390	-1379
800.492	-616
800.594	296
800.696	-601
800.798	-899
800.899	-832
801.001	-602
801.103	-551
801.205	-829
801.306	-382
801.408	-1905
801.509	-1232
801.611	-156
801.713	-184
801.814	-1357
801.916	-1397
802.017	-990
802.119	-1285
802.220	-613
802.322	-2487
802.423	874
802.525	-1532
802.626	-929
802.727	-1027
802.829	-653
802.930	-2088
803.031	611
803.133	-700
803.234	-1109
803.335	-970
803.436	-1583
803.538	-1004
803.639	-1964
803.740	399
803.841	-1426
803.942	-207
804.043	-935
804.144	-1467
804.245	2
804.346	-1266
804.447	-1496
804.548	-1237
804.649	-359
804.750	-617
804.851	-700
804.952	-1185
805.053	-715
805.154	-1439
805.255	-188
805.355	-633
805.456	-1331
805.557	-1277
805.658	-1925
805.758	-301
805.859	-768
805.960	-864
806.061	-1278
806.161	-1437
806.262	-1418
806.362	-1283
806.463	-1151
806.564	-333
806.664	-601
806.765	-869
806.865	-973
806.966	-1327
807.066	-1335
807.166	70
807.267	-86
807.367	-697
807.468	-609
807.568	-2080
807.668	510
807.769	467
807.869	-1948
807.969	-770
808.069	-1237
808.170	-1441
808.270	-1879
808.370	-1181
808.470	-66
808.570	-1547
808.670	-1098
808.770	-731
808.870	-1430
808.970	-936
809.070	-1076
809.170	-1242
809.271	-130
809.370	-789
809.470	-1137
809.570	-626
809.670	-1017
809.770	-1292
809.870	-1195
809.970	-1000
810.070	-918
810.169	-916
810.269	-1788
810.369	-137
810.469	-1391
810.568	-1400
810.668	-2107
810.768	-1284
810.867	-1033
810.967	-1245
811.066	-993
811.166	-1272
811.265	-639
811.365	-1738
811.464	-1044
811.564	-1153
811.663	-635
811.763	-2318
811.862	-440
811.962	-803
812.061	-1521
812.160	-1365
812.260	-814
812.359	-1773
812.458	-1746
812.557	-547
812.657	-837
812.756	-258
812.855	-1278
812.954	-1467
813.053	-611
813.153	-856
813.252	-1965
813.351	-1061
813.450	-1218
813.549	-1403
813.648	-632
813.747	-1908
813.846	-725
813.945	-1452
814.044	-1027
814.143	-1260
814.242	-213
814.341	-1513
814.439	-621
814.538	-632
814.637	-1157
814.736	-1637
814.835	-254
814.933	-1732
815.032	5
815.131	-1306
815.229	633
815.328	142
815.427	-522
815.525	-250
815.624	-224
815.722	-226
815.821	-41
815.919	-360
816.018	-912
816.116	-338
816.215	-723
816.313	-337
816.412	47
816.510	-56
816.609	1159
816.707	551
816.805	-648
816.904	-490
817.002	246
817.100	545
817.198	294
817.296	-934
817.395	-1
817.493	451
817.591	-266
817.689	-349
817.787	-664
817.885	-936
817.983	747
818.081	380
818.179	1428
818.277	3059
818.375	2303
818.473	843
818.571	661
818.669	495
818.767	948
818.865	-366
818.963	272
819.061	-367
819.158	171
819.256	1193
819.354	2254
819.452	5840
819.549	1356
819.647	1065
819.745	-66
819.842	-444
819.940	-63
820.038	-322
820.135	174
820.233	542
820.330	-114
820.428	-550
820.525	543
820.623	-447
820.720	-1138
820.818	266
820.915	-317
821.012	173
821.110	-1095
821.207	515
821.304	-651
821.402	159
821.499	1227
821.596	1967
821.693	1111
821.791	-749
821.888	-478
821.985	938
822.082	-622
822.179	1028
822.276	1064
822.373	165
822.470	-666
822.567	162
822.664	-1035
822.761	-417
822.858	-462
822.955	-387
823.052	560
823.149	-257
823.246	-431
823.343	-932
823.440	332
823.536	-658
823.633	-768
823.730	-878
823.827	-588
823.923	-112
824.020	143
824.117	-25
824.213	-645
824.310	458
824.407	-686
824.503	-111
824.600	-280
824.696	-682
824.793	120
824.889	-661
824.986	-1116
825.082	-828
825.179	239
825.275	-485
825.371	-356
825.468	60
825.564	-1505
825.660	351
825.757	112
825.853	290
825.949	-580
826.045	-358
826.142	-1201
826.238	-749
826.334	313
826.430	-905
826.526	657
826.622	-884
826.718	-1176
826.814	-1178
826.910	155
827.006	-1241
827.102	-1016
827.198	-46
827.294	-510
827.390	-1011
827.486	-526
827.582	-1655
827.678	-900
827.774	-287
827.869	-1236
827.965	21
828.061	-1321
828.157	-896
828.252	-1393
828.348	-1641
828.444	913
828.539	-1740
828.635	-1044
828.731	81
828.826	-1857
828.922	-1005
829.017	-1161
829.113	751
829.208	-1360
829.304	-595
829.399	733
829.495	-1007
829.590	484
829.685	-1393
829.781	21
829.876	-1383
829.971	-1257
830.066	-1239
830.162	-1080
830.257	-388
830.352	-968
830.447	180
830.543	-95
830.638	-1677
830.733	-19
830.828	-668
830.923	487
831.018	-491
831.113	-1050
831.208	-1288
831.303	-563
831.398	-914
831.493	-402
831.588	205
831.683	-651
831.778	-1244
831.873	-928
831.967	115
832.062	-1096
832.157	-2144
832.252	475
832.346	-1039
832.441	43
832.536	-1508
832.631	619
832.725	-33
832.820	-1101
832.914	-1483
833.009	-760
833.104	-1402
833.198	60
833.293	-1067
833.387	32
833.482	-964
833.576	-564
833.670	126
833.765	-249
833.859	-630
833.954	-1
834.048	-498
834.142	-618
834.237	-1248
834.331	-554
834.425	-1523
834.519	-1491
834.613	-901
834.708	-1712
834.802	-930
834.896	-777
834.990	-658
835.084	-879
835.178	-1337
835.272	-559
835.366	-977
835.460	-172
835.554	-962
835.648	-1537
835.742	-408
835.836	-173
835.930	-1166
836.024	-703
836.117	255
836.211	-1390
836.305	-717
836.399	-474
836.493	-2149
836.586	-797
836.680	-1621
836.774	-297
836.867	-183
836.961	-956
837.055	-1452
837.148	-1633
837.242	-964
837.335	-1279
837.429	-870
837.522	-781
837.616	-665
837.709	698
837.803	-1480
837.896	-1
837.989	-1603
838.083	-565
838.176	-704
838.269	-1152
838.363	-318
838.456	-367
838.549	-1089
838.642	-1488
838.735	-101
838.829	612
838.922	-636
839.015	-425
839.108	-801
839.201	-306
839.294	-280
839.387	-649
839.480	-2035
839.573	-799
839.666	-536
839.759	-400
839.852	-1087
839.945	-964
840.038	-1493
840.131	-1235
840.223	-1241
840.316	-137
840.409	-559
840.502	-2063
840.594	-531
840.687	-1856
840.780	-942
840.873	-599
840.965	-1590
841.058	-676
841.150	241
841.243	-1470
841.336	-939
841.428	-726
841.521	-1217
841.613	-1841
841.706	-665
841.798	-873
841.890	-1298
841.983	-2378
842.075	-465
842.167	-476
842.260	-1123
842.352	-222
842.444	-1752
842.537	-226
842.629	150
842.721	-1235
842.813	-911
842.905	-1758
842.997	-408
843.090	-1384
843.182	-802
843.274	-582
843.366	1139
843.458	2395
843.550	667
843.642	-930
843.734	-1423
843.826	-1782
843.918	-587
844.009	67
844.101	-886
844.193	-596
844.285	-569
844.377	-541
844.469	664
844.560	685
844.652	-72
844.744	-869
844.835	-1101
844.927	286
845.019	-905
845.110	-557
845.202	-1040
845.293	-1348
845.385	-1127
845.476	-359
845.568	-1023
845.659	-1007
845.751	-12
845.842	-1373
845.934	-803
846.025	-1074
846.116	-1098
846.208	-721
846.299	-964
846.390	-1203
846.482	-676
846.573	-226
846.664	-1605
846.755	-1461
846.846	244
846.937	-2518
847.029	-1404
847.120	-1036
847.211	-1588
847.302	-657
847.393	-1550
847.484	-963
847.575	-1569
847.666	-1050
847.757	-625
847.847	-1220
847.938	-80
848.029	-598
848.120	-419
848.211	-726
848.302	-1250
848.392	-1193
848.483	-463
848.574	-1436
848.664	-1498
848.755	-1765
848.846	-1254
848.936	-767
849.027	-1695
849.118	-792
849.208	-1098
849.299	573
849.389	1102
849.480	5135
849.570	10146
849.661	22448
849.751	30102
849.841	7919
849.932	70
850.022	-925
850.112	-453
850.203	-1442
850.293	-1278
850.383	-870
850.474	-519
850.564	-1388
850.654	-1035
850.744	-926
850.834	-814
850.924	-1047
851.014	-874
851.104	-1082
851.194	-571
851.284	-1692
851.374	-1418
851.464	-1691
851.554	-935
851.644	-1154
851.734	-609
851.824	-1495
851.914	-1404
852.004	-389
852.094	-590
852.183	-982
852.273	-439
852.363	-805
852.452	-709
852.542	-1168
852.632	-1471
852.721	-381
852.811	-630
852.901	-756
852.990	-1320
853.080	-768
853.169	-820
853.259	-134
853.348	-706
853.438	32
853.527	979
853.617	2554
853.706	5962
853.795	11682
853.885	27320
853.974	51210
854.063	96313
854.152	119184
854.242	37886
854.331	7025
854.420	1815
854.509	1597
854.598	1398
854.687	698
854.777	830
854.866	-61
854.955	43
855.044	46
855.133	-392
855.222	-644
855.311	-1320
855.400	-472
855.488	-731
855.577	-1490
855.666	-760
855.755	-503
855.844	-886
855.933	-1002
856.021	-2003
856.110	-688
856.199	-1532
856.288	-1130
856.376	-1089
856.465	-1529
856.554	-273
856.642	-583
856.731	-635
856.819	-647
856.908	-1149
856.996	-1608
857.085	-1707
857.173	-939
857.262	-200
857.350	-4
857.438	-1093
857.527	-620
857.615	-1460
857.703	-916
857.792	-1504
857.880	-1210
857.968	-948
858.056	-502
858.145	-774
858.233	-747
858.321	-1447
858.409	-57
858.497	-1427
858.585	-994
858.673	-866
858.761	-1196
858.849	-1078
858.937	-1581
859.025	-1356
859.113	-670
859.201	-988
859.289	-757
859.377	-922
859.465	-700
859.552	-1404
859.640	-435
859.728	-1036
859.816	-1186
859.903	-356
859.991	-1344
860.079	-810
860.166	-755
860.254	-971
860.342	-999
860.429	-1280
860.517	-1433
860.604	-393
860.692	-965
860.779	-1252
860.867	-1509
860.954	-1896
861.042	-1468
861.129	-647
861.216	-961
861.304	-740
861.391	-1020
861.478	-759
861.565	-185
861.653	-1310
861.740	-1030
861.827	-1781
861.914	-992
862.001	-1074
862.089	-619
862.176	-1159
862.263	-701
862.350	-997
862.437	-1170
862.524	-1156
862.611	-591
862.698	-769
862.785	-652
862.871	-301
862.958	-1312
863.045	-816
863.132	-549
863.219	-1242
863.306	-2647
863.392	-952
863.479	-1667
863.566	-616
863.652	-945
863.739	-788
863.826	-1332
863.912	-838
863.999	-890
864.086	-1457
864.172	-467
864.259	-502
864.345	-631
864.432	-343
864.518	-482
864.604	-635
864.691	-672
864.777	-162
864.863	-87
864.950	74
865.036	370
865.122	2042
865.209	2759
865.295	1491
865.381	1165
865.467	2033
865.553	3359
865.639	4299
865.726	7474
865.812	15673
865.898	29190
865.984	43125
866.070	78731
866.156	66680
866.242	16168
866.328	4040
866.414	2532
866.499	2384
866.585	1739
866.671	1454
866.757	2108
866.843	936
866.928	890
867.014	1485
867.100	1107
867.186	521
867.271	1443
867.357	318
867.442	1124
867.528	1606
867.614	1487
867.699	1080
867.785	1697
867.870	2051
867.956	1628
868.041	1154
868.127	1825
868.212	1569
868.297	1224
868.383	444
868.468	663
868.553	1834
868.639	1888
868.724	701
868.809	976
868.894	595
868.979	593
869.065	535
869.150	170
869.235	-261
869.320	145
869.405	431
869.490	-11
869.575	-350
869.660	-155
869.745	810
869.830	184
869.915	191
870.000	968
870.085	761
870.169	1512
870.254	461
870.339	-438
870.424	670
870.509	638
870.593	504
870.678	402
870.763	-67
870.847	254
870.932	625
871.016	729
871.101	240
871.186	404
871.270	811
871.355	496
871.439	839
871.523	-526
871.608	863
871.692	760
871.777	660
871.861	564
871.945	-661
872.030	437
872.114	-119
872.198	673
872.282	440
872.367	143
872.451	144
872.535	-196
872.619	-117
872.703	-82
872.787	341
872.871	-292
872.955	-382
873.039	-305
873.123	26
873.207	-546
873.291	-397
873.375	11
873.459	795
873.543	-399
873.627	138
873.711	-363
873.794	-163
873.878	-177
873.962	-485
874.045	-556
874.129	-409
874.137	-360
874.213	124
874.245	-186
874.296	-687
874.352	-701
874.380	-709
874.460	-209
874.464	-190
874.547	2
874.568	137
874.631	510
874.676	487
874.714	484
874.784	104
874.798	23
874.881	1188
874.892	965
874.965	-528
874.999	-166
875.048	327
875.107	-441
875.131	-788
875.215	-342
875.215	-342
875.298	-541
875.323	-522
875.381	-478
875.430	236
875.465	709
875.538	-22
875.548	-129
875.631	-615
875.646	-638
875.714	-660
875.753	-159
875.798	423
875.861	267
875.881	190
875.964	-551
875.968	-551
876.047	-415
876.076	-256
876.130	23
876.183	195
876.213	296
876.291	454
876.296	452
876.379	43
876.398	-30
876.462	-177
876.506	-26
876.545	119
876.613	302
876.628	351
876.711	350
876.721	363
876.794	514
876.828	238
876.877	-277
876.935	-114
876.960	47
877.043	234
877.043	233
877.125	89
877.150	251
877.208	585
877.258	-84
877.291	-458
877.365	-94
877.374	-47
877.456	194
877.472	161
877.539	73
877.579	567
877.622	977
877.687	681
877.704	665
877.787	822
877.794	819
877.869	512
877.901	555
877.952	635
878.008	418
878.034	367
878.115	-269
878.117	-281
878.199	-314
878.222	-109
878.282	581
878.329	1110
878.364	1509
878.437	1175
878.447	1069
878.529	-253
878.544	-175
878.611	422
878.651	423
878.694	528
878.758	340
878.776	260
878.858	522
878.865	556
878.941	830
878.972	398
879.023	-201
879.078	197
879.105	481
879.185	1317
879.187	1335
879.269	1339
879.292	1278
879.351	774
879.399	473
879.433	360
879.506	672
879.516	737
879.598	224
879.613	299
879.680	739
879.720	916
879.762	993
879.827	518
879.844	372
879.926	710
879.933	717
880.007	1112
880.040	962
880.089	732
880.147	1485
880.171	1823
880.253	2851
880.254	2851
880.335	3305
880.360	3742
880.417	6068
880.467	8841
880.499	10405
880.574	10897
880.580	10564
880.662	4052
880.680	3067
880.744	1380
880.787	883
880.825	973
880.893	773
880.907	646
880.989	456
881.000	478
881.070	1322
881.106	1381
881.152	1374
881.213	1203
881.233	1084
881.315	1073
881.319	1073
881.396	1287
881.426	1202
881.478	1231
881.532	1669
881.559	1759
881.639	1210
881.641	1204
881.722	1088
881.745	1081
881.803	1330
881.852	1688
881.885	1833
881.958	1505
881.966	1458
882.047	1343
882.064	1263
882.129	888
882.171	682
882.210	733
882.277	729
882.291	754
882.372	999
882.383	1065
882.454	1410
882.489	1399
882.535	1396
882.596	1582
882.616	1577
882.697	926
882.702	912
882.778	1148
882.808	1260
882.859	1142
882.914	938
882.940	970
883.020	812
883.021	820
883.102	1797
883.127	1838
883.183	1894
883.233	1967
883.264	1690
883.339	1256
883.345	1257
883.426	802
883.445	814
883.507	985
883.551	1002
883.587	1090
883.657	1368
883.668	1544
883.749	2491
883.763	2615
883.830	1612
883.869	1237
883.910	1406
883.975	1533
883.991	1484
884.072	686
884.081	663
884.152	1598
884.187	2040
884.233	2218
884.292	2105
884.314	1914
884.394	1579
884.398	1519
884.475	645
884.504	720
884.555	1145
884.610	980
884.636	1077
884.716	1753
884.716	1761
884.797	1705
884.821	1701
884.877	2006
884.927	2181
884.958	1964
885.033	1756
885.038	1761
885.118	1228
885.139	1143
885.199	1032
885.244	956
885.279	1143
885.350	1593
885.359	1626
885.439	1827
885.456	1794
885.520	1790
885.561	1937
885.600	1624
885.667	1040
885.680	1120
885.760	1446
885.773	1503
885.840	1560
885.878	1607
885.920	1603
885.984	1331
886.000	1384
886.080	1939
886.089	1988
886.160	1766
886.195	1596
886.240	1822
886.300	2148
886.320	2123
886.400	1935
886.406	1918
886.480	1318
886.511	966
886.560	992
886.616	1143
886.640	1217
886.720	1462
886.722	1459
886.800	1152
886.827	1054
886.879	1159
886.932	1224
886.959	1696
887.038	2867
887.039	2876
887.119	2614
887.143	2539
887.198	2129
887.248	1765
887.278	1834
887.354	1895
887.358	1906
887.437	1875
887.459	1906
887.517	2517
887.564	2906
887.596	2399
887.669	1161
887.676	1134
887.755	791
887.774	702
887.835	1241
887.880	1745
887.914	1857
887.985	1766
887.994	1921
888.073	3414
888.090	3698
888.153	3274
888.195	2890
888.232	2361
888.300	1515
888.311	1443
888.391	892
888.405	760
888.470	997
888.510	1204
888.549	1595
888.615	2191
888.628	2195
888.708	2134
888.720	2122
888.787	1838
888.825	1666
888.866	1733
888.930	1772
888.945	1791
889.024	1948
889.035	1951
889.103	2151
889.140	2251
889.182	2174
889.245	2068
889.261	2133
889.340	2377
889.349	2398
889.419	1896
889.454	1631
889.498	1546
889.559	1419
889.577	1513
889.656	1909
889.664	1945
889.735	2435
889.768	2658
889.814	2876
889.873	3143
889.978	1418
890.083	2681
890.187	2719
890.292	2133
890.397	2064
890.501	2056
890.606	1646
890.710	2278
890.815	3882
890.919	3048
891.024	1993
891.128	1610
891.233	2281
891.337	2553
891.442	2773
891.546	1871
891.650	1288
891.755	2436
891.859	3211
891.963	3300
892.068	1851
892.172	1761
892.276	743
892.380	2477
892.484	3221
892.589	3282
892.693	1962
892.797	1770
892.901	1336
893.005	1191
893.109	3069
893.213	1977
893.317	2208
893.421	1629
893.525	1138
893.629	499
893.733	1632
893.837	2129
893.941	1818
894.045	1470
894.148	1343
894.252	1673
894.356	2754
894.460	2695
894.564	2018
894.667	1375
894.771	1917
894.875	1086
894.978	1474
895.082	2210
895.186	2159
895.289	1672
895.393	646
895.496	2206
895.600	2080
895.703	1101
895.807	1584
895.910	1022
896.014	1742
896.117	750
896.221	2372
896.324	1383
896.427	1057
896.531	704
896.634	1601
896.737	1089
896.840	1474
896.944	1578
897.047	1979
897.150	1729
897.253	430
897.356	1268
897.460	1530
897.563	2195
897.666	1787
897.769	2162
897.872	823
897.975	1982
898.078	913
898.181	449
898.284	1046
898.387	2373
898.490	2315
898.593	1388
898.695	594
898.798	1397
898.901	1371
899.004	1653
899.107	1841
899.209	2222
899.312	3081
899.415	1144
899.518	671
899.620	352
899.723	1080
899.826	1700
899.928	682
900.031	527
900.133	1599
900.236	1026
900.338	228
900.441	1743
900.543	793
900.646	69
900.748	1735
900.851	2507
900.953	906
901.055	645
901.158	964
901.260	788
901.362	903
901.465	1030
901.567	1747
901.669	2234
901.771	638
901.873	1630
901.976	903
902.078	1798
902.180	507
902.282	1192
902.384	1448
902.486	2223
902.588	1190
902.690	1335
902.792	422
902.894	1896
902.996	1715
903.098	1105
903.200	784
903.302	1157
903.404	678
903.505	911
903.607	1091
903.709	2205
903.811	1612
903.913	1554
904.014	487
904.116	68
904.218	858
904.319	1745
904.421	2180
904.523	1994
904.624	855
904.726	915
904.827	431
904.929	1464
905.030	1746
905.132	2479
905.233	1737
905.335	894
905.436	1205
905.537	965
905.639	1122
905.740	1372
905.841	1639
905.943	1140
906.044	1378
906.145	1034
906.247	699
906.348	977
906.449	1099
906.550	1635
906.651	1179
906.752	957
906.854	481
906.955	1108
907.056	704
907.157	1362
907.258	1428
907.359	911
907.460	1068
907.561	885
907.662	333
907.762	771
907.863	957
907.964	2168
908.065	805
908.166	1301
908.267	1121
908.367	772
908.468	1056
908.569	1302
908.670	1214
908.770	1245
908.871	611
908.971	699
909.072	1035
909.173	1010
909.273	1422
909.374	1886
909.474	433
909.575	746
909.675	1369
909.776	1396
909.876	665
909.977	1088
910.077	1355
910.177	1380
910.278	1337
910.378	1153
910.478	466
910.579	1506
910.679	982
910.779	1680
910.879	1887
910.980	1106
911.080	1124
911.180	824
911.280	449
911.380	1100
911.480	640
911.580	1282
911.680	1198
911.780	1347
911.880	1850
911.980	374
912.080	498
912.180	1436
912.280	1548
912.380	920
912.480	612
912.580	1337
912.679	1441
912.779	1822
912.879	1446
912.979	1845
913.078	1110
913.178	567
913.278	1061
913.377	906
913.477	1600
913.577	1453
913.676	1153
913.776	2034
913.875	931
913.975	954
914.074	589
914.174	1281
914.273	1168
914.373	1223
914.472	1559
914.572	455
914.671	271
914.770	1524
914.870	1334
914.969	917
915.068	1194
915.167	1969
915.267	1253
915.366	648
915.465	1419
915.564	1403
915.663	1078
915.763	1411
915.862	1360
915.961	1717
916.060	621
916.159	1424
916.258	1012
916.357	1327
916.456	1335
916.555	1705
916.654	1141
916.752	2510
916.851	1683
916.950	1454
917.049	504
917.148	689
917.247	1503
917.345	1112
917.444	779
917.543	973
917.642	957
917.740	2389
917.839	2013
917.937	2615
918.036	1858
918.135	882
918.233	413
918.332	1339
918.430	778
918.529	849
918.627	726
918.726	2704
918.824	2041
918.923	874
919.021	1481
919.119	1462
919.218	587
919.316	1689
919.414	838
919.512	1773
919.611	1765
919.709	1515
919.807	1942
919.905	2103
920.003	1925
920.102	1979
920.200	1924
920.298	2436
920.396	1701
920.494	1582
920.592	1313
920.690	2441
920.788	2294
920.886	1727
920.984	2323
921.082	1721
921.180	2552
921.277	1718
921.375	3044
921.473	4831
921.571	4235
921.669	3287
921.766	3289
921.864	3624
921.962	3754
922.060	2787
922.157	3059
922.255	3180
922.352	3732
922.450	4186
922.548	4055
922.645	4397
922.743	5018
922.840	9157
922.938	10707
923.035	8727
923.133	8083
923.230	9962
923.327	11530
923.425	11170
923.522	10048
923.619	9606
923.717	9548
923.814	8958
923.911	8685
924.008	9544
924.106	8556
924.203	7689
924.300	8932
924.397	8885
924.494	9208
924.591	8528
924.688	8366
924.786	8416
924.883	7885
924.979	9143
925.077	9071
925.173	7634
925.270	7883
925.367	7696
925.464	8788
925.561	9286
925.658	9745
925.755	7795
925.852	8829
925.948	8835
926.045	8708
926.142	9257
926.239	9215
926.335	7479
926.432	9021
926.529	9414
926.625	9840
926.722	7817
926.818	7458
926.915	8081
927.011	7886
927.108	7772
927.204	8280
927.301	7562
927.397	8315
927.494	8616
927.590	5601
927.687	6874
927.783	9284
927.879	8742
927.976	7066
928.072	6689
928.168	7686
928.264	7405
928.361	6201
928.457	7720
928.553	7001
928.649	7560
928.745	7008
928.841	6541
928.937	6601
929.033	7370
929.129	7028
929.225	7847
929.321	6378
929.417	5771
929.513	7818
929.609	6743
929.705	7018
929.801	7572
929.897	5073
929.993	6054
930.089	6131
930.184	5260
930.280	6067
930.376	8170
930.471	6093
930.567	5427
930.663	6585
930.758	6106
930.854	5935
930.950	6587
931.045	4938
931.141	6529
931.236	7648
931.332	5875
931.427	4781
931.523	7428
931.618	6304
931.714	4614
931.809	5908
931.905	5845
932.000	4873
932.095	5253
932.191	7114
932.286	7692
932.381	5828
932.476	4404
932.572	6468
932.667	5127
932.762	4498
932.857	6374
932.952	6581
933.047	5825
933.142	4027
933.237	5857
933.332	6326
933.427	6766
933.522	6111
933.617	4343
933.712	5136
933.807	6472
933.902	7333
933.997	6666
934.092	3904
934.187	4840
934.282	5354
934.376	5678
934.471	5978
934.566	5409
934.661	4773
934.755	6112
934.850	6163
934.945	4961
935.039	4667
935.134	4006
935.228	4476
935.323	6689
935.417	4282
935.512	3592
935.606	4937
935.701	5168
935.795	5541
935.890	5470
935.984	4571
936.079	4541
936.173	4913
936.267	4808
936.362	3561
936.456	4897
936.550	6625
936.644	4846
936.738	3580
936.833	3285
936.927	3063
937.021	4935
937.115	3812
937.209	4096
937.303	4238
937.397	3547
937.491	4079
937.585	5341
937.679	5377
937.773	3495
937.867	3782
937.961	3334
938.055	5396
938.149	5157
938.243	3346
938.337	4348
938.430	3995
938.524	6355
938.618	5490
938.712	4618
938.805	4114
938.899	5201
938.993	6500
939.086	3332
939.180	5190
939.274	5816
939.367	5626
939.461	5058
939.554	3612
939.648	2700
939.741	3819
939.835	4205
939.928	5532
940.022	3942
940.115	3744
940.208	4846
940.302	5135
940.395	5839
940.488	3199
940.582	4008
940.675	2757
940.768	3278
940.861	3690
940.954	5360
941.048	2463
941.141	2653
941.234	2580
941.327	4153
941.420	3777
941.513	4487
941.606	3267
941.699	3853
941.792	4330
941.885	3288
941.978	4393
942.071	4210
942.164	2308
942.257	2777
942.349	3024
942.442	4040
942.535	2650
942.628	4164
942.721	3279
942.813	2702
942.906	3485
942.999	3298
943.091	2252
943.184	2974
943.277	2209
943.369	2685
943.462	1979
943.554	3474
943.647	2611
943.739	3689
943.832	4624
943.924	1754
944.017	2311
944.109	1961
944.201	2969
944.294	3099
944.386	3773
944.478	3681
944.571	3388
944.663	2559
944.755	2816
944.847	3297
944.940	3194
945.032	2360
945.124	1683
945.216	3546
945.308	3002
945.400	2536
945.492	2922
945.584	4000
945.676	4125
945.768	2777
945.860	3449
945.952	5004
946.044	3899
946.136	3300
946.228	2300
946.320	2273
946.412	2287
946.503	3655
946.595	4058
946.687	1897
946.779	1496
946.870	2572
946.962	1800
947.054	2763
947.145	2993
947.237	2705
947.329	2599
947.420	3124
947.512	2457
947.603	1297
947.695	2216
947.786	1852
947.878	1850
947.969	2948
948.061	2161
948.152	3376
948.243	2187
948.335	1641
948.426	988
948.517	2490
948.609	2842
948.700	2467
948.791	1862
948.882	773
948.973	1736
949.065	3262
949.156	3484
949.247	744
949.338	2355
949.429	1534
949.520	2089
949.611	2457
949.702	3567
949.793	2032
949.884	2440
949.975	2231
950.066	1008
950.157	2171
950.247	1990
950.338	2091
950.429	1637
950.520	2450
950.611	1122
950.701	2268
950.792	2795
950.883	2302
950.973	1800
951.064	2875
951.155	1804
951.245	2769
951.336	2994
951.427	2129
951.517	3912
951.608	2015
951.698	2148
951.788	1444
951.879	1512
951.969	1911
952.060	1317
952.150	2558
952.240	2414
952.331	1088
952.421	3745
952.511	817
952.602	1082
952.692	1600
952.782	1580
952.872	2497
952.962	2455
953.052	1469
953.143	1505
953.233	2376
953.323	2604
953.413	1608
953.503	2552
953.593	2284
953.683	1828
953.773	739
953.863	1114
953.953	770
954.042	2162
954.132	2021
954.222	1878
954.312	1094
954.402	1746
954.492	2392
954.581	1809
954.671	1406
954.761	1220
954.850	3576
954.940	1672
955.030	1874
955.119	1383
955.209	2334
955.298	1574
955.388	1462
955.477	2787
955.567	1047
955.656	1815
955.746	2598
955.835	821
955.925	1901
956.014	1674
956.103	1882
956.193	2665
956.282	3223
956.371	1972
956.461	2005
956.550	2248
956.639	2219
956.728	1369
956.817	2396
956.906	1377
956.995	1971
957.085	1546
957.174	1975
957.263	1789
957.352	2632
957.441	1458
957.530	1896
957.619	1906
957.708	1890
957.796	1119
957.885	1247
957.974	1553
958.063	2162
958.152	1283
958.241	1536
958.329	2213
958.418	1665
958.507	1464
958.596	3426
958.684	1679
958.773	2251
958.861	855
958.950	1135
959.039	1833
959.127	1333
959.216	2013
959.304	1361
959.393	2380
959.481	2342
959.570	1889
959.658	1729
959.746	1694
959.835	2246
959.923	2414
960.011	1992
960.100	2255
960.188	2596
960.276	1332
960.365	2033
960.453	945
960.541	282
960.629	1359
960.717	1164
960.805	320
960.893	1585
960.981	767
961.069	3405
961.158	2023
961.245	3491
961.333	2848
961.421	1512
961.509	1311
961.597	1850
961.685	883
961.773	2062
961.861	1822
961.949	1877
962.036	442
962.124	1195
962.212	801
962.299	803
962.387	742
962.475	1279
962.562	739
962.650	2300
962.738	1233
962.825	663
962.913	1250
963.000	1178
963.088	1169
963.175	1281
963.263	1146
963.350	1258
963.438	1663
963.525	463
963.612	1582
963.700	1940
963.787	5633
963.874	1857
963.962	1467
964.049	466
964.136	1039
964.223	324
964.310	458
964.398	169
964.485	1481
964.572	1399
964.659	1939
964.746	1859
964.833	1279
964.920	1200
965.007	1839
965.094	1224
965.181	955
965.268	1062
965.355	1173
965.441	716
965.528	177
965.615	1756
965.702	787
965.789	1402
965.875	2154
965.962	1758
966.049	403
966.136	2438
966.222	651
966.309	1987
966.395	1306
966.482	1778
966.569	617
966.655	1411
966.742	1039
966.828	1680
966.915	625
967.001	1218
967.087	-50
967.174	554
967.260	1510
967.347	1298
967.433	1974
967.519	2772
967.605	836
967.692	1446
967.778	1181
967.864	578
967.950	1010
968.036	215
968.123	1030
968.209	1393
968.295	439
968.381	1864
968.467	1183
968.553	-568
968.639	1812
968.725	382
968.811	2245
968.897	2138
968.983	521
969.069	-200
969.154	213
969.240	1401
969.326	101
969.412	537
969.497	751
969.583	801
969.669	1736
969.755	911
969.840	579
969.926	2019
970.012	2121
970.097	4188
970.183	2315
970.268	1729
970.354	1759
970.439	984
970.525	2711
970.610	666
970.696	1600
970.781	523
970.866	274
970.952	1364
971.037	-76
971.122	1225
971.208	898
971.293	1501
971.378	69
971.463	759
971.549	1652
971.634	201
971.719	1369
971.804	568
971.889	729
971.974	1628
972.059	371
972.144	1433
972.229	748
972.314	674
972.399	989
972.484	850
972.569	621
972.654	239
972.739	2073
972.824	1983
972.908	1464
972.993	246
973.078	781
973.163	1440
973.247	1449
973.332	-388
973.417	2276
973.501	-169
973.586	905
973.671	1155
973.755	1175
973.840	1304
973.924	1984
974.009	699
974.093	891
974.178	2390
974.262	1629
974.346	655
974.431	964
974.515	711
974.600	600
974.684	901
974.768	512
974.852	1768
974.937	-85
975.021	1863
975.105	996
975.189	686
975.273	117
975.358	121
975.442	-402
975.526	1464
975.610	-279
975.694	-114
975.778	1682
975.862	1031
975.946	-2086
976.030	2227
976.114	325
976.198	611
976.281	845
976.365	1731
976.449	796
976.533	362
976.617	-72
976.700	799
976.784	1121
976.868	838
976.951	873
977.035	468
977.119	693
977.202	654
977.286	923
977.369	1676
977.453	2881
977.536	1455
977.620	2459
977.703	2003
977.787	573
977.870	1934
977.953	2211
978.037	-338
978.120	1935
978.203	591
978.287	1094
978.370	1134
978.453	990
978.536	710
978.620	1138
978.703	1511
978.786	107
978.869	288
978.952	562
979.035	2416
979.118	672
979.201	694
979.284	1648
979.367	285
979.450	1240
979.533	209
979.616	939
979.699	1660
979.782	1215
979.865	1268
979.948	390
980.030	-61
980.113	739
980.196	-392
980.279	912
980.361	551
980.444	389
980.526	2034
980.609	1850
980.692	2431
980.774	2102
980.857	292
980.939	1791
981.022	1807
981.104	599
981.187	960
981.269	1973
981.352	722
981.434	-365
981.516	691
981.599	1229
981.681	1386
981.763	1055
981.846	1903
981.928	728
982.010	103
982.092	354
982.174	1393
982.256	490
982.339	1245
982.421	1318
982.503	1137
982.585	595
982.667	325
982.749	1803
982.831	750
982.913	536
982.995	1918
983.077	1197
983.158	2930
983.240	430
983.322	2217
983.404	3848
983.486	1558
983.568	2139
983.649	1693
983.731	2041
983.813	1603
983.894	1620
983.976	1280
984.058	896
984.139	2664
984.221	96
984.302	2476
984.384	1049
984.465	1322
984.547	1387
984.628	1012
984.710	1982
984.791	1196
984.872	1258
984.954	637
985.035	1679
985.116	999
985.198	1071
985.279	2205
985.360	447
985.441	1866
985.522	2490
985.604	1731
985.685	318
985.766	2146
985.847	2024
985.928	745
986.009	1413
986.090	1437
986.171	2726
986.252	1375
986.333	1890
986.414	1220
986.495	1483
986.576	2092
986.656	1377
986.737	2448
986.818	1836
986.899	1558
986.980	1439
987.060	1547
987.141	1321
987.222	2412
987.302	2508
987.383	2795
987.464	2633
987.544	2795
987.625	2396
987.705	2710
987.786	3166
987.866	1646
987.947	1444
988.027	2589
988.108	1418
988.188	1725
988.268	1869
988.349	2165
988.429	2016
988.509	2254
988.589	1985
988.670	1732
988.750	2888
988.830	1218
988.910	1626
988.990	2300
989.070	1692
989.151	2339
989.231	1190
989.311	2764
989.391	2130
989.471	2222
989.551	1308
989.631	1283
989.711	2263
989.791	1348
989.870	1527
989.950	2566
990.030	2261
990.110	1462
990.190	300
990.269	1872
990.349	957
990.429	1675
990.509	1497
990.588	556
990.668	1633
990.747	2055
990.827	1143
990.907	1430
990.986	1283
991.066	1091
991.145	536
991.225	1941
991.304	1703
991.383	936
991.463	1046
991.542	1571
991.622	1387
991.701	772
991.780	1610
991.859	948
991.939	697
992.018	1068
992.097	1504
992.176	1708
992.256	866
992.335	994
992.414	2171
992.493	897
992.572	640
992.651	2612
992.730	1243
992.809	1561
992.888	533
992.967	1031
993.046	511
993.125	-581
993.203	540
993.282	463
993.361	442
993.440	1995
993.519	-470
993.597	1074
993.676	876
993.755	1761
993.834	1715
993.912	-250
993.991	1307
994.069	411
994.148	1008
994.226	900
994.305	299
994.384	-358
994.462	2133
994.540	-10
994.619	274
994.697	1381
994.776	451
994.854	1659
994.932	924
995.011	-109
995.089	214
995.167	452
995.245	934
995.324	-195
995.402	930
995.480	364
995.558	872
995.636	267
995.714	645
995.792	1753
995.870	825
995.948	326
996.026	385
996.104	-815
996.182	688
996.260	628
996.338	667
996.416	-473
996.494	-238
996.572	1082
996.649	-418
996.727	-507
996.805	638
996.883	453
996.960	548
997.038	566
997.116	-513
997.193	5
997.271	-66
997.348	40
997.426	946
997.504	-198
997.581	717
997.658	1480
997.736	-1849
997.813	-137
997.891	465
997.968	-738
998.046	-127
998.123	64
998.200	947
998.277	118
998.355	350
998.432	-1132
998.509	307
998.586	1286
998.663	-1000
998.741	171
998.818	-97
998.895	-782
998.972	459
999.049	498
999.126	-702
999.203	675
999.280	360
999.357	-29
999.434	-170
999.511	-221
999.587	270
999.664	-878
999.741	-485
999.818	-332
999.895	-608
999.971	188
1000.048	-585
1000.125	124
1000.202	-546
1000.278	-975
1000.355	-259
1000.431	-557
1000.508	-468
1000.584	497
1000.661	71
1000.738	-546
1000.814	-127
1000.890	429
1000.967	-499
1001.043	-4
1001.120	-1254
1001.196	922
1001.272	-992
1001.349	-379
1001.425	699
1001.501	453
1001.577	-1341
1001.654	-104
1001.730	-1222
1001.806	-169
1001.882	-1945
1001.958	455
1002.034	-492
1002.110	-400
1002.186	-1200
1002.262	-915
1002.338	-835
1002.414	-367
1002.490	847
1002.566	-1181
1002.642	-806
1002.718	90
1002.794	-472
1002.870	-452
1002.945	-1501
1003.021	-356
1003.097	-674
1003.173	-350
1003.248	-1023
1003.324	-224
1003.400	-582
1003.475	-925
1003.551	-298
1003.626	-672
1003.702	-580
1003.777	-570
1003.853	-1652
1003.928	-1436
1004.004	-1146
1004.079	-334
1004.155	-539
1004.230	-649
1004.305	98
1004.381	-526
1004.456	-1110
1004.531	93
1004.607	-988
1004.682	-1509
1004.757	-591
1004.832	-910
1004.907	-1542
1004.982	-7
1005.057	-425
1005.133	-1161
1005.208	-1011
1005.283	-1087
1005.358	-362
1005.433	-1389
1005.508	-1381
1005.583	-1665
1005.657	-1147
1005.732	-229
1005.807	-722
1005.882	-846
1005.957	-231
1006.032	36
1006.106	-662
1006.181	-1244
1006.256	-573
1006.331	-1140
1006.405	-795
1006.480	13
1006.554	-828
1006.629	-303
1006.704	-1578
1006.778	-672
1006.853	257
1006.927	-955
1007.002	-1252
1007.076	-1763
1007.150	-717
1007.225	-366
1007.299	-885
1007.373	-1117
1007.448	-1078
1007.522	352
1007.596	-387
1007.671	-1473
1007.745	-1087
1007.819	-1516
1007.893	-564
1007.967	-983
1008.041	-1762
1008.115	-779
1008.190	-1609
1008.264	-1059
1008.338	-1832
1008.412	-1099
1008.486	-1979
1008.560	-560
1008.633	-1003
1008.707	-331
1008.781	-1009
1008.855	-441
1008.929	-1177
1009.003	-1393
1009.076	-651
1009.150	-556
1009.224	-1127
1009.298	-132
1009.371	-2054
1009.445	-500
1009.519	-962
1009.592	-1675
1009.666	-1173
1009.739	-604
1009.813	-1659
1009.886	-578
1009.960	-2234
1010.033	-883
1010.107	-547
1010.180	-1603
1010.253	-1223
1010.327	-1137
1010.400	-772
1010.473	-1117
1010.547	267
1010.620	-1353
1010.693	-447
1010.766	-1410
1010.840	-439
1010.913	-582
1010.986	-1369
1011.059	-298
1011.132	-1533
1011.205	-190
1011.278	-702
1011.351	-939
1011.424	-1055
1011.497	-656
1011.570	-1437
1011.643	-671
1011.716	-1926
1011.789	-1270
1011.862	-577
1011.934	-211
1012.007	-2124
1012.080	-1515
1012.153	-1147
1012.225	-718
1012.298	-1481
1012.371	-1530
1012.443	349
1012.516	-1126
1012.588	-624
1012.661	-1620
1012.733	-1560
1012.806	-852
1012.879	-1503
1012.951	-893
1013.023	-828
1013.096	-1337
1013.168	-1997
1013.241	-593
1013.313	-1273
1013.385	-2244
1013.458	-1347
1013.530	-304
1013.602	-1687
1013.674	-1237
1013.746	-2375
1013.819	-715
1013.891	-561
1013.963	-648
1014.035	-1066
1014.107	-1356
1014.179	-1199
1014.251	-1536
1014.323	-1271
1014.395	-725
1014.467	-892
1014.539	-1298
1014.611	-1673
1014.683	-863
1014.754	-1153
1014.826	-2470
1014.898	-1391
1014.970	-1966
1015.042	-233
1015.113	-1020
1015.185	-726
1015.257	-1677
1015.328	-868
1015.400	-2349
1015.471	-1097
1015.543	-1548
1015.615	-1290
1015.686	-1240
1015.757	-698
1015.829	-1677
1015.901	-1980
1015.972	-1085
1016.043	-1029
1016.115	-1044
1016.186	-983
1016.257	-2466
1016.328	-1084
1016.400	-758
1016.471	-1975
1016.542	-1280
1016.613	-2268
1016.685	-1286
1016.756	-665
1016.827	-1125
1016.898	-2327
1016.969	-1126
1017.040	-1709
1017.111	-1399
1017.182	-584
1017.253	-1466
1017.324	-1721
1017.395	-1328
1017.466	-919
1017.537	-1814
1017.608	-1463
1017.678	-1291
1017.749	-893
1017.820	-1694
1017.891	-2787
1017.961	-1806
1018.032	-1632
1018.103	-643
1018.173	-1003
1018.244	-2042
1018.315	-1838
1018.385	-718
1018.456	-1754
1018.526	-952
1018.597	-2121
1018.667	-205
1018.738	-2101
1018.808	-1310
1018.878	-1013
1018.949	-1579
1019.019	-1854
1019.089	-1002
1019.160	-1290
1019.230	-1469
1019.300	-1104
1019.371	-1762
1019.441	-1099
1019.511	-1268
1019.581	-1651
1019.651	-1369
1019.721	-1570
1019.791	-1783
1019.861	-1194
1019.931	-960
1020.001	-1847
1020.071	-2021
1020.141	-2216
1020.211	-1566
1020.281	-2102
1020.351	-2038
1020.421	-1431
1020.491	-701
1020.560	-1339
1020.630	-1688
1020.700	-1592
1020.770	-1834
1020.839	-2895
1020.909	-1993
1020.979	-2305
1021.048	-1497
1021.118	-1486
1021.187	-1043
1021.257	-2059
1021.326	-1931
1021.396	-1962
1021.465	-1797
1021.535	-1905
1021.604	-2338
1021.674	-1259
1021.743	-1406
1021.812	-1908
1021.882	-2001
1021.951	-2126
1022.020	-1642
1022.089	-2134
1022.159	-1956
1022.228	-1548
1022.297	-1776
1022.366	-1766
1022.435	-1518
1022.504	-1858
1022.573	-2301
1022.642	-1616
1022.711	-1859
1022.781	-1767
1022.849	-784
1022.918	-2180
1022.987	-1557
1023.056	-1837
1023.125	-2153
1023.194	-1675
1023.263	-1686
1023.331	-1543
1023.400	-1851
1023.469	-1015
1023.538	-1091
1023.606	-1590
1023.675	-1701
1023.744	-2049
1023.812	-2673
1023.881	-947
1023.949	-2117
1024.018	-2291
1024.086	-1746
1024.155	-2135
1024.223	-1486
1024.292	-2031
1024.360	-2063
1024.429	-968
1024.497	-1999
1024.565	-1416
1024.634	-2220
1024.702	-2107
1024.770	-1972
1024.838	-2585
1024.907	-769
1024.975	-1740
1025.043	-1953
1025.111	-2014
1025.179	-1413
1025.247	-2233
1025.315	-1666
1025.383	-1499
1025.451	-1617
1025.519	-1791
1025.587	-2192
1025.655	-1165
1025.723	-1268
1025.791	-1758
1025.859	-961
1025.927	-991
1025.995	-2081
1026.062	-1124
1026.130	-1643
1026.198	-2111
1026.266	-1575
1026.333	-1434
1026.401	-1543
1026.469	-1925
1026.536	-1465
1026.604	-1660
1026.671	-2104
1026.739	-1513
1026.806	-2373
1026.874	-2577
1026.941	-1763
1027.009	-2160
1027.076	-2302
1027.144	-1521
1027.211	-2242
1027.278	-2733
1027.345	-2067
1027.413	-1812
1027.480	-1976
1027.547	-2040
1027.614	-1179
1027.682	-2011
1027.749	-1854
1027.816	-1348
1027.883	-2349
1027.950	-1181
1028.017	-1544
1028.084	-1046
1028.151	-2032
1028.218	-1899
1028.285	-1718
1028.352	-1782
1028.419	-2093
1028.486	-1714
1028.553	-1704
1028.619	-2251
1028.686	-1915
1028.753	-1728
1028.820	-2161
1028.886	-2535
1028.953	-1470
1029.020	-1930
1029.086	-1738
1029.153	-2470
1029.220	-1457
1029.286	-2154
1029.353	-1089
1029.419	-1864
1029.486	-1873
1029.552	-1954
1029.619	-2508
1029.685	-1806
1029.751	-2227
1029.818	-923
1029.884	-2189
1029.951	-899
1030.017	-1903
1030.083	-2599
1030.149	-1440
1030.216	-1617
1030.282	-1613
1030.348	-1867
1030.414	-2271
1030.480	-2468
1030.546	-2374
1030.612	-1571
1030.678	-2422
1030.744	-2337
1030.810	-2136
1030.876	-1648
1030.942	-2744
1031.008	-1868
1031.074	-1961
1031.140	-2236
1031.206	-1202
1031.272	-2874
1031.337	-2092
1031.403	-1093
1031.469	-2213
1031.534	-2369
1031.600	-1428
1031.666	-2427
1031.731	-1509
1031.797	-2220
1031.863	-2009
1031.928	-2440
1031.994	-1562
1032.059	-2487
1032.125	-2265
1032.190	-2316
1032.256	-1930
1032.321	-2003
1032.386	-1774
1032.452	-751
1032.517	-2390
1032.582	-2373
1032.647	-2289
1032.713	-2280
1032.778	-1933
1032.843	-1934
1032.908	-2354
1032.974	-1694
1033.039	-2310
1033.104	-1667
1033.169	-2357
1033.234	-1687
1033.299	-771
1033.364	-1616
1033.429	-2455
1033.494	-1889
1033.559	-2880
1033.624	-1791
1033.688	-1356
1033.753	-2017
1033.818	-1393
1033.883	-1784
1033.948	-1594
1034.013	-1592
1034.077	-1897
1034.142	-755
1034.207	315
1034.271	450
1034.336	1603
1034.400	526
1034.465	-623
1034.530	-1902
1034.594	-2150
1034.658	-1984
1034.723	-2643
1034.787	-2296
1034.852	-1765
1034.916	-2467
1034.981	-2067
1035.045	-2275
1035.109	-1410
1035.173	-1490
1035.238	-1825
1035.302	-2465
1035.366	-1914
1035.430	-2250
1035.495	-1590
1035.559	-1400
1035.623	-1598
1035.687	-2382
1035.751	-1077
1035.815	-1674
1035.879	-1796
1035.943	-1904
1036.007	-1839
1036.071	-2514
1036.135	-1744
1036.198	-1957
1036.262	-1760
1036.326	-1499
1036.390	-1870
1036.454	-1393
1036.517	-1872
1036.581	-1400
1036.645	-1107
1036.709	-1602
1036.772	-2625
1036.836	-2090
1036.900	-2204
1036.963	-2107
1037.026	-1673
1037.090	-2103
1037.154	-2116
1037.217	-2497
1037.280	-1713
1037.344	-2212
1037.407	-1510
1037.471	-2797
1037.534	-2437
1037.597	-2151
1037.661	-1759
1037.724	-2168
1037.787	-2380
1037.850	-1998
1037.913	-2816
1037.977	-1177
1038.040	-1841
1038.103	-2563
1038.166	-2008
1038.229	-2218
1038.292	-1745
1038.355	-2685
1038.418	-2800
1038.481	-1816
1038.544	-1872
1038.607	-2431
1038.670	-2163
1038.732	-2493
1038.795	-2556
1038.858	-2339
1038.921	-2284
1038.984	-1932
1039.046	-1867
1039.109	-3258
1039.172	-2218
1039.234	-2160
1039.297	-1803
1039.360	-2208
1039.422	-2544
1039.485	-1892
1039.547	-2220
1039.610	-1692
1039.672	-2071
1039.734	-2522
1039.797	-1781
1039.859	-2208
1039.922	-2078
1039.984	-1608
1040.046	-2118
1040.109	-1876
1040.171	-1946
1040.233	-2235
1040.295	-2080
1040.358	-1797
1040.420	-2377
1040.482	-2375
1040.544	-2067
1040.606	-1664
1040.668	-2298
1040.730	-2005
1040.792	-1953
1040.854	-1878
1040.916	-1897
1040.978	-2123
1041.040	-1950
1041.102	-1601
1041.164	-2718
1041.225	-2596
1041.287	-1971
1041.349	-2002
1041.411	-2015
1041.472	-2677
1041.534	-2209
1041.596	-3026
1041.657	-2799
1041.719	-2280
1041.781	-2519
1041.842	-2150
1041.904	-2933
1041.965	-1570
1042.027	-2590
1042.088	-1769
1042.150	-1720
1042.211	-2981
1042.272	-2401
1042.334	-1839
1042.395	-1349
1042.456	-1997
1042.518	-1244
1042.579	-1809
1042.640	-1785
1042.701	-1497
1042.763	-2138
1042.824	-2245
1042.885	-2152
1042.946	-2502
1043.007	-1297
1043.068	-1954
1043.129	-1290
1043.190	-2150
1043.251	-1426
1043.312	-2464
1043.373	-2327
1043.434	-2187
1043.495	-2419
1043.556	-2560
1043.616	-1819
1043.677	-3110
1043.738	-1287
1043.799	-2135
1043.859	-1330
1043.920	-1909
1043.981	-2403
1044.041	-1568
1044.102	-1686
1044.162	-2053
1044.223	-1928
1044.284	-1845
1044.344	-1531
1044.405	-1415
1044.465	-1515
1044.525	-2190
1044.586	-2479
1044.646	-2039
1044.707	-1930
1044.767	-1904
1044.827	-1978
1044.887	-1852
1044.948	-1265
1045.008	-1966
1045.068	-2032
1045.128	-1633
1045.188	-1897
1045.249	-1541
1045.309	-2415
1045.369	-2363
1045.429	-1462
1045.489	-2169
1045.549	-1827
1045.609	-1898
1045.669	-2159
1045.729	-2102
1045.789	-2669
1045.848	-1534
1045.908	-1169
1045.968	-1157
1046.028	-1751
1046.088	-1768
1046.147	-808
1046.207	-2951
1046.267	-1258
1046.326	-1533
1046.386	-1553
1046.446	-939
1046.505	-1422
1046.565	-956
1046.624	-929
1046.684	-1131
1046.743	-342
1046.803	-621
1046.862	-219
1046.922	0
