'Start Wavelength	183.907
'End Wavelength	1046.922
'Gate Delay	5.000
'Gate Width (ms)	1.050
'Laser Output Level	0.000
'X Position	0.000
'Y Position	0.000
'Z Position	0.000
'Grid Point Number	1.000
'Shot Number	100.000
183.907	186.000
183.977	138.000
184.047	-600
184.116	454
184.186	53
184.256	186
184.325	-106
184.395	-450
184.465	717
184.534	502
184.604	-491
184.674	8
184.743	-210
184.813	699
184.883	-128
184.952	-16
185.022	-212
185.092	-132
185.161	174
185.231	321
185.301	-375
185.370	924
185.440	-83
185.509	343
185.579	-436
185.649	274
185.718	-213
185.788	390
185.857	-284
185.927	-611
185.996	-231
186.066	-280
186.136	-477
186.205	345
186.275	398
186.344	-396
186.414	226
186.483	-478
186.553	219
186.622	550
186.692	-182
186.761	265
186.831	189
186.900	-372
186.970	724
187.039	236
187.109	486
187.178	-39
187.248	-174
187.317	-24
187.387	28
187.456	-76
187.526	-55
187.595	526
187.664	448
187.734	-150
187.803	-526
187.873	185
187.942	687
188.012	580
188.081	-517
188.150	448
188.220	-352
188.289	464
188.358	-501
188.428	-52
188.497	163
188.567	-95
188.636	-166
188.705	253
188.775	-208
188.844	166
188.913	-141
188.983	-278
189.052	-693
189.121	-108
189.191	-530
189.260	179
189.329	460
189.399	-623
189.468	-117
189.537	-134
189.606	-262
189.676	865
189.745	298
189.814	-83
189.883	-211
189.953	438
190.022	401
190.091	1434
190.161	1172
190.230	630
190.299	21
190.368	-94
190.437	68
190.507	128
190.576	-119
190.645	-107
190.714	-272
190.783	-246
190.853	-510
190.922	495
190.991	210
191.060	392
191.129	-749
191.198	-244
191.268	-186
191.337	-1011
191.406	602
191.475	-8
191.544	-44
191.613	-27
191.682	-284
191.752	21
191.821	33
191.890	202
191.959	158
192.028	287
192.097	345
192.166	253
192.235	-16
192.304	-269
192.373	49
192.442	787
192.511	90
192.580	306
192.650	158
192.719	62
192.788	-562
192.857	354
192.926	-158
192.995	-738
193.064	539
193.133	-125
193.202	-20
193.271	1129
193.340	914
193.409	-230
193.478	485
193.547	1272
193.615	1353
193.684	1827
193.753	-125
193.822	346
193.891	-196
193.960	725
194.029	-209
194.098	307
194.167	-701
194.236	288
194.305	512
194.374	300
194.443	-272
194.512	428
194.580	715
194.649	463
194.718	166
194.787	220
194.856	-181
194.925	668
194.994	-254
195.062	548
195.131	181
195.200	652
195.269	-259
195.338	357
195.407	407
195.475	-74
195.544	-7
195.613	589
195.682	592
195.751	667
195.819	163
195.888	995
195.957	880
196.026	696
196.094	685
196.163	-193
196.232	586
196.301	859
196.369	554
196.438	190
196.507	-428
196.576	-325
196.644	133
196.713	358
196.782	-245
196.850	636
196.919	521
196.988	-217
197.056	236
197.125	376
197.194	214
197.262	546
197.331	-194
197.400	-17
197.468	519
197.537	-443
197.606	-442
197.674	789
197.743	1074
197.812	694
197.880	1299
197.949	54
198.017	1043
198.086	425
198.155	543
198.223	150
198.292	932
198.360	477
198.429	109
198.497	718
198.566	644
198.635	1823
198.703	831
198.772	730
198.840	736
198.909	925
198.977	205
199.046	739
199.114	323
199.183	1012
199.251	505
199.320	-40
199.388	-118
199.457	-4
199.525	-417
199.594	266
199.662	601
199.731	245
199.799	55
199.867	278
199.936	-539
200.004	872
200.073	355
200.141	-76
200.210	-471
200.278	228
200.346	-251
200.415	1188
200.483	-35
200.552	93
200.620	210
200.688	983
200.757	494
200.825	491
200.893	-334
200.962	5
201.030	-305
201.098	-92
201.167	167
201.235	-170
201.303	-271
201.372	-109
201.440	144
201.508	487
201.577	225
201.645	729
201.713	-567
201.781	225
201.850	119
201.918	253
201.986	-139
202.055	424
202.123	-86
202.191	352
202.259	-341
202.327	91
202.396	-117
202.464	333
202.532	-130
202.600	466
202.669	222
202.737	467
202.805	13
202.873	4
202.941	344
203.009	-8
203.078	-582
203.146	391
203.214	704
203.282	-262
203.350	206
203.418	126
203.487	38
203.555	-169
203.623	55
203.691	603
203.759	-553
203.827	-121
203.895	427
203.963	254
204.031	-319
204.099	551
204.168	231
204.236	407
204.304	275
204.372	180
204.440	485
204.508	485
204.576	-84
204.644	189
204.712	-300
204.780	322
204.848	-287
204.916	-306
204.984	346
205.052	829
205.120	547
205.188	475
205.256	294
205.324	894
205.392	-364
205.460	725
205.528	390
205.596	336
205.664	-125
205.732	178
205.799	556
205.867	3017
205.935	0
206.003	1386
206.071	-234
206.139	390
206.207	529
206.275	716
206.343	530
206.411	-346
206.478	518
206.546	760
206.614	29
206.682	683
206.750	-103
206.818	1145
206.885	487
206.953	-859
207.021	-52
207.089	-102
207.157	350
207.225	790
207.292	30
207.360	662
207.428	786
207.496	32
207.563	-187
207.631	556
207.699	-159
207.767	154
207.834	504
207.902	463
207.970	-646
208.038	-372
208.105	503
208.173	101
208.241	615
208.309	1324
208.376	-110
208.444	1258
208.512	315
208.579	181
208.647	181
208.715	1158
208.782	88
208.850	692
208.918	326
208.985	1052
209.053	137
209.120	1120
209.188	-589
209.256	109
209.323	312
209.391	658
209.459	1680
209.526	514
209.594	362
209.661	901
209.729	77
209.796	595
209.864	379
209.932	-163
209.999	929
210.067	1139
210.134	703
210.202	659
210.269	709
210.337	541
210.404	998
210.472	524
210.539	1067
210.607	1192
210.674	-81
210.742	1164
210.809	328
210.877	1133
210.944	519
211.012	718
211.079	818
211.146	429
211.214	343
211.281	813
211.349	684
211.416	728
211.484	694
211.551	514
211.618	1074
211.686	1232
211.753	112
211.821	1384
211.888	-899
211.955	923
212.023	506
212.090	1518
212.157	551
212.225	773
212.292	1272
212.359	2920
212.427	7527
212.494	2950
212.561	1033
212.629	766
212.696	1365
212.763	555
212.831	205
212.898	1111
212.965	-39
213.032	1216
213.100	500
213.167	710
213.234	922
213.301	728
213.369	883
213.436	1375
213.503	174
213.570	517
213.638	584
213.705	627
213.772	356
213.839	871
213.906	996
213.973	740
214.041	523
214.108	693
214.175	555
214.242	680
214.309	225
214.376	1080
214.444	1016
214.511	887
214.578	653
214.645	985
214.712	672
214.779	1172
214.846	-203
214.913	1325
214.980	432
215.048	1860
215.115	893
215.182	1655
215.249	575
215.316	373
215.383	747
215.450	1306
215.517	522
215.584	625
215.651	23
215.718	1169
215.785	796
215.852	1729
215.919	1568
215.986	1834
216.053	1009
216.120	1017
216.187	1295
216.254	1527
216.321	804
216.388	231
216.455	1344
216.522	125
216.589	1586
216.656	2575
216.722	2547
216.789	1608
216.856	1604
216.923	1995
216.990	1281
217.057	1472
217.124	1149
217.191	1415
217.258	1539
217.324	2424
217.391	2581
217.458	1714
217.525	964
217.592	1779
217.659	-103
217.725	1300
217.792	1723
217.859	2218
217.926	221
217.993	501
218.059	889
218.126	591
218.193	734
218.260	130
218.327	221
218.393	390
218.460	313
218.527	384
218.594	1052
218.660	1474
218.727	2343
218.794	151
218.860	824
218.927	193
218.994	72
219.061	498
219.127	-21
219.194	1656
219.261	1386
219.327	625
219.394	-101
219.461	588
219.527	433
219.594	1458
219.661	265
219.727	-659
219.794	880
219.860	86
219.927	835
219.994	1407
220.060	2258
220.127	1215
220.193	1055
220.260	527
220.326	2024
220.393	2984
220.460	3163
220.526	2468
220.593	1556
220.659	2660
220.726	918
220.792	3848
220.859	3355
220.925	5444
220.992	6964
221.058	6621
221.125	5293
221.191	3410
221.258	1674
221.324	1595
221.391	548
221.457	1003
221.524	224
221.590	1182
221.657	4442
221.723	2289
221.789	2245
221.856	3023
221.922	740
221.989	2110
222.055	1026
222.121	73
222.188	2116
222.254	210
222.321	243
222.387	68
222.453	708
222.520	1212
222.586	31
222.652	282
222.719	-323
222.785	932
222.851	240
222.918	409
222.984	625
223.050	-52
223.116	-767
223.183	599
223.249	-309
223.315	403
223.382	-355
223.448	923
223.514	-623
223.580	597
223.647	806
223.713	-166
223.779	206
223.845	374
223.911	70
223.978	-281
224.044	723
224.110	220
224.176	459
224.242	251
224.309	74
224.375	330
224.441	295
224.507	354
224.573	-18
224.639	86
224.705	-851
224.772	126
224.838	40
224.904	554
224.970	498
225.036	-134
225.102	319
225.168	1539
225.234	1185
225.300	1300
225.366	626
225.432	459
225.499	107
225.565	668
225.631	-88
225.697	338
225.763	1416
225.829	755
225.895	234
225.961	2726
226.027	1482
226.093	1477
226.159	1813
226.225	3442
226.291	6072
226.357	10769
226.423	5288
226.489	3188
226.554	1495
226.620	2263
226.686	1753
226.752	4053
226.818	5609
226.884	13354
226.950	10877
227.016	4864
227.082	2805
227.148	2071
227.214	1674
227.279	1447
227.345	1216
227.411	906
227.477	715
227.543	1075
227.609	1185
227.674	1328
227.740	1419
227.806	916
227.872	902
227.938	526
228.003	2090
228.069	733
228.135	169
228.201	584
228.267	28
228.332	1131
228.398	874
228.464	1247
228.530	-79
228.595	430
228.661	2
228.727	1486
228.792	1365
228.858	368
228.924	-200
228.990	1455
229.055	-719
229.121	985
229.187	494
229.252	723
229.318	638
229.384	1111
229.449	896
229.515	-29
229.581	-589
229.646	1700
229.712	-65
229.777	2254
229.843	1340
229.909	2011
229.974	1258
230.040	1836
230.105	1251
230.171	207
230.236	1361
230.302	2104
230.368	252
230.433	920
230.499	845
230.564	1959
230.630	85
230.695	478
230.761	901
230.826	-71
230.892	1739
230.957	531
231.023	252
231.088	126
231.154	554
231.219	773
231.284	914
231.350	1190
231.415	-670
231.481	794
231.546	1078
231.612	1041
231.677	-21
231.742	247
231.808	1567
231.873	-133
231.939	-665
232.004	2261
232.069	1191
232.135	255
232.200	2
232.265	1650
232.331	-229
232.396	186
232.461	151
232.527	657
232.592	-465
232.657	681
232.723	1308
232.788	1070
232.853	497
232.918	1010
232.984	-316
233.049	613
233.114	59
233.179	903
233.245	1480
233.310	3000
233.375	186
233.440	1184
233.506	10
233.571	504
233.636	37
233.701	937
233.766	1148
233.832	1458
233.897	129
233.962	-74
234.027	1799
234.092	724
234.157	681
234.222	25
234.288	1272
234.353	5350
234.418	4224
234.483	3590
234.548	1651
234.613	1537
234.678	821
234.743	1047
234.808	5959
234.873	2982
234.938	1646
235.004	1054
235.069	517
235.134	-455
235.199	300
235.264	971
235.329	-68
235.394	1848
235.459	1155
235.524	781
235.589	627
235.654	1056
235.719	-256
235.784	1317
235.849	529
235.913	3262
235.978	2807
236.043	3317
236.108	1463
236.173	898
236.238	1864
236.303	537
236.368	799
236.433	1707
236.498	3385
236.563	2731
236.627	4626
236.692	16832
236.757	12943
236.822	5116
236.887	3548
236.952	3097
237.017	829
237.081	3097
237.146	2939
237.211	7196
237.276	16547
237.341	25422
237.405	12176
237.470	5702
237.535	3187
237.600	2363
237.664	2877
237.729	1630
237.794	1589
237.859	5501
237.923	3570
237.988	1406
238.053	3119
238.118	2149
238.182	7286
238.247	7004
238.312	2548
238.376	2630
238.441	-313
238.506	2333
238.570	-40
238.635	1529
238.700	1404
238.764	609
238.829	3638
238.893	3771
238.958	2437
239.023	2317
239.087	1107
239.152	1535
239.216	262
239.281	960
239.346	116
239.410	1239
239.475	826
239.539	7443
239.604	3946
239.668	1347
239.733	577
239.797	764
239.862	1249
239.926	4537
239.991	2564
240.055	1192
240.120	707
240.184	679
240.249	353
240.313	297
240.378	-136
240.442	4625
240.507	6830
240.571	1700
240.635	2399
240.700	4243
240.764	585
240.829	763
240.893	-746
240.957	579
241.022	4347
241.086	6455
241.151	2280
241.215	412
241.279	2016
241.344	3366
241.408	1784
241.472	1067
241.537	1596
241.601	1849
241.665	-647
241.730	702
241.794	1165
241.858	790
241.922	931
241.987	636
242.051	-258
242.115	761
242.179	1133
242.244	-66
242.308	1443
242.372	1534
242.436	960
242.501	439
242.565	361
242.629	435
242.693	641
242.757	-302
242.822	40
242.886	1633
242.950	1628
243.014	551
243.078	1226
243.142	1638
243.206	430
243.271	1811
243.335	407
243.399	1437
243.463	8680
243.527	21758
243.591	5719
243.655	2930
243.719	610
243.783	2187
243.847	3080
243.911	3902
243.975	4009
244.040	1783
244.104	2774
244.168	1387
244.232	1777
244.296	3524
244.360	2450
244.424	857
244.488	1133
244.552	1314
244.615	123
244.679	1647
244.743	1067
244.807	903
244.871	1075
244.935	1061
244.999	-480
245.063	670
245.127	1760
245.191	2236
245.255	1896
245.319	1034
245.383	1076
245.446	1969
245.510	210
245.574	1248
245.638	1302
245.702	876
245.766	3661
245.829	2218
245.893	655
245.957	1408
246.021	1416
246.085	736
246.149	1911
246.212	5956
246.276	7312
246.340	3836
246.404	2011
246.467	2607
246.531	2309
246.595	3316
246.659	2576
246.722	2104
246.786	1922
246.850	1979
246.913	2664
246.977	1184
247.041	1691
247.104	1428
247.168	1481
247.232	5706
247.295	10765
247.359	4897
247.423	1866
247.486	4405
247.550	3331
247.614	1450
247.677	3032
247.741	1709
247.804	983
247.868	1977
247.932	3773
247.995	10151
248.059	2939
248.122	1369
248.186	2776
248.249	4449
248.313	17180
248.376	16768
248.440	10514
248.503	3442
248.567	4075
248.630	4867
248.694	6323
248.757	8900
248.821	18296
248.884	11220
248.948	8842
249.011	14320
249.075	20883
249.138	16958
249.202	6313
249.265	3727
249.328	5776
249.392	3324
249.455	2692
249.519	2294
249.582	3531
249.645	5886
249.709	3673
249.772	2230
249.835	1359
249.899	2566
249.962	2971
250.025	2389
250.089	5477
250.152	10025
250.215	4043
250.279	2871
250.342	3092
250.405	2942
250.468	949
250.532	3882
250.595	6055
250.658	20712
250.721	33472
250.785	11891
250.848	7235
250.911	3008
250.974	3817
251.038	4976
251.101	10491
251.164	5477
251.227	5049
251.290	4537
251.354	8261
251.417	29916
251.480	27057
251.543	18972
251.606	52794
251.669	36578
251.732	14195
251.795	16117
251.859	15614
251.922	34216
251.985	17843
252.048	8155
252.111	5252
252.174	4920
252.237	9697
252.300	20740
252.363	23034
252.426	43621
252.489	17035
252.552	9266
252.615	5565
252.678	7020
252.741	16472
252.804	20749
252.867	43914
252.930	25819
252.993	13250
253.056	8767
253.119	6187
253.182	4317
253.245	7700
253.308	6277
253.371	5074
253.434	5259
253.497	5028
253.559	10097
253.622	6796
253.685	8212
253.748	8250
253.811	4102
253.874	5933
253.937	4390
254.000	3396
254.062	6441
254.125	9628
254.188	9782
254.251	7868
254.314	3937
254.376	7133
254.439	9105
254.502	6086
254.565	7147
254.628	12825
254.690	7396
254.753	3421
254.816	3185
254.878	4121
254.941	7693
255.004	6743
255.067	3086
255.129	2435
255.192	1526
255.255	967
255.317	2476
255.380	1592
255.443	1128
255.505	846
255.568	472
255.631	883
255.693	1315
255.756	-663
255.819	1873
255.881	-323
255.944	584
256.006	758
256.069	1108
256.132	696
256.194	1296
256.257	5859
256.319	3746
256.382	2980
256.444	2177
256.507	1240
256.569	1455
256.632	1525
256.694	3425
256.757	9378
256.819	26269
256.882	9018
256.944	4174
257.007	2869
257.069	2859
257.132	2249
257.194	1494
257.257	662
257.319	1087
257.381	829
257.444	7233
257.506	31026
257.569	31184
257.631	11895
257.693	7336
257.756	3556
257.818	2988
257.880	1652
257.943	2123
258.005	1118
258.067	1495
258.130	1161
258.192	1520
258.254	4889
258.317	1854
258.379	866
258.441	5165
258.503	5277
258.566	7327
258.628	9751
258.690	1598
258.753	1661
258.815	4107
258.877	1343
258.939	1457
259.001	1180
259.064	1644
259.126	1238
259.188	2451
259.250	772
259.312	1423
259.375	2820
259.437	1867
259.499	1122
259.561	1174
259.623	1052
259.685	1037
259.747	1478
259.809	6178
259.872	12861
259.934	20845
259.996	16528
260.058	4045
260.120	1380
260.182	1598
260.244	969
260.306	418
260.368	1295
260.430	787
260.492	2955
260.554	4763
260.616	2270
260.678	9497
260.740	13053
260.802	2097
260.864	2273
260.926	554
260.988	1529
261.050	1435
261.112	4456
261.174	14942
261.236	9612
261.298	2843
261.359	5018
261.421	8036
261.483	1639
261.545	1546
261.607	-68
261.669	1246
261.731	3493
261.793	9256
261.854	2121
261.916	2096
261.978	435
262.040	2298
262.102	1340
262.164	2375
262.225	2308
262.287	729
262.349	3514
262.411	3490
262.472	1978
262.534	3883
262.596	8297
262.658	2887
262.719	1074
262.781	2124
262.843	6678
262.904	2726
262.966	1430
263.028	3095
263.090	16669
263.151	38140
263.213	11189
263.275	5743
263.336	2055
263.398	2003
263.459	176
263.521	1104
263.583	4394
263.644	2659
263.706	501
263.767	-254
263.829	547
263.891	831
263.952	63
264.014	239
264.075	1659
264.137	5517
264.198	2905
264.260	232
264.321	628
264.383	3243
264.444	8889
264.506	2530
264.567	1788
264.629	3482
264.690	5217
264.752	2376
264.813	557
264.875	125
264.936	1159
264.998	867
265.059	-301
265.120	1210
265.182	1634
265.243	13942
265.305	13145
265.366	3360
265.427	1316
265.489	1086
265.550	134
265.611	759
265.673	649
265.734	790
265.795	329
265.857	372
265.918	403
265.979	4309
266.040	22953
266.102	17914
266.163	4237
266.224	2970
266.286	2943
266.347	620
266.408	750
266.469	715
266.530	685
266.592	175
266.653	2203
266.714	4144
266.775	1064
266.836	363
266.898	-46
266.959	1121
267.020	-289
267.081	624
267.142	-144
267.203	-175
267.264	-633
267.326	1602
267.387	-513
267.448	-655
267.509	454
267.570	769
267.631	111
267.692	607
267.753	212
267.814	258
267.875	2499
267.936	6111
267.997	2140
268.058	2069
268.119	691
268.180	1028
268.241	-136
268.302	897
268.363	-436
268.424	400
268.485	227
268.546	-426
268.607	-139
268.668	-132
268.729	-558
268.790	1086
268.851	556
268.912	3440
268.972	4752
269.033	1249
269.094	193
269.155	303
269.216	328
269.277	-457
269.338	338
269.398	404
269.459	-438
269.520	1920
269.581	1791
269.642	2162
269.702	664
269.763	1154
269.824	-84
269.885	1282
269.945	2729
270.006	391
270.067	-496
270.128	369
270.188	8
270.249	132
270.310	-166
270.370	-73
270.431	-265
270.492	-193
270.553	1151
270.613	2858
270.674	5513
270.734	2038
270.795	81
270.856	2120
270.916	541
270.977	444
271.038	1178
271.098	773
271.159	1576
271.219	1520
271.280	215
271.340	805
271.401	934
271.462	3342
271.522	1885
271.583	936
271.643	587
271.704	555
271.764	1833
271.825	4217
271.885	16158
271.946	21369
272.006	6340
272.066	10171
272.127	16603
272.187	4435
272.248	1891
272.308	2723
272.369	11474
272.429	6158
272.489	3880
272.550	3808
272.610	4820
272.671	3333
272.731	3182
272.791	5831
272.852	2092
272.912	1552
272.972	1079
273.033	986
273.093	1237
273.153	1818
273.214	1663
273.274	1538
273.334	9533
273.394	17005
273.455	5088
273.515	6331
273.575	13884
273.635	5348
273.696	7759
273.756	16051
273.816	5081
273.876	3592
273.936	8336
273.997	13769
274.057	2528
274.117	2081
274.177	4281
274.237	21410
274.297	17434
274.358	11514
274.418	13381
274.478	9133
274.538	3499
274.598	3013
274.658	12185
274.718	14446
274.778	4782
274.838	2648
274.898	6151
274.958	20620
275.018	17306
275.078	11583
275.138	3707
275.198	2413
275.258	1519
275.318	1940
275.378	4430
275.438	4663
275.498	2828
275.558	8750
275.618	19103
275.678	11923
275.738	6067
275.798	4989
275.858	1527
275.918	2290
275.978	1694
276.038	1267
276.098	1665
276.157	3215
276.217	11929
276.277	4776
276.337	3282
276.397	996
276.457	2013
276.517	701
276.576	590
276.636	1059
276.696	2305
276.756	6768
276.815	5368
276.875	2000
276.935	908
276.995	1769
277.055	13
277.114	574
277.174	2354
277.234	8903
277.293	3575
277.353	1390
277.413	799
277.472	997
277.532	802
277.592	2133
277.651	4983
277.711	9785
277.771	3415
277.830	13607
277.890	10700
277.950	7554
278.009	23254
278.069	8554
278.128	7781
278.188	10453
278.248	4534
278.307	11175
278.367	5777
278.426	2030
278.486	1105
278.545	582
278.605	531
278.664	616
278.724	910
278.783	6226
278.843	17732
278.902	3994
278.962	1700
279.021	2735
279.081	2598
279.140	2104
279.199	2357
279.259	2401
279.318	817
279.378	3036
279.437	5523
279.496	19641
279.556	64134
279.615	48378
279.675	11752
279.734	6908
279.793	9624
279.853	13019
279.912	4751
279.971	3473
280.031	1864
280.090	3923
280.149	8118
280.208	8328
280.268	46410
280.327	45859
280.386	8836
280.445	8774
280.505	7184
280.564	3139
280.623	2491
280.682	5585
280.742	8110
280.801	1912
280.860	1162
280.919	369
280.978	1367
281.037	450
281.097	312
281.156	575
281.215	263
281.274	1559
281.333	11349
281.392	8290
281.451	1325
281.510	724
281.569	651
281.628	805
281.688	952
281.747	776
281.806	247
281.865	601
281.924	-625
281.983	875
282.042	425
282.101	501
282.160	369
282.219	553
282.278	537
282.337	6392
282.396	3083
282.454	786
282.513	2001
282.572	9271
282.631	5222
282.690	383
282.749	222
282.808	1197
282.867	923
282.926	1500
282.985	-100
283.043	575
283.102	352
283.161	1073
283.220	4097
283.279	10926
283.338	3600
283.396	1832
283.455	1328
283.514	932
283.573	2718
283.631	2139
283.690	472
283.749	407
283.808	3373
283.866	4302
283.925	602
283.984	956
284.043	1423
284.101	1905
284.160	138
284.219	1786
284.277	1139
284.336	3848
284.395	13400
284.453	11347
284.512	2414
284.570	4214
284.629	3009
284.688	2701
284.746	2090
284.805	2952
284.863	3282
284.922	4593
284.981	5222
285.039	8539
285.098	16194
285.156	40824
285.215	94297
285.273	89407
285.332	45861
285.390	23281
285.449	13556
285.507	9885
285.566	6840
285.624	5206
285.683	3092
285.741	2568
285.799	2604
285.858	2314
285.916	1784
285.975	1365
286.033	898
286.091	579
286.150	93
286.208	791
286.267	1596
286.325	1399
286.383	3539
286.442	2320
286.500	318
286.558	723
286.616	249
286.675	1704
286.733	1651
286.791	850
286.850	753
286.908	2592
286.966	4711
287.024	1038
287.083	240
287.141	202
287.199	736
287.257	2235
287.315	708
287.374	1447
287.432	5374
287.490	3851
287.548	1233
287.606	1542
287.664	878
287.723	2380
287.781	2917
287.839	1950
287.897	1517
287.955	2678
288.013	5236
288.071	13259
288.129	48453
288.187	126867
288.245	56223
288.303	18281
288.361	9954
288.419	7529
288.477	5070
288.535	3739
288.593	2578
288.651	2339
288.709	1325
288.767	1643
288.825	882
288.883	834
288.941	831
288.999	777
289.057	363
289.115	190
289.173	291
289.231	863
289.289	354
289.346	926
289.404	819
289.462	3543
289.520	2614
289.578	1772
289.636	431
289.694	420
289.751	-647
289.809	-169
289.867	479
289.925	1935
289.983	1054
290.040	455
290.098	-485
290.156	501
290.214	1312
290.271	447
290.329	-39
290.387	753
290.444	332
290.502	512
290.560	630
290.617	-19
290.675	-28
290.733	297
290.790	416
290.848	537
290.906	-64
290.963	458
291.021	287
291.078	858
291.136	939
291.194	4852
291.251	13451
291.309	3696
291.366	976
291.424	893
291.481	481
291.539	414
291.596	202
291.654	-641
291.711	123
291.769	887
291.826	2863
291.884	1689
291.941	358
291.999	851
292.056	413
292.114	1391
292.171	-387
292.228	638
292.286	648
292.343	2532
292.401	3315
292.458	2095
292.515	803
292.573	2009
292.630	948
292.687	2438
292.745	873
292.802	2046
292.859	7929
292.917	13554
292.974	7643
293.031	2173
293.089	638
293.146	1146
293.203	729
293.260	990
293.318	632
293.375	2685
293.432	1166
293.489	571
293.546	709
293.604	2431
293.661	7797
293.718	21497
293.775	11079
293.832	4374
293.889	1899
293.947	1911
294.004	1336
294.061	1670
294.118	5879
294.175	12745
294.232	15191
294.289	6142
294.346	2200
294.403	2587
294.460	2542
294.517	1434
294.574	1644
294.631	1424
294.688	1746
294.745	6413
294.802	24620
294.859	27951
294.916	10790
294.973	4472
295.030	4322
295.087	3297
295.144	2052
295.201	1824
295.258	1214
295.315	3929
295.372	8462
295.429	17923
295.486	8395
295.542	4475
295.599	11697
295.656	20310
295.713	14262
295.770	18446
295.827	6667
295.883	3298
295.940	2768
295.997	5431
296.054	4666
296.111	2847
296.167	1603
296.224	1218
296.281	355
296.338	1673
296.394	1422
296.451	1804
296.508	7231
296.564	15283
296.621	11772
296.678	20515
296.734	29594
296.791	11615
296.848	6312
296.904	5831
296.961	12731
297.018	21437
297.074	15911
297.131	5964
297.187	4754
297.244	7020
297.301	19930
297.357	37505
297.414	13450
297.470	4514
297.527	3232
297.583	2298
297.640	2964
297.696	1693
297.753	992
297.809	901
297.866	552
297.922	1714
297.979	677
298.035	1167
298.092	3541
298.148	11791
298.204	12202
298.261	6563
298.317	9866
298.374	25245
298.430	15137
298.486	6205
298.543	3820
298.599	3167
298.656	4868
298.712	8404
298.768	19643
298.824	13704
298.881	4664
298.937	2607
298.993	2376
299.050	3235
299.106	2033
299.162	2814
299.218	2278
299.275	2771
299.331	3067
299.387	5840
299.443	20265
299.500	22510
299.556	7245
299.612	3283
299.668	3574
299.724	2367
299.780	1697
299.837	3112
299.893	4621
299.949	18192
300.005	21548
300.061	18920
300.117	29134
300.173	15908
300.229	6988
300.285	8017
300.341	9660
300.397	4742
300.453	2231
300.510	2260
300.566	1581
300.622	2826
300.678	5226
300.734	13665
300.790	16929
300.845	22288
300.901	12680
300.957	16492
301.013	14810
301.069	5922
301.125	4470
301.181	4573
301.237	3060
301.293	1973
301.349	1446
301.405	1388
301.461	1808
301.516	3157
301.572	3544
301.628	5926
301.684	5354
301.740	7898
301.796	13397
301.851	10029
301.907	14926
301.963	17058
302.019	24027
302.074	62430
302.130	64289
302.186	30955
302.242	12172
302.297	8660
302.353	8058
302.409	14339
302.464	13500
302.520	10961
302.576	22255
302.631	27072
302.687	15249
302.743	6961
302.798	4256
302.854	3128
302.910	4209
302.965	4706
303.021	7287
303.076	7403
303.132	8518
303.187	11741
303.243	5822
303.299	3648
303.354	2887
303.410	2086
303.465	1712
303.521	2019
303.576	2637
303.632	3979
303.687	6950
303.743	20331
303.798	18712
303.853	7778
303.909	4302
303.964	3906
304.020	5382
304.075	8209
304.130	7304
304.186	13402
304.241	14825
304.297	11346
304.352	6624
304.358	6397
304.407	4551
304.449	3793
304.463	3544
304.518	2782
304.539	2824
304.573	2868
304.629	3926
304.630	3966
304.684	6109
304.720	12157
304.739	15164
304.794	24266
304.811	21092
304.850	13218
304.902	5544
304.905	5066
304.960	3661
304.992	3749
305.015	3808
305.071	3874
305.083	3550
305.126	2373
305.173	2615
305.181	2662
305.236	1597
305.264	2007
305.292	2493
305.347	2169
305.354	2293
305.402	3004
305.445	3431
305.457	3565
305.512	5227
305.535	5225
305.567	5140
305.622	5702
305.626	5844
305.678	10199
305.716	20170
305.733	23575
305.788	28853
305.807	25259
305.843	19296
305.897	22601
305.898	22613
305.953	22952
305.988	16178
306.008	12503
306.063	7023
306.078	6149
306.118	4594
306.168	3414
306.173	3306
306.228	2680
306.259	2299
306.283	2021
306.338	1830
306.349	1970
306.393	2742
306.440	3372
306.448	3449
306.503	3491
306.530	3976
306.558	5262
306.613	9963
306.620	10766
306.668	17555
306.711	24549
306.723	25059
306.778	20879
306.801	16506
306.833	11237
306.888	4996
306.892	4758
306.943	3647
306.982	3046
306.997	2813
307.052	2638
307.072	2685
307.107	3105
307.162	3835
307.163	3858
307.217	6336
307.253	7520
307.272	7739
307.327	8217
307.343	7545
307.381	6385
307.434	6495
307.436	6699
307.491	13348
307.524	19659
307.546	21736
307.600	23168
307.614	21334
307.655	13272
307.704	6392
307.710	6135
307.765	6118
307.795	7838
307.819	9587
307.874	14686
307.885	14785
307.929	13048
307.975	10575
307.984	10646
308.038	14789
308.065	18549
308.093	29969
308.148	59862
308.156	66788
308.202	105766
308.246	132017
308.257	129735
308.312	79703
308.336	59016
308.366	45016
308.421	28547
308.426	27192
308.475	17203
308.517	11212
308.530	10241
308.585	8157
308.607	7629
308.639	7499
308.694	8257
308.697	8316
308.748	12018
308.787	17266
308.803	17779
308.857	15528
308.877	13858
308.912	11750
308.967	10063
308.967	10073
309.021	14336
309.058	18357
309.076	23480
309.130	42796
309.148	50484
309.185	84470
309.238	143526
309.239	144018
309.293	161715
309.328	152848
309.348	133619
309.402	69915
309.418	53739
309.457	37387
309.508	21842
309.511	21328
309.566	17802
309.598	15972
309.620	16294
309.674	19248
309.688	20029
309.729	19140
309.778	16990
309.783	16781
309.837	13627
309.868	12814
309.892	17695
309.946	29977
309.959	33569
310.001	45542
310.049	57303
310.055	55310
310.109	32482
310.139	19292
310.163	15018
310.218	7759
310.229	6568
310.272	5132
310.319	3754
310.326	3689
310.381	3504
310.409	3431
310.435	3135
310.489	2637
310.499	2585
310.543	3148
310.589	3476
310.598	3416
310.652	3447
310.679	3317
310.706	3113
310.760	2645
310.769	2588
310.814	2345
310.859	2142
310.868	2147
310.923	2076
310.948	2112
310.977	2352
311.031	2857
311.038	2940
311.085	3009
311.128	2833
311.139	2805
311.193	2835
311.218	2770
311.247	2619
311.301	2474
311.308	2437
311.356	2385
311.398	2492
311.410	2434
311.464	2030
311.488	1879
311.518	2049
311.572	2230
311.578	2272
311.626	4391
311.668	6155
311.680	5866
311.734	4517
311.758	3888
311.788	3852
311.842	3808
311.847	3801
311.896	5131
311.937	6340
311.950	6308
312.004	6128
312.027	6031
312.058	5115
312.112	3477
312.117	3317
312.165	2658
312.207	2103
312.297	3801
312.386	3328
312.476	2903
312.566	11014
312.656	4818
312.745	3311
312.835	2719
312.925	3581
313.015	2438
313.104	3295
313.194	4308
313.284	6252
313.374	5212
313.463	4405
313.553	2716
313.643	1764
313.732	2506
313.822	1564
313.912	2406
314.001	3969
314.091	3780
314.180	4104
314.270	5620
314.360	4958
314.449	5588
314.539	2639
314.628	1486
314.718	2956
314.808	3137
314.897	2389
314.987	2681
315.076	3404
315.166	5835
315.255	3550
315.345	5101
315.434	3853
315.524	3510
315.613	4368
315.703	6961
315.792	7008
315.881	4338
315.971	4133
316.060	9850
316.150	9928
316.239	9559
316.328	3790
316.418	2294
316.507	2775
316.597	5436
316.686	4012
316.775	4102
316.865	9475
316.954	2999
317.043	4333
317.133	3850
317.222	2945
317.311	2485
317.400	1866
317.490	4710
317.579	6185
317.668	2902
317.757	4536
317.847	6410
317.936	7300
318.025	15020
318.114	7414
318.203	5758
318.293	6196
318.382	11544
318.471	11126
318.560	13046
318.649	27268
318.738	7275
318.828	6361
318.917	7413
319.006	6057
319.095	13207
319.184	38272
319.273	29098
319.362	20898
319.451	7789
319.540	5558
319.629	14098
319.718	26650
319.807	8739
319.896	13608
319.985	49458
320.074	22770
320.163	5096
320.252	6192
320.341	5766
320.430	6408
320.519	11806
320.608	6222
320.697	3701
320.786	4217
320.875	7339
320.964	10174
321.053	18128
321.142	24069
321.230	26545
321.319	14733
321.408	40847
321.497	14392
321.586	15976
321.675	13413
321.764	13737
321.852	8564
321.941	23878
322.030	16405
322.119	13668
322.207	43282
322.296	18856
322.385	9182
322.474	13272
322.562	51414
322.651	24627
322.740	16069
322.829	20693
322.917	15745
323.006	13817
323.095	11786
323.183	6143
323.272	9923
323.361	17898
323.449	41367
323.538	14539
323.626	27714
323.715	16495
323.804	6738
323.892	25949
323.981	20458
324.069	5184
324.158	12506
324.246	12113
324.335	7630
324.424	16360
324.512	5472
324.601	8723
324.689	18373
324.778	38965
324.866	13396
324.954	3884
325.043	4283
325.131	7674
325.220	10594
325.308	11944
325.397	10494
325.485	8020
325.574	2578
325.662	2308
325.750	3843
325.839	2695
325.927	2167
326.015	3198
326.104	4113
326.192	5819
326.280	3514
326.369	3166
326.457	5879
326.545	12847
326.634	6087
326.722	1665
326.810	2329
326.898	2573
326.987	3520
327.075	10186
327.163	9378
327.251	4949
327.340	11302
327.428	20670
327.516	3348
327.604	2680
327.692	2301
327.781	2347
327.869	4317
327.957	4221
328.045	6008
328.133	2222
328.221	2758
328.309	3159
328.397	3042
328.485	3991
328.574	6739
328.662	26858
328.750	12618
328.838	3776
328.926	2939
329.014	2471
329.102	5113
329.190	11995
329.278	9292
329.366	2418
329.454	2895
329.542	1826
329.630	2223
329.718	1959
329.806	4287
329.893	3188
329.981	3181
330.069	7147
330.157	24659
330.245	75033
330.333	41618
330.421	8063
330.509	8260
330.597	34628
330.684	22361
330.772	6473
330.860	5827
330.948	6865
331.036	3663
331.123	1270
331.211	2059
331.299	2645
331.387	5630
331.475	12492
331.562	4525
331.650	1942
331.738	2563
331.825	2635
331.913	2100
332.001	2352
332.089	2827
332.176	4324
332.264	11283
332.352	9640
332.439	4581
332.527	3066
332.614	1834
332.702	2527
332.790	1809
332.877	6356
332.965	10318
333.052	2861
333.140	2962
333.228	6176
333.315	2318
333.403	2533
333.490	5918
333.578	6028
333.665	6367
333.753	4872
333.840	2338
333.928	2807
334.015	7864
334.103	12070
334.190	40855
334.278	10799
334.365	3783
334.452	2535
334.540	1884
334.627	2870
334.715	3607
334.802	7368
334.889	36765
334.977	39392
335.064	4364
335.151	2486
335.239	3361
335.326	4057
335.413	20168
335.501	30410
335.588	4614
335.675	2112
335.762	3408
335.850	5214
335.937	3756
336.024	8980
336.111	40320
336.199	16413
336.286	3073
336.373	1916
336.460	1263
336.547	2211
336.635	3334
336.722	3534
336.809	2063
336.896	4939
336.983	14872
337.070	34727
337.157	45199
337.245	28607
337.332	19844
337.419	3103
337.506	1949
337.593	2380
337.680	8508
337.767	29686
337.854	10542
337.941	10230
338.028	12324
338.115	3929
338.202	5091
338.289	8340
338.376	28750
338.463	11044
338.550	15194
338.637	18947
338.724	5798
338.811	8629
338.898	2328
338.984	1930
339.071	2928
339.158	4995
339.245	15945
339.332	9202
339.419	7178
339.506	6996
339.593	1661
339.679	2965
339.766	2708
339.853	3266
339.940	12152
340.027	2903
340.113	2933
340.200	5670
340.287	3559
340.374	4429
340.460	11258
340.547	4745
340.634	8288
340.720	30667
340.807	19849
340.894	3338
340.980	2323
341.067	3809
341.154	3987
341.240	6782
341.327	16281
341.414	5851
341.500	6937
341.587	3187
341.674	2564
341.760	10127
341.847	13267
341.933	4341
342.020	1467
342.106	1274
342.193	3256
342.279	8180
342.366	5924
342.452	11790
342.539	5993
342.625	13719
342.712	35788
342.798	15758
342.885	5972
342.971	1208
343.058	1499
343.144	2275
343.230	2894
343.317	2818
343.403	2371
343.490	1340
343.576	1703
343.662	2244
343.749	3862
343.835	5117
343.921	8852
344.008	49057
344.094	122111
344.180	29547
344.267	10768
344.353	33268
344.439	35567
344.525	16977
344.612	8302
344.698	7835
344.784	4613
344.870	2346
344.957	3571
345.043	6539
345.129	5026
345.215	10713
345.301	6516
345.387	5312
345.474	1175
345.560	1511
345.646	2444
345.732	1994
345.818	3834
345.904	3535
345.990	3752
346.076	2197
346.162	6175
346.249	3479
346.335	2762
346.421	3221
346.507	12080
346.593	49394
346.679	12020
346.765	3264
346.851	2026
346.937	2572
347.023	2572
347.108	3926
347.194	3749
347.280	2302
347.366	3944
347.452	12229
347.538	55472
347.624	44005
347.710	36643
347.796	5099
347.882	3288
347.967	1723
348.053	2550
348.139	2417
348.225	2067
348.311	2808
348.397	2093
348.482	3256
348.568	4837
348.654	1462
348.740	1408
348.825	1056
348.911	6032
348.997	24054
349.083	51375
349.168	8398
349.254	3868
349.340	3660
349.425	1520
349.511	4151
349.597	5350
349.682	10937
349.768	35813
349.854	17568
349.939	2643
350.025	2133
350.110	2638
350.196	2424
350.282	1964
350.367	1367
350.453	2871
350.538	3893
350.624	4768
350.709	4187
350.795	1438
350.880	2716
350.966	3353
351.051	3516
351.137	3120
351.222	2903
351.308	11374
351.393	34595
351.479	9454
351.564	2453
351.649	2712
351.735	1668
351.820	2030
351.906	1914
351.991	2936
352.076	19709
352.162	33541
352.247	7009
352.332	4605
352.418	10311
352.503	11843
352.588	49182
352.673	45677
352.759	10484
352.844	4602
352.929	5440
353.014	7762
353.100	3564
353.185	3692
353.270	10697
353.355	13283
353.441	3231
353.526	2787
353.611	10246
353.696	13915
353.781	7794
353.866	3478
353.952	3491
354.037	11199
354.122	27543
354.207	25854
354.292	8882
354.377	2410
354.462	2369
354.547	4822
354.632	3573
354.717	3338
354.802	2559
354.887	2028
354.972	1804
355.057	1228
355.142	1971
355.227	3829
355.312	6827
355.397	17072
355.482	44019
355.567	21538
355.652	14567
355.737	15062
355.822	39390
355.907	34937
355.991	5425
356.076	2989
356.161	2227
356.246	2155
356.331	3633
356.416	8100
356.501	57051
356.585	65765
356.670	11033
356.755	6525
356.840	8772
356.924	37383
357.009	149793
357.094	64147
357.179	14141
357.263	8795
357.348	8732
357.433	9117
357.517	9149
357.602	6503
357.687	3780
357.771	5562
357.856	18955
357.941	14443
358.025	31246
358.110	139990
358.195	73188
358.279	12731
358.364	8736
358.448	29690
358.533	82791
358.617	62130
358.702	58925
358.787	22818
358.871	12798
358.956	10897
359.040	3106
359.125	1992
359.209	2935
359.294	8376
359.378	16010
359.462	10123
359.547	5621
359.631	1949
359.716	2218
359.800	3059
359.885	4186
359.969	2843
360.053	2665
360.138	2441
360.222	5120
360.306	12142
360.391	9802
360.475	14392
360.559	33651
360.644	31527
360.728	22626
360.812	29580
360.896	91000
360.981	40590
361.065	22482
361.149	5810
361.233	6220
361.318	4122
361.402	4025
361.486	4177
361.570	2673
361.654	5750
361.739	14261
361.823	57639
361.907	93128
361.991	18065
362.075	9563
362.159	24107
362.243	16749
362.327	8062
362.411	7305
362.495	4655
362.580	3080
362.664	1371
362.748	1563
362.832	1820
362.916	704
363.000	8998
363.084	46796
363.168	102768
363.252	27075
363.336	8767
363.420	11347
363.503	31215
363.587	36772
363.671	8240
363.755	6796
363.839	11272
363.923	4846
364.007	10759
364.091	11970
364.175	9045
364.258	44492
364.342	23670
364.426	9390
364.510	6016
364.594	9834
364.677	13392
364.761	74927
364.845	58093
364.929	22078
365.013	18934
365.096	13923
365.180	17213
365.264	13013
365.347	46844
365.431	22147
365.515	6133
365.598	4103
365.682	3582
365.766	3962
365.849	6149
365.933	4862
366.017	5325
366.100	3257
366.184	790
366.267	2445
366.351	3260
366.435	1940
366.518	1980
366.602	1697
366.685	2715
366.769	3318
366.852	4885
366.936	12512
367.019	7979
367.103	3113
367.186	7289
367.270	1964
367.353	630
367.436	2291
367.520	1715
367.603	3777
367.687	6106
367.770	15290
367.853	7493
367.937	23100
368.020	44342
368.104	10942
368.187	9955
368.270	16534
368.353	14129
368.437	13829
368.520	18861
368.603	18254
368.687	27846
368.770	58559
368.853	15123
368.936	12462
369.020	10795
369.103	4863
369.186	1833
369.269	2976
369.352	8539
369.436	13851
369.519	8207
369.602	2891
369.685	3944
369.768	4688
369.851	3050
369.934	1433
370.018	3367
370.101	11598
370.184	9857
370.267	4576
370.350	7699
370.433	14007
370.516	38525
370.599	47814
370.682	13461
370.765	33548
370.848	37436
370.931	66430
371.014	25521
371.097	4085
371.180	3920
371.263	1828
371.346	757
371.429	2488
371.511	1779
371.594	6483
371.677	10759
371.760	8415
371.843	10073
371.926	48548
372.009	121498
372.091	41421
372.174	23507
372.257	58924
372.340	23161
372.423	13591
372.505	15414
372.588	6759
372.671	19520
372.754	67019
372.836	34119
372.919	14405
373.002	28496
373.085	11257
373.167	10466
373.250	27516
373.332	62321
373.415	75270
373.498	158723
373.580	62082
373.663	63594
373.746	97497
373.828	25225
373.911	10554
373.993	9365
374.076	26618
374.159	26204
374.241	15492
374.324	57378
374.406	39220
374.489	42503
374.571	130593
374.654	58744
374.736	24069
374.819	76057
374.901	110404
374.983	117979
375.066	22320
375.148	6488
375.231	20240
375.313	43799
375.395	18049
375.478	4360
375.560	3174
375.643	5387
375.725	19630
375.807	93594
375.890	70673
375.972	21592
376.054	13853
376.136	15528
376.219	8038
376.301	23493
376.383	83527
376.465	34816
376.548	22972
376.630	25108
376.712	70940
376.794	35464
376.877	4585
376.959	2424
377.041	2743
377.123	5851
377.205	6427
377.287	1586
377.369	2079
377.452	2284
377.534	2512
377.616	2088
377.698	2218
377.780	1252
377.862	2715
377.944	3295
378.026	432
378.108	2158
378.190	1221
378.272	2244
378.354	567
378.436	683
378.518	3078
378.600	15036
378.682	15745
378.764	40206
378.846	33673
378.928	8010
379.010	13269
379.091	7193
379.173	2828
379.255	1481
379.337	3998
379.419	16629
379.501	56802
379.583	22766
379.664	5131
379.746	15061
379.828	44222
379.910	56501
379.991	48870
380.073	7948
380.155	4453
380.237	3366
380.318	1372
380.400	1659
380.482	7760
380.564	13164
380.645	10683
380.727	10689
380.809	7381
380.890	4214
380.972	1940
381.053	2742
381.135	3551
381.217	10873
381.298	42739
381.380	21374
381.461	13910
381.543	66901
381.624	90732
381.706	17106
381.787	6627
381.869	7794
381.951	25926
382.032	113758
382.113	81256
382.195	15760
382.276	7834
382.358	16840
382.439	63018
382.521	69217
382.602	109101
382.684	46595
382.765	83461
382.846	72121
382.928	56689
383.009	30829
383.090	21003
383.172	74551
383.253	121405
383.334	52902
383.416	87788
383.497	44830
383.578	13448
383.659	20646
383.741	66570
383.822	182417
383.903	100212
383.984	53368
384.066	117420
384.147	78538
384.228	14270
384.309	10699
384.390	6721
384.471	4621
384.553	5962
384.634	9050
384.715	10086
384.796	3796
384.877	5138
384.958	32314
385.039	45548
385.120	17239
385.201	5423
385.282	6251
385.363	5092
385.444	4070
385.525	9872
385.606	45687
385.687	44928
385.768	9094
385.849	10737
385.930	53746
386.011	97780
386.092	27679
386.173	5631
386.254	3403
386.335	4491
386.416	7167
386.496	22099
386.577	40320
386.658	12964
386.739	7088
386.820	4582
386.901	3313
386.981	3981
387.062	1455
387.143	6353
387.224	36041
387.304	36693
387.385	11857
387.466	4006
387.547	4968
387.627	3220
387.708	10792
387.789	63022
387.869	86028
387.950	22143
388.031	2131
388.111	842
388.192	7166
388.273	9904
388.353	6013
388.434	4799
388.514	11497
388.595	55246
388.676	81111
388.756	41341
388.837	38873
388.917	25546
388.998	3346
389.078	3180
389.159	2660
389.239	2339
389.320	6859
389.400	5121
389.480	12308
389.561	40340
389.641	20998
389.722	6291
389.802	11911
389.883	15140
389.963	46525
390.043	28193
390.124	5307
390.204	10801
390.284	45087
390.365	29299
390.445	18810
390.525	46156
390.605	48433
390.686	22451
390.766	6901
390.846	3591
390.927	952
391.007	1243
391.087	3501
391.167	2035
391.247	873
391.328	3943
391.408	5763
391.488	4187
391.568	465
391.648	4020
391.728	7924
391.808	6332
391.888	7707
391.969	19514
392.049	37242
392.129	13694
392.209	13089
392.289	45975
392.369	22916
392.449	11423
392.529	7163
392.609	6772
392.689	8489
392.769	39266
392.849	34564
392.929	15455
393.009	48110
393.089	34868
393.169	7558
393.248	15666
393.328	97270
393.408	113737
393.488	21745
393.568	6713
393.648	4369
393.728	3018
393.807	1896
393.887	2999
393.967	2549
394.047	4855
394.127	6768
394.206	12456
394.286	43208
394.366	188042
394.446	215826
394.525	56575
394.605	13112
394.685	9252
394.764	17884
394.844	28890
394.924	21231
395.003	8264
395.083	5844
395.163	5425
395.242	5245
395.322	5289
395.402	2028
395.481	5029
395.561	11663
395.640	35108
395.720	27235
395.799	33025
395.879	29319
395.958	19469
396.038	64337
396.117	247032
396.197	282926
396.276	93497
396.356	28542
396.435	16266
396.515	10081
396.594	9878
396.673	13273
396.753	25976
396.832	99496
396.912	105620
396.991	39477
397.070	8807
397.150	4787
397.229	2766
397.308	1756
397.388	2174
397.467	1974
397.546	2174
397.625	-23
397.705	4214
397.784	5312
397.863	2303
397.942	873
398.022	1078
398.101	7262
398.180	27682
398.259	14152
398.338	3768
398.417	3501
398.497	1605
398.576	2444
398.655	753
398.734	911
398.813	1041
398.892	7391
398.971	31507
399.050	16093
399.129	1235
399.208	1116
399.287	1142
399.366	223
399.445	794
399.524	1172
399.603	1200
399.682	4905
399.761	13356
399.840	35427
399.919	28099
399.998	4342
400.077	508
400.156	679
400.235	2719
400.313	342
400.392	1648
400.471	18972
400.550	37143
400.629	9390
400.708	3034
400.786	2206
400.865	5234
400.944	7681
401.023	5723
401.102	-62
401.180	1104
401.259	706
401.338	557
401.416	3641
401.495	2808
401.574	1663
401.652	1010
401.731	2636
401.810	327
401.888	1052
401.967	159
402.046	814
402.124	2189
402.203	3587
402.281	1921
402.360	1322
402.438	7294
402.517	5347
402.596	1270
402.674	1161
402.753	1049
402.831	56
402.910	1655
402.988	3759
403.066	12325
403.145	7631
403.223	4170
403.302	8278
403.380	6439
403.459	5292
403.537	2050
403.615	1146
403.694	-799
403.772	1253
403.850	65
403.929	742
404.007	189
404.085	1887
404.164	1281
404.242	1348
404.320	6302
404.398	23621
404.477	31058
404.555	86422
404.633	83756
404.711	24650
404.789	11667
404.868	2452
404.946	-63
405.024	901
405.102	494
405.180	156
405.258	108
405.336	1225
405.415	467
405.493	2403
405.571	1687
405.649	633
405.727	248
405.805	3004
405.883	2383
405.961	2083
406.039	1833
406.117	-220
406.195	3958
406.273	17432
406.351	76517
406.429	48568
406.507	5119
406.585	1780
406.663	2835
406.740	4878
406.818	3314
406.896	1275
406.974	1773
407.052	5205
407.130	41715
407.208	67999
407.285	14074
407.363	1318
407.441	1829
407.519	579
407.596	1844
407.674	5173
407.752	7411
407.830	8439
407.907	4251
407.985	949
408.063	841
408.141	260
408.218	2085
408.296	835
408.373	241
408.451	2537
408.529	2898
408.606	684
408.684	363
408.762	-317
408.839	-1126
408.917	-832
408.994	-141
409.072	-857
409.149	-220
409.227	267
409.304	-348
409.382	-260
409.459	-16
409.537	235
409.614	1292
409.692	496
409.769	-578
409.846	695
409.924	1136
410.001	-390
410.079	717
410.156	1090
410.233	49
410.311	-67
410.388	400
410.465	367
410.543	-896
410.620	471
410.697	1678
410.775	3039
410.852	-774
410.929	1484
411.006	3407
411.083	552
411.161	1813
411.238	2999
411.315	1388
411.392	146
411.469	1923
411.547	1087
411.624	-556
411.701	74
411.778	1902
411.855	6438
411.932	2927
412.009	638
412.086	444
412.163	598
412.240	1359
412.317	1427
412.394	1541
412.471	1033
412.548	255
412.625	510
412.702	1300
412.779	3362
412.856	1583
412.933	-430
413.010	564
413.087	1821
413.164	17504
413.241	30053
413.318	6660
413.395	2975
413.471	5263
413.548	2316
413.625	1487
413.702	1024
413.779	1544
413.855	587
413.932	-793
414.009	-941
414.086	59
414.162	978
414.239	1952
414.316	16475
414.393	45495
414.469	17477
414.546	927
414.623	-184
414.699	866
414.776	2140
414.853	714
414.929	231
415.006	459
415.082	699
415.159	770
415.236	1064
415.312	1222
415.389	3611
415.465	5870
415.542	2898
415.618	567
415.695	4709
415.771	1682
415.848	1417
415.924	1675
416.000	508
416.077	679
416.153	-471
416.230	-1002
416.306	-145
416.383	-329
416.459	73
416.535	-402
416.612	-595
416.688	-197
416.764	-271
416.841	-227
416.917	365
416.993	233
417.069	1195
417.146	1226
417.222	2678
417.298	1966
417.374	-215
417.451	1298
417.527	1490
417.603	3178
417.679	2090
417.755	710
417.831	140
417.908	-586
417.984	-464
418.060	-126
418.136	5093
418.212	8431
418.288	2810
418.364	1316
418.440	529
418.516	2702
418.592	2140
418.668	7142
418.744	15166
418.820	11021
418.896	1797
418.972	-759
419.048	757
419.124	6150
419.200	4656
419.276	209
419.352	-1002
419.428	402
419.504	926
419.579	938
419.655	1292
419.731	668
419.807	7889
419.883	17007
419.959	11788
420.034	3119
420.110	4466
420.186	25290
420.262	23132
420.337	3165
420.413	1542
420.489	759
420.565	835
420.640	41
420.716	656
420.792	-1323
420.867	147
420.943	-184
421.019	3118
421.094	2398
421.170	85
421.245	-990
421.321	-172
421.397	-300
421.472	1219
421.548	1855
421.623	3824
421.699	984
421.774	1901
421.850	-98
421.925	3031
422.001	2813
422.076	686
422.152	433
422.227	3162
422.302	2173
422.378	1833
422.453	3186
422.529	7996
422.604	36452
422.679	95395
422.755	54833
422.830	12335
422.905	2852
422.981	94
423.056	-25
423.131	695
423.207	101
423.282	786
423.357	7019
423.432	4522
423.508	3460
423.583	12259
423.658	10328
423.733	1542
423.808	2446
423.883	4015
423.959	2465
424.034	1150
424.109	362
424.184	-1031
424.259	-683
424.334	-535
424.409	-1041
424.484	125
424.559	513
424.634	855
424.709	1430
424.784	3053
424.859	557
424.934	2643
425.009	17776
425.084	33951
425.159	12356
425.234	2058
425.309	-20
425.384	3708
425.459	7121
425.534	2183
425.609	303
425.683	-334
425.758	-499
425.833	1256
425.908	1173
425.983	9369
426.058	34996
426.132	15734
426.207	2108
426.282	1942
426.357	1311
426.431	238
426.506	276
426.581	581
426.655	55
426.730	382
426.805	-135
426.879	808
426.954	1263
427.029	3650
427.103	24821
427.178	69497
427.253	32213
427.327	3541
427.402	3074
427.476	8277
427.551	4057
427.625	296
427.700	488
427.774	455
427.849	1221
427.923	-52
427.998	-1225
428.072	-706
428.147	2234
428.221	8374
428.296	12821
428.370	3346
428.444	388
428.519	2325
428.593	5841
428.667	5327
428.742	5619
428.816	4314
428.890	8891
428.965	14580
429.039	7295
429.113	6602
429.188	2478
429.262	-48
429.336	3497
429.410	14056
429.485	9263
429.559	5062
429.633	3996
429.707	671
429.781	2970
429.855	13979
429.930	24701
430.004	17850
430.078	28366
430.152	21700
430.226	12369
430.300	12843
430.374	1432
430.448	2421
430.522	7466
430.596	28137
430.670	18767
430.744	33183
430.818	66998
430.892	17639
430.966	2401
431.040	684
431.114	-217
431.188	-499
431.262	76
431.336	-30
431.410	2738
431.484	9539
431.557	8272
431.631	198
431.705	-243
431.779	669
431.853	4729
431.927	3629
432.000	84
432.074	588
432.148	333
432.222	695
432.295	438
432.369	385
432.443	1739
432.516	21198
432.590	66608
432.664	27648
432.737	2342
432.811	-40
432.885	96
432.958	897
433.032	-325
433.106	-167
433.179	44
433.253	-236
433.326	-464
433.400	-283
433.473	71
433.547	-620
433.620	397
433.694	2325
433.767	3544
433.841	-435
433.914	-594
433.988	14
434.061	-492
434.134	-528
434.208	-731
434.281	-615
434.355	-448
434.428	36
434.501	-520
434.575	-791
434.648	-127
434.721	141
434.795	-711
434.868	-947
434.941	-109
435.014	-1053
435.088	-505
435.161	460
435.234	2222
435.307	2452
435.381	-278
435.454	-174
435.527	-271
435.600	24
435.673	-289
435.746	-520
435.819	-1145
435.892	-15
435.966	-820
436.039	-849
436.112	157
436.185	-867
436.258	-713
436.331	-883
436.404	-470
436.477	-438
436.550	-1086
436.623	-1006
436.696	-240
436.769	945
436.842	-163
436.915	109
436.987	1478
437.060	528
437.133	-507
437.206	-900
437.279	257
437.352	-105
437.425	-375
437.498	840
437.570	3616
437.643	4012
437.716	12
437.789	-857
437.861	876
437.934	4428
438.007	2503
438.080	265
438.152	1515
438.225	3998
438.298	27910
438.370	88907
438.443	39505
438.516	6881
438.588	1589
438.661	-1233
438.734	614
438.806	1094
438.879	731
438.951	1314
439.024	1813
439.096	-267
439.169	-5
439.241	-781
439.314	-976
439.386	461
439.459	888
439.531	1606
439.604	1186
439.676	709
439.749	-331
439.821	91
439.893	-101
439.966	-252
440.038	939
440.110	1057
440.183	376
440.255	302
440.327	1179
440.400	10315
440.472	57204
440.544	42370
440.617	5499
440.689	2884
440.761	2433
440.833	4690
440.905	3577
440.978	298
441.050	-149
441.122	506
441.194	-337
441.266	-881
441.338	-25
441.411	1229
441.483	17620
441.555	31849
441.627	6354
441.699	1616
441.771	1448
441.843	131
441.915	230
441.987	-41
442.059	-728
442.131	-41
442.203	1374
442.275	1648
442.347	1519
442.419	187
442.491	2293
442.563	4587
442.635	4435
442.706	8911
442.778	10183
442.850	1088
442.922	-321
442.994	70
443.066	1833
443.137	1184
443.209	531
443.281	-284
443.353	1499
443.425	3853
443.496	9244
443.568	9721
443.640	3711
443.711	953
443.783	493
443.855	-146
443.926	-664
443.998	217
444.070	553
444.141	870
444.213	3236
444.285	3666
444.356	1488
444.428	1445
444.499	-464
444.571	-573
444.642	93
444.714	1101
444.785	2815
444.857	2441
444.928	5823
445.000	4372
445.071	3404
445.143	4090
445.214	1486
445.285	1789
445.357	8794
445.428	11533
445.500	22351
445.571	18738
445.642	8079
445.714	5980
445.785	10559
445.856	3577
445.928	3946
445.999	2989
446.070	1440
446.141	883
446.213	3324
446.284	1541
446.355	1760
446.426	496
446.497	394
446.569	1201
446.640	4625
446.711	3961
446.782	808
446.853	537
446.924	1298
446.995	1179
447.066	702
447.138	2014
447.209	1426
447.280	-25
447.351	-179
447.422	-374
447.493	398
447.564	1302
447.635	3101
447.706	1349
447.777	105
447.847	155
447.918	35
447.989	1164
448.060	2361
448.131	4233
448.202	6213
448.273	4337
448.344	1809
448.414	218
448.485	-47
448.556	519
448.627	-455
448.698	782
448.768	285
448.839	171
448.910	2331
448.981	2556
449.051	1057
449.122	-465
449.193	-503
449.263	307
449.334	323
449.405	1310
449.475	5430
449.546	3099
449.616	2118
449.687	2952
449.758	991
449.828	-112
449.899	208
449.969	-19
450.040	256
450.110	394
450.181	1051
450.251	-145
450.322	338
450.392	404
450.463	215
450.533	779
450.604	312
450.674	8
450.744	541
450.815	450
450.885	674
450.955	13
451.026	-911
451.096	-294
451.166	558
451.237	2080
451.307	8388
451.377	4726
451.447	-30
451.518	380
451.588	516
451.658	352
451.728	1370
451.799	7751
451.869	12214
451.939	3505
452.009	310
452.079	709
452.149	608
452.219	1375
452.289	10208
452.360	10436
452.430	2130
452.500	1100
452.570	1309
452.640	1940
452.710	4507
452.780	10165
452.850	10430
452.920	9960
452.990	3014
453.060	1998
453.129	2448
453.199	3578
453.269	9790
453.339	29487
453.409	49226
453.479	39069
453.549	60171
453.619	66255
453.688	34535
453.758	6417
453.828	2283
453.898	1174
453.968	637
454.037	1118
454.087	555
454.107	307
454.168	486
454.177	495
454.247	321
454.249	346
454.316	500
454.330	627
454.386	1000
454.411	2557
454.456	4691
454.492	6992
454.525	8997
454.574	5659
454.595	4237
454.655	1562
454.665	1173
454.734	1172
454.736	1287
454.804	3743
454.817	5237
454.873	9935
454.898	11630
454.943	14241
454.979	9958
455.013	6368
455.060	3789
455.082	2967
455.141	3962
455.152	4051
455.221	9142
455.222	9385
455.291	18737
455.303	19243
455.360	20452
455.384	25635
455.430	32065
455.465	26061
455.499	20744
455.546	15413
455.569	12531
455.627	8551
455.638	8047
455.707	2664
455.708	2674
455.777	1282
455.789	1374
455.846	1803
455.869	1583
455.916	1120
455.950	1104
455.985	1020
456.031	1272
456.054	1302
456.112	1180
456.124	1223
456.193	1766
456.193	1748
456.262	1101
456.274	1336
456.332	2510
456.355	2599
456.401	2051
456.436	1563
456.470	1196
456.516	1246
456.540	1369
456.597	1120
456.609	1061
456.678	1081
456.678	1065
456.747	832
456.759	702
456.817	548
456.840	838
456.886	1092
456.920	1067
456.955	1123
457.001	1328
457.024	1536
457.082	1718
457.093	1743
457.162	2689
457.163	2718
457.232	3632
457.243	3503
457.301	2172
457.324	1771
457.370	1658
457.405	1734
457.439	1667
457.485	1682
457.508	1741
457.566	1917
457.577	1948
457.646	2195
457.647	2209
457.715	2203
457.727	2304
457.784	2512
457.808	2612
457.853	3066
457.889	3226
457.922	3153
457.969	3241
457.991	3241
458.050	3347
458.060	3391
458.129	3738
458.130	3767
458.198	3237
458.211	3104
458.267	2491
458.292	2147
458.336	1982
458.372	1909
458.405	2161
458.453	3006
458.474	3376
458.533	3973
458.543	4062
458.611	5439
458.614	5520
458.680	4384
458.694	3697
458.749	2352
458.775	2449
458.818	2453
458.855	2146
458.887	2378
458.936	2687
458.955	2501
459.016	2025
459.024	2058
459.093	2526
459.097	2572
459.162	2738
459.177	2816
459.230	3394
459.257	3960
459.299	4292
459.338	3803
459.368	3805
459.418	4416
459.437	4196
459.499	3564
459.505	3566
459.574	3278
459.579	3276
459.643	3232
459.659	3109
459.711	3091
459.740	3153
459.780	3137
459.820	3501
459.849	3884
459.900	4245
459.917	4164
459.981	3932
459.986	3906
460.054	3555
460.061	3560
460.123	3772
460.141	3731
460.191	4551
460.222	5254
460.260	5575
460.302	6224
460.328	6083
460.382	5612
460.397	5557
460.462	4137
460.465	4153
460.534	5272
460.543	5447
460.602	12387
460.623	15144
460.671	23510
460.703	30340
460.739	27913
460.783	24747
460.808	21506
460.864	7476
460.876	6474
460.944	3910
460.945	3886
461.013	3905
461.024	3937
461.081	4246
461.104	4460
461.150	4426
461.184	4367
461.218	4267
461.264	3443
461.286	3436
461.345	4356
461.355	4393
461.423	4537
461.425	4535
461.491	4902
461.505	5075
461.559	9066
461.585	10867
461.628	17406
461.665	23790
461.696	26793
461.745	33150
461.764	28662
461.825	10168
461.832	9899
461.901	5373
461.905	5297
461.969	5047
461.985	4886
462.037	4904
462.065	5021
462.105	5526
462.145	5941
462.173	8223
462.225	12625
462.241	14383
462.305	22571
462.310	21909
462.378	11411
462.385	9963
462.446	6525
462.465	5527
462.514	5140
462.545	5365
462.582	5428
462.625	5559
462.650	5475
462.705	5146
462.718	5254
462.785	5649
462.786	5687
462.854	7950
462.865	8337
462.922	10794
462.945	11966
462.990	8898
463.025	6046
463.058	5766
463.104	5086
463.126	4823
463.184	4573
463.194	4665
463.262	5276
463.264	5300
463.330	5204
463.344	5141
463.398	6349
463.424	6880
463.466	6292
463.504	5940
463.533	6250
463.583	6587
463.601	6733
463.663	7275
463.669	7425
463.737	9210
463.743	9349
463.805	14526
463.823	16098
463.873	24506
463.903	29758
463.940	32239
463.982	35746
464.008	28933
464.062	12399
464.076	11450
464.142	6107
464.144	6064
464.211	5524
464.221	5467
464.279	5801
464.301	6009
464.347	6919
464.381	7492
464.414	8249
464.461	9345
464.482	9899
464.540	11543
464.550	11190
464.617	8117
464.620	8017
464.685	8995
464.699	9085
464.753	10611
464.779	11490
464.820	12649
464.859	13791
464.888	13495
464.938	12739
464.956	12873
465.018	13346
465.023	13154
465.091	10399
465.098	10092
465.158	10240
465.177	10332
465.226	10592
465.257	10629
465.293	10695
465.336	10722
465.361	11350
465.416	12809
465.428	13886
465.495	19767
465.496	19870
465.563	31082
465.575	33039
465.631	41790
465.654	45591
465.698	29319
465.734	15224
465.765	13468
465.813	10526
465.833	10339
465.893	10213
465.900	10158
465.968	9740
465.972	9693
466.035	9894
466.052	9945
466.102	10180
466.131	10213
466.170	10570
466.210	11043
466.237	11467
466.290	12220
466.304	12348
466.369	12703
466.372	12768
466.439	14130
466.449	14305
466.506	14672
466.528	14773
466.573	19447
466.607	22874
466.641	32768
466.687	46565
466.708	52223
466.766	67678
466.775	62726
466.842	24653
466.845	22795
466.909	16758
466.925	15338
466.977	14642
467.004	14313
467.044	15260
467.083	16175
467.111	17121
467.163	18816
467.178	19394
467.242	21642
467.245	21546
467.312	18757
467.321	18356
467.379	18854
467.400	18981
467.446	19576
467.480	19942
467.559	18001
467.638	15356
467.717	16523
467.796	17494
467.875	18495
467.955	16932
468.034	24448
468.113	52813
468.192	80858
468.271	22679
468.350	13222
468.429	12851
468.508	13449
468.588	11900
468.667	14901
468.746	14945
468.825	15165
468.904	12357
468.983	15878
469.062	22463
469.141	27895
469.220	13468
469.299	12187
469.378	14269
469.456	17324
469.535	15830
469.614	14712
469.693	13994
469.772	19615
469.851	25567
469.930	18873
470.009	13010
470.088	12846
470.166	13056
470.245	15661
470.324	16831
470.403	14717
470.482	12717
470.560	12272
470.639	12455
470.718	15304
470.797	13009
470.875	14693
470.954	19851
471.033	23509
471.111	11829
471.190	9767
471.269	10386
471.347	11818
471.426	11895
471.505	14096
471.583	14056
471.662	14306
471.740	12262
471.819	12558
471.898	11476
471.976	12008
472.055	11952
472.133	13728
472.212	17763
472.290	18754
472.369	11963
472.447	12476
472.526	10164
472.604	11577
472.683	10846
472.761	12563
472.839	11743
472.918	11371
472.996	11704
473.075	13508
473.153	13027
473.231	10629
473.310	13063
473.388	14050
473.466	11491
473.545	13027
473.623	15949
473.701	15809
473.780	11905
473.858	10735
473.936	12716
474.014	11733
474.093	12552
474.171	18258
474.249	24171
474.327	17599
474.405	8837
474.484	10940
474.562	10369
474.640	9854
474.718	10874
474.796	11410
474.874	11071
474.952	9572
475.030	10460
475.108	11610
475.187	12207
475.265	11599
475.343	11840
475.421	12267
475.499	11175
475.577	11645
475.655	14946
475.733	27917
475.811	48350
475.889	44045
475.966	31031
476.044	11046
476.122	9382
476.200	11882
476.278	10179
476.356	10522
476.434	9423
476.512	11286
476.590	12222
476.667	12751
476.745	9487
476.823	10638
476.901	9708
476.979	10570
477.056	10401
477.134	11511
477.212	11567
477.290	11204
477.367	9194
477.445	10003
477.523	8364
477.601	9992
477.678	9265
477.756	12021
477.834	12716
477.911	10308
477.989	8554
478.066	8611
478.144	10908
478.222	10274
478.299	10231
478.377	10453
478.454	9198
478.532	9593
478.609	8634
478.687	10310
478.764	8698
478.842	10468
478.919	10032
478.997	10190
479.074	8642
479.152	10197
479.229	13501
479.307	9181
479.384	7817
479.461	8940
479.539	8591
479.616	11010
479.694	8574
479.771	9624
479.848	10617
479.926	13775
480.003	15887
480.080	9048
480.157	7299
480.235	8401
480.312	8204
480.389	9387
480.467	16014
480.544	21011
480.621	11051
480.698	10395
480.775	11491
480.853	11820
480.930	9350
481.007	10338
481.084	10739
481.161	12152
481.238	11229
481.315	8478
481.392	7399
481.470	9632
481.547	8488
481.624	9338
481.701	8294
481.778	9602
481.855	10327
481.932	14857
482.009	25507
482.086	19253
482.163	8768
482.240	8352
482.317	9379
482.393	9336
482.470	8493
482.547	9420
482.624	7944
482.701	9476
482.778	7838
482.855	7671
482.932	8090
483.009	7356
483.085	8294
483.162	9502
483.239	8487
483.316	7566
483.393	6949
483.469	7873
483.546	8962
483.623	11002
483.699	8322
483.776	9193
483.853	9676
483.930	15988
484.006	39171
484.083	70647
484.160	37644
484.236	51022
484.313	40113
484.389	29426
484.466	26431
484.543	24752
484.619	24601
484.696	25779
484.772	26854
484.849	29761
484.925	23506
485.002	23683
485.078	25278
485.155	25565
485.231	23587
485.308	23114
485.384	23294
485.461	28384
485.537	42367
485.614	52543
485.690	24625
485.766	20736
485.843	21605
485.919	27932
485.995	29501
486.072	19645
486.148	20088
486.224	19698
486.301	20348
486.377	24123
486.453	23099
486.530	23633
486.606	29568
486.682	33236
486.758	39610
486.835	45332
486.911	35813
486.987	53923
487.063	54138
487.139	60678
487.215	42626
487.292	24720
487.368	20966
487.444	22684
487.520	24463
487.596	22082
487.672	22636
487.748	30081
487.824	34187
487.900	23190
487.976	20492
488.052	21758
488.128	25384
488.204	22418
488.280	21674
488.356	25236
488.432	46504
488.508	77013
488.584	27938
488.660	19432
488.736	19123
488.812	19774
488.888	23462
488.964	30065
489.039	52647
489.115	81443
489.191	53082
489.267	21375
489.343	18745
489.418	17597
489.494	16950
489.570	16087
489.646	17812
489.722	16312
489.797	17251
489.873	25555
489.949	54819
490.024	49931
490.100	15769
490.176	16194
490.251	18767
490.327	23055
490.403	15733
490.478	15543
490.554	12915
490.629	14037
490.705	13098
490.781	15250
490.856	13870
490.932	18211
491.007	16831
491.083	16152
491.158	15230
491.234	20265
491.309	40582
491.385	43939
491.460	15509
491.536	17104
491.611	14356
491.686	15721
491.762	19651
491.837	34860
491.913	58353
491.988	77993
492.063	100786
492.139	34771
492.214	22075
492.289	13205
492.365	11840
492.440	14096
492.515	13218
492.590	14682
492.666	11008
492.741	15901
492.816	24894
492.891	14773
492.967	11629
493.042	11406
493.117	13229
493.192	14465
493.267	23040
493.342	76225
493.418	114296
493.493	22735
493.568	10643
493.643	10529
493.718	13243
493.793	20065
493.868	22043
493.943	13998
494.018	10904
494.093	10764
494.168	10480
494.243	9807
494.318	7995
494.393	8756
494.468	9133
494.543	9268
494.618	9807
494.693	10085
494.768	8943
494.842	10335
494.917	8223
494.992	8651
495.067	8756
495.142	9422
495.217	9863
495.292	9886
495.366	11643
495.441	15039
495.516	18271
495.591	23368
495.665	64770
495.740	162034
495.815	75787
495.890	16130
495.964	11508
496.039	14571
496.114	11801
496.188	12796
496.263	13136
496.338	12703
496.412	14078
496.487	17161
496.561	16969
496.636	17205
496.710	14018
496.785	15384
496.860	18055
496.934	14545
497.009	13630
497.083	14363
497.158	15306
497.232	18486
497.307	21702
497.381	18820
497.455	20408
497.530	29307
497.604	22125
497.679	23503
497.753	34042
497.827	45561
497.902	42894
497.976	47177
498.050	88381
498.125	326656
498.199	356789
498.273	62466
498.348	44992
498.422	38334
498.496	35639
498.570	31236
498.645	24943
498.719	26219
498.793	29600
498.867	41665
498.941	51248
499.016	127019
499.090	362599
499.164	136980
499.238	18500
499.312	16230
499.386	18988
499.460	18161
499.534	16686
499.609	20196
499.683	31371
499.757	31017
499.831	55657
499.905	231064
499.979	234703
500.053	36872
500.127	33778
500.201	23019
500.275	17002
500.349	16133
500.422	18215
500.496	24399
500.570	46718
500.644	122580
500.718	254501
500.792	59181
500.866	16392
500.940	21252
501.013	18019
501.087	18258
501.161	27173
501.235	38143
501.309	74743
501.382	218316
501.456	201246
501.530	42562
501.603	74343
501.677	30026
501.751	13017
501.825	16573
501.898	29163
501.972	89386
502.046	59083
502.119	17076
502.193	36514
502.266	97092
502.340	47411
502.413	41202
502.487	83491
502.561	48346
502.634	15027
502.708	11927
502.781	10598
502.855	9687
502.928	7440
503.002	9232
503.075	8484
503.149	9210
503.222	10588
503.295	12175
503.369	14202
503.442	19075
503.516	59516
503.589	165128
503.662	107087
503.736	31822
503.809	75419
503.882	60804
503.956	85868
504.029	77713
504.102	22438
504.175	20948
504.249	9846
504.322	12203
504.395	10989
504.468	8979
504.542	8566
504.615	7565
504.688	6836
504.761	6929
504.834	9129
504.907	11074
504.980	17389
505.053	9682
505.127	10178
505.200	15163
505.273	14221
505.346	9053
505.419	7518
505.492	7398
505.565	4971
505.638	5915
505.711	6449
505.784	6497
505.857	6100
505.930	6976
506.003	5804
506.076	9238
506.149	10094
506.221	13791
506.294	12772
506.367	31884
506.440	115251
506.513	65043
506.586	15073
506.659	9576
506.731	7017
506.804	8445
506.877	12018
506.950	10054
507.022	6152
507.095	9728
507.168	11107
507.241	7840
507.313	5282
507.386	6389
507.459	9870
507.531	7532
507.604	5584
507.677	7681
507.749	5413
507.822	9292
507.894	16281
507.967	22253
508.040	11711
508.112	11554
508.185	10010
508.257	9142
508.330	13143
508.402	9741
508.475	9801
508.547	11542
508.620	10326
508.692	17571
508.765	10916
508.837	7247
508.909	7515
508.982	8341
509.054	10387
509.127	8317
509.199	7128
509.271	7274
509.344	7060
509.416	8081
509.488	7139
509.560	8509
509.633	8028
509.705	10206
509.777	9726
509.849	13318
509.922	9900
509.994	9426
510.066	8160
510.138	9034
510.210	19058
510.283	17475
510.355	13759
510.427	12078
510.499	12209
510.571	12704
510.643	10255
510.715	16455
510.787	14746
510.859	11658
510.931	12014
511.003	15448
511.076	15698
511.148	10852
511.219	10168
511.291	16754
511.363	19712
511.435	9977
511.507	8617
511.579	10031
511.651	9519
511.723	9035
511.795	8555
511.867	9212
511.939	10680
512.010	22105
512.082	18569
512.154	9814
512.226	9750
512.298	14371
512.369	20571
512.441	15568
512.513	15276
512.585	11985
512.656	12387
512.728	12895
512.800	10287
512.871	10457
512.943	9825
513.015	9234
513.086	10204
513.158	11496
513.230	9673
513.301	15547
513.373	18223
513.444	11878
513.516	9272
513.588	9183
513.659	9906
513.731	12229
513.802	10870
513.874	19973
513.945	33718
514.016	14407
514.088	9590
514.159	9727
514.231	13936
514.302	18606
514.374	13975
514.445	13955
514.516	25947
514.588	19660
514.659	12898
514.730	25106
514.802	18148
514.873	14392
514.944	17120
515.016	13558
515.087	13042
515.158	17081
515.229	25867
515.301	15082
515.372	21242
515.443	13864
515.514	11034
515.585	9068
515.656	10064
515.728	8210
515.799	8330
515.870	9315
515.941	9969
516.012	8824
516.083	12398
516.154	13392
516.225	16690
516.296	14962
516.367	13095
516.438	14255
516.509	16877
516.580	21169
516.651	50971
516.722	183378
516.793	100908
516.864	24937
516.935	23708
517.006	24628
517.077	31939
517.148	62143
517.219	168941
517.289	295569
517.360	136497
517.431	49554
517.502	14992
517.573	13677
517.643	12992
517.714	15590
517.785	16067
517.856	13393
517.926	17352
517.997	20196
518.068	23148
518.138	28731
518.209	36613
518.280	109122
518.350	436062
518.421	179837
518.492	25241
518.562	16831
518.633	15065
518.703	12580
518.774	14920
518.845	18591
518.915	18331
518.986	15918
519.056	17724
519.127	30619
519.197	47329
519.268	121365
519.338	80001
519.408	20042
519.479	20269
519.549	15460
519.620	12740
519.690	9610
519.760	9794
519.831	9819
519.901	10694
519.971	9345
520.042	10180
520.112	11814
520.182	12673
520.253	14820
520.323	10934
520.393	14277
520.463	21948
520.534	14335
520.604	32646
520.674	16933
520.744	15966
520.814	34934
520.885	31705
520.955	37018
521.025	145231
521.095	58142
521.165	12275
521.235	10336
521.305	8681
521.375	9352
521.445	9319
521.515	11502
521.585	13094
521.655	12899
521.725	11151
521.795	12325
521.865	7951
521.935	14305
522.005	12273
522.075	8234
522.145	9782
522.215	10272
522.285	13636
522.355	18313
522.424	37555
522.494	32217
522.564	15088
522.634	24828
522.704	73818
522.774	32338
522.843	10010
522.913	8510
522.983	10606
523.053	9436
523.122	9185
523.192	11267
523.262	37018
523.331	40944
523.401	9703
523.471	7081
523.540	7639
523.610	5620
523.680	6038
523.749	6728
523.819	8969
523.888	8782
523.958	6676
524.027	7346
524.097	7918
524.166	6564
524.236	7002
524.305	9501
524.375	6445
524.444	5759
524.514	8075
524.583	8113
524.653	8778
524.722	11284
524.791	6451
524.861	8112
524.930	4935
524.999	6126
525.069	10212
525.138	8836
525.207	10402
525.277	8136
525.346	6078
525.415	7141
525.484	5969
525.554	8246
525.623	7611
525.692	6795
525.761	6635
525.830	6770
525.900	5612
525.969	8446
526.038	8855
526.107	8103
526.176	17778
526.245	16664
526.314	14707
526.383	17537
526.452	15034
526.522	26010
526.591	37273
526.660	36222
526.729	18105
526.797	18259
526.867	36753
526.935	182250
527.004	152792
527.073	54859
527.142	9181
527.211	7559
527.280	8622
527.349	9668
527.418	4510
527.487	6450
527.555	4184
527.624	5966
527.693	3763
527.762	6166
527.831	3901
527.899	6030
527.968	5633
528.037	4982
528.106	6667
528.174	12953
528.243	11706
528.312	14915
528.380	20564
528.449	7074
528.518	5670
528.586	3515
528.655	5692
528.723	5278
528.792	3948
528.861	4808
528.929	3188
528.998	5841
529.066	3641
529.135	5199
529.203	3828
529.272	3269
529.340	5486
529.409	5786
529.477	4890
529.545	5910
529.614	8890
529.682	7821
529.751	9049
529.819	9905
529.887	6296
529.956	4569
530.024	6188
530.092	4160
530.161	5285
530.229	9795
530.297	5204
530.365	5755
530.434	4269
530.502	4400
530.570	4184
530.638	2680
530.707	4228
530.775	6611
530.843	3838
530.911	4409
530.979	4784
531.047	4447
531.115	4725
531.183	4696
531.252	4170
531.320	5538
531.388	4164
531.456	4835
531.524	2798
531.592	4839
531.660	6089
531.728	3778
531.796	4087
531.864	4943
531.932	4631
532.000	4099
532.067	4722
532.135	6386
532.203	6271
532.271	6562
532.339	10797
532.407	30312
532.475	20176
532.542	10588
532.610	9963
532.678	12959
532.746	50538
532.814	150136
532.881	38839
532.949	7606
533.017	5559
533.084	5260
533.152	3913
533.220	4835
533.287	4761
533.355	5411
533.423	4350
533.490	3897
533.558	4590
533.625	5696
533.693	5497
533.761	6325
533.828	6100
533.896	5624
533.963	13059
534.031	15822
534.098	19300
534.166	9684
534.233	5983
534.300	7276
534.368	6449
534.435	6203
534.503	5396
534.570	6360
534.637	4550
534.705	4713
534.772	4876
534.840	5309
534.907	11052
534.974	11443
535.041	4830
535.109	7437
535.176	3633
535.243	5582
535.310	4807
535.378	3736
535.445	3827
535.512	4267
535.579	4609
535.646	3748
535.714	4876
535.781	7621
535.848	6186
535.915	7651
535.982	7845
536.049	7150
536.116	7260
536.183	6292
536.250	5835
536.317	6942
536.384	6286
536.451	10446
536.518	10740
536.585	6280
536.652	9857
536.719	14111
536.786	10299
536.853	7854
536.920	11798
536.987	19407
537.053	17922
537.120	68118
537.187	65494
537.254	7477
537.321	5091
537.388	6376
537.454	4079
537.521	4517
537.588	4828
537.654	5458
537.721	6010
537.788	7325
537.855	5029
537.921	5860
537.988	5147
538.055	6413
538.121	4600
538.188	5580
538.254	9472
538.321	19726
538.388	12304
538.454	6249
538.521	5659
538.587	5281
538.654	4738
538.720	5004
538.787	4672
538.853	6151
538.920	7805
538.986	7553
539.053	5469
539.119	7122
539.185	5838
539.252	7980
539.318	10570
539.385	9391
539.451	7095
539.517	8421
539.583	8845
539.650	19276
539.716	54756
539.782	16793
539.849	5399
539.915	6826
539.981	4824
540.047	7434
540.114	7106
540.180	8254
540.246	7284
540.312	10402
540.378	17704
540.444	21394
540.510	18479
540.576	60436
540.643	20532
540.709	6252
540.775	6021
540.841	5940
540.907	9256
540.973	16452
541.039	10793
541.105	13046
541.171	7330
541.237	5377
541.303	6792
541.369	9865
541.435	8462
541.500	16648
541.566	10597
541.632	6033
541.698	4745
541.764	6751
541.830	5905
541.896	5253
541.961	5512
542.027	5929
542.093	6019
542.159	6530
542.224	6164
542.290	10433
542.356	14929
542.421	20820
542.487	9612
542.553	7003
542.618	7681
542.684	6309
542.750	6177
542.815	8538
542.881	12852
542.947	48491
543.012	39109
543.078	7328
543.143	5686
543.209	7821
543.274	6283
543.340	8205
543.405	17008
543.471	31859
543.536	8977
543.602	7623
543.667	5850
543.732	6795
543.798	4964
543.863	6905
543.928	4822
543.994	4459
544.059	5098
544.124	6238
544.190	5283
544.255	5998
544.320	6614
544.386	6579
544.451	8938
544.516	10781
544.581	9794
544.646	30033
544.712	52284
544.777	13230
544.842	8158
544.907	9225
544.972	7743
545.037	7750
545.102	7766
545.168	7915
545.233	8380
545.298	10222
545.363	10430
545.428	11914
545.493	17744
545.558	41411
545.623	18427
545.688	8349
545.753	8015
545.818	8085
545.883	7197
545.947	7696
546.012	8128
546.077	9082
546.142	8190
546.207	7329
546.272	9666
546.337	10722
546.401	8314
546.466	9029
546.531	6322
546.596	9471
546.661	8229
546.725	8031
546.790	6360
546.855	7473
546.919	6135
546.984	7432
547.049	7388
547.113	9264
547.178	6815
547.243	9089
547.307	9323
547.372	11052
547.436	11358
547.501	7520
547.565	7907
547.630	10110
547.695	10439
547.759	11505
547.823	9726
547.888	8384
547.952	6505
548.017	8204
548.081	8901
548.146	13134
548.210	10826
548.274	6631
548.339	6707
548.403	7925
548.468	6340
548.532	6888
548.596	6594
548.660	7644
548.725	7590
548.789	9494
548.853	10790
548.917	8064
548.982	11744
549.046	12657
549.110	6902
549.174	7095
549.238	6417
549.303	6650
549.367	7937
549.431	6805
549.495	6632
549.559	6540
549.623	6653
549.687	8705
549.751	12312
549.815	10240
549.879	8278
549.943	6938
550.007	8530
550.071	8565
550.135	10879
550.199	9541
550.263	8747
550.327	9661
550.391	12843
550.455	8612
550.519	6795
550.582	10008
550.646	11617
550.710	12947
550.774	8203
550.838	8543
550.901	7521
550.965	9210
551.029	9393
551.093	11452
551.156	13597
551.220	27856
551.284	29562
551.347	14251
551.411	35703
551.475	39976
551.538	9574
551.602	8106
551.666	6689
551.729	6539
551.793	7529
551.856	7958
551.920	7687
551.983	8142
552.047	6918
552.110	7573
552.174	6394
552.237	7157
552.301	6689
552.364	7158
552.428	7027
552.491	7382
552.554	7028
552.618	7516
552.681	8743
552.745	8651
552.808	11294
552.871	16049
552.934	10242
552.998	8994
553.061	9284
553.124	8708
553.187	9640
553.251	10244
553.314	12103
553.377	10986
553.440	17887
553.503	56395
553.567	97869
553.630	18372
553.693	8567
553.756	8579
553.819	6837
553.882	6196
553.945	7047
554.008	6350
554.071	5374
554.134	6530
554.197	6441
554.260	6209
554.323	8880
554.386	7229
554.449	5912
554.512	7103
554.575	5447
554.638	6711
554.701	6840
554.764	6395
554.827	6502
554.889	6139
554.952	5138
555.015	6434
555.078	6227
555.141	6453
555.203	5484
555.266	6098
555.329	6247
555.391	5968
555.454	5739
555.517	7232
555.580	5458
555.642	5258
555.705	4521
555.768	6345
555.830	6318
555.893	6032
555.955	5941
556.018	6326
556.080	5732
556.143	5527
556.206	5562
556.268	7242
556.330	6256
556.393	6847
556.455	7043
556.518	10742
556.580	11915
556.643	6866
556.705	6505
556.767	5175
556.830	6544
556.892	7542
556.955	10453
557.017	9066
557.079	6538
557.142	5960
557.204	6753
557.266	16152
557.328	13645
557.391	6321
557.453	5901
557.515	6129
557.577	6845
557.639	7941
557.701	4988
557.764	5052
557.826	4914
557.888	7313
557.950	4957
558.012	5686
558.074	5952
558.136	7235
558.198	12571
558.260	9004
558.322	5671
558.384	6469
558.446	7977
558.508	7408
558.570	8806
558.632	17213
558.694	26654
558.756	14761
558.818	24328
558.880	58029
558.942	19781
559.003	14065
559.065	9390
559.127	7034
559.189	5454
559.251	7192
559.312	7772
559.374	12123
559.436	33726
559.498	19387
559.559	6958
559.621	6339
559.683	7895
559.744	11543
559.806	21882
559.868	27292
559.929	10596
559.991	9529
560.052	8683
560.114	14066
560.176	11792
560.237	11228
560.299	15757
560.360	8440
560.422	6872
560.483	7780
560.545	6860
560.606	5921
560.667	7183
560.729	6862
560.790	6159
560.852	7088
560.913	7028
560.974	6482
561.036	6535
561.097	6998
561.158	5608
561.220	8498
561.281	7012
561.342	7544
561.403	10284
561.465	10575
561.526	22886
561.587	34398
561.648	10180
561.709	7643
561.771	7001
561.832	6994
561.893	7235
561.954	7380
562.015	6412
562.076	7747
562.137	6211
562.198	7548
562.259	8081
562.320	7650
562.381	7968
562.442	11111
562.503	9393
562.564	8552
562.625	6597
562.686	7745
562.747	7609
562.808	7596
562.869	6869
562.930	10121
562.991	8342
563.051	8704
563.112	7498
563.173	7495
563.234	7037
563.294	8340
563.355	7235
563.416	7513
563.477	7004
563.537	7653
563.598	8207
563.659	8618
563.720	7783
563.780	9069
563.841	8476
563.901	7681
563.962	8611
564.023	8787
564.083	8032
564.144	8166
564.204	7147
564.265	8313
564.325	9469
564.386	17748
564.446	16144
564.507	8604
564.567	7460
564.628	7439
564.688	6787
564.749	7949
564.809	8939
564.869	10549
564.930	7715
564.990	7911
565.050	7765
565.111	8541
565.171	7869
565.231	8185
565.292	8817
565.352	7604
565.412	8812
565.472	8692
565.532	7627
565.593	8812
565.653	7912
565.713	9634
565.773	9008
565.833	10128
565.893	12933
565.953	10060
566.013	8550
566.074	9960
566.134	11667
566.194	17855
566.254	18619
566.314	12641
566.374	9713
566.434	10465
566.494	10427
566.554	10595
566.614	10979
566.673	11870
566.733	12388
566.793	13378
566.853	12808
566.913	13761
566.973	13471
567.033	13546
567.092	12809
567.152	13903
567.212	12822
567.272	13887
567.331	14809
567.391	15096
567.451	16430
567.511	20002
567.570	19218
567.630	14435
567.690	14411
567.749	14543
567.809	15269
567.868	17689
567.928	19323
567.988	22322
568.047	25614
568.107	31734
568.166	41603
568.226	61028
568.285	83950
568.345	78533
568.404	64289
568.464	55759
568.523	51915
568.582	52389
568.642	55983
568.701	67897
568.761	91898
568.820	138626
568.879	146043
568.939	116740
568.998	84820
569.057	65850
569.116	51603
569.176	43593
569.235	34997
569.294	30898
569.353	26094
569.413	24108
569.472	21834
569.531	19135
569.590	17735
569.649	16521
569.708	14952
569.767	15190
569.827	14811
569.886	13629
569.945	11935
570.004	12033
570.063	11516
570.122	11732
570.181	11487
570.240	13133
570.299	11983
570.358	11208
570.417	9532
570.475	9282
570.534	9916
570.593	10170
570.652	9476
570.711	9790
570.770	8939
570.829	10546
570.887	9024
570.946	10472
571.005	9280
571.064	8682
571.122	8565
571.181	10734
571.240	8898
571.299	8249
571.357	9014
571.416	9636
571.475	9999
571.533	10718
571.592	8586
571.650	9206
571.709	6996
571.768	8744
571.826	7419
571.885	6971
571.943	6999
572.002	7447
572.060	7758
572.119	7365
572.177	6907
572.236	7502
572.294	5729
572.352	7107
572.411	7008
572.469	6925
572.528	6381
572.586	7179
572.644	7467
572.703	8757
572.761	7833
572.819	7859
572.877	6883
572.936	6428
572.994	6127
573.052	6447
573.110	6146
573.169	7096
573.227	5576
573.285	6297
573.343	6540
573.401	6393
573.459	6275
573.517	6473
573.576	5365
573.634	6811
573.692	5899
573.750	6481
573.808	6251
573.866	7262
573.924	8879
573.982	8943
574.040	6515
574.098	7297
574.155	5907
574.213	6382
574.271	5919
574.329	6491
574.387	6831
574.445	6334
574.503	5474
574.560	6018
574.618	5485
574.676	5042
574.734	5471
574.792	6202
574.849	6185
574.907	6251
574.965	4743
575.022	5515
575.080	6135
575.138	6044
575.195	6921
575.253	6257
575.311	6804
575.368	6439
575.426	5529
575.483	6094
575.541	5101
575.598	5813
575.656	5632
575.713	6670
575.771	6078
575.828	7244
575.886	5906
575.943	6095
576.001	6566
576.058	6494
576.115	6918
576.173	8575
576.230	8092
576.287	9291
576.345	8081
576.402	7336
576.459	6829
576.517	6629
576.574	8067
576.631	7383
576.688	7017
576.746	7291
576.803	6671
576.860	6821
576.917	6611
576.974	5794
577.031	6566
577.089	6847
577.146	6299
577.203	7354
577.260	7827
577.317	7473
577.374	8924
577.431	8496
577.488	7163
577.545	7070
577.602	6543
577.659	6877
577.716	7549
577.773	8809
577.830	7524
577.886	7887
577.943	6905
578.000	7983
578.057	6881
578.114	8387
578.171	8949
578.227	10920
578.284	10522
578.341	9679
578.398	8890
578.454	8501
578.511	8943
578.568	10345
578.625	8511
578.681	7654
578.738	6699
578.794	7631
578.851	7294
578.908	7927
578.964	6616
579.021	8135
579.077	6948
579.134	7307
579.190	6981
579.247	6516
579.303	6005
579.360	5829
579.416	6709
579.473	6638
579.529	6480
579.586	6183
579.642	6629
579.698	7310
579.755	8825
579.811	7950
579.867	7849
579.924	8736
579.980	7287
580.036	10735
580.093	11435
580.149	14519
580.205	17044
580.261	14458
580.317	11130
580.374	11364
580.430	10345
580.486	10561
580.542	8463
580.598	7621
580.619	7857
580.654	8273
580.692	8172
580.710	8130
580.765	7755
580.767	7745
580.823	8622
580.838	8522
580.879	8275
580.911	7739
580.935	7340
580.984	7970
580.991	8059
581.047	8969
581.057	8815
581.103	8197
581.130	8920
581.159	9655
581.203	9557
581.215	9534
581.270	9758
581.276	9676
581.326	8856
581.349	9171
581.382	9650
581.422	9047
581.438	8787
581.494	8857
581.494	8852
581.550	8472
581.567	8801
581.606	9432
581.640	9228
581.661	9095
581.713	9928
581.717	10006
581.773	8503
581.786	8804
581.829	9796
581.859	9435
581.885	9081
581.932	9961
581.940	10100
581.996	9707
582.004	9591
582.052	9047
582.077	8793
582.107	8560
582.150	9235
582.163	9406
582.219	9212
582.223	9300
582.274	10318
582.296	9776
582.330	8912
582.368	10002
582.386	10530
582.441	9878
582.441	9876
582.497	10276
582.514	10274
582.552	10378
582.587	10832
582.608	10996
582.659	10642
582.663	10612
582.719	10732
582.732	10532
582.774	10018
582.805	10553
582.830	10999
582.877	10777
582.885	10737
582.941	10809
582.950	10853
582.996	11205
583.023	11869
583.052	12530
583.095	12253
583.107	12285
583.162	14551
583.168	14684
583.218	15339
583.240	15124
583.273	14695
583.313	13943
583.328	13649
583.384	13588
583.385	13560
583.439	12773
583.458	12570
583.494	12241
583.531	12037
583.549	11998
583.603	12715
583.605	12735
583.660	12527
583.676	12621
583.715	12921
583.748	12737
583.770	12626
583.820	13563
583.825	13633
583.881	13431
583.893	13438
583.936	13687
583.965	13216
583.991	12822
584.038	13095
584.046	13133
584.101	13182
584.110	13186
584.156	13352
584.183	13504
584.211	13560
584.255	13972
584.266	14064
584.321	12936
584.328	13069
584.376	14575
584.400	14456
584.431	14152
584.472	14393
584.486	14541
584.541	15446
584.545	15470
584.596	15664
584.617	15543
584.651	15631
584.689	15967
584.706	16041
584.761	16448
584.762	16440
584.816	16856
584.834	17096
584.871	17347
584.906	17400
584.926	17460
584.978	17156
584.980	17156
585.035	18306
585.051	18417
585.090	19193
585.123	19719
585.145	19789
585.195	19554
585.200	19611
585.254	21017
585.267	21381
585.309	22679
585.340	23665
585.364	24182
585.412	23568
585.419	23395
585.473	21993
585.484	21788
585.528	22104
585.556	23282
585.583	24838
585.628	26513
585.637	27075
585.692	32105
585.700	33112
585.747	38786
585.772	38176
585.801	33720
585.845	28030
585.856	27408
585.910	26557
585.917	26442
585.965	26507
585.989	26568
586.019	26928
586.061	26719
586.074	26647
586.128	28208
586.133	28198
586.183	29184
586.205	29758
586.237	30089
586.277	30118
586.292	30266
586.346	31568
586.349	31551
586.401	31850
586.421	32040
586.455	32795
586.493	34295
586.509	35632
586.564	40134
586.565	40266
586.618	50843
586.637	52753
586.672	49543
586.709	42574
586.727	40204
586.781	38806
586.781	38859
586.835	39512
586.853	40010
586.889	41148
586.925	41599
586.944	41824
586.996	43546
586.998	43675
587.052	45903
587.068	46329
587.106	47589
587.140	48344
587.161	48833
587.212	51696
587.215	51971
587.269	53497
587.284	54550
587.323	56619
587.356	57429
587.377	58896
587.427	63007
587.431	63336
587.485	66048
587.499	66751
587.539	69994
587.571	72450
587.593	74082
587.643	77562
587.648	78136
587.702	83164
587.715	84612
587.755	90315
587.786	93983
587.810	97111
587.858	103018
587.864	104088
587.917	114493
587.930	116821
587.971	125948
588.001	132155
588.025	138301
588.073	151107
588.079	153220
588.133	170691
588.145	174676
588.187	192677
588.217	205370
588.241	218050
588.288	242754
588.295	247313
588.348	285341
588.360	293310
588.402	328828
588.431	354517
588.456	383724
588.503	441421
588.510	452451
588.564	538860
588.575	557632
588.617	661056
588.646	734170
588.671	825299
588.718	1004103
588.725	1043020
588.778	1347290
588.789	1408333
588.832	1657087
588.861	1813004
588.886	1807182
588.932	1720524
588.939	1693656
588.993	1425298
589.004	1398474
589.047	1724677
589.075	1899315
589.100	1838404
589.147	1649456
589.154	1610916
589.207	1293483
589.218	1229838
589.261	1117714
589.290	1048637
589.314	1063122
589.361	1101105
589.368	1128706
589.421	1357375
589.433	1406144
589.475	1622856
589.504	1760020
589.528	1726215
589.576	1581683
589.582	1590025
589.635	1707564
589.647	1718080
589.689	1556844
589.718	1411459
589.742	1227811
589.790	867053
589.795	845414
589.849	640074
589.861	593108
589.902	506552
589.932	442515
589.955	409013
590.004	337633
590.009	333765
590.062	286628
590.075	274986
590.115	250294
590.146	230223
590.168	221065
590.218	200035
590.222	199033
590.275	180303
590.289	175227
590.328	165061
590.360	155911
590.381	151263
590.431	139475
590.435	139265
590.488	130220
590.503	127494
590.541	123081
590.574	118575
590.594	115937
590.645	108467
590.647	108539
590.700	103211
590.716	101382
590.753	98202
590.787	94853
590.806	93419
590.859	88498
590.859	88668
590.912	84850
590.930	83538
590.965	82329
591.001	80505
591.018	79954
591.071	77695
591.072	77456
591.124	75694
591.143	74879
591.177	74443
591.214	73425
591.230	73082
591.283	71336
591.285	71056
591.336	69692
591.356	68913
591.389	68863
591.427	68190
591.442	67423
591.495	63934
591.498	63489
591.547	61615
591.569	60529
591.600	59894
591.640	58537
591.653	58760
591.706	59187
591.711	59040
591.759	58137
591.782	57471
591.811	58110
591.853	58569
591.864	58323
591.917	56190
591.924	55701
591.969	55012
591.995	54387
592.022	54532
592.066	54306
592.075	54401
592.127	53992
592.137	53747
592.180	55872
592.208	56954
592.233	55091
592.279	50996
592.285	50995
592.338	49711
592.350	49251
592.390	48702
592.421	48046
592.443	48096
592.491	47700
592.495	47785
592.548	46858
592.562	46454
592.600	46368
592.633	46022
592.653	45954
592.704	45139
592.705	45398
592.775	45320
592.846	45460
592.916	45268
592.987	47881
593.058	43983
593.128	42138
593.199	40479
593.270	40774
593.341	40583
593.411	41035
593.482	39522
593.553	39613
593.623	37912
593.694	37210
593.764	37899
593.835	38012
593.906	36466
593.976	36511
594.047	36566
594.117	39655
594.188	39142
594.258	35634
594.329	33753
594.399	32915
594.470	33556
594.540	33258
594.611	31417
594.681	31773
594.751	31836
594.822	32540
594.892	33385
594.963	34079
595.033	33640
595.103	33127
595.174	34339
595.244	38837
595.314	46254
595.384	33997
595.455	30728
595.525	30977
595.595	31004
595.665	30662
595.736	30769
595.806	30617
595.876	30426
595.946	29642
596.016	29330
596.087	29190
596.157	29156
596.227	29006
596.297	29476
596.367	29402
596.437	31396
596.507	35614
596.577	42144
596.647	31647
596.717	29212
596.787	29204
596.857	28041
596.927	28789
596.997	27989
597.067	29114
597.137	32257
597.207	31671
597.277	27936
597.347	29234
597.417	29280
597.487	30318
597.557	30735
597.626	30055
597.696	29828
597.766	33407
597.836	39400
597.906	31195
597.975	26882
598.045	27363
598.115	28228
598.185	26378
598.254	28492
598.324	28841
598.394	30360
598.464	30320
598.533	28083
598.603	26068
598.672	27432
598.742	26435
598.812	26756
598.881	26382
598.951	25707
599.020	25919
599.090	24987
599.159	25386
599.229	26260
599.299	24597
599.368	24173
599.437	24372
599.507	23661
599.576	24846
599.646	28155
599.715	29051
599.785	25515
599.854	25760
599.924	27916
599.993	25949
600.062	24306
600.132	24857
600.201	25082
600.270	27619
600.340	25660
600.409	24305
600.478	24642
600.547	23602
600.617	25039
600.686	25010
600.755	24955
600.824	26525
600.894	25741
600.963	23995
601.032	23382
601.101	23154
601.170	22901
601.239	22783
601.308	23665
601.378	23462
601.447	22667
601.516	23345
601.585	23154
601.654	23206
601.723	23389
601.792	23606
601.861	25435
601.930	30742
601.999	30045
602.068	25175
602.137	24028
602.206	24561
602.275	25767
602.343	30303
602.412	31711
602.481	24463
602.550	23327
602.619	23468
602.688	25152
602.756	22964
602.825	22675
602.894	22106
602.963	23318
603.032	23315
603.100	22548
603.169	21982
603.238	22058
603.307	21981
603.375	21215
603.444	22236
603.513	21979
603.581	21833
603.650	22286
603.719	21655
603.787	20580
603.856	21222
603.924	20932
603.993	22477
604.061	21662
604.130	22696
604.198	22147
604.267	22618
604.335	21541
604.404	21853
604.472	21044
604.541	21339
604.609	21426
604.678	21791
604.746	21759
604.815	22512
604.883	21561
604.951	22459
605.020	21992
605.088	21575
605.156	21202
605.225	19935
605.293	20885
605.361	22013
605.429	21697
605.498	22076
605.566	22292
605.634	22205
605.702	21230
605.771	21667
605.839	21507
605.907	21405
605.975	21024
606.043	20851
606.111	19495
606.180	22146
606.248	25086
606.316	29359
606.384	22652
606.452	28185
606.520	34686
606.588	24923
606.656	19477
606.724	18494
606.792	18634
606.860	17386
606.928	16652
606.996	17436
607.064	16457
607.132	17879
607.200	16240
607.267	17010
607.335	17154
607.403	18084
607.471	16169
607.539	17085
607.607	17760
607.674	17453
607.742	18357
607.810	20495
607.878	18438
607.946	17132
608.013	17481
608.081	17898
608.149	17854
608.216	16779
608.284	18689
608.352	16978
608.419	18572
608.487	23429
608.555	19879
608.622	16728
608.690	17146
608.757	17304
608.825	17413
608.893	18973
608.960	21357
609.028	23128
609.095	24244
609.163	19841
609.230	18650
609.298	18532
609.365	17335
609.432	18244
609.500	18770
609.567	20293
609.635	20550
609.702	20201
609.769	19527
609.837	21445
609.904	20459
609.971	19029
610.039	22589
610.106	27977
610.173	43609
610.241	87186
610.308	128813
610.375	96836
610.442	34445
610.509	22588
610.577	20537
610.644	20333
610.711	19056
610.778	19123
610.845	18398
610.912	20089
610.980	21540
611.047	30407
611.114	25666
611.181	18198
611.248	17344
611.315	18828
611.382	17418
611.449	16825
611.516	17522
611.583	17261
611.650	17502
611.717	17840
611.784	17950
611.851	18556
611.918	20837
611.984	20252
612.051	25223
612.118	41083
612.185	89336
612.252	79201
612.319	25125
612.386	18544
612.452	19133
612.519	19072
612.586	25551
612.653	22303
612.719	18931
612.786	18551
612.853	17444
612.919	16138
612.986	17408
613.053	16754
613.120	16005
613.186	15803
613.253	17071
613.319	16397
613.386	16821
613.453	17417
613.519	21403
613.586	31171
613.652	53106
613.719	39867
613.785	36060
613.852	18541
613.918	18076
613.985	18798
614.051	25659
614.118	49121
614.184	59335
614.250	21629
614.317	16803
614.383	16518
614.449	16631
614.516	16607
614.582	16597
614.648	16456
614.715	15947
614.781	17015
614.847	17482
614.914	17547
614.980	17610
615.046	17513
615.112	17871
615.179	19781
615.245	21727
615.311	29326
615.377	52041
615.443	70635
615.509	41346
615.575	26636
615.642	22007
615.708	21793
615.774	25506
615.840	26216
615.906	33672
615.972	54193
616.038	107347
616.104	154300
616.170	160448
616.236	148077
616.302	46012
616.368	29137
616.434	24191
616.500	24090
616.565	22250
616.631	23804
616.697	21126
616.763	21204
616.829	23752
616.895	33015
616.961	36586
617.026	26616
617.092	20224
617.158	18894
617.224	19018
617.289	20086
617.355	18423
617.421	18858
617.487	20623
617.552	18007
617.618	17139
617.684	16027
617.749	19272
617.815	16966
617.880	16134
617.946	18321
618.012	19099
618.077	18248
618.143	18892
618.208	19415
618.274	18842
618.339	19578
618.405	18468
618.470	18783
618.536	19521
618.601	21861
618.667	20272
618.732	19991
618.798	20113
618.863	19935
618.928	19919
618.994	21485
619.059	25811
619.124	42861
619.190	29547
619.255	19814
619.320	19255
619.386	18574
619.451	18435
619.516	19495
619.581	18537
619.647	18245
619.712	18224
619.777	19031
619.842	19521
619.907	19250
619.972	20401
620.038	20224
620.103	19575
620.168	17695
620.233	18470
620.298	17770
620.363	17922
620.428	18503
620.493	18608
620.558	18333
620.623	17744
620.688	18818
620.753	17084
620.818	17356
620.883	17203
620.948	18167
621.013	17369
621.078	18699
621.143	18119
621.207	21351
621.272	20342
621.337	23433
621.402	22498
621.467	25794
621.532	28437
621.596	24275
621.661	22350
621.726	21334
621.791	21673
621.855	24350
621.920	26484
621.985	24794
622.049	25497
622.114	24263
622.179	23361
622.243	23555
622.308	22915
622.373	24142
622.437	23149
622.502	23315
622.566	24180
622.631	22671
622.695	23815
622.760	24193
622.824	23189
622.889	25679
622.953	29126
623.018	46946
623.082	51638
623.147	25848
623.211	24882
623.276	25695
623.340	22648
623.404	22784
623.469	22559
623.533	22096
623.597	21175
623.662	21721
623.726	21702
623.790	21130
623.854	21660
623.919	22377
623.983	21370
624.047	21951
624.111	21058
624.176	20930
624.240	23464
624.304	25939
624.368	21831
624.432	21708
624.496	23317
624.560	26413
624.625	30962
624.689	24386
624.753	21756
624.817	21575
624.881	20720
624.945	21427
625.009	21171
625.073	22511
625.137	24204
625.201	33292
625.265	35209
625.329	23526
625.393	24856
625.456	22536
625.520	20529
625.584	23587
625.648	26173
625.712	34476
625.776	68479
625.839	83621
625.903	41836
625.967	23055
626.031	33154
626.095	50108
626.158	26069
626.222	19484
626.286	18692
626.349	19078
626.413	18876
626.477	22528
626.540	19735
626.604	18810
626.668	18154
626.731	17989
626.795	18326
626.858	19624
626.922	17947
626.986	18556
627.049	16549
627.113	18230
627.176	17830
627.240	17675
627.303	16816
627.366	18275
627.430	17403
627.493	17279
627.557	17432
627.620	17175
627.684	17280
627.747	17978
627.810	15792
627.874	18045
627.937	15925
628.000	18041
628.064	18662
628.127	15927
628.190	16164
628.253	16705
628.317	15926
628.380	16797
628.443	15605
628.506	17018
628.569	15942
628.632	15813
628.696	15778
628.759	15726
628.822	14622
628.885	14536
628.948	15709
629.011	16291
629.074	15887
629.137	15053
629.200	14679
629.263	16464
629.326	13805
629.389	15546
629.452	14559
629.515	15405
629.578	15329
629.641	16798
629.704	15855
629.767	17628
629.830	15764
629.892	15561
629.955	15145
630.018	16821
630.081	19374
630.144	25341
630.207	18781
630.269	18331
630.332	16085
630.395	15706
630.458	14065
630.520	13199
630.583	14536
630.646	13686
630.708	13662
630.771	13348
630.834	14791
630.896	13195
630.959	13659
631.021	12628
631.084	13656
631.146	14638
631.209	16626
631.272	13839
631.334	13689
631.397	12600
631.459	12827
631.522	15083
631.584	13350
631.646	14346
631.709	14684
631.771	21024
631.834	16260
631.896	13297
631.958	12056
632.021	13570
632.083	11445
632.145	14103
632.208	13967
632.270	15168
632.332	12269
632.395	11878
632.457	13883
632.519	13046
632.581	12734
632.643	12208
632.706	12217
632.768	12157
632.830	12160
632.892	12255
632.954	12202
633.016	13516
633.078	11257
633.141	11559
633.203	11228
633.265	12818
633.327	11842
633.389	12077
633.451	14830
633.513	19006
633.575	16285
633.637	15776
633.698	16714
633.760	13070
633.822	12401
633.884	12530
633.946	12196
634.008	12658
634.070	12447
634.132	14294
634.193	13590
634.255	11899
634.317	11169
634.379	13091
634.441	11422
634.502	12236
634.564	11562
634.626	10636
634.687	11797
634.749	12004
634.811	11266
634.873	9677
634.934	10432
634.996	10969
635.057	10454
635.119	10424
635.181	10725
635.242	11243
635.304	9118
635.365	11580
635.427	10723
635.488	12081
635.550	10672
635.611	11215
635.673	9509
635.734	12232
635.796	12143
635.857	12208
635.918	10705
635.980	12359
636.041	10389
636.102	10893
636.164	10826
636.225	12105
636.286	9452
636.348	10842
636.409	10807
636.470	9285
636.531	11138
636.593	10832
636.654	11580
636.715	9998
636.776	9068
636.838	9444
636.899	10122
636.960	9819
637.021	9084
637.082	9423
637.143	9160
637.204	8934
637.265	9195
637.326	9115
637.387	9655
637.448	8451
637.509	9005
637.570	10341
637.631	9143
637.692	8477
637.753	8512
637.814	9044
637.875	9764
637.936	9906
637.997	9311
638.058	9909
638.119	10102
638.179	8693
638.240	8120
638.301	8890
638.362	9186
638.423	9780
638.483	9547
638.544	7919
638.605	9334
638.666	8488
638.726	8823
638.787	9767
638.848	7670
638.908	8537
638.969	8728
639.030	8993
639.090	7737
639.151	9188
639.211	10265
639.272	14785
639.332	27343
639.393	17308
639.453	9126
639.514	8881
639.574	8377
639.635	8837
639.695	8757
639.756	8673
639.816	9503
639.877	11758
639.937	21522
639.997	33936
640.058	12694
640.118	8434
640.178	7650
640.239	7405
640.299	7605
640.359	8078
640.420	8046
640.480	8603
640.540	7814
640.600	8003
640.661	8965
640.721	8882
640.781	12957
640.841	9433
640.901	9347
640.961	8534
641.021	9114
641.082	10935
641.142	18052
641.202	13534
641.262	6379
641.322	8558
641.382	7714
641.442	7807
641.502	7854
641.562	7760
641.622	6983
641.682	7147
641.742	7679
641.802	7799
641.861	8628
641.921	8982
641.981	10888
642.041	10621
642.101	14936
642.161	10807
642.221	6837
642.280	7174
642.340	6903
642.400	6229
642.460	7442
642.519	7299
642.579	7338
642.639	8371
642.698	4684
642.758	8527
642.818	7260
642.877	7655
642.937	7862
642.997	10552
643.056	18595
643.116	11107
643.175	8315
643.235	7248
643.294	7183
643.354	7094
643.414	6798
643.473	8446
643.532	7248
643.592	7579
643.651	9202
643.711	14243
643.770	19862
643.830	38379
643.889	94245
643.948	32720
644.008	8935
644.067	7574
644.126	5451
644.186	6518
644.245	6559
644.304	6189
644.363	7394
644.423	5530
644.482	6161
644.541	6656
644.600	4272
644.659	7540
644.719	6632
644.778	7070
644.837	8184
644.896	11042
644.955	20344
645.014	12840
645.073	9407
645.132	6816
645.191	6782
645.250	6243
645.309	7218
645.368	5808
645.427	6487
645.486	6278
645.545	8785
645.604	5819
645.663	6052
645.722	6486
645.781	6736
645.840	6909
645.898	6230
645.957	7732
646.016	6766
646.075	10943
646.134	16710
646.192	35129
646.251	65976
646.310	15461
646.369	6381
646.427	6871
646.486	6124
646.545	5727
646.603	6172
646.662	6319
646.721	5990
646.779	5769
646.838	5333
646.896	7017
646.955	5430
647.014	6896
647.072	6649
647.131	13432
647.189	9156
647.248	5449
647.306	5909
647.365	5912
647.423	4926
647.481	6900
647.540	4757
647.598	5588
647.657	5246
647.715	5770
647.773	4749
647.832	5691
647.890	4941
647.948	5142
648.007	6293
648.065	5112
648.123	5538
648.181	8236
648.240	7927
648.298	8328
648.356	5386
648.414	5509
648.472	5754
648.531	6561
648.589	5325
648.647	5723
648.705	4729
648.763	5472
648.821	5461
648.879	5709
648.937	4980
648.995	5582
649.053	5229
649.111	6222
649.169	7913
649.227	9544
649.285	13528
649.343	34002
649.401	29052
649.459	35476
649.516	30143
649.574	12587
649.632	20760
649.690	28841
649.748	12768
649.806	11972
649.863	21440
649.921	13076
649.979	8250
650.037	6326
650.094	3688
650.152	5469
650.210	4752
650.268	5564
650.325	5168
650.383	5017
650.440	4107
650.498	4968
650.556	5474
650.613	4794
650.671	5156
650.728	4781
650.786	5253
650.843	6016
650.901	3868
650.958	4723
651.016	4809
651.073	5763
651.131	3965
651.188	3783
651.246	4778
651.303	3293
651.360	5338
651.418	4502
651.475	5788
651.532	3805
651.590	5071
651.647	4008
651.704	5309
651.762	4615
651.819	5343
651.876	4466
651.933	4014
651.990	5032
652.048	3631
652.105	4481
652.162	4817
652.219	4471
652.276	5051
652.333	5076
652.390	3290
652.448	4871
652.505	4103
652.562	4613
652.619	5425
652.676	9307
652.733	10661
652.790	4966
652.847	3161
652.904	4711
652.961	2748
653.017	3741
653.074	4925
653.131	5024
653.188	3207
653.245	4758
653.302	4671
653.359	3662
653.415	4285
653.472	4329
653.529	4472
653.586	3498
653.642	3439
653.699	4605
653.756	3497
653.813	4384
653.869	5042
653.926	3033
653.983	3710
654.039	3972
654.096	4408
654.152	5005
654.209	2856
654.266	4581
654.322	3668
654.379	5593
654.435	4734
654.492	5358
654.548	7831
654.605	12958
654.661	6773
654.717	4497
654.774	4394
654.830	4488
654.887	4620
654.943	3852
655.000	4587
655.056	4748
655.112	5073
655.168	4511
655.225	4658
655.281	5165
655.337	4813
655.394	8538
655.450	7062
655.506	6194
655.562	6637
655.618	7954
655.675	3963
655.731	4241
655.787	4250
655.843	4907
655.899	3527
655.955	4745
656.011	4368
656.067	2882
656.123	3989
656.179	4011
656.235	5211
656.291	3755
656.347	4777
656.403	4115
656.459	4086
656.515	4425
656.571	4794
656.627	3627
656.683	4511
656.739	5230
656.795	5509
656.850	3977
656.906	5845
656.962	5583
657.018	3540
657.074	4115
657.129	3330
657.185	4536
657.241	4383
657.297	4094
657.352	4622
657.408	3504
657.464	5213
657.519	4531
657.575	3268
657.630	4415
657.686	3869
657.742	4131
657.797	4461
657.853	3356
657.908	5536
657.964	3155
658.019	3022
658.075	4367
658.130	4771
658.186	3231
658.241	3677
658.297	2937
658.352	4209
658.407	4931
658.463	2566
658.518	4223
658.573	4214
658.629	3188
658.684	3921
658.739	4158
658.795	3438
658.850	4037
658.905	3546
658.960	4168
659.016	2654
659.071	3760
659.126	4515
659.181	4811
659.236	9242
659.291	12388
659.346	6296
659.401	5650
659.457	6242
659.512	7841
659.567	6306
659.622	4023
659.677	4187
659.732	2949
659.787	4169
659.842	4609
659.897	5662
659.952	4563
660.007	4314
660.061	3583
660.116	3070
660.171	3519
660.226	3531
660.281	4987
660.336	2823
660.391	3950
660.445	3822
660.500	3822
660.555	3733
660.610	3833
660.664	4190
660.719	4148
660.774	4382
660.828	4436
660.883	4472
660.938	3768
660.992	3522
661.047	4435
661.101	3289
661.156	3345
661.211	3621
661.265	3816
661.320	3461
661.374	3934
661.429	3216
661.483	4096
661.538	2966
661.592	3018
661.647	3861
661.701	3896
661.755	3949
661.810	3874
661.864	3552
661.919	3258
661.973	3837
662.027	3555
662.081	3508
662.136	3781
662.190	4298
662.244	5128
662.299	3263
662.353	4282
662.407	3188
662.461	2426
662.515	4008
662.569	3832
662.624	4528
662.678	3868
662.732	3630
662.786	4039
662.840	4225
662.894	3591
662.948	4039
663.002	3726
663.056	3436
663.110	3018
663.164	3437
663.218	4424
663.272	4086
663.326	3971
663.380	4645
663.434	4243
663.488	3178
663.542	3771
663.595	3844
663.649	3432
663.703	3568
663.757	3453
663.811	3452
663.864	3263
663.918	4658
663.972	3140
664.026	3861
664.079	3136
664.133	3962
664.187	3474
664.240	3045
664.294	4294
664.348	3583
664.401	3317
664.455	4006
664.508	3659
664.562	3701
664.615	3704
664.669	3397
664.722	3153
664.776	3075
664.829	2787
664.883	3319
664.936	3104
664.990	3786
665.043	4016
665.097	3153
665.150	5157
665.203	3338
665.257	3853
665.310	3980
665.363	4130
665.417	3917
665.470	3571
665.523	3559
665.576	3875
665.630	2940
665.683	3947
665.736	4116
665.789	3231
665.842	2786
665.895	3915
665.949	3409
666.002	3039
666.055	4166
666.108	4452
666.161	3691
666.214	4470
666.267	3843
666.320	5520
666.373	4384
666.426	3955
666.479	3035
666.532	3593
666.585	3132
666.638	4034
666.691	4093
666.744	5119
666.796	4323
666.849	4327
666.902	3659
666.955	3694
667.008	3119
667.060	3066
667.113	2974
667.166	2572
667.219	3899
667.271	3488
667.324	3532
667.377	3291
667.430	3757
667.482	4882
667.535	4936
667.587	4457
667.640	4481
667.693	6026
667.745	8799
667.798	12024
667.850	4446
667.903	4012
667.955	3311
668.008	3975
668.060	3680
668.113	3882
668.165	4540
668.218	4728
668.270	3958
668.322	3936
668.375	4083
668.427	4209
668.479	3294
668.532	3645
668.584	3715
668.636	4013
668.689	2619
668.741	3823
668.793	4413
668.845	3875
668.898	3778
668.950	3874
669.002	4192
669.054	3230
669.106	3637
669.158	3826
669.211	3588
669.263	4636
669.315	4831
669.367	6273
669.419	4144
669.471	5427
669.523	5435
669.575	6602
669.627	5816
669.679	4705
669.731	4010
669.783	5078
669.835	4578
669.886	4695
669.938	4684
669.990	4475
670.042	4047
670.094	4552
670.146	5051
670.197	5921
670.249	6735
670.301	8665
670.353	9578
670.404	15204
670.456	19853
670.508	32100
670.560	54068
670.611	95633
670.663	170446
670.715	375961
670.766	659007
670.818	271665
670.869	49404
670.921	23139
670.972	15367
671.024	11388
671.075	9066
671.127	8842
671.178	6524
671.230	6347
671.281	6064
671.333	5141
671.384	5087
671.436	5579
671.487	5711
671.538	4326
671.590	6014
671.641	5349
671.692	5668
671.744	7765
671.795	7430
671.846	5128
671.897	5136
671.949	3598
672.000	4195
672.051	4065
672.102	4628
672.153	3395
672.204	4279
672.256	4104
672.307	3866
672.358	4006
672.409	3596
672.460	4432
672.511	3544
672.562	3470
672.613	4568
672.664	3112
672.715	3871
672.766	4099
672.817	4008
672.868	3808
672.919	3507
672.970	3459
673.021	3637
673.071	2757
673.122	4377
673.173	3374
673.224	3142
673.275	2535
673.326	3160
673.376	2769
673.427	2751
673.478	3818
673.528	3968
673.579	2483
673.630	3186
673.680	3507
673.731	2884
673.782	3033
673.832	3333
673.883	2922
673.934	2954
673.984	3312
674.035	2674
674.085	3710
674.136	3235
674.186	3531
674.237	3400
674.287	5304
674.338	3379
674.388	2943
674.438	2598
674.489	3586
674.539	3414
674.589	3739
674.640	3013
674.690	3375
674.740	2762
674.791	3804
674.841	3061
674.891	2964
674.942	3394
674.992	2889
675.042	2825
675.092	3164
675.142	2254
675.193	2205
675.243	2481
675.293	3364
675.343	2522
675.393	2752
675.443	3224
675.493	2506
675.543	2708
675.593	3224
675.643	3037
675.693	2800
675.743	3251
675.793	2392
675.843	2321
675.893	3060
675.943	3108
675.993	2771
676.043	3112
676.093	2907
676.142	2219
676.192	3569
676.242	2973
676.292	2217
676.341	3417
676.391	3495
676.441	3141
676.491	2418
676.540	2594
676.590	2937
676.640	2386
676.689	3569
676.739	2519
676.789	3103
676.838	1865
676.888	3138
676.937	1955
676.987	2396
677.037	2182
677.086	1367
677.136	2166
677.185	2104
677.235	2150
677.284	2466
677.333	1640
677.383	1899
677.432	2542
677.482	2053
677.531	2040
677.580	2432
677.630	2321
677.679	2061
677.728	2380
677.778	2642
677.827	2056
677.876	1766
677.925	2708
677.975	2570
678.024	2156
678.073	2132
678.122	3000
678.171	2349
678.220	1940
678.269	3413
678.319	2633
678.368	2591
678.417	2666
678.466	3562
678.515	3084
678.564	2738
678.613	2027
678.662	1729
678.711	2602
678.760	2366
678.809	2086
678.857	2710
678.906	2351
678.955	2471
679.004	2314
679.053	2593
679.102	2580
679.151	2781
679.199	2186
679.248	2220
679.297	2334
679.346	2338
679.394	2420
679.443	3018
679.492	2333
679.540	2412
679.589	2177
679.638	1899
679.686	1479
679.735	2200
679.784	2064
679.832	2908
679.881	1761
679.929	1461
679.978	2165
680.026	1546
680.075	2192
680.123	2233
680.172	1913
680.220	1040
680.268	2295
680.317	2253
680.365	1495
680.414	2159
680.462	2016
680.510	1849
680.559	1847
680.607	2447
680.655	2197
680.703	1979
680.752	1857
680.800	2430
680.848	1737
680.896	1894
680.945	1661
680.993	2060
681.041	2051
681.089	1248
681.137	2013
681.185	1429
681.233	1817
681.258	1652
681.281	1462
681.329	1936
681.377	2219
681.380	2238
681.425	1953
681.473	2475
681.502	2288
681.521	2095
681.569	2825
681.617	1686
681.624	1818
681.665	2419
681.713	3414
681.745	2906
681.761	2607
681.809	2781
681.857	2812
681.867	2866
681.904	2934
681.952	2560
681.989	3081
682.000	3191
682.048	2725
682.096	2751
682.111	2981
682.143	3352
682.191	2469
682.233	3970
682.239	4167
682.286	2828
682.334	2826
682.354	3094
682.382	3374
682.430	3994
682.476	3434
682.477	3393
682.525	3332
682.572	3459
682.598	3139
682.620	2817
682.667	4485
682.715	3819
682.720	3865
682.763	3985
682.810	3645
682.841	3985
682.857	4118
682.905	3485
682.952	3896
682.963	3913
683.000	3879
683.047	4072
683.085	4900
683.095	5098
683.142	4354
683.190	4386
683.206	4413
683.237	4378
683.284	4603
683.328	3913
683.332	3824
683.379	4612
683.426	4466
683.449	4540
683.473	4624
683.521	4317
683.568	4625
683.571	4687
683.615	5109
683.662	5630
683.693	5407
683.709	5221
683.757	4484
683.804	4898
683.814	5021
683.851	5494
683.898	5778
683.936	5424
683.945	5299
683.992	5100
684.039	5173
684.057	5478
684.086	5912
684.133	6328
684.179	5970
684.180	5937
684.227	5807
684.274	5771
684.300	6092
684.321	6300
684.368	5851
684.415	6389
684.422	6373
684.462	6186
684.509	6065
684.543	5977
684.556	5915
684.603	6308
684.649	6126
684.665	6209
684.696	6336
684.743	6504
684.786	6383
684.790	6376
684.837	6460
684.883	7674
684.908	7442
684.930	7129
684.977	7682
685.023	7021
685.029	7109
685.070	7438
685.117	7071
685.150	7301
685.164	7451
685.210	7557
685.257	7836
685.272	7999
685.303	8107
685.350	8061
685.393	7107
685.396	7040
685.443	8619
685.490	8936
685.514	9132
685.536	9144
685.583	8371
685.629	8674
685.636	8641
685.675	8347
685.722	8300
685.757	7900
685.768	7835
685.815	8990
685.861	8313
685.878	8513
685.908	8673
685.954	8481
686.000	8174
686.000	8168
686.047	9334
686.093	9717
686.121	9974
686.139	9848
686.185	9665
686.232	9529
686.242	9418
686.278	9151
686.324	9019
686.363	8638
686.370	8585
686.416	8303
686.463	9054
686.484	9137
686.509	9255
686.555	9274
686.601	9224
686.606	9290
686.647	9626
686.693	9180
686.727	9013
686.739	9000
686.785	8814
686.831	9508
686.848	9398
686.877	9076
686.923	9113
686.969	8950
686.969	8949
687.015	9048
687.061	9592
687.090	9983
687.107	10113
687.153	9892
687.199	9475
687.211	9450
687.245	9456
687.291	9652
687.332	9308
687.336	9295
687.382	10294
687.428	10585
687.453	10408
687.474	10029
687.520	9863
687.565	9958
687.574	9881
687.611	9893
687.657	8962
687.695	9797
687.702	9974
687.748	10012
687.794	10673
687.816	10640
687.839	10363
687.885	10169
687.931	10062
687.937	10088
687.976	10584
688.022	10491
688.058	10521
688.067	10493
688.113	10392
688.158	10560
688.179	10407
688.204	10363
688.249	10588
688.295	10894
688.300	10938
688.340	11395
688.386	11783
688.421	11635
688.431	11503
688.477	11327
688.522	11523
688.542	11242
688.567	11019
688.613	10965
688.658	11201
688.663	11199
688.703	11281
688.749	10916
688.784	11087
688.794	11145
688.839	11165
688.884	11315
688.905	11369
688.930	11375
688.975	11036
689.020	11093
689.026	11089
689.065	11474
689.110	11688
689.146	11603
689.155	11516
689.201	11462
689.246	11539
689.267	11619
689.291	11927
689.336	11822
689.381	11730
689.388	11758
689.426	11658
689.471	11855
689.509	11614
689.516	11588
689.561	11487
689.606	11016
689.630	11155
689.651	11494
689.696	11501
689.741	11959
689.750	11959
689.785	11809
689.830	11945
689.871	11735
689.875	11725
689.920	12231
689.965	11847
689.992	11851
690.010	11970
690.054	12011
690.099	12403
690.112	12439
690.144	12533
690.189	12288
690.233	12217
690.233	12235
690.278	12687
690.323	12948
690.354	13187
690.367	13328
690.412	13361
690.457	13528
690.474	13635
690.501	14049
690.546	14572
690.590	15187
690.595	15215
690.635	15720
690.680	16448
690.716	17112
690.724	17509
690.769	19557
690.813	21741
690.836	22531
690.857	24915
690.902	29992
690.946	35768
690.957	37221
690.991	49600
691.035	66107
691.077	82602
691.080	83102
691.124	86168
691.168	89454
691.198	92065
691.213	86593
691.257	69908
691.301	53218
691.318	46931
691.346	42600
691.390	34557
691.434	27255
691.439	26371
691.478	24277
691.522	22031
691.559	20041
691.567	19976
691.611	19436
691.655	18538
691.680	18122
691.699	17771
691.743	16885
691.787	16165
691.800	15898
691.831	16006
691.875	15940
691.919	16050
691.921	16030
691.964	16158
692.008	15920
692.041	15588
692.052	15560
692.096	15990
692.139	16047
692.162	15836
692.183	15626
692.227	15941
692.271	15768
692.282	15786
692.315	16152
692.359	15863
692.402	16379
692.403	16411
692.447	16017
692.490	15877
692.523	15538
692.534	15567
692.578	15871
692.622	15926
692.643	16043
692.666	16122
692.709	16128
692.753	16120
692.763	16057
692.797	16135
692.840	16614
692.884	16719
692.884	16753
692.928	16816
692.971	17197
693.004	17037
693.015	17044
693.059	17277
693.102	17803
693.124	17753
693.146	17882
693.189	18401
693.233	18962
693.245	19020
693.276	19726
693.320	20927
693.363	21878
693.365	21865
693.407	23776
693.450	26356
693.485	27867
693.493	28856
693.537	33975
693.580	38776
693.605	41937
693.624	47223
693.667	59110
693.710	71434
693.725	75624
693.753	99413
693.797	137188
693.840	176396
693.845	180413
693.883	188791
693.926	196933
693.966	205268
693.970	201882
694.013	162358
694.056	123134
694.086	95855
694.099	90684
694.142	73813
694.185	56675
694.206	48446
694.229	45346
694.272	39404
694.315	33287
694.326	31667
694.358	30330
694.401	28203
694.444	26163
694.446	26017
694.487	25068
694.530	23643
694.566	22546
694.573	22405
694.616	20965
694.659	19720
694.686	18851
694.702	18749
694.745	18392
694.787	18040
694.806	17756
694.830	17716
694.873	18012
694.916	17810
694.926	17730
694.959	17302
695.002	17084
695.044	16570
695.046	16517
695.087	16734
695.130	16799
695.166	16672
695.172	16722
695.215	16922
695.258	17243
695.286	17307
695.301	17260
695.343	16997
695.386	16981
695.406	16753
695.428	16739
695.471	16754
695.514	16818
695.526	16808
695.556	16671
695.599	16568
695.641	16192
695.646	16123
695.684	16141
695.726	15996
695.766	15991
695.769	16048
695.811	16149
695.854	16504
695.886	16596
695.896	16642
695.938	16545
695.981	16427
696.005	16466
696.023	16507
696.065	16276
696.108	16182
696.125	16082
696.150	16241
696.192	16550
696.235	16757
696.245	16791
696.277	16780
696.319	16523
696.361	16332
696.365	16267
696.404	16983
696.446	17894
696.485	18752
696.488	18789
696.530	18337
696.572	18064
696.604	17933
696.614	17934
696.656	17554
696.698	17153
696.724	16916
696.740	16869
696.783	16429
696.825	16304
696.844	16120
696.867	16104
696.909	15863
696.951	15954
696.964	15888
696.992	15816
697.034	15662
697.076	15430
697.083	15369
697.118	15652
697.160	15866
697.202	16132
697.203	16094
697.244	15760
697.286	15519
697.323	15269
697.327	15335
697.369	15532
697.411	15742
697.442	15861
697.453	15998
697.494	16322
697.536	16683
697.562	16879
697.578	16949
697.620	16984
697.661	16986
697.682	16989
697.703	17117
697.744	17152
697.786	17414
697.801	17396
697.828	17526
697.869	17670
697.911	17791
697.921	17789
697.952	17446
697.994	16925
698.035	16359
698.040	16253
698.077	15839
698.118	15265
698.160	14681
698.160	14637
698.201	15136
698.243	15526
698.279	15881
698.284	15927
698.325	15957
698.367	15939
698.399	15858
698.408	15833
698.449	15589
698.491	15324
698.518	15080
698.532	15231
698.573	15562
698.614	15949
698.638	16104
698.656	16187
698.697	16283
698.738	16383
698.757	16385
698.779	16550
698.820	16764
698.862	17004
698.877	17044
698.903	17084
698.944	17065
698.985	17057
698.996	17009
699.026	17138
699.067	17246
699.116	17330
699.235	17282
699.354	16703
699.474	15694
699.593	17915
699.713	16633
699.832	16165
699.951	16013
700.070	16583
700.190	15501
700.309	16034
700.428	16277
700.547	16168
700.667	16461
700.786	16902
700.905	15607
701.024	16205
701.143	15802
701.262	15667
701.381	14512
701.500	15151
701.619	15743
701.738	15472
701.857	14798
701.976	14133
702.095	13107
702.214	14706
702.333	15959
702.452	13964
702.571	14495
702.690	15093
702.809	14743
702.928	14002
703.047	15315
703.165	14588
703.284	13640
703.403	13980
703.522	14694
703.640	15753
703.759	15089
703.878	17995
703.997	14456
704.115	14314
704.234	13689
704.353	13305
704.471	13992
704.590	13021
704.708	12718
704.827	13329
704.946	13345
705.064	14344
705.183	14028
705.301	15963
705.420	22204
705.538	20790
705.656	19157
705.775	20694
705.893	35299
706.012	52026
706.130	20171
706.249	18254
706.367	18258
706.485	19324
706.604	17336
706.722	17600
706.840	18773
706.958	19452
707.077	18347
707.195	16565
707.313	16696
707.431	16598
707.549	16171
707.668	16671
707.786	15680
707.904	15945
708.022	15033
708.140	16321
708.258	15121
708.376	15443
708.494	15102
708.612	17016
708.730	22174
708.848	22778
708.966	20015
709.084	20096
709.202	18971
709.320	19687
709.438	19746
709.556	19279
709.674	19364
709.791	20277
709.909	17695
710.027	18990
710.145	18735
710.263	19572
710.380	18917
710.498	18371
710.616	18409
710.733	17868
710.851	17369
710.969	18535
711.086	18402
711.204	17928
711.322	17746
711.439	17391
711.557	17534
711.674	17011
711.792	16914
711.909	19111
712.027	21921
712.144	17477
712.262	17520
712.379	18390
712.497	24875
712.614	27227
712.732	21843
712.849	20806
712.966	20324
713.084	23011
713.201	21666
713.318	22232
713.436	20947
713.553	21113
713.670	21497
713.787	21470
713.905	21578
714.022	20912
714.139	19787
714.256	20526
714.373	19978
714.490	22284
714.608	23853
714.725	46880
714.842	58348
714.959	21130
715.076	18513
715.193	17516
715.310	18276
715.427	17926
715.544	17546
715.661	18031
715.778	17521
715.895	19657
716.011	18739
716.128	18238
716.245	17340
716.362	18364
716.479	18528
716.596	17168
716.713	17878
716.829	17669
716.946	18003
717.063	16528
717.180	16754
717.296	16933
717.413	16523
717.530	16602
717.646	16538
717.763	15657
717.880	15467
717.996	15454
718.113	16395
718.229	15542
718.346	14792
718.462	15578
718.579	16799
718.695	22006
718.812	20012
718.928	18484
719.045	15421
719.161	14973
719.277	13971
719.394	14710
719.510	16012
719.626	14385
719.743	16822
719.859	15393
719.975	15928
720.092	20201
720.208	32220
720.324	18795
720.440	13958
720.557	15939
720.673	19625
720.789	23430
720.905	41121
721.021	22332
721.137	14766
721.253	13627
721.369	15109
721.486	14956
721.602	18452
721.718	13982
721.834	12490
721.950	12974
722.066	12920
722.181	11995
722.297	13429
722.413	13734
722.529	13040
722.645	12996
722.761	12656
722.877	13028
722.993	12218
723.108	12456
723.224	12423
723.340	12617
723.456	11509
723.571	12998
723.687	12301
723.803	11051
723.918	11084
724.034	11583
724.150	12644
724.265	12086
724.381	17857
724.497	25071
724.612	11547
724.728	11466
724.843	11120
724.959	11887
725.074	16336
725.190	22522
725.305	11741
725.421	11929
725.536	10637
725.651	10837
725.767	10136
725.882	11020
725.997	9338
726.113	10752
726.228	9975
726.343	10707
726.459	10061
726.574	10837
726.689	9936
726.804	10173
726.920	10381
727.035	10068
727.150	10580
727.265	9672
727.380	10684
727.495	10707
727.610	9627
727.725	10701
727.841	11641
727.956	21760
728.071	21374
728.186	9921
728.301	9162
728.416	10356
728.531	9118
728.645	9067
728.760	9064
728.875	9234
728.990	8698
729.105	9273
729.220	9562
729.335	9843
729.449	8787
729.564	8175
729.679	8566
729.794	8452
729.908	9073
730.023	9648
730.138	7788
730.253	8270
730.367	8419
730.482	9138
730.596	8710
730.711	9329
730.826	9321
730.940	8749
731.055	8802
731.169	8638
731.284	7451
731.398	8479
731.513	8966
731.627	8766
731.742	9487
731.856	9238
731.970	8443
732.085	8310
732.199	8064
732.313	7970
732.428	10635
732.542	14469
732.656	12585
732.771	8290
732.885	7386
732.999	8385
733.113	7997
733.227	8697
733.342	7074
733.456	7806
733.570	8192
733.684	8294
733.798	7357
733.912	7870
734.026	6667
734.140	7722
734.254	8043
734.368	10685
734.482	14402
734.596	7502
734.710	7419
734.824	7126
734.938	7078
735.052	7316
735.166	7610
735.280	7740
735.393	6336
735.507	7431
735.621	8736
735.735	12596
735.849	8900
735.962	7402
736.076	7386
736.190	7715
736.303	7504
736.417	11703
736.531	6980
736.644	7852
736.758	6082
736.872	7443
736.985	6539
737.099	6096
737.212	6175
737.326	7205
737.439	7181
737.553	6806
737.666	5879
737.780	7001
737.893	6627
738.007	6386
738.120	5919
738.233	6731
738.347	6478
738.460	6619
738.573	7977
738.687	6994
738.800	7269
738.913	8298
739.026	7666
739.140	6793
739.253	6990
739.366	5880
739.479	5854
739.592	7091
739.705	6427
739.818	6471
739.932	6168
740.045	5742
740.158	6621
740.271	7647
740.384	5886
740.497	5984
740.610	6115
740.723	6639
740.836	6963
740.949	7541
741.062	7795
741.174	7911
741.287	6463
741.400	7156
741.513	6569
741.626	6139
741.739	6453
741.851	6687
741.964	6254
742.077	6444
742.189	6624
742.302	6242
742.415	6200
742.527	6012
742.640	6505
742.753	5960
742.865	5581
742.978	5852
743.090	6231
743.203	5768
743.316	6292
743.428	5443
743.541	6415
743.653	6091
743.766	6191
743.878	5448
743.990	5919
744.103	7103
744.215	6636
744.327	5791
744.440	7114
744.552	8948
744.664	6722
744.777	5887
744.889	5567
745.001	7117
745.113	5702
745.226	6299
745.338	5812
745.450	5494
745.562	5810
745.674	6050
745.786	5959
745.898	5547
746.010	6530
746.122	5400
746.234	5853
746.347	5670
746.459	6283
746.570	5719
746.682	6101
746.794	5731
746.906	6154
747.018	5965
747.130	5774
747.242	6560
747.354	6272
747.466	6732
747.577	5090
747.689	6677
747.801	5666
747.913	5385
748.024	5938
748.136	5971
748.248	5456
748.359	6132
748.471	6625
748.583	6846
748.694	6755
748.806	8291
748.918	6508
749.029	7381
749.141	5694
749.252	6717
749.364	7848
749.475	9149
749.587	7676
749.698	6463
749.809	5560
749.921	6033
750.032	5475
750.144	6704
750.255	6327
750.366	5556
750.478	5648
750.589	6090
750.700	5388
750.811	6759
750.923	6425
751.034	9251
751.145	10920
751.256	7177
751.367	5949
751.479	6235
751.590	5168
751.701	6236
751.812	5224
751.923	5714
752.034	5642
752.145	5960
752.256	5878
752.367	6304
752.478	5997
752.589	5743
752.700	5567
752.811	5986
752.922	5759
753.032	6010
753.143	6685
753.254	5664
753.365	6286
753.476	6128
753.586	6214
753.697	6015
753.808	6279
753.919	5654
754.029	5806
754.140	6802
754.251	5236
754.361	6175
754.472	5935
754.582	6615
754.693	6691
754.804	7195
754.914	6036
755.025	6414
755.135	6278
755.246	6430
755.356	5965
755.466	7630
755.577	6774
755.687	6038
755.798	6693
755.908	7098
756.018	6223
756.129	6306
756.239	6528
756.349	7235
756.460	6356
756.570	7140
756.680	6981
756.790	6698
756.900	6616
757.011	6874
757.121	7177
757.231	7373
757.341	6734
757.451	6276
757.561	6612
757.671	6903
757.781	6898
757.891	7933
758.001	7733
758.111	7900
758.221	7630
758.331	8943
758.441	8424
758.551	9520
758.661	8833
758.771	8013
758.880	7491
758.990	8737
759.100	8167
759.210	8963
759.320	9039
759.429	8190
759.539	9198
759.649	9702
759.758	10209
759.868	9452
759.978	9950
760.087	11136
760.197	10687
760.307	9942
760.416	10131
760.526	10371
760.635	11032
760.745	12453
760.854	10437
760.964	12065
761.073	11915
761.182	12994
761.292	12610
761.401	13209
761.511	12279
761.620	13439
761.729	13329
761.839	14444
761.948	15550
762.057	15610
762.166	15476
762.276	15601
762.385	17483
762.494	16688
762.603	17166
762.712	17959
762.822	18512
762.931	19431
763.040	19975
763.149	20691
763.258	21567
763.367	22322
763.476	23855
763.585	25154
763.694	26882
763.803	27791
763.912	29990
764.021	31270
764.130	32991
764.238	35606
764.347	38532
764.456	40468
764.565	45209
764.674	48216
764.783	52630
764.891	58459
765.000	65046
765.109	74479
765.217	84299
765.326	97950
765.435	115989
765.543	139828
765.652	171241
765.761	216654
765.869	279767
765.978	376970
766.086	519081
766.195	718159
766.303	900771
766.412	762635
766.520	654757
766.629	852283
766.737	731477
766.846	538294
766.954	392024
767.062	291875
767.171	226267
767.279	174913
767.387	139659
767.496	116496
767.604	99039
767.712	87127
767.820	77539
767.928	69006
768.037	64934
768.145	61534
768.253	58008
768.361	56230
768.469	54630
768.577	56971
768.685	60962
768.793	64271
768.901	70741
769.009	81973
769.117	95885
769.225	122882
769.333	161770
769.441	230779
769.549	353784
769.657	566110
769.765	805205
769.873	665968
769.981	724455
770.088	612505
770.196	396008
770.304	267476
770.412	190068
770.519	143840
770.627	114837
770.735	93461
770.842	77935
770.950	68128
771.058	58129
771.165	51924
771.273	47047
771.380	43470
771.488	38921
771.595	34796
771.703	31840
771.810	30927
771.918	28209
772.025	26623
772.133	24567
772.240	23027
772.348	23050
772.455	21535
772.562	19853
772.670	17890
772.777	19004
772.884	17827
772.991	16606
773.099	16934
773.206	16228
773.313	15470
773.420	15221
773.528	14502
773.635	13516
773.742	13642
773.849	12936
773.956	13454
774.063	12581
774.170	11657
774.277	12350
774.384	11844
774.491	11579
774.598	11955
774.705	11724
774.812	11799
774.919	11037
775.026	10657
775.133	10324
775.239	9573
775.346	9341
775.453	9925
775.560	9078
775.667	9889
775.773	8710
775.880	9973
775.987	8347
776.093	9252
776.200	7853
776.307	7949
776.413	8288
776.520	8448
776.627	8097
776.733	8190
776.840	6373
776.946	8904
777.053	7811
777.159	7817
777.266	7087
777.372	8362
777.478	6598
777.585	7583
777.691	6289
777.798	6746
777.904	7318
778.010	9239
778.117	8660
778.223	6242
778.329	6087
778.435	6417
778.542	6299
778.648	6949
778.754	6225
778.860	6400
778.966	6495
779.072	6189
779.178	6676
779.284	7028
779.391	6290
779.497	6631
779.603	9490
779.708	13350
779.815	25960
779.920	88911
780.026	211256
780.132	55129
780.238	12274
780.344	7901
780.450	8081
780.556	6885
780.661	5749
780.767	5358
780.873	5196
780.979	6663
781.085	4369
781.190	5044
781.296	4281
781.402	5133
781.507	5003
781.613	5172
781.719	4132
781.824	5220
781.930	4353
782.035	5033
782.141	4484
782.246	4360
782.352	4603
782.457	4732
782.563	4894
782.668	4432
782.773	3605
782.879	4248
782.984	5271
783.090	4754
783.195	6118
783.300	5157
783.405	4290
783.511	4455
783.616	3685
783.721	4321
783.826	3510
783.932	4058
784.037	4340
784.142	3896
784.247	3994
784.352	4734
784.457	3495
784.562	3596
784.667	3905
784.772	3985
784.877	2905
784.982	3710
785.087	3352
785.192	4409
785.297	4112
785.402	3540
785.507	3619
785.611	3855
785.716	4063
785.821	3152
785.926	3585
786.031	3082
786.135	2916
786.240	3536
786.345	3558
786.450	3477
786.554	2791
786.659	3519
786.763	2726
786.868	3895
786.973	3446
787.077	3427
787.182	4186
787.286	4354
787.391	3360
787.495	2765
787.600	3459
787.704	2601
787.809	3691
787.913	3542
788.017	3552
788.122	3968
788.226	3345
788.330	3128
788.435	1809
788.539	3728
788.643	2725
788.747	2972
788.852	3438
788.956	2404
789.060	2642
789.164	3621
789.268	2684
789.372	2892
789.476	3052
789.580	2755
789.684	2270
789.788	3412
789.892	1754
789.996	3220
790.100	3035
790.204	2284
790.308	2430
790.412	2818
790.516	3768
790.620	4117
790.724	3198
790.828	2752
790.931	2278
791.035	4398
791.139	3449
791.242	2322
791.346	2883
791.450	3462
791.554	2073
791.657	1607
791.761	2922
791.864	3304
791.968	2651
792.072	3281
792.175	2182
792.279	2425
792.382	2408
792.486	2323
792.589	2109
792.693	2390
792.796	1731
792.899	3176
793.003	2775
793.106	1417
793.209	2242
793.313	2909
793.416	1390
793.519	3089
793.623	3626
793.726	4070
793.829	2738
793.932	3425
794.035	2079
794.138	3874
794.242	3971
794.345	4554
794.448	7485
794.551	14785
794.654	47512
794.757	121956
794.860	34779
794.963	6395
795.066	3621
795.169	4030
795.272	2570
795.375	2795
795.477	2595
795.580	2385
795.683	1566
795.786	3324
795.889	1156
795.991	2981
796.094	3332
796.197	1878
796.300	2596
796.402	1755
796.505	1729
796.608	2356
796.710	2678
796.813	2465
796.915	1469
797.018	2096
797.120	2253
797.223	1588
797.326	2454
797.428	1668
797.530	2436
797.633	1937
797.735	2424
797.838	2854
797.940	3402
798.042	2136
798.145	1490
798.247	2314
798.349	1861
798.452	3027
798.554	1436
798.656	802
798.758	3128
798.860	1739
798.962	2330
799.065	1503
799.167	802
799.269	3269
799.371	1613
799.473	2188
799.575	1009
799.677	3414
799.779	3405
799.881	2452
799.983	3053
800.085	3249
800.187	2266
800.289	2069
800.390	1819
800.492	1881
800.594	2844
800.696	2226
800.798	1669
800.899	2120
801.001	1122
801.103	1812
801.205	1479
801.306	800
801.408	1336
801.509	2048
801.611	1591
801.713	2137
801.814	975
801.916	1564
802.017	1270
802.119	1450
802.220	986
802.322	619
802.423	2853
802.525	1315
802.626	1953
802.727	2510
802.829	1870
802.930	222
803.031	3153
803.133	1163
803.234	1253
803.335	1948
803.436	994
803.538	1773
803.639	751
803.740	2052
803.841	514
803.942	1962
804.043	1784
804.144	1646
804.245	1362
804.346	786
804.447	1521
804.548	2126
804.649	2712
804.750	816
804.851	1349
804.952	1028
805.053	1600
805.154	1278
805.255	1902
805.355	1944
805.456	1434
805.557	1436
805.658	684
805.758	1675
805.859	1216
805.960	1479
806.061	26
806.161	2080
806.262	1819
806.362	1341
806.463	1011
806.564	1973
806.664	1660
806.765	1567
806.865	1861
806.966	956
807.066	950
807.166	2221
807.267	1231
807.367	1404
807.468	1623
807.568	949
807.668	2201
807.769	1603
807.869	1599
807.969	1700
808.069	1179
808.170	1084
808.270	1414
808.370	1703
808.470	2483
808.570	934
808.670	1282
808.770	1839
808.870	662
808.970	1513
809.070	915
809.170	1369
809.271	1726
809.370	1201
809.470	2638
809.570	1571
809.670	621
809.770	1309
809.870	1736
809.970	1419
810.070	1707
810.169	1854
810.269	787
810.369	1796
810.469	1081
810.568	1177
810.668	1246
810.768	1413
810.867	1666
810.967	905
811.066	1891
811.166	840
811.265	1535
811.365	1928
811.464	888
811.564	1603
811.663	1398
811.763	632
811.862	1975
811.962	2612
812.061	1468
812.160	1069
812.260	1635
812.359	1683
812.458	2425
812.557	4728
812.657	9046
812.756	5871
812.855	1599
812.954	2015
813.053	956
813.153	1630
813.252	643
813.351	1767
813.450	2493
813.549	1538
813.648	2089
813.747	1023
813.846	1217
813.945	1049
814.044	1465
814.143	1679
814.242	1725
814.341	1367
814.439	2194
814.538	1564
814.637	2167
814.736	2176
814.835	2770
814.933	2753
815.032	2402
815.131	1792
815.229	1994
815.328	2902
815.427	1981
815.525	2444
815.624	2420
815.722	2460
815.821	3221
815.919	3399
816.018	1284
816.116	3607
816.215	2635
816.313	3435
816.412	3785
816.510	3913
816.609	5406
816.707	5200
816.805	4797
816.904	4995
817.002	6159
817.100	7231
817.198	6799
817.296	7887
817.395	8846
817.493	12357
817.591	13576
817.689	19207
817.787	25055
817.885	36898
817.983	61502
818.081	110844
818.179	222001
818.277	441547
818.375	480431
818.473	257968
818.571	123549
818.669	74287
818.767	59030
818.865	54156
818.963	59927
819.061	77928
819.158	116438
819.256	199087
819.354	364305
819.452	580135
819.549	515038
819.647	313945
819.745	168292
819.842	98348
819.940	65723
820.038	47003
820.135	36900
820.233	28922
820.330	23508
820.428	17466
820.525	16318
820.623	13524
820.720	11723
820.818	10839
820.915	9979
821.012	9374
821.110	7137
821.207	7897
821.304	5351
821.402	6209
821.499	6014
821.596	5586
821.693	4670
821.791	5597
821.888	4698
821.985	6029
822.082	5861
822.179	4458
822.276	2773
822.373	3050
822.470	3058
822.567	3321
822.664	2733
822.761	3423
822.858	2614
822.955	1798
823.052	2092
823.149	2248
823.246	2253
823.343	1691
823.440	3016
823.536	1953
823.633	1348
823.730	2214
823.827	1454
823.923	2286
824.020	2449
824.117	1140
824.213	739
824.310	1895
824.407	1773
824.503	1358
824.600	2205
824.696	1501
824.793	1794
824.889	1064
824.986	1508
825.082	1108
825.179	1478
825.275	1561
825.371	576
825.468	1380
825.564	769
825.660	1551
825.757	1172
825.853	1569
825.949	88
826.045	1213
826.142	412
826.238	1505
826.334	1042
826.430	737
826.526	1210
826.622	988
826.718	727
826.814	503
826.910	1605
827.006	930
827.102	-48
827.198	873
827.294	415
827.390	860
827.486	843
827.582	-47
827.678	-143
827.774	2474
827.869	-303
827.965	1543
828.061	-154
828.157	1040
828.252	1158
828.348	790
828.444	1768
828.539	170
828.635	322
828.731	1489
828.826	33
828.922	1784
829.017	242
829.113	1062
829.208	-20
829.304	-609
829.399	1494
829.495	455
829.590	1005
829.685	491
829.781	206
829.876	248
829.971	-435
830.066	627
830.162	389
830.257	-266
830.352	8
830.447	1035
830.543	887
830.638	-17
830.733	1111
830.828	334
830.923	1144
831.018	419
831.113	770
831.208	808
831.303	-51
831.398	-190
831.493	-473
831.588	604
831.683	383
831.778	884
831.873	348
831.967	868
832.062	521
832.157	-378
832.252	504
832.346	674
832.441	66
832.536	1605
832.631	4010
832.725	4288
832.820	29
832.914	-436
833.009	608
833.104	1021
833.198	2029
833.293	363
833.387	-61
833.482	1191
833.576	-836
833.670	1394
833.765	-340
833.859	-490
833.954	963
834.048	556
834.142	354
834.237	439
834.331	-233
834.425	1100
834.519	309
834.613	670
834.708	389
834.802	171
834.896	-185
834.990	389
835.084	591
835.178	803
835.272	-142
835.366	144
835.460	533
835.554	-367
835.648	438
835.742	686
835.836	1148
835.930	-107
836.024	526
836.117	539
836.211	967
836.305	1487
836.399	1876
836.493	23
836.586	1383
836.680	988
836.774	-340
836.867	1033
836.961	-654
837.055	337
837.148	459
837.242	1277
837.335	-658
837.429	78
837.522	-297
837.616	948
837.709	1131
837.803	1708
837.896	178
837.989	-192
838.083	1193
838.176	2744
838.269	2007
838.363	1608
838.456	30
838.549	1327
838.642	1867
838.735	4763
838.829	2764
838.922	795
839.015	635
839.108	-576
839.201	373
839.294	674
839.387	592
839.480	-392
839.573	253
839.666	1307
839.759	432
839.852	404
839.945	163
840.038	600
840.131	404
840.223	255
840.316	426
840.409	-40
840.502	-413
840.594	1425
840.687	-320
840.780	744
840.873	522
840.965	499
841.058	335
841.150	1935
841.243	1317
841.336	796
841.428	225
841.521	-330
841.613	48
841.706	302
841.798	-111
841.890	-36
841.983	-371
842.075	965
842.167	-49
842.260	-199
842.352	1429
842.444	1529
842.537	2503
842.629	4402
842.721	699
842.813	972
842.905	-792
842.997	892
843.090	-78
843.182	776
843.274	2077
843.366	5956
843.458	10543
843.550	8208
843.642	1385
843.734	752
843.826	518
843.918	1927
844.009	352
844.101	-241
844.193	-542
844.285	151
844.377	19
844.469	799
844.560	575
844.652	278
844.744	569
844.835	438
844.927	645
845.019	388
845.110	257
845.202	861
845.293	886
845.385	-73
845.476	664
845.568	668
845.659	318
845.751	556
845.842	-363
845.934	-519
846.025	-511
846.116	-180
846.208	-800
846.299	-614
846.390	653
846.482	-224
846.573	369
846.664	1602
846.755	1095
846.846	1406
846.937	-588
847.029	480
847.120	-350
847.211	201
847.302	847
847.393	267
847.484	782
847.575	185
847.666	-314
847.757	267
847.847	154
847.938	1032
848.029	-68
848.120	-476
848.211	-250
848.302	664
848.392	64
848.483	557
848.574	-240
848.664	-150
848.755	316
848.846	254
848.936	-655
849.027	522
849.118	15
849.208	50
849.299	144
849.389	360
849.480	1026
849.570	1227
849.661	322
849.751	1798
849.841	264
849.932	281
850.022	-208
850.112	149
850.203	-745
850.293	121
850.383	-47
850.474	-1024
850.564	-261
850.654	891
850.744	-46
850.834	-167
850.924	-398
851.014	191
851.104	470
851.194	1008
851.284	455
851.374	394
851.464	839
851.554	206
851.644	181
851.734	1513
851.824	2382
851.914	1648
852.004	3939
852.094	5780
852.183	1627
852.273	498
852.363	-49
852.452	-496
852.542	-779
852.632	95
852.721	-69
852.811	-337
852.901	-452
852.990	680
853.080	-90
853.169	207
853.259	-601
853.348	-31
853.438	244
853.527	1060
853.617	-1152
853.706	495
853.795	741
853.885	1750
853.974	2471
854.063	4163
854.152	7430
854.242	3088
854.331	360
854.420	302
854.509	550
854.598	747
854.687	-472
854.777	207
854.866	-506
854.955	322
855.044	-280
855.133	-174
855.222	-492
855.311	-714
855.400	-518
855.488	434
855.577	-636
855.666	-302
855.755	644
855.844	611
855.933	1431
856.021	339
856.110	-261
856.199	-572
856.288	-248
856.376	139
856.465	-859
856.554	390
856.642	-641
856.731	494
856.819	-676
856.908	-73
856.996	58
857.085	591
857.173	9
857.262	-437
857.350	-201
857.438	-311
857.527	489
857.615	-773
857.703	23
857.792	-646
857.880	-1028
857.968	-776
858.056	179
858.145	944
858.233	-200
858.321	-447
858.409	-32
858.497	-677
858.585	-667
858.673	156
858.761	-97
858.849	-205
858.937	-595
859.025	-56
859.113	13
859.201	-682
859.289	-675
859.377	349
859.465	167
859.552	-685
859.640	-265
859.728	766
859.816	-896
859.903	282
859.991	-360
860.079	653
860.166	-875
860.254	-767
860.342	-271
860.429	-534
860.517	-671
860.604	227
860.692	-51
860.779	-7
860.867	-1222
860.954	-724
861.042	83
861.129	132
861.216	-382
861.304	-193
861.391	-452
861.478	-147
861.565	-29
861.653	816
861.740	-466
861.827	-314
861.914	-465
862.001	-458
862.089	-448
862.176	964
862.263	-1105
862.350	-34
862.437	-367
862.524	-109
862.611	-408
862.698	5
862.785	-50
862.871	-88
862.958	-355
863.045	-895
863.132	-657
863.219	171
863.306	-483
863.392	76
863.479	-213
863.566	-483
863.652	220
863.739	142
863.826	-248
863.912	241
863.999	-775
864.086	-238
864.172	-78
864.259	-221
864.345	-304
864.432	-33
864.518	-7
864.604	-571
864.691	28
864.777	411
864.863	-165
864.950	-534
865.036	-1374
865.122	-751
865.209	-361
865.295	-296
865.381	-743
865.467	347
865.553	77
865.639	-418
865.726	-510
865.812	372
865.898	1440
865.984	2241
866.070	4092
866.156	5371
866.242	1047
866.328	354
866.414	-1015
866.499	38
866.585	-146
866.671	429
866.757	123
866.843	123
866.928	-412
867.014	-621
867.100	-578
867.186	-23
867.271	-125
867.357	303
867.442	124
867.528	-272
867.614	-514
867.699	-16
867.785	213
867.870	-334
867.956	-569
868.041	120
868.127	-767
868.212	-97
868.297	-371
868.383	60
868.468	381
868.553	1173
868.639	1442
868.724	3594
868.809	4856
868.894	713
868.979	24
869.065	-96
869.150	-429
869.235	-554
869.320	-632
869.405	-918
869.490	-1226
869.575	-591
869.660	-128
869.745	243
869.830	-848
869.915	-810
870.000	-802
870.085	-867
870.169	-1410
870.254	-140
870.339	-717
870.424	-707
870.509	-1231
870.593	-180
870.678	-822
870.763	-630
870.847	-401
870.932	-809
871.016	-561
871.101	-541
871.186	-523
871.270	-102
871.355	-901
871.439	-556
871.523	-937
871.608	-678
871.692	-630
871.777	51
871.861	-1160
871.945	-586
872.030	-1305
872.114	-461
872.198	-671
872.282	-680
872.367	-594
872.451	-108
872.535	-572
872.619	-828
872.703	-968
872.787	104
872.871	-1042
872.955	-871
873.039	-713
873.123	-654
873.207	-377
873.291	-306
873.375	-826
873.459	-562
873.543	-875
873.627	-297
873.711	-367
873.794	-789
873.878	-577
873.962	-1050
874.045	-488
874.129	-258
874.137	-293
874.213	-639
874.245	-701
874.296	-798
874.352	-1069
874.380	-1208
874.460	-357
874.464	-323
874.547	-1053
874.568	-917
874.631	-536
874.676	-334
874.714	-158
874.784	-222
874.798	-233
874.881	411
874.892	229
874.965	-1042
874.999	-890
875.048	-684
875.107	-484
875.131	-393
875.215	-911
875.215	-910
875.298	-137
875.323	-582
875.381	-1554
875.430	-850
875.465	-388
875.538	-189
875.548	-163
875.631	-236
875.646	-339
875.714	-811
875.753	-776
875.798	-756
875.861	-798
875.881	-802
875.964	-491
875.968	-510
876.047	-790
876.076	-499
876.130	-41
876.183	-564
876.213	-787
876.291	252
876.296	313
876.379	-618
876.398	-468
876.462	74
876.506	-126
876.545	-314
876.613	-430
876.628	-457
876.711	-328
876.721	-296
876.794	-42
876.828	-170
876.877	-295
876.935	-402
876.960	-479
877.043	-190
877.043	-190
877.125	-19
877.150	-17
877.208	-18
877.258	28
877.291	75
877.365	-167
877.374	-202
877.456	-261
877.472	-257
877.539	-219
877.579	17
877.622	299
877.687	194
877.704	137
877.787	616
877.794	553
877.869	-36
877.901	-58
877.952	-137
878.008	39
878.034	138
878.115	-97
878.117	-100
878.199	66
878.222	-64
878.282	-381
878.329	138
878.364	451
878.437	166
878.447	122
878.529	-312
878.544	-299
878.611	-181
878.651	-362
878.694	-518
878.758	-203
878.776	-127
878.858	-118
878.865	-134
878.941	-322
878.972	-390
879.023	-372
879.078	-179
879.105	-164
879.185	-476
879.187	-473
879.269	-36
879.292	-41
879.351	-619
879.399	-1003
879.433	-1040
879.506	-671
879.516	-632
879.598	-509
879.613	-488
879.680	-434
879.720	-427
879.762	-415
879.827	-275
879.844	-191
879.926	-145
879.933	-140
880.007	-329
880.040	-355
880.089	-298
880.147	-353
880.171	-385
880.253	338
880.254	336
880.335	75
880.360	308
880.417	925
880.467	1025
880.499	1073
880.574	1745
880.580	1765
880.662	592
880.680	345
880.744	-383
880.787	-411
880.825	-525
880.893	-769
880.907	-730
880.989	-132
881.000	-93
881.070	85
881.106	73
881.152	101
881.213	-32
881.233	-173
881.315	-650
881.319	-630
881.396	151
881.426	102
881.478	-215
881.532	-358
881.559	-324
881.639	-132
881.641	-131
881.722	-237
881.745	-330
881.803	-512
881.852	-434
881.885	-265
881.958	62
881.966	60
882.047	129
882.064	183
882.129	253
882.171	71
882.210	238
882.277	640
882.291	649
882.372	212
882.383	120
882.454	-419
882.489	-271
882.535	-180
882.596	-466
882.616	-472
882.697	-8
882.702	-34
882.778	-818
882.808	-606
882.859	49
882.914	-55
882.940	-58
883.020	104
883.021	104
883.102	77
883.127	84
883.183	165
883.233	101
883.264	148
883.339	275
883.345	235
883.426	-388
883.445	-574
883.507	-490
883.551	-200
883.587	17
883.657	431
883.668	475
883.749	286
883.763	296
883.830	86
883.869	-106
883.910	-326
883.975	-461
883.991	-413
884.072	-62
884.081	-89
884.152	-207
884.187	-140
884.233	-381
884.292	-548
884.314	-433
884.394	-5
884.398	-6
884.475	-104
884.504	39
884.555	229
884.610	111
884.636	4
884.716	-111
884.716	-107
884.797	-48
884.821	-136
884.877	-317
884.927	-241
884.958	-64
885.033	66
885.038	33
885.118	-421
885.139	-582
885.199	-305
885.244	74
885.279	219
885.350	204
885.359	111
885.439	-258
885.456	-466
885.520	-329
885.561	48
885.600	317
885.667	474
885.680	418
885.760	210
885.773	174
885.840	417
885.878	516
885.920	270
885.984	-170
886.000	-125
886.080	450
886.089	478
886.160	156
886.195	-21
886.240	-28
886.300	63
886.320	91
886.400	71
886.406	66
886.480	-65
886.511	22
886.560	36
886.616	-239
886.640	-225
886.720	-134
886.722	-134
886.800	105
886.827	255
886.879	100
886.932	-115
886.959	44
887.038	331
887.039	327
887.119	-219
887.143	-335
887.198	41
887.248	320
887.278	315
887.354	276
887.358	260
887.437	-92
887.459	-218
887.517	-23
887.564	182
887.596	173
887.669	177
887.676	152
887.755	-220
887.774	-322
887.835	201
887.880	666
887.914	378
887.985	-400
887.994	-382
888.073	-84
888.090	-42
888.153	-42
888.195	-13
888.232	-120
888.300	-332
888.311	-273
888.391	128
888.405	199
888.470	-254
888.510	-573
888.549	-320
888.615	229
888.628	255
888.708	203
888.720	228
888.787	492
888.825	534
888.866	424
888.930	362
888.945	247
889.024	-446
889.035	-534
889.103	-541
889.140	-552
889.182	-221
889.245	305
889.261	260
889.340	-1
889.349	-32
889.419	96
889.454	180
889.498	121
889.559	28
889.577	175
889.656	823
889.664	887
889.735	392
889.768	155
889.814	115
889.873	67
889.978	108
890.083	1048
890.187	-366
890.292	-206
890.397	-322
890.501	39
890.606	278
890.710	197
890.815	373
890.919	354
891.024	-416
891.128	549
891.233	295
891.337	465
891.442	-106
891.546	22
891.650	-34
891.755	152
891.859	1361
891.963	497
892.068	136
892.172	-192
892.276	272
892.380	-484
892.484	263
892.589	-2
892.693	-668
892.797	-117
892.901	394
893.005	-183
893.109	-2
893.213	-210
893.317	-245
893.421	378
893.525	305
893.629	231
893.733	-285
893.837	171
893.941	111
894.045	768
894.148	-103
894.252	1023
894.356	440
894.460	207
894.564	487
894.667	-108
894.771	-525
894.875	172
894.978	94
895.082	140
895.186	-222
895.289	347
895.393	-295
895.496	-418
895.600	364
895.703	-248
895.807	-435
895.910	402
896.014	-227
896.117	-986
896.221	238
896.324	-461
896.427	-372
896.531	402
896.634	-786
896.737	-656
896.840	-566
896.944	-496
897.047	-878
897.150	1033
897.253	-518
897.356	-63
897.460	-250
897.563	49
897.666	-441
897.769	278
897.872	-475
897.975	131
898.078	363
898.181	-130
898.284	85
898.387	-189
898.490	-462
898.593	614
898.695	-508
898.798	234
898.901	987
899.004	192
899.107	-1060
899.209	-60
899.312	-636
899.415	299
899.518	-594
899.620	-773
899.723	185
899.826	-79
899.928	364
900.031	-154
900.133	-468
900.236	224
900.338	-57
900.441	219
900.543	-350
900.646	284
900.748	-1076
900.851	-171
900.953	-485
901.055	-32
901.158	-41
901.260	-336
901.362	-716
901.465	-499
901.567	-140
901.669	-445
901.771	-246
901.873	-301
901.976	-78
902.078	-375
902.180	-487
902.282	-749
902.384	-429
902.486	26
902.588	-193
902.690	315
902.792	-578
902.894	-347
902.996	-413
903.098	-925
903.200	-887
903.302	70
903.404	-436
903.505	-59
903.607	-42
903.709	884
903.811	-66
903.913	-253
904.014	-609
904.116	-831
904.218	-357
904.319	-275
904.421	-678
904.523	-561
904.624	-698
904.726	-251
904.827	-754
904.929	-120
905.030	-380
905.132	-412
905.233	76
905.335	-371
905.436	-200
905.537	-367
905.639	311
905.740	-382
905.841	-672
905.943	-440
906.044	-555
906.145	257
906.247	-755
906.348	-9
906.449	-246
906.550	-576
906.651	-11
906.752	-630
906.854	-803
906.955	175
907.056	-791
907.157	-192
907.258	-575
907.359	-16
907.460	-378
907.561	-461
907.662	-252
907.762	-729
907.863	-226
907.964	22
908.065	-449
908.166	175
908.267	-973
908.367	-501
908.468	-549
908.569	256
908.670	-1003
908.770	-1111
908.871	32
908.971	-78
909.072	-313
909.173	-186
909.273	-1271
909.374	-251
909.474	-1178
909.575	-87
909.675	-590
909.776	168
909.876	-734
909.977	-285
910.077	-41
910.177	-898
910.278	-424
910.378	-413
910.478	-927
910.579	268
910.679	-1052
910.779	-397
910.879	-304
910.980	254
911.080	-1078
911.180	-533
911.280	-802
911.380	-280
911.480	-595
911.580	-732
911.680	-474
911.780	-890
911.880	-273
911.980	-376
912.080	-963
912.180	-155
912.280	-831
912.380	-518
912.480	-379
912.580	-30
912.679	-1287
912.779	-114
912.879	-381
912.979	-898
913.078	-1366
913.178	-534
913.278	-369
913.377	-275
913.477	-1288
913.577	242
913.676	120
913.776	-920
913.875	-878
913.975	-545
914.074	-809
914.174	-596
914.273	-1115
914.373	-122
914.472	-1067
914.572	-259
914.671	-432
914.770	-1331
914.870	-641
914.969	37
915.068	-431
915.167	-587
915.267	-744
915.366	-999
915.465	-873
915.564	-931
915.663	-590
915.763	-467
915.862	-407
915.961	-390
916.060	-516
916.159	-457
916.258	-1055
916.357	-400
916.456	-528
916.555	-907
916.654	-561
916.752	-436
916.851	-124
916.950	-624
917.049	-410
917.148	-543
917.247	-1180
917.345	-634
917.444	-1049
917.543	-1248
917.642	-884
917.740	-939
917.839	-947
917.937	-612
918.036	-1036
918.135	-508
918.233	-935
918.332	64
918.430	-419
918.529	-668
918.627	-331
918.726	-372
918.824	-285
918.923	-806
919.021	-713
919.119	29
919.218	-462
919.316	-313
919.414	-448
919.512	-420
919.611	-928
919.709	48
919.807	-654
919.905	-800
920.003	-657
920.102	178
920.200	-311
920.298	-1027
920.396	-807
920.494	-834
920.592	-441
920.690	-33
920.788	-923
920.886	-823
920.984	-529
921.082	-1133
921.180	-635
921.277	-434
921.375	-400
921.473	-760
921.571	-1187
921.669	-710
921.766	-987
921.864	-684
921.962	-428
922.060	-992
922.157	-557
922.255	-464
922.352	-1031
922.450	-48
922.548	-739
922.645	-409
922.743	-744
922.840	-1152
922.938	-99
923.035	-516
923.133	-1450
923.230	-334
923.327	-516
923.425	-741
923.522	-1133
923.619	-853
923.717	-1087
923.814	-576
923.911	-1421
924.008	-1193
924.106	-1154
924.203	-505
924.300	-955
924.397	-928
924.494	-623
924.591	-231
924.688	-1073
924.786	-670
924.883	-200
924.979	-567
925.077	-1130
925.173	-914
925.270	-1242
925.367	-1035
925.464	-832
925.561	27
925.658	-1745
925.755	-29
925.852	-700
925.948	-659
926.045	-1748
926.142	-928
926.239	-418
926.335	84
926.432	-1004
926.529	-366
926.625	-274
926.722	572
926.818	-1409
926.915	-587
927.011	-1383
927.108	-294
927.204	-190
927.301	-716
927.397	-1265
927.494	-1039
927.590	-972
927.687	-483
927.783	-1106
927.879	-1339
927.976	-781
928.072	-382
928.168	-667
928.264	-588
928.361	-497
928.457	-448
928.553	-1092
928.649	-1006
928.745	-992
928.841	-760
928.937	-769
929.033	-53
929.129	-567
929.225	-527
929.321	-1125
929.417	-505
929.513	-1205
929.609	-235
929.705	-1258
929.801	-240
929.897	-1515
929.993	-977
930.089	-1310
930.184	-606
930.280	-1202
930.376	-1497
930.471	-767
930.567	-1245
930.663	-722
930.758	-369
930.854	-800
930.950	-600
931.045	-1265
931.141	-121
931.236	-1121
931.332	-960
931.427	-884
931.523	-1018
931.618	-890
931.714	-1486
931.809	-535
931.905	-845
932.000	-364
932.095	-449
932.191	-1056
932.286	-697
932.381	-303
932.476	-571
932.572	-1061
932.667	-315
932.762	-471
932.857	-1212
932.952	-913
933.047	-632
933.142	-1200
933.237	-921
933.332	-399
933.427	-235
933.522	-733
933.617	-907
933.712	-480
933.807	-462
933.902	-1191
933.997	-119
934.092	-598
934.187	-930
934.282	-1557
934.376	-425
934.471	-810
934.566	-757
934.661	-1326
934.755	-630
934.850	-1376
934.945	-345
935.039	-1008
935.134	-513
935.228	-1134
935.323	-978
935.417	-455
935.512	-1085
935.606	-490
935.701	-770
935.795	-567
935.890	-693
935.984	-376
936.079	-471
936.173	-686
936.267	-883
936.362	-804
936.456	-79
936.550	-390
936.644	-1028
936.738	-1185
936.833	-180
936.927	-509
937.021	225
937.115	-1334
937.209	-1321
937.303	-587
937.397	-532
937.491	-822
937.585	-701
937.679	-632
937.773	-1121
937.867	-576
937.961	-935
938.055	-1278
938.149	-736
938.243	-1023
938.337	-459
938.430	-559
938.524	-901
938.618	-883
938.712	50
938.805	-192
938.899	-970
938.993	-515
939.086	-466
939.180	-760
939.274	-410
939.367	-1156
939.461	-1076
939.554	-731
939.648	-1156
939.741	-876
939.835	-853
939.928	-1107
940.022	-399
940.115	-1405
940.208	-134
940.302	-536
940.395	-193
940.488	-949
940.582	-324
940.675	-1422
940.768	-697
940.861	-781
940.954	-539
941.048	-1953
941.141	-162
941.234	-1406
941.327	-943
941.420	-1120
941.513	-1022
941.606	-1407
941.699	-404
941.792	-978
941.885	-1590
941.978	-193
942.071	-275
942.164	-1338
942.257	-657
942.349	-793
942.442	-1454
942.535	-1509
942.628	-586
942.721	-1579
942.813	-906
942.906	-919
942.999	-687
943.091	-1050
943.184	-261
943.277	-741
943.369	-444
943.462	-572
943.554	-444
943.647	-1476
943.739	-732
943.832	-974
943.924	-1149
944.017	-903
944.109	-871
944.201	-1830
944.294	-906
944.386	-834
944.478	-1142
944.571	-598
944.663	-1095
944.755	-1003
944.847	-347
944.940	-897
945.032	-358
945.124	-1458
945.216	-202
945.308	-994
945.400	-482
945.492	-417
945.584	-353
945.676	-1018
945.768	-220
945.860	-34
945.952	-1067
946.044	-635
946.136	-835
946.228	-1229
946.320	-589
946.412	-1313
946.503	-218
946.595	276
946.687	-1257
946.779	-1649
946.870	-799
946.962	-694
947.054	-737
947.145	-735
947.237	-1057
947.329	-1010
947.420	-1250
947.512	-891
947.603	-531
947.695	-1128
947.786	-937
947.878	-1315
947.969	-429
948.061	-1491
948.152	-1007
948.243	-810
948.335	-236
948.426	-1110
948.517	-963
948.609	-1043
948.700	-450
948.791	-971
948.882	-759
948.973	-1375
949.065	-1006
949.156	-1622
949.247	-1127
949.338	-1423
949.429	-867
949.520	-892
949.611	-763
949.702	-892
949.793	-882
949.884	-1508
949.975	-1475
950.066	-1088
950.157	-1594
950.247	-1045
950.338	-639
950.429	-2021
950.520	-791
950.611	-1745
950.701	-966
950.792	-1002
950.883	80
950.973	-1077
951.064	-885
951.155	-1237
951.245	-900
951.336	-1645
951.427	-1327
951.517	-133
951.608	-1098
951.698	-1105
951.788	-508
951.879	-1457
951.969	-1207
952.060	-84
952.150	-1056
952.240	-996
952.331	-1937
952.421	-571
952.511	-1402
952.602	-1094
952.692	-845
952.782	-1035
952.872	-905
952.962	-1493
953.052	-865
953.143	-1433
953.233	-437
953.323	-1892
953.413	-1220
953.503	-1339
953.593	-611
953.683	-1618
953.773	-1169
953.863	-1271
953.953	-1220
954.042	-1238
954.132	-601
954.222	-853
954.312	-543
954.402	-1271
954.492	-846
954.581	-787
954.671	-1054
954.761	-1653
954.850	-643
954.940	-850
955.030	-1292
955.119	-924
955.209	-1344
955.298	-1807
955.388	-1241
955.477	-884
955.567	-1913
955.656	-1102
955.746	-1362
955.835	-1604
955.925	-1722
956.014	-1681
956.103	-1410
956.193	-1207
956.282	-941
956.371	-1058
956.461	-1573
956.550	-1090
956.639	-1451
956.728	-1493
956.817	-1012
956.906	-1364
956.995	-777
957.085	-1379
957.174	-940
957.263	-999
957.352	-1255
957.441	-1140
957.530	-1230
957.619	-1649
957.708	-1134
957.796	-1199
957.885	-1432
957.974	-1297
958.063	-344
958.152	-1725
958.241	-1146
958.329	-1300
958.418	-1066
958.507	-1513
958.596	177
958.684	-782
958.773	-784
958.861	-1419
958.950	-1346
959.039	-1305
959.127	-578
959.216	-1726
959.304	-794
959.393	-838
959.481	-1111
959.570	-1906
959.658	-536
959.746	-1823
959.835	63
959.923	-131
960.011	-709
960.100	-863
960.188	-1409
960.276	-1300
960.365	-2367
960.453	-1581
960.541	-1345
960.629	-1672
960.717	-887
960.805	-1488
960.893	-1332
960.981	-1669
961.069	-793
961.158	-1326
961.245	-1611
961.333	-284
961.421	-1799
961.509	-1014
961.597	-1124
961.685	-1492
961.773	-1251
961.861	-1489
961.949	-582
962.036	-2158
962.124	-742
962.212	-1827
962.299	-1676
962.387	-1258
962.475	-1449
962.562	-1823
962.650	-880
962.738	-725
962.825	-1048
962.913	-1812
963.000	-1741
963.088	-2400
963.175	-1312
963.263	-1611
963.350	-1241
963.438	-1637
963.525	-912
963.612	-1243
963.700	-1339
963.787	2921
963.874	816
963.962	-587
964.049	-1081
964.136	-1223
964.223	-1966
964.310	-1764
964.398	-354
964.485	-2307
964.572	-1008
964.659	-1102
964.746	-861
964.833	-1866
964.920	-1150
965.007	-2070
965.094	-1438
965.181	-1932
965.268	-1955
965.355	-1701
965.441	-1511
965.528	-2198
965.615	-1242
965.702	-1629
965.789	-1301
965.875	-644
965.962	-1030
966.049	-2033
966.136	-1637
966.222	-1389
966.309	-1925
966.395	-2267
966.482	-1348
966.569	-2222
966.655	-1128
966.742	-1664
966.828	-1820
966.915	-1445
967.001	-1042
967.087	-1570
967.174	-1945
967.260	-1459
967.347	-1235
967.433	-1025
967.519	1173
967.605	52
967.692	-1387
967.778	-1712
967.864	-1799
967.950	-1616
968.036	-1479
968.123	-1631
968.209	-2260
968.295	-2170
968.381	-863
968.467	-1971
968.553	-2231
968.639	-1488
968.725	-1626
968.811	-921
968.897	-296
968.983	-1932
969.069	-1528
969.154	-1393
969.240	-517
969.326	-1772
969.412	-1600
969.497	-2373
969.583	-1046
969.669	-1079
969.755	-591
969.840	-2227
969.926	-1125
970.012	-1398
970.097	-1524
970.183	-2337
970.268	-1554
970.354	-1111
970.439	-1615
970.525	643
970.610	-1209
970.696	-950
970.781	-1632
970.866	-1564
970.952	-823
971.037	-1919
971.122	-1327
971.208	-1430
971.293	-1491
971.378	-2682
971.463	-1162
971.549	-1809
971.634	-1472
971.719	-2547
971.804	-1450
971.889	-1371
971.974	-1547
972.059	-1544
972.144	-1570
972.229	-1447
972.314	-2110
972.399	-2621
972.484	-1796
972.569	-1053
972.654	-871
972.739	-903
972.824	-293
972.908	-779
972.993	-1795
973.078	-1893
973.163	-1564
973.247	-1235
973.332	-2384
973.417	-984
973.501	-2118
973.586	-1983
973.671	-1243
973.755	-1221
973.840	-1094
973.924	-1664
974.009	-1131
974.093	-2112
974.178	-846
974.262	-1433
974.346	-225
974.431	-1195
974.515	-2078
974.600	-1279
974.684	-1430
974.768	-2048
974.852	20
974.937	-2458
975.021	-1095
975.105	-2014
975.189	-2207
975.273	-1804
975.358	-1009
975.442	-2221
975.526	-1465
975.610	-2583
975.694	-955
975.778	-1299
975.862	-1188
975.946	-3238
976.030	-772
976.114	-1910
976.198	-1197
976.281	-1725
976.365	-1485
976.449	-1650
976.533	-1171
976.617	-2230
976.700	-1323
976.784	-1734
976.868	-1833
976.951	-1466
977.035	-591
977.119	-1399
977.202	-1689
977.286	-1822
977.369	-1595
977.453	-1042
977.536	-1908
977.620	-1646
977.703	-1715
977.787	-1935
977.870	-767
977.953	-826
978.037	-1637
978.120	-1099
978.203	-1037
978.287	-313
978.370	-1748
978.453	-1567
978.536	-1903
978.620	-927
978.703	-627
978.786	-1441
978.869	-1377
978.952	-1932
979.035	423
979.118	-1401
979.201	-1964
979.284	-1627
979.367	-1254
979.450	-1151
979.533	-1711
979.616	-1543
979.699	-1797
979.782	-1491
979.865	-2616
979.948	-1120
980.030	-2107
980.113	-1380
980.196	-2061
980.279	-1472
980.361	-856
980.444	-1633
980.526	-1648
980.609	-1480
980.692	-1322
980.774	-1487
980.857	-1854
980.939	-1074
981.022	-1752
981.104	-1654
981.187	-2245
981.269	-695
981.352	-1326
981.434	-2535
981.516	-1826
981.599	-1068
981.681	-1717
981.763	-1561
981.846	-1814
981.928	-1782
982.010	-1451
982.092	-2147
982.174	-988
982.256	-1470
982.339	-1244
982.421	-1774
982.503	-887
982.585	-2231
982.667	-1562
982.749	-1656
982.831	-1359
982.913	-2034
982.995	-1375
983.077	-1389
983.158	-784
983.240	-2022
983.322	-1081
983.404	-1322
983.486	-1850
983.568	-1459
983.649	-2082
983.731	-1881
983.813	-1746
983.894	-1283
983.976	-2010
984.058	-1889
984.139	-965
984.221	-1634
984.302	-1513
984.384	-1715
984.465	-1514
984.547	-1723
984.628	-1760
984.710	-1084
984.791	-1787
984.872	-1062
984.954	-1650
985.035	-1835
985.116	-2346
985.198	-2336
985.279	-688
985.360	-1550
985.441	-1854
985.522	-2055
985.604	-1123
985.685	-3273
985.766	-285
985.847	-1027
985.928	-1138
986.009	-1336
986.090	-1642
986.171	-1424
986.252	-1386
986.333	-1376
986.414	-2113
986.495	-1484
986.576	-1678
986.656	-2152
986.737	-1582
986.818	-1258
986.899	-892
986.980	-1826
987.060	-805
987.141	-1720
987.222	-1456
987.302	-2177
987.383	-2167
987.464	-2135
987.544	-1354
987.625	-1824
987.705	-1283
987.786	-1675
987.866	-1387
987.947	-1060
988.027	-1428
988.108	-2146
988.188	-1309
988.268	-1932
988.349	-1548
988.429	-2153
988.509	-902
988.589	-1400
988.670	-2350
988.750	-740
988.830	-1973
988.910	-1388
988.990	-1734
989.070	-1548
989.151	-1501
989.231	-2053
989.311	-1203
989.391	-1877
989.471	-1462
989.551	-2719
989.631	-1745
989.711	-1859
989.791	-1561
989.870	-1683
989.950	-1067
990.030	-1684
990.110	-1342
990.190	-2206
990.269	-1232
990.349	-1500
990.429	-1569
990.509	-1334
990.588	-1755
990.668	-1102
990.747	-1256
990.827	-1499
990.907	-1499
990.986	-1747
991.066	-735
991.145	-1356
991.225	-719
991.304	-1908
991.383	-1110
991.463	-1633
991.542	-718
991.622	-1980
991.701	-1904
991.780	-1671
991.859	-1597
991.939	-1725
992.018	-1428
992.097	-1112
992.176	-793
992.256	-1756
992.335	-2197
992.414	-769
992.493	-1424
992.572	-2036
992.651	-847
992.730	-2221
992.809	-1024
992.888	-1559
992.967	-1510
993.046	-1731
993.125	-2370
993.203	-2348
993.282	-862
993.361	-1544
993.440	-1873
993.519	-2393
993.597	-1325
993.676	-1371
993.755	-1247
993.834	-1505
993.912	-2914
993.991	-872
994.069	-2125
994.148	-1394
994.226	-1654
994.305	-1751
994.384	-1168
994.462	-1181
994.540	-1298
994.619	-1850
994.697	-1115
994.776	-2765
994.854	-1313
994.932	-1558
995.011	-691
995.089	-2012
995.167	-1981
995.245	-1913
995.324	-977
995.402	-1252
995.480	-1702
995.558	-1290
995.636	-2487
995.714	-2203
995.792	-400
995.870	-1742
995.948	-1100
996.026	-1946
996.104	-1840
996.182	-1005
996.260	-1021
996.338	-974
996.416	-2012
996.494	-1921
996.572	-1715
996.649	-2555
996.727	-2030
996.805	-1959
996.883	-1883
996.960	-2050
997.038	-1423
997.116	-1405
997.193	-1575
997.271	-1171
997.348	-1531
997.426	-1447
997.504	-1712
997.581	-1755
997.658	-1477
997.736	-1848
997.813	-2564
997.891	-2093
997.968	-1821
998.046	-1340
998.123	-1539
998.200	-1752
998.277	-2291
998.355	-1265
998.432	-2675
998.509	-1752
998.586	-1114
998.663	-1416
998.741	-1274
998.818	-2264
998.895	-1477
998.972	-2450
999.049	-1444
999.126	-2056
999.203	-791
999.280	-1888
999.357	-2016
999.434	-2760
999.511	-1179
999.587	-2026
999.664	-2089
999.741	-1102
999.818	-1378
999.895	-2989
999.971	-2359
1000.048	-1384
1000.125	-1759
1000.202	-2449
1000.278	-1687
1000.355	-2649
1000.431	-1946
1000.508	-2672
1000.584	-797
1000.661	-1714
1000.738	-2092
1000.814	-2093
1000.890	-1199
1000.967	-2608
1001.043	-1988
1001.120	-2551
1001.196	-2017
1001.272	-1964
1001.349	-2167
1001.425	-1607
1001.501	-1518
1001.577	-1888
1001.654	-1629
1001.730	-2544
1001.806	-2030
1001.882	-2178
1001.958	-1687
1002.034	-1862
1002.110	-1879
1002.186	-2545
1002.262	-2518
1002.338	-2670
1002.414	-754
1002.490	-1512
1002.566	-1253
1002.642	-2586
1002.718	-1731
1002.794	-2538
1002.870	-1839
1002.945	-1734
1003.021	-1568
1003.097	-2382
1003.173	-718
1003.248	-2959
1003.324	-1040
1003.400	-2036
1003.475	-1254
1003.551	-2101
1003.626	-2515
1003.702	-2096
1003.777	-1863
1003.853	-2498
1003.928	-1746
1004.004	-2061
1004.079	-2293
1004.155	-1576
1004.230	-2141
1004.305	-2194
1004.381	-1399
1004.456	-2241
1004.531	-1869
1004.607	-1429
1004.682	-1932
1004.757	-1993
1004.832	-2020
1004.907	-2575
1004.982	-1156
1005.057	-2224
1005.133	-2197
1005.208	-1977
1005.283	-2109
1005.358	-1460
1005.433	-1940
1005.508	-1739
1005.583	-1862
1005.657	-1762
1005.732	-1043
1005.807	-2240
1005.882	-1652
1005.957	-1837
1006.032	-1193
1006.106	-2164
1006.181	-2045
1006.256	-2116
1006.331	-2763
1006.405	-3206
1006.480	-1777
1006.554	-2349
1006.629	-1519
1006.704	-2110
1006.778	-2522
1006.853	-2163
1006.927	-1775
1007.002	-2575
1007.076	-1171
1007.150	-2182
1007.225	-1164
1007.299	-2042
1007.373	-2056
1007.448	-2302
1007.522	-1900
1007.596	-2280
1007.671	-2751
1007.745	-1664
1007.819	-2810
1007.893	-2401
1007.967	-1479
1008.041	-2367
1008.115	-1181
1008.190	-3234
1008.264	-2159
1008.338	-3557
1008.412	-2149
1008.486	-2336
1008.560	-1981
1008.633	-2509
1008.707	-1692
1008.781	-2061
1008.855	-1845
1008.929	-1835
1009.003	-2396
1009.076	-2422
1009.150	-1074
1009.224	-2784
1009.298	-1171
1009.371	-2052
1009.445	-1508
1009.519	-1656
1009.592	-1931
1009.666	-1735
1009.739	-1826
1009.813	-3143
1009.886	-1540
1009.960	-2732
1010.033	-1073
1010.107	-1477
1010.180	-2526
1010.253	-1992
1010.327	-2276
1010.400	-2876
1010.473	-1702
1010.547	-1381
1010.620	-1635
1010.693	-1795
1010.766	-2625
1010.840	-1916
1010.913	-1665
1010.986	-2298
1011.059	-1288
1011.132	-2347
1011.205	-1369
1011.278	-2075
1011.351	-2156
1011.424	-2236
1011.497	-1785
1011.570	-3050
1011.643	-1494
1011.716	-2279
1011.789	-1912
1011.862	-2025
1011.934	-2229
1012.007	-2914
1012.080	-2238
1012.153	-1925
1012.225	-1751
1012.298	-2667
1012.371	-1560
1012.443	-1991
1012.516	-1966
1012.588	-1467
1012.661	-2366
1012.733	-2498
1012.806	-1709
1012.879	-2133
1012.951	-1507
1013.023	-2363
1013.096	-1774
1013.168	-2352
1013.241	-1612
1013.313	-2022
1013.385	-1712
1013.458	-2281
1013.530	-2134
1013.602	-2176
1013.674	-1577
1013.746	-2524
1013.819	-2443
1013.891	-2007
1013.963	-2373
1014.035	-1730
1014.107	-2081
1014.179	-1453
1014.251	-1901
1014.323	-1304
1014.395	-1362
1014.467	-1549
1014.539	-1701
1014.611	-2848
1014.683	-2097
1014.754	-2567
1014.826	-1805
1014.898	-2080
1014.970	-2596
1015.042	-1509
1015.113	-1906
1015.185	-2172
1015.257	-2096
1015.328	-1772
1015.400	-2621
1015.471	-2304
1015.543	-2413
1015.615	-2269
1015.686	-1976
1015.757	-1876
1015.829	-2019
1015.901	-2177
1015.972	-2875
1016.043	-1848
1016.115	-2135
1016.186	-2304
1016.257	-2740
1016.328	-1518
1016.400	-1527
1016.471	-2243
1016.542	-1355
1016.613	-1890
1016.685	-1598
1016.756	-2304
1016.827	-2389
1016.898	-2864
1016.969	-1203
1017.040	-2552
1017.111	-2125
1017.182	-2676
1017.253	-1964
1017.324	-1955
1017.395	-1748
1017.466	-1231
1017.537	-1621
1017.608	-2283
1017.678	-1768
1017.749	-2645
1017.820	-1954
1017.891	-1881
1017.961	-2075
1018.032	-1915
1018.103	-2263
1018.173	-1395
1018.244	-2535
1018.315	-2561
1018.385	-1293
1018.456	-1650
1018.526	-2127
1018.597	-2115
1018.667	-1877
1018.738	-2161
1018.808	-2294
1018.878	-2632
1018.949	-1738
1019.019	-1765
1019.089	-2678
1019.160	-2387
1019.230	-1371
1019.300	-2168
1019.371	-3047
1019.441	-1237
1019.511	-1632
1019.581	-2831
1019.651	-1356
1019.721	-2356
1019.791	-1262
1019.861	-1684
1019.931	-2442
1020.001	-1931
1020.071	-2792
1020.141	-2478
1020.211	-1593
1020.281	-2378
1020.351	-1783
1020.421	-2545
1020.491	-1113
1020.560	-3297
1020.630	-1804
1020.700	-1647
1020.770	-2124
1020.839	-1996
1020.909	-2202
1020.979	-2278
1021.048	-1418
1021.118	-2074
1021.187	-2197
1021.257	-2124
1021.326	-1915
1021.396	-2104
1021.465	-1550
1021.535	-2425
1021.604	-2524
1021.674	-2168
1021.743	-1732
1021.812	-1970
1021.882	-2255
1021.951	-2102
1022.020	-2171
1022.089	-1870
1022.159	-1871
1022.228	-2078
1022.297	-2239
1022.366	-2376
1022.435	-1459
1022.504	-1822
1022.573	-2576
1022.642	-2610
1022.711	-2283
1022.781	-2016
1022.849	-1323
1022.918	-2033
1022.987	-1434
1023.056	-2390
1023.125	-2392
1023.194	-1486
1023.263	-1399
1023.331	-1506
1023.400	-1541
1023.469	-2278
1023.538	-1943
1023.606	-1761
1023.675	-1757
1023.744	-2013
1023.812	-2909
1023.881	-2049
1023.949	-2225
1024.018	-2407
1024.086	-2104
1024.155	-2015
1024.223	-2487
1024.292	-1830
1024.360	-1073
1024.429	-1646
1024.497	-1626
1024.565	-2179
1024.634	-1593
1024.702	-2496
1024.770	-2571
1024.838	-2238
1024.907	-1613
1024.975	-2131
1025.043	-985
1025.111	-2306
1025.179	-2231
1025.247	-1788
1025.315	-1808
1025.383	-2482
1025.451	-2446
1025.519	-2308
1025.587	-2613
1025.655	-1384
1025.723	-1896
1025.791	-2278
1025.859	-2016
1025.927	-1613
1025.995	-1372
1026.062	-1794
1026.130	-2177
1026.198	-2054
1026.266	-2270
1026.333	-1797
1026.401	-1541
1026.469	-2072
1026.536	-2001
1026.604	-1667
1026.671	-1752
1026.739	-1849
1026.806	-2132
1026.874	-2299
1026.941	-1534
1027.009	-1928
1027.076	-2157
1027.144	-1402
1027.211	-1842
1027.278	-2363
1027.345	-1368
1027.413	-2127
1027.480	-2078
1027.547	-1628
1027.614	-2546
1027.682	-2636
1027.749	-1718
1027.816	-1800
1027.883	-1539
1027.950	-1664
1028.017	-2620
1028.084	-1246
1028.151	-2260
1028.218	-1694
1028.285	-2273
1028.352	-2705
1028.419	-2415
1028.486	-2514
1028.553	-1626
1028.619	-2222
1028.686	-2124
1028.753	-2260
1028.820	-1628
1028.886	-1543
1028.953	-1885
1029.020	-1872
1029.086	-2559
1029.153	-1932
1029.220	-2388
1029.286	-1432
1029.353	-1315
1029.419	-2410
1029.486	-2384
1029.552	-2227
1029.619	-1912
1029.685	-1656
1029.751	-2107
1029.818	-1531
1029.884	-1895
1029.951	-1945
1030.017	-2155
1030.083	-1603
1030.149	-1238
1030.216	-1716
1030.282	-2330
1030.348	-1585
1030.414	-2383
1030.480	-2342
1030.546	-1988
1030.612	-1403
1030.678	-1912
1030.744	-2325
1030.810	-2525
1030.876	-1988
1030.942	-1708
1031.008	-2122
1031.074	-2072
1031.140	-2098
1031.206	-1436
1031.272	-2483
1031.337	-1159
1031.403	-2280
1031.469	-2244
1031.534	-1446
1031.600	-1455
1031.666	-2317
1031.731	-1697
1031.797	-1767
1031.863	-2041
1031.928	-2142
1031.994	-2041
1032.059	-1174
1032.125	-2406
1032.190	-3061
1032.256	-1874
1032.321	-2258
1032.386	-2121
1032.452	-1915
1032.517	-1570
1032.582	-1188
1032.647	-2112
1032.713	-2087
1032.778	-1299
1032.843	-1700
1032.908	-1603
1032.974	-2341
1033.039	-2237
1033.104	-1791
1033.169	-2515
1033.234	-1836
1033.299	-1272
1033.364	-1759
1033.429	-1186
1033.494	-1837
1033.559	-920
1033.624	-2002
1033.688	-1274
1033.753	-2116
1033.818	-1480
1033.883	-1807
1033.948	-1188
1034.013	-1935
1034.077	-1671
1034.142	-1673
1034.207	-1747
1034.271	-1696
1034.336	-930
1034.400	-2784
1034.465	-1387
1034.530	-2046
1034.594	-1328
1034.658	-2503
1034.723	-1653
1034.787	-1656
1034.852	-1976
1034.916	-2503
1034.981	-1751
1035.045	-1532
1035.109	-1163
1035.173	-952
1035.238	-1440
1035.302	-1585
1035.366	-778
1035.430	-2299
1035.495	-1728
1035.559	-1957
1035.623	-1232
1035.687	-2489
1035.751	-1679
1035.815	-2239
1035.879	-1461
1035.943	-2168
1036.007	-2950
1036.071	-1712
1036.135	-1503
1036.198	-2442
1036.262	-1577
1036.326	-1898
1036.390	-1453
1036.454	-1088
1036.517	-2034
1036.581	-1259
1036.645	-1650
1036.709	-1474
1036.772	-1528
1036.836	-1105
1036.900	-1921
1036.963	-2233
1037.026	-1965
1037.090	-2319
1037.154	-2022
1037.217	-1331
1037.280	-2102
1037.344	-2071
1037.407	-2051
1037.471	-1755
1037.534	-2173
1037.597	-1418
1037.661	-2185
1037.724	-2299
1037.787	-1377
1037.850	-1757
1037.913	-1454
1037.977	-1686
1038.040	-1382
1038.103	-1926
1038.166	-1303
1038.229	-1879
1038.292	-2105
1038.355	-1999
1038.418	-2020
1038.481	-1414
1038.544	-1929
1038.607	-1540
1038.670	-1961
1038.732	-2345
1038.795	-2128
1038.858	-2089
1038.921	-1348
1038.984	-1435
1039.046	-1606
1039.109	-2212
1039.172	-1309
1039.234	-2514
1039.297	-1637
1039.360	-1897
1039.422	-1607
1039.485	-1498
1039.547	-1607
1039.610	-1825
1039.672	-1421
1039.734	-2730
1039.797	-1643
1039.859	-1567
1039.922	-1686
1039.984	-2542
1040.046	-1001
1040.109	-1624
1040.171	-1200
1040.233	-1860
1040.295	-2057
1040.358	-1803
1040.420	-1705
1040.482	-2340
1040.544	-2122
1040.606	-1816
1040.668	-1447
1040.730	-1706
1040.792	-1527
1040.854	-2365
1040.916	-1964
1040.978	-2324
1041.040	-1731
1041.102	-729
1041.164	-1626
1041.225	-1634
1041.287	-1956
1041.349	-2213
1041.411	-2008
1041.472	-2174
1041.534	-1658
1041.596	-2299
1041.657	-1825
1041.719	-1745
1041.781	-1497
1041.842	-2309
1041.904	-1225
1041.965	-1597
1042.027	-1079
1042.088	-1214
1042.150	-2121
1042.211	-2538
1042.272	-908
1042.334	-1535
1042.395	-1330
1042.456	-2547
1042.518	-788
1042.579	-1341
1042.640	-1315
1042.701	-1093
1042.763	-2124
1042.824	-2668
1042.885	-1953
1042.946	-2555
1043.007	-2121
1043.068	-2283
1043.129	-1916
1043.190	-2178
1043.251	-2190
1043.312	-2404
1043.373	-1790
1043.434	-1389
1043.495	-1566
1043.556	-2021
1043.616	-1332
1043.677	-1856
1043.738	-1140
1043.799	-2827
1043.859	-2167
1043.920	-2071
1043.981	-2290
1044.041	-1533
1044.102	-1809
1044.162	-2019
1044.223	-1658
1044.284	-1949
1044.344	-1451
1044.405	-2058
1044.465	-1139
1044.525	-2117
1044.586	-1065
1044.646	-2096
1044.707	-1272
1044.767	-1749
1044.827	-1738
1044.887	-1905
1044.948	-1433
1045.008	-1780
1045.068	-1447
1045.128	-2057
1045.188	-1517
1045.249	-1775
1045.309	-1873
1045.369	-1382
1045.429	-2038
1045.489	-2617
1045.549	-1763
1045.609	-1870
1045.669	-1120
1045.729	-2184
1045.789	-1602
1045.848	-1364
1045.908	-2289
1045.968	-2055
1046.028	-1627
1046.088	-898
1046.147	-968
1046.207	-1443
1046.267	-1432
1046.326	-1770
1046.386	-1702
1046.446	-888
1046.505	-969
1046.565	-1402
1046.624	-958
1046.684	-1127
1046.743	-993
1046.803	-984
1046.862	-1149
1046.922	0
