'Start Wavelength	183.907
'End Wavelength	1046.922
'Gate Delay	5.000
'Gate Width (ms)	1.050
'Laser Output Level	0.000
'X Position	0.000
'Y Position	0.000
'Z Position	0.000
'Grid Point Number	1.000
'Shot Number	100.000
183.907	538.000
183.977	-29.000
184.047	291
184.116	782
184.186	478
184.256	-195
184.325	585
184.395	-639
184.465	629
184.534	-120
184.604	-335
184.674	337
184.743	-156
184.813	-228
184.883	576
184.952	-103
185.022	586
185.092	279
185.161	-229
185.231	187
185.301	571
185.370	-543
185.440	205
185.509	-232
185.579	300
185.649	341
185.718	-140
185.788	1041
185.857	214
185.927	38
185.996	-33
186.066	126
186.136	669
186.205	-89
186.275	49
186.344	-504
186.414	-272
186.483	-258
186.553	599
186.622	234
186.692	669
186.761	-492
186.831	137
186.900	-33
186.970	261
187.039	486
187.109	954
187.178	431
187.248	41
187.317	-446
187.387	-550
187.456	385
187.526	-443
187.595	227
187.664	90
187.734	535
187.803	172
187.873	232
187.942	140
188.012	-382
188.081	-166
188.150	-87
188.220	652
188.289	116
188.358	676
188.428	99
188.497	-308
188.567	496
188.636	-542
188.705	129
188.775	44
188.844	-1055
188.913	418
188.983	-481
189.052	-156
189.121	236
189.191	-104
189.260	835
189.329	416
189.399	5
189.468	138
189.537	231
189.606	739
189.676	-272
189.745	-237
189.814	-163
189.883	4
189.953	-390
190.022	99
190.091	293
190.161	330
190.230	302
190.299	-431
190.368	54
190.437	98
190.507	-412
190.576	472
190.645	-997
190.714	-26
190.783	-746
190.853	71
190.922	312
190.991	216
191.060	422
191.129	-565
191.198	27
191.268	581
191.337	-509
191.406	67
191.475	398
191.544	399
191.613	778
191.682	529
191.752	182
191.821	417
191.890	-545
191.959	585
192.028	374
192.097	489
192.166	60
192.235	-783
192.304	193
192.373	-777
192.442	-279
192.511	205
192.580	-338
192.650	-136
192.719	-282
192.788	-40
192.857	449
192.926	-399
192.995	118
193.064	463
193.133	532
193.202	-146
193.271	218
193.340	1142
193.409	829
193.478	62
193.547	-384
193.615	733
193.684	-274
193.753	48
193.822	277
193.891	-636
193.960	103
194.029	-69
194.098	394
194.167	-276
194.236	432
194.305	477
194.374	966
194.443	62
194.512	105
194.580	25
194.649	128
194.718	91
194.787	18
194.856	293
194.925	-174
194.994	-247
195.062	-133
195.131	-35
195.200	-173
195.269	355
195.338	607
195.407	575
195.475	-166
195.544	-417
195.613	169
195.682	324
195.751	56
195.819	-102
195.888	215
195.957	405
196.026	223
196.094	364
196.163	87
196.232	283
196.301	-184
196.369	-138
196.438	204
196.507	380
196.576	333
196.644	-238
196.713	431
196.782	-343
196.850	479
196.919	1081
196.988	-438
197.056	37
197.125	-173
197.194	521
197.262	-188
197.331	18
197.400	-96
197.468	-150
197.537	354
197.606	-102
197.674	165
197.743	-161
197.812	-775
197.880	506
197.949	122
198.017	249
198.086	588
198.155	285
198.223	448
198.292	-111
198.360	-176
198.429	381
198.497	494
198.566	879
198.635	677
198.703	442
198.772	268
198.840	-236
198.909	-40
198.977	-619
199.046	-93
199.114	245
199.183	374
199.251	422
199.320	-116
199.388	-398
199.457	-118
199.525	307
199.594	201
199.662	-396
199.731	376
199.799	-78
199.867	110
199.936	-138
200.004	250
200.073	240
200.141	51
200.210	443
200.278	66
200.346	526
200.415	419
200.483	58
200.552	-408
200.620	298
200.688	20
200.757	52
200.825	486
200.893	-273
200.962	83
201.030	-376
201.098	-350
201.167	-401
201.235	96
201.303	-310
201.372	733
201.440	411
201.508	-519
201.577	-153
201.645	-378
201.713	456
201.781	23
201.850	16
201.918	-67
201.986	-637
202.055	341
202.123	-180
202.191	199
202.259	-97
202.327	177
202.396	216
202.464	270
202.532	-107
202.600	364
202.669	-101
202.737	-67
202.805	-575
202.873	241
202.941	450
203.009	-150
203.078	-225
203.146	-218
203.214	232
203.282	-133
203.350	-41
203.418	-166
203.487	907
203.555	-20
203.623	708
203.691	-125
203.759	289
203.827	-726
203.895	112
203.963	734
204.031	-37
204.099	-247
204.168	-656
204.236	169
204.304	-140
204.372	-11
204.440	418
204.508	-590
204.576	-415
204.644	549
204.712	-173
204.780	399
204.848	118
204.916	-325
204.984	-155
205.052	-390
205.120	-673
205.188	605
205.256	546
205.324	1
205.392	600
205.460	1396
205.528	-162
205.596	166
205.664	29
205.732	-877
205.799	1346
205.867	1050
205.935	-20
206.003	477
206.071	-537
206.139	92
206.207	-26
206.275	275
206.343	-630
206.411	967
206.478	-353
206.546	-345
206.614	-171
206.682	-247
206.750	201
206.818	273
206.885	-80
206.953	-661
207.021	1182
207.089	249
207.157	-292
207.225	310
207.292	591
207.360	-16
207.428	-54
207.496	-190
207.563	138
207.631	409
207.699	366
207.767	-625
207.834	-209
207.902	-652
207.970	233
208.038	444
208.105	163
208.173	-155
208.241	41
208.309	1121
208.376	944
208.444	903
208.512	114
208.579	-686
208.647	730
208.715	663
208.782	-563
208.850	669
208.918	-133
208.985	20
209.053	883
209.120	280
209.188	-505
209.256	420
209.323	-47
209.391	-491
209.459	777
209.526	266
209.594	306
209.661	1121
209.729	544
209.796	299
209.864	1076
209.932	-211
209.999	972
210.067	189
210.134	-46
210.202	36
210.269	776
210.337	512
210.404	369
210.472	68
210.539	549
210.607	466
210.674	216
210.742	-8
210.809	-126
210.877	-263
210.944	118
211.012	-1574
211.079	1534
211.146	405
211.214	-35
211.281	-20
211.349	208
211.416	922
211.484	352
211.551	-230
211.618	274
211.686	-57
211.753	-568
211.821	285
211.888	-220
211.955	523
212.023	594
212.090	-226
212.157	83
212.225	862
212.292	1629
212.359	1138
212.427	3637
212.494	1821
212.561	942
212.629	600
212.696	656
212.763	547
212.831	-44
212.898	278
212.965	457
213.032	629
213.100	237
213.167	492
213.234	743
213.301	1302
213.369	580
213.436	774
213.503	166
213.570	1249
213.638	-267
213.705	361
213.772	4
213.839	614
213.906	926
213.973	157
214.041	43
214.108	400
214.175	314
214.242	290
214.309	537
214.376	315
214.444	-85
214.511	262
214.578	92
214.645	-80
214.712	379
214.779	538
214.846	-307
214.913	156
214.980	439
215.048	888
215.115	572
215.182	-158
215.249	702
215.316	-300
215.383	972
215.450	182
215.517	714
215.584	-143
215.651	40
215.718	166
215.785	498
215.852	228
215.919	820
215.986	450
216.053	-52
216.120	-866
216.187	88
216.254	453
216.321	240
216.388	-296
216.455	214
216.522	712
216.589	561
216.656	1048
216.722	491
216.789	757
216.856	969
216.923	875
216.990	355
217.057	232
217.124	1015
217.191	229
217.258	696
217.324	1111
217.391	1299
217.458	1869
217.525	743
217.592	219
217.659	209
217.725	734
217.792	51
217.859	873
217.926	-40
217.993	303
218.059	964
218.126	-41
218.193	-200
218.260	1
218.327	142
218.393	665
218.460	-55
218.527	-134
218.594	135
218.660	253
218.727	591
218.794	-573
218.860	521
218.927	686
218.994	-279
219.061	-345
219.127	153
219.194	622
219.261	757
219.327	-155
219.394	303
219.461	-103
219.527	314
219.594	394
219.661	-148
219.727	-16
219.794	756
219.860	-942
219.927	479
219.994	1107
220.060	717
220.127	451
220.193	506
220.260	-543
220.326	1347
220.393	1760
220.460	2765
220.526	817
220.593	776
220.659	1962
220.726	611
220.792	1615
220.859	1922
220.925	2233
220.992	3988
221.058	3204
221.125	2524
221.191	1389
221.258	-131
221.324	5
221.391	248
221.457	-400
221.524	224
221.590	1305
221.657	2736
221.723	493
221.789	1247
221.856	2155
221.922	495
221.989	525
222.055	773
222.121	-218
222.188	1735
222.254	570
222.321	325
222.387	777
222.453	688
222.520	-205
222.586	148
222.652	1582
222.719	490
222.785	-294
222.851	-884
222.918	524
222.984	362
223.050	374
223.116	-997
223.183	1300
223.249	823
223.315	-128
223.382	353
223.448	271
223.514	-111
223.580	268
223.647	-161
223.713	-138
223.779	484
223.845	335
223.911	609
223.978	-607
224.044	704
224.110	93
224.176	944
224.242	-65
224.309	21
224.375	69
224.441	465
224.507	-373
224.573	-968
224.639	1025
224.705	-798
224.772	354
224.838	-184
224.904	1041
224.970	-536
225.036	106
225.102	-89
225.168	1258
225.234	785
225.300	155
225.366	-336
225.432	326
225.499	-100
225.565	203
225.631	74
225.697	-154
225.763	679
225.829	880
225.895	303
225.961	107
226.027	852
226.093	1125
226.159	1432
226.225	1437
226.291	3362
226.357	4264
226.423	2791
226.489	1579
226.554	1055
226.620	753
226.686	1186
226.752	1963
226.818	2045
226.884	5514
226.950	5604
227.016	2526
227.082	1747
227.148	221
227.214	439
227.279	243
227.345	-158
227.411	357
227.477	553
227.543	555
227.609	24
227.674	580
227.740	362
227.806	757
227.872	-305
227.938	442
228.003	1144
228.069	499
228.135	408
228.201	581
228.267	469
228.332	115
228.398	40
228.464	690
228.530	-206
228.595	144
228.661	240
228.727	-889
228.792	936
228.858	-143
228.924	-1429
228.990	2286
229.055	-848
229.121	90
229.187	778
229.252	-78
229.318	-288
229.384	787
229.449	-258
229.515	-789
229.581	-1687
229.646	2034
229.712	305
229.777	630
229.843	-606
229.909	558
229.974	1090
230.040	-155
230.105	67
230.171	1056
230.236	1205
230.302	1052
230.368	409
230.433	247
230.499	1396
230.564	1068
230.630	-529
230.695	275
230.761	1877
230.826	-1012
230.892	1885
230.957	-376
231.023	559
231.088	153
231.154	483
231.219	316
231.284	-705
231.350	588
231.415	-573
231.481	876
231.546	622
231.612	-27
231.677	387
231.742	-694
231.808	1748
231.873	5
231.939	-1143
232.004	1364
232.069	861
232.135	596
232.200	-202
232.265	1102
232.331	153
232.396	260
232.461	-68
232.527	23
232.592	418
232.657	642
232.723	715
232.788	182
232.853	1446
232.918	920
232.984	463
233.049	-945
233.114	48
233.179	243
233.245	1490
233.310	1319
233.375	-362
233.440	181
233.506	-215
233.571	460
233.636	179
233.701	-68
233.766	960
233.832	585
233.897	305
233.962	-479
234.027	1291
234.092	125
234.157	587
234.222	-663
234.288	-3
234.353	2446
234.418	2168
234.483	1274
234.548	657
234.613	1361
234.678	742
234.743	802
234.808	3520
234.873	856
234.938	1373
235.004	949
235.069	683
235.134	-816
235.199	1363
235.264	467
235.329	-580
235.394	994
235.459	1067
235.524	-191
235.589	1051
235.654	803
235.719	-579
235.784	1058
235.849	336
235.913	914
235.978	1888
236.043	1320
236.108	-5
236.173	-138
236.238	1726
236.303	159
236.368	368
236.433	1462
236.498	1020
236.563	1652
236.627	1895
236.692	8693
236.757	6497
236.822	2010
236.887	1929
236.952	1972
237.017	102
237.081	2377
237.146	971
237.211	4226
237.276	8666
237.341	12516
237.405	5099
237.470	2389
237.535	1312
237.600	1751
237.664	1679
237.729	161
237.794	217
237.859	2471
237.923	1804
237.988	829
238.053	1476
238.118	888
238.182	4748
238.247	5514
238.312	483
238.376	526
238.441	-533
238.506	1365
238.570	-430
238.635	1097
238.700	450
238.764	-352
238.829	2134
238.893	1272
238.958	1311
239.023	789
239.087	193
239.152	576
239.216	-643
239.281	853
239.346	288
239.410	413
239.475	534
239.539	4991
239.604	2318
239.668	955
239.733	476
239.797	453
239.862	324
239.926	2499
239.991	989
240.055	1387
240.120	76
240.184	253
240.249	-1080
240.313	-99
240.378	694
240.442	2024
240.507	4166
240.571	414
240.635	1653
240.700	1635
240.764	191
240.829	215
240.893	-536
240.957	876
241.022	2454
241.086	3660
241.151	454
241.215	-250
241.279	1310
241.344	1910
241.408	1897
241.472	328
241.537	1694
241.601	953
241.665	-916
241.730	388
241.794	734
241.858	1053
241.922	416
241.987	1405
242.051	296
242.115	-20
242.179	1022
242.244	95
242.308	1882
242.372	900
242.436	1020
242.501	1163
242.565	-271
242.629	-29
242.693	979
242.757	-517
242.822	228
242.886	587
242.950	421
243.014	-439
243.078	1311
243.142	745
243.206	-294
243.271	978
243.335	1147
243.399	1258
243.463	4626
243.527	12127
243.591	2860
243.655	1026
243.719	-35
243.783	1473
243.847	1730
243.911	2060
243.975	1974
244.040	864
244.104	2215
244.168	1143
244.232	454
244.296	1283
244.360	1483
244.424	334
244.488	1687
244.552	1339
244.615	-1024
244.679	558
244.743	-189
244.807	-375
244.871	787
244.935	399
244.999	-709
245.063	-399
245.127	1233
245.191	958
245.255	933
245.319	1454
245.383	-754
245.446	1221
245.510	-354
245.574	280
245.638	1291
245.702	-491
245.766	1963
245.829	1923
245.893	501
245.957	-637
246.021	1305
246.085	930
246.149	963
246.212	3078
246.276	3332
246.340	811
246.404	1431
246.467	1079
246.531	7
246.595	1556
246.659	1227
246.722	-62
246.786	1311
246.850	637
246.913	455
246.977	-89
247.041	385
247.104	686
247.168	1380
247.232	1923
247.295	3911
247.359	1279
247.423	115
247.486	1388
247.550	999
247.614	668
247.677	1625
247.741	1167
247.804	198
247.868	786
247.932	889
247.995	4748
248.059	1355
248.122	22
248.186	2468
248.249	3325
248.313	7588
248.376	7747
248.440	3713
248.503	350
248.567	1878
248.630	1305
248.694	3034
248.757	4628
248.821	8283
248.884	5248
248.948	3857
249.011	6444
249.075	9262
249.138	7671
249.202	3351
249.265	1732
249.328	4015
249.392	1043
249.455	2416
249.519	1188
249.582	2211
249.645	2691
249.709	1631
249.772	1302
249.835	1819
249.899	873
249.962	1598
250.025	1201
250.089	3155
250.152	5195
250.215	2661
250.279	909
250.342	1778
250.405	1986
250.468	1113
250.532	1659
250.595	4134
250.658	12171
250.721	20591
250.785	5617
250.848	5187
250.911	1156
250.974	2279
251.038	2066
251.101	5106
251.164	2766
251.227	3605
251.290	2469
251.354	4229
251.417	18999
251.480	16755
251.543	11346
251.606	36181
251.669	23371
251.732	8308
251.795	7748
251.859	8019
251.922	20348
251.985	11109
252.048	4737
252.111	2657
252.174	1470
252.237	4321
252.300	10496
252.363	11591
252.426	27212
252.489	8205
252.552	5258
252.615	2660
252.678	4732
252.741	7770
252.804	10695
252.867	26705
252.930	13354
252.993	5903
253.056	4545
253.119	2491
253.182	1720
253.245	3841
253.308	3229
253.371	2016
253.434	2049
253.497	3016
253.559	5518
253.622	2283
253.685	3098
253.748	3776
253.811	1150
253.874	3180
253.937	1122
254.000	2039
254.062	2698
254.125	3361
254.188	3742
254.251	3190
254.314	453
254.376	1471
254.439	3223
254.502	2538
254.565	1564
254.628	4575
254.690	1815
254.753	735
254.816	-129
254.878	1602
254.941	3103
255.004	2227
255.067	1879
255.129	481
255.192	726
255.255	-277
255.317	427
255.380	534
255.443	645
255.505	-56
255.568	-226
255.631	139
255.693	139
255.756	-874
255.819	380
255.881	-668
255.944	502
256.006	-11
256.069	-510
256.132	-142
256.194	529
256.257	2818
256.319	1289
256.382	481
256.444	1212
256.507	1063
256.569	546
256.632	871
256.694	509
256.757	5321
256.819	13537
256.882	4586
256.944	2079
257.007	1951
257.069	1632
257.132	409
257.194	1024
257.257	1082
257.319	959
257.381	684
257.444	4261
257.506	16193
257.569	17417
257.631	8289
257.693	3530
257.756	2033
257.818	471
257.880	1091
257.943	1382
258.005	840
258.067	567
258.130	482
258.192	-173
258.254	1890
258.317	1235
258.379	1075
258.441	2735
258.503	2779
258.566	3504
258.628	4979
258.690	879
258.753	1831
258.815	1698
258.877	605
258.939	760
259.001	1149
259.064	698
259.126	1237
259.188	1667
259.250	1306
259.312	1464
259.375	4456
259.437	2153
259.499	843
259.561	728
259.623	884
259.685	812
259.747	745
259.809	4078
259.872	7299
259.934	12316
259.996	10157
260.058	2211
260.120	558
260.182	480
260.244	853
260.306	546
260.368	454
260.430	130
260.492	740
260.554	5317
260.616	2183
260.678	4416
260.740	6156
260.802	926
260.864	2054
260.926	-515
260.988	1384
261.050	1100
261.112	1886
261.174	7947
261.236	5386
261.298	1322
261.359	3056
261.421	3975
261.483	-293
261.545	1046
261.607	-639
261.669	73
261.731	885
261.793	4618
261.854	947
261.916	1616
261.978	1076
262.040	893
262.102	998
262.164	718
262.225	283
262.287	1184
262.349	2473
262.411	1257
262.472	1532
262.534	1108
262.596	3161
262.658	1063
262.719	-118
262.781	872
262.843	2604
262.904	1187
262.966	1513
263.028	1575
263.090	8332
263.151	19188
263.213	4941
263.275	2050
263.336	263
263.398	693
263.459	-375
263.521	317
263.583	1227
263.644	487
263.706	168
263.767	-485
263.829	465
263.891	-86
263.952	-619
264.014	-932
264.075	25
264.137	1762
264.198	964
264.260	-686
264.321	-446
264.383	842
264.444	5122
264.506	1112
264.567	289
264.629	2103
264.690	1290
264.752	551
264.813	310
264.875	399
264.936	577
264.998	309
265.059	-206
265.120	581
265.182	415
265.243	7577
265.305	6273
265.366	1394
265.427	286
265.489	794
265.550	-763
265.611	-234
265.673	51
265.734	321
265.795	387
265.857	-825
265.918	-150
265.979	2386
266.040	11525
266.102	9537
266.163	3142
266.224	1458
266.286	661
266.347	-478
266.408	216
266.469	367
266.530	-819
266.592	120
266.653	1471
266.714	1968
266.775	44
266.836	-22
266.898	-802
266.959	-149
267.020	472
267.081	1057
267.142	578
267.203	113
267.264	-862
267.326	756
267.387	-477
267.448	-818
267.509	165
267.570	-192
267.631	121
267.692	-687
267.753	-167
267.814	-177
267.875	1120
267.936	1725
267.997	585
268.058	526
268.119	-335
268.180	66
268.241	-725
268.302	-690
268.363	251
268.424	-12
268.485	-508
268.546	-426
268.607	-338
268.668	-515
268.729	-171
268.790	-523
268.851	814
268.912	1574
268.972	1776
269.033	-279
269.094	-976
269.155	-755
269.216	-530
269.277	-541
269.338	-911
269.398	-601
269.459	-485
269.520	232
269.581	1476
269.642	1252
269.702	410
269.763	-264
269.824	-335
269.885	-138
269.945	1633
270.006	-26
270.067	-166
270.128	330
270.188	-540
270.249	-490
270.310	-602
270.370	256
270.431	-737
270.492	-492
270.553	-462
270.613	642
270.674	2813
270.734	-14
270.795	-237
270.856	-416
270.916	-272
270.977	156
271.038	-303
271.098	-47
271.159	754
271.219	633
271.280	356
271.340	50
271.401	-1203
271.462	590
271.522	321
271.583	-339
271.643	419
271.704	75
271.764	418
271.825	1313
271.885	7657
271.946	8924
272.006	3004
272.066	4717
272.127	7570
272.187	1778
272.248	679
272.308	364
272.369	4860
272.429	1752
272.489	1153
272.550	1327
272.610	1778
272.671	1025
272.731	1429
272.791	2199
272.852	392
272.912	939
272.972	646
273.033	-81
273.093	74
273.153	-57
273.214	379
273.274	127
273.334	3068
273.394	6515
273.455	2119
273.515	2119
273.575	5843
273.635	1901
273.696	3057
273.756	6428
273.816	1934
273.876	1036
273.936	3599
273.997	5861
274.057	779
274.117	778
274.177	1428
274.237	8213
274.297	6288
274.358	4710
274.418	4820
274.478	3626
274.538	1451
274.598	-8
274.658	5184
274.718	6665
274.778	1475
274.838	1492
274.898	2113
274.958	8717
275.018	6801
275.078	3478
275.138	1286
275.198	-420
275.258	-52
275.318	622
275.378	1838
275.438	1232
275.498	1130
275.558	3751
275.618	8471
275.678	4567
275.738	2524
275.798	2143
275.858	370
275.918	-995
275.978	263
276.038	17
276.098	-510
276.157	951
276.217	5019
276.277	1373
276.337	614
276.397	-132
276.457	8
276.517	-56
276.576	-35
276.636	-3
276.696	101
276.756	2295
276.815	1389
276.875	58
276.935	632
276.995	-162
277.055	332
277.114	-35
277.174	814
277.234	3604
277.293	999
277.353	16
277.413	676
277.472	-127
277.532	-129
277.592	696
277.651	1522
277.711	3682
277.771	586
277.830	5917
277.890	4494
277.950	2200
278.009	9158
278.069	2747
278.128	2433
278.188	2926
278.248	1262
278.307	3364
278.367	2195
278.426	346
278.486	-261
278.545	-929
278.605	-173
278.664	-865
278.724	-173
278.783	2373
278.843	6022
278.902	311
278.962	1000
279.021	-322
279.081	1113
279.140	1064
279.199	-295
279.259	145
279.318	1142
279.378	1372
279.437	3032
279.496	12577
279.556	45808
279.615	31816
279.675	6608
279.734	3217
279.793	5944
279.853	9663
279.912	2554
279.971	1555
280.031	955
280.090	3829
280.149	7480
280.208	4789
280.268	29566
280.327	26477
280.386	4239
280.445	3345
280.505	2414
280.564	531
280.623	535
280.682	2310
280.742	2454
280.801	466
280.860	-231
280.919	5
280.978	610
281.037	-722
281.097	-1029
281.156	54
281.215	-742
281.274	-684
281.333	4711
281.392	1918
281.451	-148
281.510	-237
281.569	-646
281.628	-1076
281.688	341
281.747	-54
281.806	-622
281.865	-353
281.924	-281
281.983	-621
282.042	-304
282.101	-470
282.160	380
282.219	-828
282.278	-261
282.337	2112
282.396	577
282.454	-755
282.513	97
282.572	3638
282.631	1426
282.690	-63
282.749	-377
282.808	-67
282.867	-235
282.926	-279
282.985	-587
283.043	-1071
283.102	-793
283.161	-167
283.220	1322
283.279	3898
283.338	1136
283.396	112
283.455	-572
283.514	-113
283.573	1448
283.631	717
283.690	342
283.749	-383
283.808	570
283.866	1382
283.925	-824
283.984	-333
284.043	156
284.101	166
284.160	-711
284.219	525
284.277	-339
284.336	359
284.395	4915
284.453	3691
284.512	-58
284.570	1010
284.629	1064
284.688	129
284.746	-593
284.805	-310
284.863	1035
284.922	1436
284.981	1684
285.039	2564
285.098	5332
285.156	15735
285.215	40408
285.273	36628
285.332	17131
285.390	7981
285.449	4353
285.507	2374
285.566	994
285.624	1357
285.683	703
285.741	247
285.799	-90
285.858	518
285.916	-80
285.975	-584
286.033	-528
286.091	381
286.150	-341
286.208	-162
286.267	-715
286.325	-276
286.383	1133
286.442	410
286.500	-519
286.558	-15
286.616	-1101
286.675	238
286.733	-184
286.791	-1118
286.850	368
286.908	197
286.966	1992
287.024	-18
287.083	-770
287.141	-1304
287.199	-252
287.257	349
287.315	-425
287.374	-876
287.432	2020
287.490	1331
287.548	-323
287.606	-44
287.664	54
287.723	960
287.781	584
287.839	-149
287.897	542
287.955	512
288.013	1524
288.071	4570
288.129	24109
288.187	66884
288.245	27053
288.303	7073
288.361	3600
288.419	973
288.477	115
288.535	620
288.593	304
288.651	-157
288.709	214
288.767	-581
288.825	-1128
288.883	-975
288.941	-416
288.999	-1254
289.057	-487
289.115	-774
289.173	-883
289.231	-985
289.289	-1770
289.346	-1223
289.404	-302
289.462	753
289.520	250
289.578	-851
289.636	-713
289.694	-459
289.751	-1599
289.809	-1335
289.867	-310
289.925	-223
289.983	-1185
290.040	-430
290.098	-1156
290.156	-620
290.214	-508
290.271	-1323
290.329	-1827
290.387	-1037
290.444	-1118
290.502	-1043
290.560	-1123
290.617	-893
290.675	-1056
290.733	-970
290.790	-240
290.848	34
290.906	-1067
290.963	-1126
291.021	-117
291.078	-769
291.136	-574
291.194	955
291.251	3717
291.309	15
291.366	-856
291.424	-666
291.481	-819
291.539	-1164
291.596	-1378
291.654	-2048
291.711	-490
291.769	-559
291.826	471
291.884	-816
291.941	-918
291.999	-248
292.056	-1218
292.114	-1039
292.171	-246
292.228	-929
292.286	-252
292.343	-577
292.401	749
292.458	-221
292.515	-1513
292.573	142
292.630	-990
292.687	-400
292.745	-595
292.802	-153
292.859	1311
292.917	4502
292.974	1567
293.031	120
293.089	-710
293.146	-541
293.203	-428
293.260	-776
293.318	-739
293.375	-118
293.432	-717
293.489	-926
293.546	-584
293.604	370
293.661	1749
293.718	6758
293.775	2261
293.832	606
293.889	-86
293.947	616
294.004	234
294.061	376
294.118	922
294.175	4008
294.232	4713
294.289	936
294.346	231
294.403	-149
294.460	-453
294.517	-919
294.574	-489
294.631	-401
294.688	344
294.745	574
294.802	7983
294.859	8336
294.916	2840
294.973	769
295.030	1062
295.087	-138
295.144	493
295.201	126
295.258	-1017
295.315	-517
295.372	2303
295.429	5525
295.486	1970
295.542	473
295.599	2484
295.656	6039
295.713	3846
295.770	5161
295.827	1553
295.883	461
295.940	-268
295.997	390
296.054	1267
296.111	-735
296.167	151
296.224	-1503
296.281	-619
296.338	291
296.394	-671
296.451	-1329
296.508	962
296.564	4653
296.621	2758
296.678	6823
296.734	8996
296.791	2703
296.848	1140
296.904	914
296.961	3314
297.018	5952
297.074	4217
297.131	1366
297.187	1004
297.244	1580
297.301	6581
297.357	11582
297.414	3152
297.470	739
297.527	271
297.583	711
297.640	-703
297.696	-203
297.753	-480
297.809	1
297.866	-480
297.922	-486
297.979	-438
298.035	-830
298.092	456
298.148	2347
298.204	2700
298.261	459
298.317	2176
298.374	8383
298.430	4067
298.486	1082
298.543	1142
298.599	-129
298.656	383
298.712	2607
298.768	6936
298.824	3916
298.881	519
298.937	-339
298.993	-844
299.050	185
299.106	-184
299.162	-447
299.218	-434
299.275	-619
299.331	-261
299.387	22
299.443	7159
299.500	6150
299.556	1092
299.612	214
299.668	-187
299.724	-275
299.780	-586
299.837	-453
299.893	718
299.949	5326
300.005	6062
300.061	4590
300.117	9151
300.173	4330
300.229	897
300.285	1091
300.341	1904
300.397	456
300.453	38
300.510	-1272
300.566	-1003
300.622	-127
300.678	145
300.734	3408
300.790	5123
300.845	5960
300.901	3064
300.957	5248
301.013	3525
301.069	165
301.125	930
301.181	213
301.237	16
301.293	-281
301.349	-734
301.405	-819
301.461	-462
301.516	21
301.572	-437
301.628	710
301.684	740
301.740	1731
301.796	2776
301.851	2500
301.907	4326
301.963	4016
302.019	6447
302.074	21756
302.130	21353
302.186	8566
302.242	3288
302.297	1184
302.353	1303
302.409	3915
302.464	2488
302.520	1850
302.576	6812
302.631	7960
302.687	3850
302.743	660
302.798	-15
302.854	-25
302.910	-664
302.965	221
303.021	2313
303.076	1251
303.132	1058
303.187	2871
303.243	832
303.299	-347
303.354	-334
303.410	-76
303.465	225
303.521	-736
303.576	-728
303.632	28
303.687	1327
303.743	6424
303.798	5636
303.853	1285
303.909	391
303.964	-103
304.020	1082
304.075	1966
304.130	1109
304.186	3693
304.241	5351
304.297	4026
304.352	1114
304.358	975
304.407	-157
304.449	329
304.463	494
304.518	31
304.539	-89
304.573	-303
304.629	54
304.630	75
304.684	1172
304.720	3517
304.739	4636
304.794	7381
304.811	5987
304.850	2638
304.902	826
304.905	718
304.960	5
304.992	180
305.015	286
305.071	135
305.083	213
305.126	533
305.173	-279
305.181	-418
305.236	-742
305.264	-609
305.292	-461
305.347	-281
305.354	-189
305.402	394
305.445	531
305.457	558
305.512	862
305.535	786
305.567	719
305.622	322
305.626	422
305.678	2863
305.716	6508
305.733	7619
305.788	8020
305.807	6743
305.843	4939
305.897	6793
305.898	6804
305.953	6548
305.988	3973
306.008	2700
306.063	570
306.078	409
306.118	107
306.168	-135
306.173	-153
306.228	511
306.259	312
306.283	178
306.338	-302
306.349	-178
306.393	275
306.440	690
306.448	798
306.503	-88
306.530	643
306.558	1663
306.613	2805
306.620	3093
306.668	5155
306.711	7065
306.723	7085
306.778	5422
306.801	3803
306.833	2294
306.888	1091
306.892	1029
306.943	409
306.982	209
306.997	167
307.052	-493
307.072	-215
307.107	605
307.162	1008
307.163	1017
307.217	1923
307.253	2107
307.272	2103
307.327	2136
307.343	1935
307.381	1637
307.434	1201
307.436	1267
307.491	3986
307.524	6620
307.546	7247
307.600	6700
307.614	5861
307.655	3320
307.704	1757
307.710	1765
307.765	2627
307.795	3030
307.819	3248
307.874	5186
307.885	5123
307.929	4430
307.975	4086
307.984	4294
308.038	6271
308.065	7643
308.093	14319
308.148	31116
308.156	34684
308.202	48467
308.246	55087
308.257	53144
308.312	28600
308.336	19279
308.366	14140
308.421	8367
308.426	7863
308.475	5265
308.517	3633
308.530	3355
308.585	2842
308.607	2589
308.639	2557
308.694	3084
308.697	3124
308.748	4955
308.787	7012
308.803	7046
308.857	4902
308.877	4308
308.912	4315
308.967	4296
308.967	4298
309.021	6638
309.058	8340
309.076	11150
309.130	21077
309.148	24845
309.185	43466
309.238	75374
309.239	75526
309.293	75474
309.328	65604
309.348	55852
309.402	26210
309.418	18870
309.457	13196
309.508	8164
309.511	8020
309.566	6241
309.598	5639
309.620	6301
309.674	8247
309.688	8786
309.729	8047
309.778	6213
309.783	6120
309.837	5164
309.868	4847
309.892	6683
309.946	11341
309.959	12669
310.001	15808
310.049	18326
310.055	17635
310.109	9622
310.139	5343
310.163	4038
310.218	1826
310.229	1388
310.272	1448
310.319	1885
310.326	1861
310.381	1516
310.409	1305
310.435	1244
310.489	1037
310.499	1004
310.543	1351
310.589	1886
310.598	1898
310.652	1801
310.679	1719
310.706	1537
310.760	1093
310.769	1020
310.814	805
310.859	606
310.868	701
310.923	1204
310.948	1438
310.977	1384
311.031	1208
311.038	1192
311.085	1294
311.128	1320
311.139	1399
311.193	1744
311.218	1872
311.247	1756
311.301	1585
311.308	1549
311.356	1045
311.398	572
311.410	638
311.464	976
311.488	1088
311.518	1233
311.572	1499
311.578	1526
311.626	1980
311.668	2342
311.680	2366
311.734	2388
311.758	2390
311.788	2220
311.842	1908
311.847	1867
311.896	3052
311.937	4066
311.950	3912
312.004	3165
312.027	2825
312.058	2285
312.112	1301
312.117	1200
312.165	1643
312.207	2014
312.297	2482
312.386	1956
312.476	2319
312.566	4409
312.656	1798
312.745	2239
312.835	1763
312.925	1959
313.015	2115
313.104	1580
313.194	2207
313.284	2520
313.374	2365
313.463	2056
313.553	1827
313.643	1626
313.732	2201
313.822	1219
313.912	890
314.001	1556
314.091	1878
314.180	2279
314.270	2502
314.360	2679
314.449	2349
314.539	1540
314.628	1510
314.718	1343
314.808	3148
314.897	1204
314.987	2640
315.076	1890
315.166	2188
315.255	2972
315.345	1965
315.434	1768
315.524	2189
315.613	1850
315.703	3089
315.792	2795
315.881	2364
315.971	1600
316.060	4669
316.150	4720
316.239	4300
316.328	1870
316.418	1354
316.507	1651
316.597	2667
316.686	1823
316.775	3064
316.865	4169
316.954	1867
317.043	2253
317.133	1646
317.222	1065
317.311	1115
317.400	231
317.490	2841
317.579	1872
317.668	1919
317.757	1469
317.847	2514
317.936	3720
318.025	5002
318.114	2669
318.203	2466
318.293	3940
318.382	5802
318.471	5638
318.560	7735
318.649	14828
318.738	2919
318.828	2931
318.917	2490
319.006	3428
319.095	6857
319.184	20425
319.273	10946
319.362	5584
319.451	2582
319.540	1984
319.629	5732
319.718	8159
319.807	2880
319.896	7292
319.985	23571
320.074	7384
320.163	2350
320.252	3073
320.341	3107
320.430	2969
320.519	4771
320.608	2005
320.697	2075
320.786	2453
320.875	2874
320.964	3132
321.053	5938
321.142	8174
321.230	6330
321.319	5578
321.408	13261
321.497	4223
321.586	6372
321.675	6248
321.764	4794
321.852	3709
321.941	8656
322.030	4301
322.119	5954
322.207	14405
322.296	6333
322.385	4068
322.474	5242
322.562	17509
322.651	6598
322.740	6857
322.829	8523
322.917	6856
323.006	4401
323.095	4659
323.183	3140
323.272	4405
323.361	8555
323.449	17488
323.538	5634
323.626	14538
323.715	6319
323.804	4206
323.892	12276
323.981	5836
324.069	2681
324.158	7772
324.246	4142
324.335	2837
324.424	5005
324.512	2333
324.601	4008
324.689	3318
324.778	5794
324.866	4663
324.954	1514
325.043	1763
325.131	3282
325.220	5759
325.308	4632
325.397	5331
325.485	3091
325.574	1820
325.662	1667
325.750	1573
325.839	1590
325.927	1630
326.015	1577
326.104	2593
326.192	2794
326.280	1047
326.369	1729
326.457	3120
326.545	4381
326.634	1796
326.722	1293
326.810	980
326.898	2162
326.987	2336
327.075	3933
327.163	3280
327.251	1583
327.340	1824
327.428	1264
327.516	917
327.604	1068
327.692	1057
327.781	1664
327.869	2648
327.957	1402
328.045	1498
328.133	1016
328.221	1129
328.309	1384
328.397	1349
328.485	2334
328.574	2956
328.662	8827
328.750	3380
328.838	658
328.926	1216
329.014	551
329.102	1603
329.190	5349
329.278	2524
329.366	548
329.454	1347
329.542	996
329.630	374
329.718	1981
329.806	2319
329.893	2097
329.981	757
330.069	2508
330.157	9808
330.245	28098
330.333	12100
330.421	1781
330.509	3429
330.597	11562
330.684	5721
330.772	2058
330.860	3108
330.948	4419
331.036	1754
331.123	923
331.211	758
331.299	877
331.387	3679
331.475	5042
331.562	2035
331.650	1294
331.738	1264
331.825	1205
331.913	699
332.001	1025
332.089	1602
332.176	2133
332.264	6415
332.352	3827
332.439	1556
332.527	1896
332.614	819
332.702	1559
332.790	969
332.877	3710
332.965	4397
333.052	1041
333.140	1682
333.228	3009
333.315	517
333.403	1654
333.490	3477
333.578	3071
333.665	3895
333.753	2220
333.840	544
333.928	2829
334.015	3410
334.103	8390
334.190	21565
334.278	3955
334.365	1412
334.452	1531
334.540	857
334.627	697
334.715	1960
334.802	5251
334.889	21649
334.977	14290
335.064	2121
335.151	1146
335.239	1439
335.326	1630
335.413	13683
335.501	14534
335.588	1482
335.675	935
335.762	1808
335.850	2604
335.937	1503
336.024	6350
336.111	21057
336.199	5821
336.286	905
336.373	1204
336.460	1215
336.547	1879
336.635	1128
336.722	1006
336.809	1185
336.896	2140
336.983	8193
337.070	18615
337.157	24784
337.245	15301
337.332	7066
337.419	761
337.506	1187
337.593	1474
337.680	6907
337.767	16182
337.854	4999
337.941	5064
338.028	5150
338.115	1080
338.202	2800
338.289	5251
338.376	13201
338.463	3390
338.550	10777
338.637	8789
338.724	3219
338.811	3926
338.898	1420
338.984	678
339.071	875
339.158	1484
339.245	5426
339.332	2925
339.419	3497
339.506	3374
339.593	349
339.679	1855
339.766	908
339.853	1817
339.940	4413
340.027	929
340.113	2041
340.200	2357
340.287	1102
340.374	2154
340.460	4061
340.547	634
340.634	3022
340.720	12367
340.807	4894
340.894	935
340.980	1156
341.067	768
341.154	1863
341.240	3088
341.327	5124
341.414	1722
341.500	1663
341.587	2090
341.674	1815
341.760	4112
341.847	3109
341.933	683
342.020	-163
342.106	830
342.193	1846
342.279	2971
342.366	1937
342.452	3656
342.539	1821
342.625	5036
342.712	11683
342.798	4793
342.885	858
342.971	384
343.058	795
343.144	272
343.230	1647
343.317	1587
343.403	996
343.490	826
343.576	202
343.662	829
343.749	512
343.835	1934
343.921	3212
344.008	23977
344.094	45012
344.180	8462
344.267	3854
344.353	15038
344.439	11479
344.525	4853
344.612	4894
344.698	3674
344.784	1875
344.870	1377
344.957	635
345.043	2186
345.129	1254
345.215	3748
345.301	1711
345.387	1115
345.474	300
345.560	1467
345.646	569
345.732	280
345.818	1604
345.904	997
345.990	1467
346.076	2452
346.162	1468
346.249	1948
346.335	1140
346.421	1479
346.507	6311
346.593	18663
346.679	2841
346.765	1261
346.851	776
346.937	531
347.023	2086
347.108	2171
347.194	590
347.280	1481
347.366	1629
347.452	6688
347.538	22009
347.624	17898
347.710	12698
347.796	2082
347.882	1330
347.967	1044
348.053	1702
348.139	1277
348.225	443
348.311	863
348.397	1120
348.482	1793
348.568	1355
348.654	274
348.740	634
348.825	-226
348.911	3196
348.997	11459
349.083	18142
349.168	2457
349.254	1255
349.340	1374
349.425	563
349.511	1413
349.597	1651
349.682	5013
349.768	15707
349.854	5578
349.939	737
350.025	635
350.110	1242
350.196	213
350.282	270
350.367	1652
350.453	1815
350.538	1772
350.624	1468
350.709	1787
350.795	277
350.880	635
350.966	1871
351.051	2055
351.137	933
351.222	1116
351.308	6111
351.393	13094
351.479	2998
351.564	118
351.649	1397
351.735	257
351.820	447
351.906	526
351.991	1323
352.076	9422
352.162	12126
352.247	2248
352.332	1599
352.418	2814
352.503	5159
352.588	21196
352.673	13140
352.759	2659
352.844	889
352.929	1640
353.014	1561
353.100	2619
353.185	4103
353.270	3453
353.355	3785
353.441	1525
353.526	2034
353.611	3341
353.696	4084
353.781	2329
353.866	471
353.952	2061
354.037	3529
354.122	8787
354.207	6284
354.292	2722
354.377	1070
354.462	875
354.547	1757
354.632	2052
354.717	3906
354.802	3204
354.887	1739
354.972	1470
355.057	600
355.142	580
355.227	1629
355.312	1892
355.397	6482
355.482	13346
355.567	5700
355.652	4821
355.737	5887
355.822	16695
355.907	11357
355.991	3124
356.076	968
356.161	1579
356.246	898
356.331	1163
356.416	3476
356.501	27304
356.585	21774
356.670	2389
356.755	3542
356.840	4562
356.924	21545
357.009	58029
357.094	19408
357.179	4532
357.263	2377
357.348	3413
357.433	3475
357.517	2763
357.602	2222
357.687	2773
357.771	3913
357.856	9597
357.941	5698
358.025	17178
358.110	57705
358.195	23769
358.279	3612
358.364	3432
358.448	13192
358.533	32553
358.617	22175
358.702	22086
358.787	6563
358.871	3381
358.956	3371
359.040	1183
359.125	1201
359.209	905
359.294	4394
359.378	6590
359.462	2686
359.547	1644
359.631	1243
359.716	339
359.800	1434
359.885	2537
359.969	561
360.053	1355
360.138	753
360.222	1867
360.306	3898
360.391	2699
360.475	6808
360.559	11988
360.644	10925
360.728	6240
360.812	16216
360.896	35028
360.981	13607
361.065	6620
361.149	2294
361.233	2039
361.318	1492
361.402	1792
361.486	2258
361.570	661
361.654	1403
361.739	6098
361.823	25645
361.907	34399
361.991	4377
362.075	3754
362.159	6216
362.243	4970
362.327	2092
362.411	3680
362.495	2045
362.580	1140
362.664	367
362.748	893
362.832	1094
362.916	174
363.000	5309
363.084	22948
363.168	36503
363.252	8278
363.336	3070
363.420	4867
363.503	18866
363.587	18386
363.671	2783
363.755	1352
363.839	5104
363.923	1167
364.007	4606
364.091	4209
364.175	5047
364.258	26496
364.342	9740
364.426	4894
364.510	2040
364.594	4722
364.677	8427
364.761	31701
364.845	20795
364.929	7806
365.013	5400
365.096	5657
365.180	4301
365.264	8934
365.347	28015
365.431	9906
365.515	1691
365.598	960
365.682	2567
365.766	2574
365.849	2979
365.933	1723
366.017	3059
366.100	1316
366.184	720
366.267	1433
366.351	1891
366.435	672
366.518	140
366.602	671
366.685	1138
366.769	1357
366.852	3234
366.936	4168
367.019	2102
367.103	1290
367.186	3461
367.270	1147
367.353	-66
367.436	1681
367.520	556
367.603	1887
367.687	2044
367.770	4256
367.853	2612
367.937	11869
368.020	17596
368.104	2984
368.187	4546
368.270	5424
368.353	4870
368.437	5654
368.520	9895
368.603	6619
368.687	12460
368.770	21208
368.853	4902
368.936	4692
369.020	3770
369.103	807
369.186	47
369.269	744
369.352	3708
369.436	3999
369.519	2468
369.602	-308
369.685	2628
369.768	755
369.851	1771
369.934	886
370.018	1420
370.101	2992
370.184	4101
370.267	1654
370.350	3872
370.433	6067
370.516	16497
370.599	17219
370.682	4320
370.765	13780
370.848	16973
370.931	25695
371.014	9140
371.097	654
371.180	2020
371.263	934
371.346	-107
371.429	1716
371.511	990
371.594	1443
371.677	3670
371.760	5206
371.843	4602
371.926	25949
372.009	48862
372.091	16710
372.174	11425
372.257	23126
372.340	8094
372.423	7143
372.505	7116
372.588	2575
372.671	9427
372.754	25201
372.836	10931
372.919	8459
373.002	16034
373.085	4582
373.167	4800
373.250	12164
373.332	25293
373.415	36756
373.498	61757
373.580	23520
373.663	30170
373.746	36363
373.828	8069
373.911	3868
373.993	3681
374.076	15790
374.159	12279
374.241	8446
374.324	22921
374.406	14745
374.489	21715
374.571	53685
374.654	20047
374.736	11668
374.819	33256
374.901	50287
374.983	43508
375.066	7934
375.148	3286
375.231	13132
375.313	23724
375.395	6897
375.478	1719
375.560	1622
375.643	2034
375.725	10778
375.807	39419
375.890	28889
375.972	7830
376.054	5859
376.136	6460
376.219	2990
376.301	14772
376.383	33432
376.465	12145
376.548	7327
376.630	11440
376.712	30902
376.794	12975
376.877	1154
376.959	522
377.041	2078
377.123	3257
377.205	4061
377.287	128
377.369	1166
377.452	516
377.534	1195
377.616	778
377.698	649
377.780	-301
377.862	1552
377.944	1928
378.026	-338
378.108	860
378.190	258
378.272	1294
378.354	1047
378.436	-209
378.518	1345
378.600	6561
378.682	6856
378.764	15987
378.846	11631
378.928	2880
379.010	4429
379.091	3021
379.173	1363
379.255	612
379.337	1329
379.419	8241
379.501	23731
379.583	7845
379.664	2704
379.746	4966
379.828	17871
379.910	22281
379.991	18896
380.073	2467
380.155	1641
380.237	920
380.318	509
380.400	805
380.482	3495
380.564	3943
380.645	3886
380.727	3807
380.809	2860
380.890	1367
380.972	647
381.053	1106
381.135	2420
381.217	5835
381.298	17883
381.380	7491
381.461	7675
381.543	31628
381.624	33160
381.706	5646
381.787	3042
381.869	3493
381.951	15222
382.032	48343
382.113	29946
382.195	4355
382.276	5367
382.358	11103
382.439	26879
382.521	31819
382.602	44005
382.684	20876
382.765	36434
382.846	30675
382.928	29427
383.009	14671
383.090	13449
383.172	45874
383.253	63356
383.334	27154
383.416	37781
383.497	19002
383.578	5316
383.659	10844
383.741	43896
383.822	99020
383.903	46659
383.984	26894
384.066	50578
384.147	28090
384.228	4618
384.309	3389
384.390	2540
384.471	1506
384.553	1911
384.634	2645
384.715	3341
384.796	1488
384.877	3084
384.958	16112
385.039	17493
385.120	6206
385.201	2913
385.282	3139
385.363	2492
385.444	1988
385.525	5328
385.606	20625
385.687	17705
385.768	3413
385.849	5704
385.930	27500
386.011	40370
386.092	10246
386.173	1868
386.254	1631
386.335	1884
386.416	1610
386.496	10461
386.577	16606
386.658	4737
386.739	1276
386.820	2171
386.901	981
386.981	2047
387.062	1359
387.143	3386
387.224	15532
387.304	13797
387.385	4120
387.466	913
387.547	2916
387.627	849
387.708	6920
387.789	30091
387.869	32231
387.950	8138
388.031	1140
388.111	-820
388.192	4577
388.273	5654
388.353	2843
388.434	1871
388.514	5956
388.595	26707
388.676	32021
388.756	16367
388.837	15039
388.917	8501
388.998	282
389.078	1252
389.159	1007
389.239	-5
389.320	3880
389.400	95
389.480	7624
389.561	16871
389.641	8711
389.722	3106
389.802	4440
389.883	8427
389.963	20006
390.043	12082
390.124	2438
390.204	6702
390.284	17441
390.365	10608
390.445	14325
390.525	32463
390.605	28283
390.686	8922
390.766	3420
390.846	1623
390.927	513
391.007	-67
391.087	1555
391.167	72
391.247	-74
391.328	2631
391.408	2517
391.488	2010
391.568	-744
391.648	1250
391.728	2619
391.808	3184
391.888	3028
391.969	10250
392.049	15088
392.129	6052
392.209	7728
392.289	19054
392.369	9276
392.449	6145
392.529	2906
392.609	3372
392.689	5584
392.769	18251
392.849	13851
392.929	10345
393.009	22530
393.089	13852
393.169	4870
393.248	11654
393.328	47400
393.408	40457
393.488	7366
393.568	2326
393.648	2151
393.728	937
393.807	415
393.887	2486
393.967	1775
394.047	3152
394.127	4503
394.206	9281
394.286	39945
394.366	138806
394.446	138138
394.525	33399
394.605	9010
394.685	6497
394.764	12082
394.844	15787
394.924	10048
395.003	3200
395.083	2565
395.163	2331
395.242	1389
395.322	2448
395.402	515
395.481	4249
395.561	7326
395.640	18249
395.720	13317
395.799	20811
395.879	17434
395.958	16046
396.038	60724
396.117	180201
396.197	181262
396.276	57088
396.356	16899
396.435	9381
396.515	5938
396.594	4637
396.673	6470
396.753	16840
396.832	39611
396.912	38593
396.991	13366
397.070	3113
397.150	499
397.229	1718
397.308	991
397.388	938
397.467	1515
397.546	859
397.625	-1350
397.705	3099
397.784	1798
397.863	527
397.942	3
398.022	1280
398.101	6319
398.180	17407
398.259	8009
398.338	2308
398.417	930
398.497	570
398.576	1495
398.655	-213
398.734	1025
398.813	1386
398.892	6555
398.971	18486
399.050	7587
399.129	-365
399.208	544
399.287	830
399.366	31
399.445	794
399.524	462
399.603	-241
399.682	2343
399.761	6938
399.840	20429
399.919	14014
399.998	1506
400.077	-147
400.156	-404
400.235	2373
400.313	848
400.392	1277
400.471	8820
400.550	14071
400.629	2319
400.708	1937
400.786	570
400.865	4066
400.944	2473
401.023	2969
401.102	-263
401.180	284
401.259	163
401.338	176
401.416	1746
401.495	642
401.574	1095
401.652	-257
401.731	2467
401.810	482
401.888	-253
401.967	-249
402.046	-220
402.124	1227
402.203	896
402.281	923
402.360	597
402.438	4863
402.517	1646
402.596	1407
402.674	1513
402.753	-325
402.831	496
402.910	2103
402.988	7355
403.066	22315
403.145	13153
403.223	9181
403.302	19600
403.380	15851
403.459	13860
403.537	4777
403.615	1177
403.694	-702
403.772	339
403.850	68
403.929	248
404.007	579
404.085	4299
404.164	2391
404.242	1328
404.320	8512
404.398	25329
404.477	25271
404.555	41556
404.633	35040
404.711	18093
404.789	10661
404.868	1815
404.946	116
405.024	580
405.102	290
405.180	-1096
405.258	-139
405.336	303
405.415	6
405.493	2377
405.571	2495
405.649	-245
405.727	-394
405.805	2424
405.883	1317
405.961	1206
406.039	725
406.117	-909
406.195	1593
406.273	10441
406.351	33487
406.429	19023
406.507	2373
406.585	442
406.663	1049
406.740	588
406.818	-285
406.896	59
406.974	1389
407.052	2284
407.130	20824
407.208	26565
407.285	4434
407.363	-360
407.441	443
407.519	-540
407.596	1006
407.674	2187
407.752	4387
407.830	4867
407.907	3249
407.985	-15
408.063	330
408.141	71
408.218	1690
408.296	840
408.373	882
408.451	324
408.529	71
408.606	-339
408.684	311
408.762	-464
408.839	457
408.917	-187
408.994	-760
409.072	-741
409.149	-168
409.227	103
409.304	26
409.382	-1131
409.459	-1173
409.537	202
409.614	120
409.692	-559
409.769	-493
409.846	-93
409.924	883
410.001	-865
410.079	-25
410.156	1037
410.233	-421
410.311	-892
410.388	89
410.465	-250
410.543	-310
410.620	511
410.697	642
410.775	21
410.852	-601
410.929	632
411.006	1193
411.083	-172
411.161	698
411.238	1199
411.315	1005
411.392	85
411.469	1041
411.547	842
411.624	-1334
411.701	-389
411.778	-46
411.855	1349
411.932	16
412.009	28
412.086	1040
412.163	114
412.240	-102
412.317	539
412.394	320
412.471	-46
412.548	56
412.625	-155
412.702	674
412.779	1256
412.856	230
412.933	-323
413.010	-37
413.087	1556
413.164	7766
413.241	10942
413.318	1491
413.395	1775
413.471	1894
413.548	992
413.625	263
413.702	-401
413.779	307
413.855	-311
413.932	-344
414.009	-1108
414.086	-478
414.162	279
414.239	1109
414.316	7994
414.393	17980
414.469	5151
414.546	73
414.623	-812
414.699	155
414.776	-453
414.853	-427
414.929	30
415.006	-221
415.082	388
415.159	-608
415.236	196
415.312	1054
415.389	2284
415.465	1323
415.542	547
415.618	-471
415.695	974
415.771	-907
415.848	-64
415.924	-105
416.000	-421
416.077	671
416.153	-1023
416.230	-677
416.306	-939
416.383	-718
416.459	65
416.535	-269
416.612	-524
416.688	10
416.764	-708
416.841	-514
416.917	-756
416.993	-582
417.069	411
417.146	1311
417.222	1142
417.298	-131
417.374	-630
417.451	160
417.527	260
417.603	317
417.679	-283
417.755	-167
417.831	-577
417.908	-870
417.984	403
418.060	-1013
418.136	1453
418.212	1664
418.288	629
418.364	293
418.440	-890
418.516	1064
418.592	1531
418.668	3084
418.744	4706
418.820	3919
418.896	-149
418.972	-1328
419.048	-564
419.124	2520
419.200	100
419.276	221
419.352	-1128
419.428	-295
419.504	-215
419.579	397
419.655	-253
419.731	436
419.807	3374
419.883	4931
419.959	2561
420.034	440
420.110	2735
420.186	10645
420.262	8315
420.337	936
420.413	529
420.489	-186
420.565	-132
420.640	-590
420.716	404
420.792	-433
420.867	699
420.943	-3
421.019	383
421.094	-569
421.170	-45
421.245	-1137
421.321	-75
421.397	-77
421.472	562
421.548	1440
421.623	1470
421.699	548
421.774	207
421.850	-406
421.925	1522
422.001	187
422.076	19
422.152	-461
422.227	931
422.302	281
422.378	589
422.453	603
422.529	3560
422.604	21587
422.679	48417
422.755	22230
422.830	2953
422.905	746
422.981	-1045
423.056	-234
423.131	-268
423.207	-273
423.282	562
423.357	2764
423.432	808
423.508	1912
423.583	3767
423.658	2492
423.733	14
423.808	597
423.883	533
423.959	-72
424.034	-205
424.109	-556
424.184	-1032
424.259	-484
424.334	-393
424.409	-680
424.484	-265
424.559	157
424.634	-590
424.709	-653
424.784	497
424.859	-500
424.934	1493
425.009	7478
425.084	12542
425.159	3102
425.234	488
425.309	-392
425.384	2003
425.459	2648
425.534	776
425.609	-224
425.683	-1161
425.758	-199
425.833	-661
425.908	319
425.983	3664
426.058	12738
426.132	4522
426.207	-112
426.282	1595
426.357	-456
426.431	-633
426.506	-88
426.581	-251
426.655	163
426.730	-315
426.805	-1097
426.879	1105
426.954	308
427.029	1700
427.103	13094
427.178	29301
427.253	11137
427.327	982
427.402	735
427.476	3818
427.551	910
427.625	44
427.700	465
427.774	-572
427.849	-14
427.923	-706
427.998	-524
428.072	-524
428.147	1293
428.221	2992
428.296	4044
428.370	598
428.444	70
428.519	1567
428.593	1991
428.667	2080
428.742	2905
428.816	2128
428.890	6237
428.965	5655
429.039	3034
429.113	2296
429.188	338
429.262	-322
429.336	891
429.410	6161
429.485	2986
429.559	2184
429.633	1608
429.707	-587
429.781	1769
429.855	7059
429.930	10746
430.004	9176
430.078	16390
430.152	10216
430.226	4271
430.300	3265
430.374	-634
430.448	334
430.522	6137
430.596	14249
430.670	8620
430.744	17784
430.818	25973
430.892	5667
430.966	143
431.040	0
431.114	-792
431.188	-896
431.262	-703
431.336	-800
431.410	2497
431.484	3230
431.557	2523
431.631	-490
431.705	-517
431.779	-587
431.853	2043
431.927	644
432.000	-510
432.074	282
432.148	-72
432.222	-564
432.295	-668
432.369	-238
432.443	732
432.516	12086
432.590	27885
432.664	9058
432.737	397
432.811	-308
432.885	-649
432.958	-787
433.032	-555
433.106	-1162
433.179	-525
433.253	-782
433.326	-677
433.400	533
433.473	-603
433.547	-808
433.620	-769
433.694	848
433.767	1364
433.841	-717
433.914	-548
433.988	-547
434.061	-1526
434.134	-781
434.208	-997
434.281	-1197
434.355	-723
434.428	-62
434.501	-821
434.575	-343
434.648	-771
434.721	-616
434.795	-436
434.868	-792
434.941	-1571
435.014	-1339
435.088	-585
435.161	-348
435.234	-62
435.307	482
435.381	-58
435.454	-937
435.527	-196
435.600	-1170
435.673	-643
435.746	-952
435.819	-1120
435.892	10
435.966	-426
436.039	-1102
436.112	-254
436.185	-565
436.258	-993
436.331	-852
436.404	-839
436.477	-1188
436.550	-871
436.623	-180
436.696	-1119
436.769	-844
436.842	-201
436.915	-870
436.987	-534
437.060	-184
437.133	-334
437.206	-599
437.279	190
437.352	-1317
437.425	-804
437.498	122
437.570	1610
437.643	1383
437.716	-482
437.789	-696
437.861	247
437.934	1493
438.007	330
438.080	-540
438.152	-175
438.225	1590
438.298	17027
438.370	39106
438.443	13755
438.516	994
438.588	-1106
438.661	-1216
438.734	-646
438.806	-640
438.879	-422
438.951	-178
439.024	-209
439.096	-1145
439.169	-493
439.241	-900
439.314	-742
439.386	-511
439.459	648
439.531	108
439.604	-1034
439.676	-524
439.749	200
439.821	-897
439.893	-79
439.966	-580
440.038	-151
440.110	-432
440.183	-860
440.255	-1120
440.327	124
440.400	6697
440.472	24858
440.544	13813
440.617	779
440.689	500
440.761	563
440.833	1138
440.905	995
440.978	-1269
441.050	-756
441.122	-307
441.194	-1257
441.266	-915
441.338	-1306
441.411	1488
441.483	8487
441.555	10495
441.627	982
441.699	46
441.771	-272
441.843	-252
441.915	-666
441.987	-836
442.059	-1012
442.131	240
442.203	-268
442.275	-209
442.347	-220
442.419	-728
442.491	-869
442.563	811
442.635	1180
442.706	3797
442.778	3336
442.850	-314
442.922	-653
442.994	-1168
443.066	446
443.137	-592
443.209	-464
443.281	-688
443.353	677
443.425	1373
443.496	2436
443.568	1739
443.640	82
443.711	-1191
443.783	-732
443.855	-1310
443.926	-642
443.998	-1257
444.070	-186
444.141	-240
444.213	432
444.285	719
444.356	581
444.428	-283
444.499	-1204
444.571	-1339
444.642	-1274
444.714	-336
444.785	648
444.857	591
444.928	1363
445.000	480
445.071	1604
445.143	943
445.214	1
445.285	582
445.357	3293
445.428	3591
445.500	6793
445.571	4372
445.642	1556
445.714	1937
445.785	4177
445.856	-438
445.928	419
445.999	90
446.070	-657
446.141	763
446.213	1017
446.284	-465
446.355	-223
446.426	-390
446.497	-1113
446.569	321
446.640	631
446.711	223
446.782	-285
446.853	-47
446.924	708
446.995	-835
447.066	-913
447.138	-128
447.209	-439
447.280	-319
447.351	-1093
447.422	-1331
447.493	-1664
447.564	-378
447.635	-349
447.706	-583
447.777	-717
447.847	-1209
447.918	-2172
447.989	-914
448.060	-450
448.131	1631
448.202	1009
448.273	155
448.344	-40
448.414	-739
448.485	-393
448.556	121
448.627	-646
448.698	163
448.768	-1238
448.839	-477
448.910	-219
448.981	-157
449.051	-95
449.122	-490
449.193	-926
449.263	-1008
449.334	-971
449.405	263
449.475	1155
449.546	862
449.616	1031
449.687	50
449.758	-609
449.828	-786
449.899	-627
449.969	-819
450.040	-536
450.110	152
450.181	-67
450.251	-215
450.322	-473
450.392	-1020
450.463	-224
450.533	-920
450.604	-390
450.674	-1126
450.744	-149
450.815	-1138
450.885	-743
450.955	-1026
451.026	-1089
451.096	-454
451.166	-580
451.237	154
451.307	2025
451.377	656
451.447	-1837
451.518	-1107
451.588	-902
451.658	-1032
451.728	-240
451.799	4136
451.869	2859
451.939	458
452.009	-351
452.079	-94
452.149	302
452.219	355
452.289	3837
452.360	2093
452.430	-561
452.500	302
452.570	-163
452.640	-472
452.710	1338
452.780	3016
452.850	2473
452.920	2197
452.990	63
453.060	737
453.129	-162
453.199	34
453.269	5617
453.339	9951
453.409	14325
453.479	16519
453.549	23615
453.619	23456
453.688	7078
453.758	-187
453.828	-549
453.898	-392
453.968	-402
454.037	-192
454.087	-652
454.107	-844
454.168	-483
454.177	-437
454.247	-32
454.249	-49
454.316	-674
454.330	-719
454.386	-936
454.411	9
454.456	1547
454.492	1922
454.525	2263
454.574	624
454.595	-85
454.655	-755
454.665	-869
454.734	-567
454.736	-530
454.804	421
454.817	1088
454.873	3829
454.898	3901
454.943	4011
454.979	2018
455.013	248
455.060	541
455.082	647
455.141	-209
455.152	-326
455.221	3005
455.222	3053
455.291	5073
455.303	5436
455.360	6899
455.384	9252
455.430	13072
455.465	8316
455.499	4023
455.546	3316
455.569	2955
455.627	1841
455.638	1667
455.707	-807
455.708	-794
455.777	131
455.789	-38
455.846	-703
455.869	-519
455.916	-153
455.950	-49
455.985	-25
456.031	-227
456.054	-323
456.112	-221
456.124	-208
456.193	111
456.193	107
456.262	-838
456.274	-627
456.332	450
456.355	393
456.401	161
456.436	-134
456.470	-483
456.516	-448
456.540	-380
456.597	-570
456.609	-620
456.678	-416
456.678	-422
456.747	-657
456.759	-679
456.817	-466
456.840	-372
456.886	-420
456.920	-359
456.955	-198
457.001	-56
457.024	-26
457.082	-385
457.093	-450
457.162	-57
457.163	-49
457.232	330
457.243	102
457.301	-724
457.324	-668
457.370	-589
457.405	-460
457.439	-441
457.485	-525
457.508	-490
457.566	-464
457.577	-469
457.646	72
457.647	74
457.715	-163
457.727	-260
457.784	-666
457.808	-586
457.853	-676
457.889	-645
457.922	-422
457.969	-404
457.991	-432
458.050	-55
458.060	-55
458.129	-107
458.130	-112
458.198	53
458.211	15
458.267	-374
458.292	-296
458.336	-375
458.372	-467
458.405	-235
458.453	-25
458.474	-72
458.533	21
458.543	99
458.611	461
458.614	480
458.680	19
458.694	-50
458.749	216
458.775	258
458.818	-73
458.855	-174
458.887	-137
458.936	-331
458.955	-478
459.016	-695
459.024	-644
459.093	751
459.097	754
459.162	-160
459.177	-302
459.230	-20
459.257	368
459.299	756
459.338	789
459.368	641
459.418	543
459.437	542
459.499	592
459.505	600
459.574	252
459.579	228
459.643	27
459.659	105
459.711	393
459.740	453
459.780	43
459.820	-395
459.849	-224
459.900	387
459.917	492
459.981	765
459.986	751
460.054	560
460.061	572
460.123	928
460.141	771
460.191	529
460.222	724
460.260	724
460.302	959
460.328	1180
460.382	1094
460.397	913
460.462	230
460.465	274
460.534	1473
460.543	1617
460.602	2398
460.623	2881
460.671	4420
460.703	6002
460.739	5725
460.783	3940
460.808	3409
460.864	1245
460.876	975
460.944	684
460.945	679
461.013	560
461.024	572
461.081	577
461.104	686
461.150	836
461.184	641
461.218	566
461.264	533
461.286	493
461.345	587
461.355	603
461.423	720
461.425	711
461.491	221
461.505	292
461.559	1210
461.585	1323
461.628	1928
461.665	3279
461.696	3611
461.745	4299
461.764	4102
461.825	1082
461.832	1016
461.901	919
461.905	988
461.969	498
461.985	326
462.037	986
462.065	1262
462.105	780
462.145	420
462.173	764
462.225	1539
462.241	1638
462.305	2092
462.310	2078
462.378	1923
462.385	1775
462.446	765
462.465	619
462.514	256
462.545	234
462.582	714
462.625	968
462.650	676
462.705	197
462.718	303
462.785	896
462.786	902
462.854	1295
462.865	1348
462.922	1423
462.945	1535
462.990	1351
463.025	811
463.058	798
463.104	1094
463.126	911
463.184	588
463.194	684
463.262	856
463.264	878
463.330	1263
463.344	1327
463.398	1306
463.424	1131
463.466	744
463.504	755
463.533	1266
463.583	1676
463.601	1526
463.663	1104
463.669	1111
463.737	1418
463.743	1440
463.805	2484
463.823	2744
463.873	3140
463.903	3556
463.940	3652
463.982	3798
464.008	3182
464.062	1401
464.076	1510
464.142	1788
464.144	1760
464.211	1139
464.221	1037
464.279	936
464.301	831
464.347	1268
464.381	1694
464.414	1520
464.461	1350
464.482	1561
464.540	1998
464.550	1955
464.617	1651
464.620	1632
464.685	1887
464.699	2006
464.753	2640
464.779	2888
464.820	3221
464.859	3564
464.888	3038
464.938	2173
464.956	2562
465.018	3681
465.023	3624
465.091	2834
465.098	2752
465.158	3079
465.177	3220
465.226	2851
465.257	2554
465.293	2659
465.336	2852
465.361	2897
465.416	2931
465.428	3124
465.495	4116
465.496	4126
465.563	4721
465.575	4849
465.631	6072
465.654	6626
465.698	4786
465.734	2977
465.765	2722
465.813	2372
465.833	2386
465.893	2671
465.900	2645
465.968	2264
465.972	2236
466.035	2135
466.052	2104
466.102	2394
466.131	2549
466.170	2236
466.210	1913
466.237	2286
466.290	3034
466.304	2965
466.369	2474
466.372	2499
466.439	3250
466.449	3348
466.506	2877
466.528	2676
466.573	4386
466.607	5665
466.641	5738
466.687	5844
466.708	6459
466.766	8240
466.775	7714
466.842	3538
466.845	3337
466.909	2882
466.925	2786
466.977	2864
467.004	2932
467.044	3254
467.083	3564
467.111	4134
467.163	5190
467.178	5293
467.242	5689
467.245	5665
467.312	5019
467.321	4928
467.379	4976
467.400	4982
467.446	4520
467.480	4175
467.559	4672
467.638	3618
467.717	3677
467.796	4470
467.875	4211
467.955	4039
468.034	5882
468.113	8996
468.192	10873
468.271	4166
468.350	3473
468.429	3253
468.508	3924
468.588	3404
468.667	3432
468.746	2783
468.825	3417
468.904	2738
468.983	3496
469.062	4765
469.141	5174
469.220	3113
469.299	3953
469.378	4094
469.456	5203
469.535	5098
469.614	4444
469.693	3208
469.772	5197
469.851	5039
469.930	3345
470.009	4110
470.088	3900
470.166	4040
470.245	5453
470.324	3805
470.403	3470
470.482	3589
470.560	3964
470.639	3150
470.718	4994
470.797	3542
470.875	3503
470.954	3589
471.033	4093
471.111	3358
471.190	3059
471.269	2527
471.347	3065
471.426	2929
471.505	4496
471.583	3345
471.662	4124
471.740	3507
471.819	3782
471.898	2609
471.976	3820
472.055	3163
472.133	3047
472.212	4202
472.290	3988
472.369	2940
472.447	3302
472.526	2772
472.604	4542
472.683	3541
472.761	3220
472.839	1689
472.918	3423
472.996	2430
473.075	3526
473.153	3810
473.231	2916
473.310	2170
473.388	3488
473.466	2833
473.545	4778
473.623	4571
473.701	4336
473.780	2873
473.858	2785
473.936	4092
474.014	3352
474.093	3217
474.171	4253
474.249	5290
474.327	3487
474.405	2899
474.484	2935
474.562	2173
474.640	3237
474.718	2890
474.796	2248
474.874	2381
474.952	2333
475.030	3098
475.108	2875
475.187	3811
475.265	3093
475.343	6179
475.421	5550
475.499	2533
475.577	2225
475.655	3216
475.733	5018
475.811	7420
475.889	5550
475.966	4122
476.044	2981
476.122	3422
476.200	4852
476.278	3788
476.356	3271
476.434	2999
476.512	2954
476.590	4056
476.667	3390
476.745	2710
476.823	3817
476.901	2240
476.979	3440
477.056	2424
477.134	2118
477.212	2944
477.290	3341
477.367	2510
477.445	2526
477.523	2621
477.601	2417
477.678	2532
477.756	3556
477.834	3060
477.911	2519
477.989	2881
478.066	2006
478.144	2129
478.222	4205
478.299	5355
478.377	4580
478.454	2636
478.532	2034
478.609	2008
478.687	2939
478.764	2321
478.842	2337
478.919	2792
478.997	3120
479.074	2008
479.152	2469
479.229	2890
479.307	2404
479.384	2462
479.461	2548
479.539	2183
479.616	2600
479.694	1989
479.771	3039
479.848	2542
479.926	971
480.003	3981
480.080	2590
480.157	2911
480.235	1162
480.312	2214
480.389	1794
480.467	2913
480.544	3120
480.621	1835
480.698	2396
480.775	2393
480.853	2766
480.930	2212
481.007	2241
481.084	2371
481.161	2101
481.238	3227
481.315	2505
481.392	1781
481.470	2175
481.547	1844
481.624	2173
481.701	2184
481.778	2219
481.855	1996
481.932	3102
482.009	4250
482.086	2634
482.163	2663
482.240	4677
482.317	5923
482.393	3870
482.470	1751
482.547	2324
482.624	1130
482.701	2135
482.778	1121
482.855	1496
482.932	1620
483.009	1281
483.085	2062
483.162	2383
483.239	2631
483.316	747
483.393	1679
483.469	1478
483.546	2153
483.623	1795
483.699	1881
483.776	1805
483.853	2283
483.930	3182
484.006	6003
484.083	12422
484.160	12602
484.236	20724
484.313	13848
484.389	10179
484.466	10253
484.543	9267
484.619	7857
484.696	10533
484.772	9838
484.849	9344
484.925	8640
485.002	8572
485.078	9188
485.155	8398
485.231	7556
485.308	7751
485.384	6707
485.461	8539
485.537	10028
485.614	12260
485.690	6834
485.766	7464
485.843	7062
485.919	9338
485.995	9030
486.072	7064
486.148	6803
486.224	7416
486.301	7268
486.377	7135
486.453	6411
486.530	8846
486.606	12323
486.682	12729
486.758	10886
486.835	10959
486.911	9438
486.987	13942
487.063	13539
487.139	15048
487.215	10665
487.292	8566
487.368	7395
487.444	7181
487.520	8674
487.596	6973
487.672	8518
487.748	8673
487.824	8909
487.900	7415
487.976	6536
488.052	6329
488.128	7965
488.204	6257
488.280	7526
488.356	7639
488.432	10748
488.508	12603
488.584	6459
488.660	6927
488.736	5744
488.812	5545
488.888	9527
488.964	9858
489.039	14695
489.115	18455
489.191	11148
489.267	6105
489.343	6421
489.418	6610
489.494	4644
489.570	4308
489.646	6603
489.722	5663
489.797	6182
489.873	7262
489.949	10679
490.024	8927
490.100	5433
490.176	5146
490.251	6084
490.327	6352
490.403	4547
490.478	5863
490.554	4768
490.629	4037
490.705	4072
490.781	5451
490.856	4122
490.932	5135
491.007	4780
491.083	5011
491.158	3597
491.234	5868
491.309	8271
491.385	6902
491.460	3962
491.536	5308
491.611	3706
491.686	4146
491.762	5321
491.837	9978
491.913	14723
491.988	19082
492.063	19843
492.139	6930
492.214	4940
492.289	4197
492.365	3959
492.440	4550
492.515	2615
492.590	4384
492.666	3051
492.741	4114
492.816	5110
492.891	3033
492.967	4184
493.042	3482
493.117	3284
493.192	4612
493.267	9472
493.342	22467
493.418	25623
493.493	4421
493.568	2433
493.643	3074
493.718	3807
493.793	4456
493.868	5416
493.943	3575
494.018	3315
494.093	3047
494.168	3698
494.243	2854
494.318	3069
494.393	2802
494.468	2318
494.543	2853
494.618	3034
494.693	2405
494.768	2301
494.842	3077
494.917	2592
494.992	2622
495.067	2025
495.142	3450
495.217	2980
495.292	2406
495.366	3274
495.441	3754
495.516	4304
495.591	6955
495.665	18993
495.740	34726
495.815	11851
495.890	2996
495.964	1816
496.039	5311
496.114	2494
496.188	2809
496.263	3194
496.338	2982
496.412	3552
496.487	4270
496.561	3689
496.636	3472
496.710	3146
496.785	3233
496.860	3824
496.934	3836
497.009	3064
497.083	3011
497.158	3554
497.232	3732
497.307	3871
497.381	3799
497.455	3326
497.530	4594
497.604	3428
497.679	4357
497.753	5422
497.827	6250
497.902	3995
497.976	7547
498.050	21939
498.125	59339
498.199	47917
498.273	7923
498.348	6106
498.422	6001
498.496	5992
498.570	5025
498.645	3221
498.719	2298
498.793	4142
498.867	6229
498.941	9106
499.016	29152
499.090	58546
499.164	15860
499.238	3433
499.312	4376
499.386	4686
499.460	3447
499.534	2830
499.609	4128
499.683	3943
499.757	5601
499.831	14752
499.905	43015
499.979	31123
500.053	6195
500.127	5555
500.201	4152
500.275	3132
500.349	3475
500.422	3219
500.496	5441
500.570	11320
500.644	27189
500.718	37977
500.792	8081
500.866	4041
500.940	4373
501.013	4246
501.087	3191
501.161	5632
501.235	6533
501.309	16842
501.382	35632
501.456	26716
501.530	7213
501.603	10162
501.677	3710
501.751	1736
501.825	4880
501.898	6367
501.972	14553
502.046	7343
502.119	2420
502.193	7885
502.266	14347
502.340	7446
502.413	8666
502.487	12116
502.561	5727
502.634	2985
502.708	2861
502.781	1827
502.855	2614
502.928	1025
503.002	2281
503.075	2365
503.149	1964
503.222	1458
503.295	1747
503.369	3307
503.442	4079
503.516	12975
503.589	24362
503.662	13069
503.736	5998
503.809	12216
503.882	8849
503.956	13856
504.029	11846
504.102	4921
504.175	4840
504.249	1545
504.322	3044
504.395	1886
504.468	1626
504.542	1448
504.615	1387
504.688	2847
504.761	326
504.834	3067
504.907	2907
504.980	3757
505.053	2954
505.127	528
505.200	5414
505.273	1936
505.346	2054
505.419	1058
505.492	2639
505.565	552
505.638	1817
505.711	1616
505.784	1407
505.857	645
505.930	3798
506.003	422
506.076	3250
506.149	1428
506.221	536
506.294	3831
506.367	7623
506.440	18460
506.513	9553
506.586	3123
506.659	1464
506.731	2151
506.804	2758
506.877	2108
506.950	2085
507.022	2158
507.095	1348
507.168	2786
507.241	1962
507.313	781
507.386	984
507.459	3238
507.531	1579
507.604	705
507.677	2418
507.749	390
507.822	3471
507.894	6105
507.967	8878
508.040	4654
508.112	4151
508.185	4402
508.257	3401
508.330	4912
508.402	3260
508.475	3406
508.547	3125
508.620	3618
508.692	4771
508.765	2849
508.837	2113
508.909	3121
508.982	2135
509.054	3348
509.127	3065
509.199	2695
509.271	1847
509.344	2197
509.416	2625
509.488	2411
509.560	3099
509.633	2419
509.705	3539
509.777	3310
509.849	3436
509.922	1887
509.994	3143
510.066	3211
510.138	3284
510.210	9612
510.283	7092
510.355	5398
510.427	4584
510.499	4636
510.571	4141
510.643	4039
510.715	6461
510.787	2630
510.859	5836
510.931	3816
511.003	5361
511.076	6334
511.148	3275
511.219	3970
511.291	5681
511.363	5259
511.435	3772
511.507	1758
511.579	4426
511.651	4487
511.723	2702
511.795	3483
511.867	2770
511.939	3482
512.010	4601
512.082	5034
512.154	2474
512.226	3203
512.298	7562
512.369	8273
512.441	6620
512.513	6427
512.585	4010
512.656	5126
512.728	4330
512.800	3819
512.871	5166
512.943	3668
513.015	2303
513.086	4261
513.158	3706
513.230	2499
513.301	4473
513.373	5745
513.444	2810
513.516	3696
513.588	3891
513.659	3976
513.731	4157
513.802	2842
513.874	8253
513.945	8415
514.016	3692
514.088	3449
514.159	2964
514.231	5114
514.302	6328
514.374	5999
514.445	4417
514.516	8260
514.588	5149
514.659	3427
514.730	5669
514.802	5674
514.873	2523
514.944	5775
515.016	4378
515.087	4125
515.158	4931
515.229	6560
515.301	3184
515.372	4823
515.443	3096
515.514	3114
515.585	2269
515.656	3784
515.728	4128
515.799	2846
515.870	3408
515.941	3075
516.012	1832
516.083	5864
516.154	4359
516.225	6234
516.296	6060
516.367	4283
516.438	3961
516.509	4198
516.580	6357
516.651	21050
516.722	48651
516.793	20330
516.864	7152
516.935	5856
517.006	6953
517.077	8878
517.148	19831
517.219	51610
517.289	60429
517.360	23415
517.431	10311
517.502	3381
517.573	4005
517.643	4980
517.714	4405
517.785	5270
517.856	4081
517.926	5598
517.997	5984
518.068	4874
518.138	7645
518.209	10489
518.280	41334
518.350	103889
518.421	29181
518.492	5985
518.562	4226
518.633	4028
518.703	1088
518.774	4999
518.845	4750
518.915	3558
518.986	3912
519.056	4458
519.127	8891
519.197	13783
519.268	24341
519.338	13423
519.408	5322
519.479	5463
519.549	4231
519.620	4607
519.690	3314
519.760	2865
519.831	3171
519.901	2626
519.971	3625
520.042	2939
520.112	2488
520.182	4225
520.253	4490
520.323	2879
520.393	3557
520.463	6906
520.534	1678
520.604	8520
520.674	4222
520.744	3371
520.814	7586
520.885	6700
520.955	10814
521.025	26274
521.095	9311
521.165	3637
521.235	2940
521.305	1542
521.375	2913
521.445	2998
521.515	3497
521.585	4700
521.655	2601
521.725	3690
521.795	4670
521.865	881
521.935	5355
522.005	2972
522.075	1908
522.145	3605
522.215	1497
522.285	4141
522.355	5435
522.424	7558
522.494	4328
522.564	4530
522.634	9134
522.704	20959
522.774	6745
522.843	2657
522.913	2873
522.983	2996
523.053	2178
523.122	3749
523.192	3404
523.262	10247
523.331	7143
523.401	2680
523.471	2652
523.540	2100
523.610	1374
523.680	2368
523.749	2562
523.819	2557
523.888	1325
523.958	957
524.027	2822
524.097	2023
524.166	1649
524.236	1079
524.305	2966
524.375	1163
524.444	617
524.514	3153
524.583	1266
524.653	2442
524.722	3119
524.791	231
524.861	3923
524.930	648
524.999	1234
525.069	4049
525.138	1815
525.207	1984
525.277	2279
525.346	1869
525.415	2444
525.484	2071
525.554	448
525.623	1970
525.692	1647
525.761	1075
525.830	1512
525.900	1018
525.969	2401
526.038	2711
526.107	2224
526.176	4993
526.245	2535
526.314	3889
526.383	4248
526.452	1555
526.522	8132
526.591	8556
526.660	7250
526.729	3142
526.797	6123
526.867	16368
526.935	63463
527.004	35862
527.073	9712
527.142	2402
527.211	1967
527.280	2137
527.349	2779
527.418	1017
527.487	2259
527.555	709
527.624	1069
527.693	-152
527.762	2385
527.831	261
527.899	1476
527.968	1006
528.037	-158
528.106	2828
528.174	4072
528.243	2508
528.312	3926
528.380	3438
528.449	732
528.518	3375
528.586	-401
528.655	2233
528.723	1520
528.792	155
528.861	982
528.929	-34
528.998	2397
529.066	1642
529.135	1305
529.203	871
529.272	-427
529.340	1808
529.409	2269
529.477	-497
529.545	278
529.614	3336
529.682	101
529.751	1110
529.819	4529
529.887	896
529.956	689
530.024	2245
530.092	774
530.161	2281
530.229	2406
530.297	560
530.365	1748
530.434	1460
530.502	-63
530.570	934
530.638	458
530.707	2122
530.775	3114
530.843	621
530.911	1205
530.979	1176
531.047	385
531.115	1595
531.183	1249
531.252	810
531.320	1018
531.388	51
531.456	1130
531.524	-690
531.592	2061
531.660	3056
531.728	568
531.796	874
531.864	1174
531.932	910
532.000	666
532.067	698
532.135	2017
532.203	3243
532.271	1221
532.339	4425
532.407	8790
532.475	4150
532.542	3019
532.610	2718
532.678	4358
532.746	24553
532.814	43854
532.881	6882
532.949	2161
533.017	1144
533.084	1383
533.152	546
533.220	893
533.287	1173
533.355	1131
533.423	1070
533.490	629
533.558	1050
533.625	622
533.693	1975
533.761	2180
533.828	1334
533.896	234
533.963	4637
534.031	5625
534.098	6858
534.166	2131
534.233	292
534.300	2127
534.368	2200
534.435	805
534.503	2604
534.570	2290
534.637	901
534.705	1146
534.772	1014
534.840	924
534.907	3395
534.974	2111
535.041	889
535.109	1313
535.176	820
535.243	1645
535.310	310
535.378	100
535.445	965
535.512	936
535.579	1410
535.646	285
535.714	2005
535.781	2534
535.848	2619
535.915	2946
535.982	2353
536.049	3155
536.116	2556
536.183	1633
536.250	1706
536.317	878
536.384	2229
536.451	3380
536.518	2497
536.585	847
536.652	3431
536.719	3901
536.786	785
536.853	1817
536.920	4072
536.987	5595
537.053	6098
537.120	27987
537.187	17011
537.254	765
537.321	832
537.388	2762
537.454	229
537.521	903
537.588	440
537.654	1997
537.721	2661
537.788	2567
537.855	1328
537.921	1449
537.988	1527
538.055	1837
538.121	1453
538.188	2067
538.254	2644
538.321	5133
538.388	2691
538.454	1589
538.521	1609
538.587	1480
538.654	1142
538.720	1736
538.787	865
538.853	2002
538.920	976
538.986	2002
539.053	966
539.119	1677
539.185	1546
539.252	3484
539.318	2935
539.385	3563
539.451	1448
539.517	3620
539.583	3320
539.650	9131
539.716	16941
539.782	4223
539.849	1194
539.915	2144
539.981	1542
540.047	2262
540.114	1685
540.180	3292
540.246	981
540.312	2465
540.378	5214
540.444	6310
540.510	8344
540.576	19728
540.643	4256
540.709	913
540.775	1472
540.841	2032
540.907	3300
540.973	4684
541.039	4103
541.105	3776
541.171	1261
541.237	1190
541.303	2209
541.369	4502
541.435	3071
541.500	4349
541.566	847
541.632	2483
541.698	1931
541.764	2537
541.830	724
541.896	1032
541.961	2411
542.027	1629
542.093	1864
542.159	2100
542.224	1516
542.290	4373
542.356	4707
542.421	5355
542.487	3095
542.553	1497
542.618	2395
542.684	2620
542.750	1803
542.815	3408
542.881	4699
542.947	19011
543.012	10083
543.078	2447
543.143	1458
543.209	2099
543.274	1577
543.340	3454
543.405	8538
543.471	9248
543.536	2486
543.602	2846
543.667	571
543.732	2662
543.798	811
543.863	2856
543.928	990
543.994	1321
544.059	2434
544.124	2648
544.190	2034
544.255	1906
544.320	1363
544.386	1581
544.451	2929
544.516	3157
544.581	3491
544.646	13813
544.712	16086
544.777	3711
544.842	3223
544.907	2368
544.972	1566
545.037	1971
545.102	3255
545.168	2167
545.233	3221
545.298	3132
545.363	2414
545.428	4097
545.493	8504
545.558	13729
545.623	5465
545.688	2541
545.753	2687
545.818	2380
545.883	3049
545.947	1445
546.012	2286
546.077	2081
546.142	3243
546.207	2081
546.272	3552
546.337	3145
546.401	3241
546.466	3539
546.531	1415
546.596	3600
546.661	2290
546.725	3728
546.790	1449
546.855	3035
546.919	2048
546.984	2860
547.049	1886
547.113	3206
547.178	1606
547.243	2862
547.307	3166
547.372	3533
547.436	2638
547.501	1931
547.565	1872
547.630	3404
547.695	2721
547.759	3203
547.823	1292
547.888	2584
547.952	2118
548.017	3350
548.081	2301
548.146	3318
548.210	3003
548.274	1116
548.339	1926
548.403	3130
548.468	1969
548.532	2459
548.596	2358
548.660	2089
548.725	2336
548.789	2138
548.853	2684
548.917	2714
548.982	2857
549.046	2883
549.110	1618
549.174	2136
549.238	2200
549.303	2646
549.367	3121
549.431	2113
549.495	2109
549.559	2575
549.623	2905
549.687	2808
549.751	3744
549.815	2806
549.879	2943
549.943	2058
550.007	2566
550.071	3015
550.135	4377
550.199	2311
550.263	1913
550.327	3543
550.391	3301
550.455	2358
550.519	2014
550.582	2986
550.646	3033
550.710	3257
550.774	2259
550.838	1832
550.901	1159
550.965	3111
551.029	1806
551.093	3392
551.156	3803
551.220	6866
551.284	5503
551.347	4067
551.411	9418
551.475	7551
551.538	2523
551.602	2456
551.666	2244
551.729	943
551.793	3474
551.856	3088
551.920	2167
551.983	3096
552.047	2557
552.110	2394
552.174	1915
552.237	1274
552.301	1674
552.364	2425
552.428	2000
552.491	2644
552.554	2902
552.618	2245
552.681	1787
552.745	2365
552.808	4546
552.871	3153
552.934	2404
552.998	2741
553.061	2709
553.124	2305
553.187	3436
553.251	2105
553.314	2464
553.377	3227
553.440	8159
553.503	26294
553.567	31171
553.630	4494
553.693	3124
553.756	1995
553.819	2342
553.882	1507
553.945	1673
554.008	1234
554.071	1661
554.134	2400
554.197	1759
554.260	2273
554.323	3911
554.386	2580
554.449	1430
554.512	2128
554.575	1453
554.638	2991
554.701	1541
554.764	1688
554.827	2362
554.889	1647
554.952	1676
555.015	1738
555.078	1842
555.141	1557
555.203	1152
555.266	1496
555.329	1606
555.391	1867
555.454	1884
555.517	2130
555.580	1601
555.642	961
555.705	785
555.768	1840
555.830	2149
555.893	1774
555.955	1769
556.018	1568
556.080	829
556.143	2318
556.206	965
556.268	1757
556.330	2782
556.393	1879
556.455	2313
556.518	3030
556.580	3112
556.643	1795
556.705	1875
556.767	510
556.830	2068
556.892	2865
556.955	2922
557.017	2418
557.079	1659
557.142	2618
557.204	2044
557.266	4992
557.328	3027
557.391	1614
557.453	1741
557.515	2034
557.577	2489
557.639	1873
557.701	1530
557.764	803
557.826	1516
557.888	2045
557.950	901
558.012	1703
558.074	151
558.136	2937
558.198	3133
558.260	2251
558.322	270
558.384	1671
558.446	1570
558.508	2293
558.570	2776
558.632	5670
558.694	6321
558.756	3925
558.818	7563
558.880	12802
558.942	3117
559.003	3503
559.065	1766
559.127	1525
559.189	1499
559.251	1132
559.312	1986
559.374	4024
559.436	7656
559.498	3607
559.559	994
559.621	1091
559.683	1861
559.744	3643
559.806	5563
559.868	6420
559.929	2099
559.991	2259
560.052	2758
560.114	4234
560.176	1863
560.237	3852
560.299	4306
560.360	1699
560.422	2524
560.483	3085
560.545	2058
560.606	1203
560.667	1467
560.729	1770
560.790	1918
560.852	2996
560.913	2144
560.974	1756
561.036	2458
561.097	2528
561.158	2402
561.220	2600
561.281	1286
561.342	1909
561.403	3770
561.465	3848
561.526	8776
561.587	9419
561.648	2204
561.709	1651
561.771	2518
561.832	2006
561.893	2891
561.954	2704
562.015	2864
562.076	3063
562.137	2435
562.198	2400
562.259	3534
562.320	2797
562.381	3394
562.442	3535
562.503	2814
562.564	3319
562.625	2838
562.686	2980
562.747	2110
562.808	2287
562.869	2775
562.930	3594
562.991	3234
563.051	2348
563.112	2801
563.173	2497
563.234	2396
563.294	3155
563.355	2478
563.416	2589
563.477	2153
563.537	2441
563.598	2203
563.659	2807
563.720	2092
563.780	2410
563.841	2709
563.901	2788
563.962	3025
564.023	2765
564.083	2801
564.144	2592
564.204	2363
564.265	2555
564.325	4135
564.386	4738
564.446	3585
564.507	1882
564.567	2096
564.628	2581
564.688	2321
564.749	1988
564.809	3320
564.869	3892
564.930	1988
564.990	3127
565.050	1773
565.111	2812
565.171	2352
565.231	2891
565.292	3557
565.352	2463
565.412	2811
565.472	2866
565.532	1926
565.593	2995
565.653	2141
565.713	1992
565.773	2482
565.833	3648
565.893	4198
565.953	2329
566.013	2203
566.074	2653
566.134	3853
566.194	5334
566.254	5014
566.314	3260
566.374	2295
566.434	2731
566.494	1831
566.554	2865
566.614	2911
566.673	3078
566.733	2494
566.793	3044
566.853	3335
566.913	2811
566.973	3921
567.033	3847
567.092	2367
567.152	2336
567.212	2832
567.272	3678
567.331	3355
567.391	2826
567.451	3990
567.511	4112
567.570	3117
567.630	3434
567.690	3807
567.749	2868
567.809	2557
567.868	4301
567.928	3498
567.988	3656
568.047	3627
568.107	4982
568.166	6341
568.226	8738
568.285	10267
568.345	8557
568.404	6800
568.464	5922
568.523	4823
568.582	4948
568.642	6109
568.701	7817
568.761	12644
568.820	18346
568.879	15503
568.939	11441
568.998	7415
569.057	5256
569.116	4291
569.176	3699
569.235	3868
569.294	2624
569.353	2830
569.413	3119
569.472	1881
569.531	2026
569.590	2789
569.649	2733
569.708	1740
569.767	2552
569.827	2890
569.886	2457
569.945	2813
570.004	3203
570.063	2816
570.122	2566
570.181	3060
570.240	2826
570.299	2417
570.358	2738
570.417	1160
570.475	1567
570.534	2886
570.593	1922
570.652	2965
570.711	2942
570.770	1291
570.829	2451
570.887	2058
570.946	2859
571.005	1630
571.064	1516
571.122	1531
571.181	2634
571.240	1777
571.299	1550
571.357	2485
571.416	2302
571.475	2191
571.533	2643
571.592	1933
571.650	2451
571.709	1490
571.768	1583
571.826	2086
571.885	2197
571.943	1582
572.002	1753
572.060	1213
572.119	1449
572.177	3022
572.236	1479
572.294	1541
572.352	2185
572.411	1328
572.469	1195
572.528	1385
572.586	1778
572.644	1551
572.703	2132
572.761	1783
572.819	1533
572.877	1651
572.936	1237
572.994	1495
573.052	1975
573.110	2299
573.169	1244
573.227	1261
573.285	1606
573.343	1908
573.401	2278
573.459	2525
573.517	1037
573.576	1814
573.634	1782
573.692	2261
573.750	1375
573.808	1570
573.866	1591
573.924	2198
573.982	1562
574.040	1791
574.098	1591
574.155	1283
574.213	1549
574.271	358
574.329	1515
574.387	1514
574.445	1052
574.503	870
574.560	1036
574.618	1236
574.676	1210
574.734	1313
574.792	1688
574.849	1442
574.907	1704
574.965	1228
575.022	734
575.080	580
575.138	469
575.195	947
575.253	1523
575.311	1238
575.368	1880
575.426	527
575.483	2229
575.541	1463
575.598	1361
575.656	1727
575.713	1543
575.771	1047
575.828	1377
575.886	1312
575.943	2503
576.001	609
576.058	559
576.115	1154
576.173	2058
576.230	1956
576.287	2119
576.345	1772
576.402	1906
576.459	1591
576.517	1752
576.574	2631
576.631	2608
576.688	1252
576.746	1638
576.803	1669
576.860	1865
576.917	2040
576.974	1833
577.031	1012
577.089	2155
577.146	1701
577.203	1105
577.260	1994
577.317	2216
577.374	1603
577.431	2562
577.488	2307
577.545	912
577.602	1360
577.659	2101
577.716	1662
577.773	1549
577.830	1103
577.886	2590
577.943	942
578.000	1178
578.057	1797
578.114	2044
578.171	2502
578.227	3749
578.284	3455
578.341	2566
578.398	1764
578.454	2434
578.511	2151
578.568	2120
578.625	1206
578.681	1671
578.738	1809
578.794	2048
578.851	2008
578.908	2755
578.964	2034
579.021	1592
579.077	1950
579.134	1887
579.190	1655
579.247	1786
579.303	1223
579.360	1451
579.416	1772
579.473	1175
579.529	965
579.586	1765
579.642	2261
579.698	2322
579.755	1957
579.811	1503
579.867	1374
579.924	1381
579.980	1777
580.036	2739
580.093	3771
580.149	6215
580.205	5928
580.261	4253
580.317	2881
580.374	2038
580.430	2171
580.486	2217
580.542	1214
580.598	1879
580.619	1909
580.654	1960
580.692	2020
580.710	2046
580.765	576
580.767	526
580.823	1457
580.838	1505
580.879	1645
580.911	1879
580.935	2039
580.984	2157
580.991	2177
581.047	2449
581.057	2315
581.103	1688
581.130	2071
581.159	2466
581.203	2667
581.215	2718
581.270	2810
581.276	2724
581.326	1867
581.349	1873
581.382	1940
581.422	2512
581.438	2697
581.494	2562
581.494	2560
581.550	2410
581.567	2477
581.606	2643
581.640	2211
581.661	1911
581.713	2463
581.717	2510
581.773	2445
581.786	2469
581.829	2512
581.859	2109
581.885	1781
581.932	2264
581.940	2357
581.996	3171
582.004	3178
582.052	3018
582.077	2601
582.107	2203
582.150	2663
582.163	2775
582.219	2338
582.223	2339
582.274	2534
582.296	2636
582.330	2701
582.368	2881
582.386	2982
582.441	2051
582.441	2048
582.497	2343
582.514	2418
582.552	2630
582.587	2759
582.608	2738
582.659	3025
582.663	3064
582.719	2772
582.732	2765
582.774	2724
582.805	3063
582.830	3302
582.877	3077
582.885	3054
582.941	2840
582.950	2906
582.996	3074
583.023	3010
583.052	3143
583.095	3699
583.107	3847
583.162	4630
583.168	4733
583.218	5384
583.240	5211
583.273	4894
583.313	3742
583.328	3343
583.384	3828
583.385	3804
583.439	2821
583.458	2764
583.494	2842
583.531	2613
583.549	2564
583.603	3751
583.605	3779
583.660	3465
583.676	3444
583.715	3501
583.748	3442
583.770	3392
583.820	3194
583.825	3185
583.881	3499
583.893	3516
583.936	3275
583.965	3018
583.991	3025
584.038	3032
584.046	3040
584.101	2764
584.110	2908
584.156	3296
584.183	3117
584.211	3125
584.255	4047
584.266	4267
584.321	3786
584.328	3828
584.376	4118
584.400	3926
584.431	3610
584.472	3196
584.486	3097
584.541	4335
584.545	4285
584.596	3299
584.617	3412
584.651	3997
584.689	4360
584.706	4413
584.761	4207
584.762	4203
584.816	4114
584.834	4192
584.871	4509
584.906	4312
584.926	4247
584.978	4701
584.980	4722
585.035	4896
585.051	4895
585.090	4901
585.123	5360
585.145	5611
585.195	5505
585.200	5525
585.254	5400
585.267	5598
585.309	6325
585.340	6464
585.364	6373
585.412	5687
585.419	5574
585.473	5846
585.484	5674
585.528	5659
585.556	5761
585.583	5791
585.628	5688
585.637	5743
585.692	7968
585.700	8096
585.747	8465
585.772	8319
585.801	7606
585.845	6482
585.856	6383
585.910	5833
585.917	5822
585.965	5847
585.989	5884
586.019	6255
586.061	6319
586.074	6242
586.128	6567
586.133	6560
586.183	6852
586.205	7049
586.237	7327
586.277	6921
586.292	6854
586.346	7510
586.349	7539
586.401	7542
586.421	7322
586.455	7616
586.493	8281
586.509	8750
586.564	10098
586.565	10140
586.618	13512
586.637	13567
586.672	11220
586.709	9407
586.727	9081
586.781	8963
586.781	8980
586.835	8278
586.853	8287
586.889	8582
586.925	8332
586.944	8187
586.996	8886
586.998	8937
587.052	9594
587.068	9625
587.106	9452
587.140	9139
587.161	9029
587.212	9485
587.215	9533
587.269	9696
587.284	9772
587.323	10421
587.356	10758
587.377	10799
587.427	11147
587.431	11223
587.485	11846
587.499	11896
587.539	11747
587.571	11565
587.593	11952
587.643	13338
587.648	13453
587.702	13706
587.715	13871
587.755	14299
587.786	14410
587.810	14746
587.858	15173
587.864	15319
587.917	17113
587.930	17473
587.971	18774
588.001	19335
588.025	19853
588.073	21111
588.079	21382
588.133	23788
588.145	24208
588.187	26566
588.217	28393
588.241	30192
588.288	33897
588.295	34547
588.348	38745
588.360	39792
588.402	45106
588.431	48763
588.456	52455
588.503	59418
588.510	60816
588.564	72254
588.575	74750
588.617	87946
588.646	98087
588.671	111612
588.718	140387
588.725	148603
588.778	218540
588.789	235093
588.832	357412
588.861	448778
588.886	550195
588.932	739195
588.939	747661
588.993	746681
589.004	738619
589.047	584116
589.075	474319
589.100	379089
589.147	222231
589.154	213884
589.207	156415
589.218	145275
589.261	135631
589.290	130444
589.314	137219
589.361	154089
589.368	162223
589.421	235332
589.433	252820
589.475	396397
589.504	504850
589.528	584324
589.576	704273
589.582	689194
589.635	494844
589.647	452401
589.689	279300
589.718	168209
589.742	138933
589.790	85101
589.795	82988
589.849	62939
589.861	58497
589.902	52075
589.932	46844
589.955	43039
590.004	35085
590.009	34767
590.062	30795
590.075	29672
590.115	28131
590.146	26972
590.168	26150
590.218	24172
590.222	24121
590.275	22448
590.289	21964
590.328	21718
590.360	21350
590.381	20864
590.431	19778
590.435	19831
590.488	19292
590.503	19217
590.541	18618
590.574	17812
590.594	17827
590.645	17895
590.647	17937
590.700	17227
590.716	17033
590.753	17311
590.787	17369
590.806	17084
590.859	16201
590.859	16263
590.912	16446
590.930	16533
590.965	15960
591.001	15163
591.018	15463
591.071	16359
591.072	16311
591.124	15230
591.143	14821
591.177	15362
591.214	15867
591.230	15899
591.283	15773
591.285	15709
591.336	15919
591.356	15945
591.389	16335
591.427	16582
591.442	16300
591.495	15074
591.498	14925
591.547	14719
591.569	14566
591.600	14649
591.640	14622
591.653	14839
591.706	15595
591.711	15604
591.759	14991
591.782	14653
591.811	14978
591.853	15231
591.864	15390
591.917	15960
591.924	15971
591.969	15393
591.995	15019
592.022	15336
592.066	15678
592.075	15853
592.127	16573
592.137	16640
592.180	16694
592.208	16637
592.233	16154
592.279	15069
592.285	15152
592.338	15371
592.350	15358
592.390	15338
592.421	15240
592.443	15228
592.491	15007
592.495	15072
592.548	15216
592.562	15204
592.600	14569
592.633	13927
592.653	14084
592.704	14297
592.705	14396
592.775	15218
592.846	14486
592.916	14598
592.987	14295
593.058	14391
593.128	13474
593.199	13979
593.270	13835
593.341	13956
593.411	12982
593.482	13642
593.553	13989
593.623	12590
593.694	13044
593.764	13688
593.835	12974
593.906	13432
593.976	12860
594.047	11760
594.117	15303
594.188	14664
594.258	11730
594.329	12706
594.399	11826
594.470	11720
594.540	12518
594.611	12991
594.681	12149
594.751	12148
594.822	13223
594.892	13468
594.963	13564
595.033	13213
595.103	13158
595.174	13626
595.244	15721
595.314	17713
595.384	12399
595.455	13284
595.525	12991
595.595	13110
595.665	12604
595.736	13088
595.806	13089
595.876	12269
595.946	12285
596.016	11890
596.087	11201
596.157	12225
596.227	12010
596.297	12564
596.367	12537
596.437	13159
596.507	14745
596.577	16030
596.647	12479
596.717	12428
596.787	11705
596.857	11851
596.927	12610
596.997	11595
597.067	12193
597.137	13965
597.207	11743
597.277	11961
597.347	11806
597.417	11651
597.487	12984
597.557	12863
597.626	12405
597.696	13476
597.766	13477
597.836	15341
597.906	12735
597.975	11671
598.045	10752
598.115	11531
598.185	10843
598.254	11427
598.324	11846
598.394	11390
598.464	12363
598.533	11654
598.603	10433
598.672	11717
598.742	11073
598.812	11678
598.881	10358
598.951	9928
599.020	10908
599.090	10873
599.159	11237
599.229	10854
599.299	10435
599.368	11020
599.437	10086
599.507	10796
599.576	11186
599.646	11756
599.715	11453
599.785	10341
599.854	9930
599.924	11177
599.993	10353
600.062	10582
600.132	10760
600.201	10196
600.270	10566
600.340	10299
600.409	10070
600.478	10473
600.547	10449
600.617	10979
600.686	9938
600.755	10232
600.824	11395
600.894	11423
600.963	10023
601.032	10425
601.101	9781
601.170	10020
601.239	10040
601.308	11279
601.378	10577
601.447	9952
601.516	9951
601.585	9864
601.654	10724
601.723	10023
601.792	9901
601.861	9927
601.930	11043
601.999	10765
602.068	9229
602.137	10285
602.206	10566
602.275	9427
602.343	10259
602.412	10381
602.481	9022
602.550	9244
602.619	8743
602.688	9171
602.756	9390
602.825	9676
602.894	9228
602.963	9472
603.032	9633
603.100	8919
603.169	9053
603.238	9342
603.307	9492
603.375	9053
603.444	9559
603.513	9062
603.581	7821
603.650	8754
603.719	8652
603.787	8772
603.856	9233
603.924	8141
603.993	9410
604.061	8635
604.130	8397
604.198	8731
604.267	9251
604.335	7893
604.404	8244
604.472	8622
604.541	8642
604.609	9117
604.678	8240
604.746	8293
604.815	8242
604.883	7968
604.951	9130
605.020	8448
605.088	8719
605.156	8691
605.225	8231
605.293	8413
605.361	7790
605.429	8377
605.498	8861
605.566	8320
605.634	9055
605.702	7985
605.771	8033
605.839	8846
605.907	7582
605.975	8171
606.043	7848
606.111	8593
606.180	8589
606.248	9581
606.316	10320
606.384	8224
606.452	9882
606.520	9894
606.588	8880
606.656	8183
606.724	7996
606.792	8218
606.860	7264
606.928	7750
606.996	7753
607.064	7522
607.132	6677
607.200	8468
607.267	7934
607.335	6317
607.403	7578
607.471	6754
607.539	7031
607.607	7743
607.674	7211
607.742	7057
607.810	6706
607.878	7245
607.946	7508
608.013	7830
608.081	7343
608.149	7929
608.216	6887
608.284	8448
608.352	7782
608.419	6406
608.487	9940
608.555	7526
608.622	7380
608.690	7281
608.757	7185
608.825	7450
608.893	6761
608.960	7674
609.028	7727
609.095	9901
609.163	6464
609.230	7286
609.298	7000
609.365	6646
609.432	7422
609.500	7516
609.567	8005
609.635	8483
609.702	7072
609.769	7585
609.837	8024
609.904	7545
609.971	6733
610.039	10180
610.106	10865
610.173	15915
610.241	31996
610.308	58098
610.375	42653
610.442	12507
610.509	7636
610.577	8806
610.644	7437
610.711	7479
610.778	7190
610.845	7418
610.912	8293
610.980	8618
611.047	10052
611.114	8987
611.181	7393
611.248	5812
611.315	8198
611.382	6319
611.449	6231
611.516	7780
611.583	6375
611.650	6988
611.717	7119
611.784	7307
611.851	7133
611.918	7681
611.984	6629
612.051	9195
612.118	11537
612.185	19541
612.252	14087
612.319	6921
612.386	7095
612.452	6700
612.519	7663
612.586	9160
612.653	7192
612.719	6814
612.786	6110
612.853	7078
612.919	6692
612.986	7256
613.053	6785
613.120	5631
613.186	5606
613.253	8150
613.319	6122
613.386	6580
613.453	6161
613.519	8352
613.586	6925
613.652	10686
613.719	8225
613.785	8150
613.852	6655
613.918	5597
613.985	8185
614.051	10219
614.118	18601
614.184	18119
614.250	6505
614.317	6408
614.383	6037
614.449	6528
614.516	5530
614.582	6271
614.648	6265
614.715	5907
614.781	5796
614.847	7262
614.914	6808
614.980	6522
615.046	7258
615.112	6513
615.179	5938
615.245	7199
615.311	7230
615.377	9098
615.443	9318
615.509	7234
615.575	7177
615.642	6664
615.708	7339
615.774	7767
615.840	9017
615.906	11305
615.972	11475
616.038	18194
616.104	21700
616.170	27739
616.236	22926
616.302	12261
616.368	9302
616.434	8354
616.500	9639
616.565	10083
616.631	8887
616.697	8761
616.763	9008
616.829	9490
616.895	11864
616.961	10364
617.026	9736
617.092	8610
617.158	9970
617.224	7916
617.289	8284
617.355	8666
617.421	8069
617.487	10387
617.552	8628
617.618	8258
617.684	7191
617.749	10739
617.815	8452
617.880	8924
617.946	8521
618.012	8865
618.077	8126
618.143	8684
618.208	9606
618.274	10053
618.339	9138
618.405	8884
618.470	9011
618.536	10184
618.601	12241
618.667	11504
618.732	10247
618.798	10100
618.863	10744
618.928	9791
618.994	11009
619.059	12245
619.124	13279
619.190	11601
619.255	9919
619.320	10405
619.386	9783
619.451	9001
619.516	10771
619.581	9697
619.647	9518
619.712	9637
619.777	10623
619.842	10314
619.907	9735
619.972	9584
620.038	9598
620.103	9977
620.168	8302
620.233	10047
620.298	8981
620.363	8764
620.428	9742
620.493	9593
620.558	9511
620.623	9358
620.688	10305
620.753	8988
620.818	9067
620.883	9702
620.948	9713
621.013	9810
621.078	8480
621.143	9048
621.207	11941
621.272	10116
621.337	11311
621.402	11203
621.467	14329
621.532	14802
621.596	12497
621.661	12729
621.726	11213
621.791	10288
621.855	12358
621.920	12320
621.985	11658
622.049	13606
622.114	12551
622.179	12923
622.243	13624
622.308	13323
622.373	15076
622.437	13233
622.502	11891
622.566	13371
622.631	12196
622.695	13858
622.760	13938
622.824	13392
622.889	12416
622.953	13015
623.018	16061
623.082	14848
623.147	13024
623.211	12209
623.276	12434
623.340	11749
623.404	11565
623.469	12074
623.533	12090
623.597	10793
623.662	12115
623.726	11344
623.790	11534
623.854	11723
623.919	12447
623.983	12177
624.047	12426
624.111	10659
624.176	10842
624.240	11116
624.304	13973
624.368	11461
624.432	11860
624.496	12348
624.560	12362
624.625	10708
624.689	11753
624.753	10947
624.817	10885
624.881	10462
624.945	10926
625.009	10122
625.073	10696
625.137	10834
625.201	12700
625.265	12686
625.329	10906
625.393	10921
625.456	10932
625.520	11316
625.584	10958
625.648	13518
625.712	15137
625.776	28401
625.839	31707
625.903	15767
625.967	10518
626.031	16446
626.095	20058
626.158	11231
626.222	9034
626.286	9897
626.349	9022
626.413	7957
626.477	10427
626.540	9394
626.604	8445
626.668	10156
626.731	10251
626.795	9897
626.858	9421
626.922	9428
626.986	10550
627.049	7986
627.113	9844
627.176	10089
627.240	8200
627.303	7882
627.366	8166
627.430	8695
627.493	9890
627.557	9035
627.620	9529
627.684	9159
627.747	9230
627.810	7069
627.874	9363
627.937	8444
628.000	10413
628.064	9837
628.127	7924
628.190	9078
628.253	9324
628.317	7579
628.380	8996
628.443	7989
628.506	7905
628.569	8883
628.632	7925
628.696	8336
628.759	7406
628.822	7701
628.885	7207
628.948	8669
629.011	7965
629.074	7393
629.137	7454
629.200	7022
629.263	9115
629.326	7182
629.389	7731
629.452	8084
629.515	8203
629.578	7447
629.641	8182
629.704	7867
629.767	7569
629.830	7767
629.892	7511
629.955	7427
630.018	8311
630.081	7029
630.144	8102
630.207	6410
630.269	8820
630.332	7043
630.395	7225
630.458	7024
630.520	6202
630.583	7701
630.646	7765
630.708	6908
630.771	5630
630.834	7221
630.896	6308
630.959	6764
631.021	6587
631.084	7494
631.146	6665
631.209	6943
631.272	6441
631.334	6714
631.397	6105
631.459	5412
631.522	7220
631.584	5815
631.646	7140
631.709	6129
631.771	7366
631.834	6580
631.896	6394
631.958	5232
632.021	6674
632.083	5236
632.145	6276
632.208	5088
632.270	7361
632.332	5752
632.395	4741
632.457	6806
632.519	5394
632.581	6848
632.643	4452
632.706	6503
632.768	4383
632.830	5797
632.892	5325
632.954	5334
633.016	6497
633.078	5755
633.141	4584
633.203	5320
633.265	5944
633.327	5566
633.389	4345
633.451	6752
633.513	7029
633.575	6428
633.637	5316
633.698	5592
633.760	5584
633.822	5783
633.884	5953
633.946	5061
634.008	5383
634.070	5399
634.132	5912
634.193	5321
634.255	4701
634.317	4269
634.379	5591
634.441	5486
634.502	5623
634.564	5501
634.626	5446
634.687	6310
634.749	5530
634.811	6222
634.873	4390
634.934	5361
634.996	5583
635.057	4297
635.119	4115
635.181	5993
635.242	5186
635.304	2863
635.365	6581
635.427	4180
635.488	4916
635.550	3934
635.611	4947
635.673	3097
635.734	7009
635.796	5087
635.857	6051
635.918	4332
635.980	6211
636.041	4443
636.102	5386
636.164	4612
636.225	5145
636.286	2881
636.348	4860
636.409	5165
636.470	4063
636.531	5022
636.593	4454
636.654	5434
636.715	4137
636.776	4214
636.838	3666
636.899	5415
636.960	3942
637.021	3543
637.082	4080
637.143	5010
637.204	4243
637.265	3073
637.326	4513
637.387	5294
637.448	3079
637.509	4651
637.570	4673
637.631	5243
637.692	2577
637.753	2500
637.814	3529
637.875	5096
637.936	4608
637.997	3007
638.058	3560
638.119	4532
638.179	3587
638.240	3454
638.301	4003
638.362	3695
638.423	3940
638.483	5040
638.544	2739
638.605	5037
638.666	3012
638.726	4829
638.787	5175
638.848	3420
638.908	3512
638.969	4278
639.030	4853
639.090	2705
639.151	3425
639.211	4551
639.272	4943
639.332	6886
639.393	4237
639.453	3854
639.514	4531
639.574	4306
639.635	3622
639.695	4172
639.756	2673
639.816	3519
639.877	4011
639.937	6435
639.997	6603
640.058	3222
640.118	2511
640.178	4056
640.239	3094
640.299	3221
640.359	2976
640.420	3719
640.480	3734
640.540	2522
640.600	2693
640.661	3571
640.721	2575
640.781	3771
640.841	2408
640.901	4217
640.961	3323
641.021	4317
641.082	2492
641.142	4215
641.202	4412
641.262	1924
641.322	4117
641.382	1753
641.442	4269
641.502	3221
641.562	4853
641.622	2934
641.682	3287
641.742	3011
641.802	3886
641.861	4434
641.921	3357
641.981	4585
642.041	3508
642.101	3896
642.161	2748
642.221	2842
642.280	3383
642.340	2275
642.400	2420
642.460	3570
642.519	2712
642.579	2960
642.639	4015
642.698	589
642.758	4590
642.818	3564
642.877	3013
642.937	3425
642.997	4391
643.056	4692
643.116	2371
643.175	4333
643.235	3323
643.294	2615
643.354	3037
643.414	3457
643.473	3254
643.532	3018
643.592	2824
643.651	3857
643.711	4359
643.770	5619
643.830	8638
643.889	15586
643.948	5734
644.008	3311
644.067	3065
644.126	2771
644.186	2619
644.245	3473
644.304	1456
644.363	3463
644.423	2267
644.482	2812
644.541	2560
644.600	926
644.659	3147
644.719	2378
644.778	2892
644.837	2727
644.896	3070
644.955	5173
645.014	3656
645.073	3307
645.132	2414
645.191	3435
645.250	2644
645.309	4081
645.368	2340
645.427	2903
645.486	1373
645.545	3822
645.604	1600
645.663	3282
645.722	2053
645.781	2628
645.840	2104
645.898	3017
645.957	3410
646.016	2624
646.075	4343
646.134	3794
646.192	7489
646.251	10699
646.310	2404
646.369	2885
646.427	2294
646.486	1391
646.545	2252
646.603	2531
646.662	2704
646.721	2489
646.779	1651
646.838	1000
646.896	3300
646.955	2103
647.014	3246
647.072	2820
647.131	4145
647.189	2092
647.248	1657
647.306	3008
647.365	2519
647.423	978
647.481	4272
647.540	646
647.598	2227
647.657	2534
647.715	3578
647.773	1089
647.832	3256
647.890	1827
647.948	1726
648.007	2845
648.065	775
648.123	2490
648.181	3624
648.240	3376
648.298	2099
648.356	1854
648.414	2653
648.472	1718
648.531	2480
648.589	2963
648.647	2312
648.705	1821
648.763	2899
648.821	2391
648.879	2162
648.937	3158
648.995	2605
649.053	2024
649.111	2331
649.169	2667
649.227	4166
649.285	3485
649.343	6303
649.401	5674
649.459	6328
649.516	6435
649.574	2732
649.632	7856
649.690	10242
649.748	5349
649.806	3089
649.863	7310
649.921	3797
649.979	2717
650.037	2259
650.094	1747
650.152	2350
650.210	1263
650.268	2219
650.325	2442
650.383	2448
650.440	1714
650.498	2045
650.556	2096
650.613	845
650.671	2214
650.728	1758
650.786	2738
650.843	1811
650.901	712
650.958	2158
651.016	1965
651.073	2658
651.131	1998
651.188	1139
651.246	2272
651.303	1174
651.360	2080
651.418	1628
651.475	1824
651.532	1275
651.590	2576
651.647	1206
651.704	2365
651.762	2400
651.819	2076
651.876	1664
651.933	1959
651.990	1855
652.048	717
652.105	1462
652.162	2532
652.219	1093
652.276	2416
652.333	1929
652.390	1820
652.448	2271
652.505	2896
652.562	1897
652.619	2141
652.676	3111
652.733	4270
652.790	1168
652.847	520
652.904	2241
652.961	572
653.017	381
653.074	2052
653.131	1852
653.188	917
653.245	1414
653.302	1867
653.359	940
653.415	1575
653.472	1339
653.529	2578
653.586	300
653.642	1229
653.699	1848
653.756	1623
653.813	986
653.869	1924
653.926	516
653.983	1277
654.039	1750
654.096	1493
654.152	2198
654.209	930
654.266	1758
654.322	1325
654.379	2035
654.435	2228
654.492	1413
654.548	1623
654.605	2556
654.661	2749
654.717	2127
654.774	1786
654.830	1602
654.887	1430
654.943	1781
655.000	2015
655.056	1916
655.112	1638
655.168	920
655.225	1557
655.281	1849
655.337	2577
655.394	1654
655.450	2266
655.506	1852
655.562	3073
655.618	4188
655.675	1050
655.731	1815
655.787	1370
655.843	2395
655.899	1052
655.955	2815
656.011	1992
656.067	1376
656.123	2771
656.179	1748
656.235	3673
656.291	1317
656.347	3329
656.403	1804
656.459	1839
656.515	2980
656.571	1661
656.627	1118
656.683	2083
656.739	2054
656.795	2555
656.850	1585
656.906	2140
656.962	2445
657.018	1108
657.074	1666
657.129	1443
657.185	2078
657.241	1381
657.297	1393
657.352	1394
657.408	1079
657.464	2291
657.519	935
657.575	1795
657.630	646
657.686	1658
657.742	1054
657.797	2861
657.853	1804
657.908	2995
657.964	302
658.019	1637
658.075	1125
658.130	1708
658.186	249
658.241	1681
658.297	1367
658.352	1574
658.407	1657
658.463	519
658.518	1917
658.573	1510
658.629	327
658.684	1390
658.739	2420
658.795	386
658.850	1356
658.905	1065
658.960	1230
659.016	801
659.071	1089
659.126	1707
659.181	412
659.236	2969
659.291	2437
659.346	1942
659.401	1959
659.457	2142
659.512	1654
659.567	2957
659.622	1009
659.677	1630
659.732	556
659.787	1295
659.842	1411
659.897	2281
659.952	881
660.007	1529
660.061	2481
660.116	1157
660.171	1245
660.226	1569
660.281	2159
660.336	1393
660.391	2488
660.445	186
660.500	1915
660.555	2364
660.610	1413
660.664	2247
660.719	1117
660.774	1712
660.828	1766
660.883	1038
660.938	1826
660.992	1362
661.047	2292
661.101	1121
661.156	1281
661.211	652
661.265	865
661.320	900
661.374	1281
661.429	322
661.483	1745
661.538	292
661.592	924
661.647	1097
661.701	1837
661.755	1712
661.810	2232
661.864	1060
661.919	1124
661.973	1743
662.027	1504
662.081	843
662.136	1403
662.190	1462
662.244	1551
662.299	915
662.353	1724
662.407	1358
662.461	857
662.515	1691
662.569	1524
662.624	2115
662.678	1568
662.732	1095
662.786	1321
662.840	1708
662.894	1736
662.948	1568
663.002	1106
663.056	1327
663.110	739
663.164	1323
663.218	1405
663.272	2089
663.326	1881
663.380	1718
663.434	1343
663.488	1122
663.542	1967
663.595	1469
663.649	2083
663.703	1981
663.757	1807
663.811	1332
663.864	664
663.918	1859
663.972	1807
664.026	1048
664.079	1318
664.133	1951
664.187	1425
664.240	1251
664.294	388
664.348	2005
664.401	1077
664.455	1028
664.508	1773
664.562	1453
664.615	1575
664.669	1241
664.722	1560
664.776	1192
664.829	1102
664.883	1832
664.936	1175
664.990	1307
665.043	1148
665.097	1992
665.150	2164
665.203	766
665.257	1338
665.310	2134
665.363	2040
665.417	2625
665.470	1290
665.523	1248
665.576	1803
665.630	1276
665.683	2125
665.736	1768
665.789	1784
665.842	1250
665.895	1634
665.949	2231
666.002	1718
666.055	2452
666.108	1528
666.161	1533
666.214	2065
666.267	835
666.320	1892
666.373	1708
666.426	933
666.479	1508
666.532	1577
666.585	1687
666.638	1725
666.691	1434
666.744	1819
666.796	1426
666.849	1442
666.902	1503
666.955	1233
667.008	1737
667.060	1547
667.113	567
667.166	705
667.219	1298
667.271	978
667.324	1521
667.377	1338
667.430	1859
667.482	1262
667.535	1215
667.587	1625
667.640	752
667.693	2606
667.745	2252
667.798	2790
667.850	2091
667.903	1657
667.955	1687
668.008	945
668.060	2434
668.113	1418
668.165	3119
668.218	1911
668.270	1722
668.322	1585
668.375	2277
668.427	2766
668.479	1098
668.532	1633
668.584	1417
668.636	1586
668.689	1893
668.741	1355
668.793	1866
668.845	2368
668.898	2305
668.950	1547
669.002	1645
669.054	2092
669.106	1909
669.158	1773
669.211	1737
669.263	2200
669.315	2132
669.367	2732
669.419	1978
669.471	2735
669.523	1662
669.575	2211
669.627	3251
669.679	2091
669.731	2327
669.783	1827
669.835	2686
669.886	1845
669.938	2274
669.990	2234
670.042	2168
670.094	2294
670.146	3109
670.197	3620
670.249	4546
670.301	3173
670.353	7635
670.404	9422
670.456	13397
670.508	21294
670.560	33900
670.611	57370
670.663	97480
670.715	215550
670.766	324276
670.818	121782
670.869	25308
670.921	12139
670.972	8065
671.024	5639
671.075	5299
671.127	3955
671.178	3185
671.230	2345
671.281	2299
671.333	3099
671.384	2618
671.436	2249
671.487	3177
671.538	2339
671.590	2588
671.641	2924
671.692	2492
671.744	2656
671.795	3292
671.846	1659
671.897	2128
671.949	1665
672.000	1370
672.051	2272
672.102	2713
672.153	2150
672.204	1864
672.256	1663
672.307	1708
672.358	1817
672.409	2396
672.460	1609
672.511	1803
672.562	749
672.613	1254
672.664	1392
672.715	1511
672.766	1082
672.817	1771
672.868	1029
672.919	2292
672.970	1380
673.021	1940
673.071	1104
673.122	1559
673.173	2129
673.224	1686
673.275	1387
673.326	1182
673.376	1225
673.427	420
673.478	1378
673.528	2189
673.579	2098
673.630	1770
673.680	1850
673.731	813
673.782	1314
673.832	1890
673.883	1531
673.934	1333
673.984	1205
674.035	1568
674.085	1486
674.136	1457
674.186	1371
674.237	1545
674.287	1812
674.338	1734
674.388	1711
674.438	1353
674.489	1200
674.539	1215
674.589	963
674.640	836
674.690	1245
674.740	968
674.791	902
674.841	1345
674.891	2291
674.942	1170
674.992	1509
675.042	1083
675.092	1292
675.142	453
675.193	1198
675.243	454
675.293	1136
675.343	1723
675.393	1246
675.443	1695
675.493	1665
675.543	861
675.593	1315
675.643	1178
675.693	2063
675.743	716
675.793	1331
675.843	1589
675.893	439
675.943	1612
675.993	992
676.043	1698
676.093	1741
676.142	900
676.192	1511
676.242	1064
676.292	1104
676.341	632
676.391	1116
676.441	813
676.491	1025
676.540	405
676.590	1125
676.640	827
676.689	651
676.739	573
676.789	513
676.838	427
676.888	1070
676.937	832
676.987	1268
677.037	553
677.086	104
677.136	335
677.185	198
677.235	420
677.284	872
677.333	251
677.383	293
677.432	367
677.482	395
677.531	815
677.580	924
677.630	661
677.679	-65
677.728	1116
677.778	1035
677.827	494
677.876	927
677.925	438
677.975	536
678.024	617
678.073	868
678.122	995
678.171	89
678.220	175
678.269	1090
678.319	876
678.368	634
678.417	1739
678.466	970
678.515	897
678.564	1201
678.613	-2
678.662	172
678.711	1102
678.760	1087
678.809	986
678.857	315
678.906	709
678.955	296
679.004	991
679.053	529
679.102	496
679.151	715
679.199	1101
679.248	911
679.297	359
679.346	432
679.394	899
679.443	768
679.492	809
679.540	965
679.589	1117
679.638	353
679.686	720
679.735	804
679.784	645
679.832	-284
679.881	370
679.929	276
679.978	72
680.026	-27
680.075	1434
680.123	303
680.172	644
680.220	1117
680.268	28
680.317	288
680.365	506
680.414	-178
680.462	-656
680.510	1350
680.559	487
680.607	129
680.655	443
680.703	1219
680.752	309
680.800	90
680.848	586
680.896	213
680.945	-152
680.993	718
681.041	496
681.089	-180
681.137	558
681.185	258
681.233	-285
681.258	89
681.281	428
681.329	903
681.377	471
681.380	494
681.425	648
681.473	1335
681.502	628
681.521	106
681.569	1116
681.617	522
681.624	570
681.665	742
681.713	641
681.745	697
681.761	702
681.809	400
681.857	840
681.867	752
681.904	377
681.952	1027
681.989	436
682.000	243
682.048	1030
682.096	641
682.111	621
682.143	499
682.191	554
682.233	1456
682.239	1578
682.286	1022
682.334	960
682.354	1216
682.382	1543
682.430	1504
682.476	525
682.477	489
682.525	817
682.572	902
682.598	975
682.620	1044
682.667	1317
682.715	1381
682.720	1414
682.763	1510
682.810	1070
682.841	909
682.857	810
682.905	617
682.952	1398
682.963	1517
683.000	1910
683.047	895
683.085	2139
683.095	2454
683.142	1566
683.190	2466
683.206	1961
683.237	1020
683.284	1964
683.328	1808
683.332	1779
683.379	1771
683.426	1370
683.449	1546
683.473	1744
683.521	1740
683.568	2266
683.571	2235
683.615	1529
683.662	1260
683.693	1797
683.709	2122
683.757	1794
683.804	2169
683.814	2028
683.851	1431
683.898	1646
683.936	1576
683.945	1559
683.992	2099
684.039	1577
684.057	1882
684.086	2312
684.133	2181
684.179	1683
684.180	1657
684.227	2346
684.274	2221
684.300	2307
684.321	2338
684.368	2009
684.415	1846
684.422	1922
684.462	2410
684.509	2029
684.543	2432
684.556	2542
684.603	2259
684.649	2453
684.665	2090
684.696	1370
684.743	2545
684.786	1898
684.790	1833
684.837	2205
684.883	2148
684.908	2286
684.930	2468
684.977	2953
685.023	2669
685.029	2650
685.070	2204
685.117	2605
685.150	2602
685.164	2659
685.210	2904
685.257	4047
685.272	3753
685.303	2985
685.350	2497
685.393	3062
685.396	3108
685.443	2722
685.490	3034
685.514	2934
685.536	2811
685.583	3370
685.629	2687
685.636	2725
685.675	2876
685.722	2637
685.757	2675
685.768	2700
685.815	3182
685.861	3104
685.878	2996
685.908	2856
685.954	3797
686.000	3769
686.000	3762
686.047	3431
686.093	2904
686.121	3350
686.139	3684
686.185	2975
686.232	3659
686.242	3588
686.278	3210
686.324	3233
686.363	3080
686.370	3075
686.416	3353
686.463	3609
686.484	3642
686.509	3637
686.555	3497
686.601	3521
686.606	3555
686.647	3691
686.693	3633
686.727	3644
686.739	3698
686.785	3291
686.831	2994
686.848	3262
686.877	3586
686.923	3250
686.969	2872
686.969	2871
687.015	3023
687.061	3634
687.090	3897
687.107	4017
687.153	4217
687.199	3861
687.211	3814
687.245	3660
687.291	3326
687.332	3286
687.336	3303
687.382	3873
687.428	4009
687.453	4470
687.474	4582
687.520	3691
687.565	3253
687.574	3248
687.611	3594
687.657	2872
687.695	3767
687.702	3941
687.748	3938
687.794	4137
687.816	4331
687.839	4374
687.885	3828
687.931	3648
687.937	3637
687.976	3704
688.022	3696
688.058	3921
688.067	3984
688.113	3785
688.158	4028
688.179	4115
688.204	4269
688.249	4005
688.295	4568
688.300	4621
688.340	4855
688.386	4477
688.421	4086
688.431	3988
688.477	3990
688.522	4250
688.542	4061
688.567	3934
688.613	4432
688.658	4115
688.663	4129
688.703	4293
688.749	4423
688.784	4913
688.794	5022
688.839	4655
688.884	4323
688.905	4536
688.930	4732
688.975	4597
689.020	4408
689.026	4382
689.065	4407
689.110	4234
689.146	4461
689.155	4484
689.201	4282
689.246	3973
689.267	4005
689.291	4192
689.336	4673
689.381	4129
689.388	4227
689.426	4681
689.471	4272
689.509	4477
689.516	4515
689.561	4664
689.606	4577
689.630	4437
689.651	4354
689.696	4249
689.741	4547
689.750	4590
689.785	4825
689.830	4460
689.871	4509
689.875	4509
689.920	4610
689.965	4550
689.992	4775
690.010	4916
690.054	4663
690.099	4177
690.112	4140
690.144	4229
690.189	4660
690.233	4443
690.233	4449
690.278	4827
690.323	4936
690.354	4838
690.367	4777
690.412	5081
690.457	4840
690.474	4862
690.501	4937
690.546	5059
690.590	4984
690.595	4972
690.635	4979
690.680	5256
690.716	4926
690.724	4954
690.769	5797
690.813	6765
690.836	6899
690.857	7214
690.902	8265
690.946	9570
690.957	9790
690.991	12995
691.035	18179
691.077	22960
691.080	22952
691.124	20131
691.168	17444
691.198	16153
691.213	15028
691.257	11588
691.301	8055
691.318	6802
691.346	6597
691.390	6182
691.434	5787
691.439	5753
691.478	5922
691.522	5514
691.559	5641
691.567	5660
691.611	5244
691.655	4912
691.680	4820
691.699	4921
691.743	5231
691.787	5562
691.800	5545
691.831	5552
691.875	5678
691.919	5860
691.921	5850
691.964	5805
692.008	6046
692.041	6249
692.052	6299
692.096	5837
692.139	5854
692.162	5875
692.183	6013
692.227	6142
692.271	5908
692.282	5930
692.315	5837
692.359	5692
692.402	5548
692.403	5562
692.447	5770
692.490	5715
692.523	5953
692.534	6071
692.578	6145
692.622	6299
692.643	6460
692.666	6526
692.709	6088
692.753	6182
692.763	6147
692.797	5959
692.840	5652
692.884	5632
692.884	5648
692.928	5575
692.971	5546
693.004	5404
693.015	5401
693.059	6188
693.102	5951
693.124	5982
693.146	5963
693.189	6063
693.233	6237
693.245	6257
693.276	6477
693.320	6531
693.363	6317
693.365	6320
693.407	7233
693.450	7411
693.485	8082
693.493	8335
693.537	9155
693.580	10440
693.605	10993
693.624	12351
693.667	15553
693.710	18828
693.725	20066
693.753	26361
693.797	36433
693.840	46441
693.845	47419
693.883	42986
693.926	37073
693.966	32588
693.970	31899
694.013	24234
694.056	16526
694.086	11074
694.099	10720
694.142	10036
694.185	9032
694.206	8623
694.229	8392
694.272	7805
694.315	7270
694.326	7080
694.358	7084
694.401	7023
694.444	7108
694.446	7096
694.487	6923
694.530	6705
694.566	6334
694.573	6354
694.616	6299
694.659	6692
694.686	6790
694.702	6739
694.745	6455
694.787	6206
694.806	6140
694.830	6146
694.873	5946
694.916	6011
694.926	5944
694.959	6024
695.002	6034
695.044	6266
695.046	6257
695.087	6366
695.130	6517
695.166	6538
695.172	6557
695.215	6583
695.258	6695
695.286	6629
695.301	6636
695.343	6828
695.386	6865
695.406	6842
695.428	6640
695.471	6216
695.514	6036
695.526	5896
695.556	5941
695.599	6222
695.641	6224
695.646	6230
695.684	6456
695.726	6606
695.766	6586
695.769	6592
695.811	6532
695.854	6561
695.886	6529
695.896	6486
695.938	6112
695.981	5807
696.005	5664
696.023	5815
696.065	6032
696.108	6328
696.125	6405
696.150	6497
696.192	6608
696.235	6879
696.245	6904
696.277	6659
696.319	6077
696.361	5737
696.365	5689
696.404	6049
696.446	6348
696.485	6714
696.488	6741
696.530	6738
696.572	6750
696.604	6755
696.614	6731
696.656	6477
696.698	6351
696.724	6142
696.740	6197
696.783	6426
696.825	6630
696.844	6697
696.867	6517
696.909	6163
696.951	5727
696.964	5603
696.992	5866
697.034	6217
697.076	6454
697.083	6495
697.118	6661
697.160	6817
697.202	6856
697.203	6840
697.244	7096
697.286	7271
697.323	7268
697.327	7221
697.369	6818
697.411	6357
697.442	5916
697.453	5932
697.494	5964
697.536	6011
697.562	6001
697.578	6007
697.620	6038
697.661	5987
697.682	5948
697.703	5978
697.744	6017
697.786	6151
697.801	6137
697.828	6350
697.869	6641
697.911	6967
697.921	7021
697.952	6892
697.994	6758
698.035	6591
698.040	6546
698.077	6435
698.118	6296
698.160	6167
698.160	6146
698.201	6499
698.243	6737
698.279	7034
698.284	7074
698.325	7180
698.367	7306
698.399	7346
698.408	7322
698.449	7166
698.491	6988
698.518	6831
698.532	6849
698.573	6837
698.614	6881
698.638	6847
698.656	6878
698.697	6929
698.738	6978
698.757	6983
698.779	6898
698.820	6692
698.862	6475
698.877	6378
698.903	6619
698.944	6970
698.985	7320
698.996	7396
699.026	7123
699.067	6710
699.116	6199
699.235	6579
699.354	6311
699.474	6310
699.593	6567
699.713	7789
699.832	7687
699.951	6508
700.070	6631
700.190	6863
700.309	6099
700.428	6710
700.547	6066
700.667	6026
700.786	6704
700.905	6588
701.024	5452
701.143	6547
701.262	5248
701.381	5559
701.500	5772
701.619	6134
701.738	5419
701.857	5542
701.976	6146
702.095	5424
702.214	6072
702.333	6045
702.452	6457
702.571	5772
702.690	6088
702.809	5429
702.928	5393
703.047	6330
703.165	5635
703.284	5760
703.403	6020
703.522	5605
703.640	5710
703.759	6192
703.878	6954
703.997	5282
704.115	4833
704.234	5979
704.353	5378
704.471	5423
704.590	5318
704.708	4954
704.827	4978
704.946	4660
705.064	5675
705.183	5727
705.301	6735
705.420	10967
705.538	9577
705.656	7791
705.775	7304
705.893	10544
706.012	12660
706.130	8649
706.249	8126
706.367	8417
706.485	8507
706.604	6889
706.722	7587
706.840	7790
706.958	8454
707.077	7663
707.195	7647
707.313	7537
707.431	6899
707.549	6729
707.668	6645
707.786	6558
707.904	6825
708.022	6967
708.140	6540
708.258	6497
708.376	7635
708.494	6642
708.612	7957
708.730	11800
708.848	10646
708.966	9332
709.084	8368
709.202	9096
709.320	9998
709.438	9254
709.556	8765
709.674	9305
709.791	9221
709.909	9044
710.027	9466
710.145	8705
710.263	9634
710.380	8266
710.498	8572
710.616	8463
710.733	8278
710.851	8585
710.969	8060
711.086	8431
711.204	7656
711.322	8210
711.439	8860
711.557	7834
711.674	8060
711.792	7877
711.909	8220
712.027	8189
712.144	7421
712.262	7692
712.379	8895
712.497	12580
712.614	13695
712.732	11253
712.849	10448
712.966	10077
713.084	10615
713.201	11136
713.318	10230
713.436	11042
713.553	10495
713.670	10450
713.787	10585
713.905	10369
714.022	10885
714.139	8989
714.256	10232
714.373	10126
714.490	9800
714.608	10710
714.725	13634
714.842	12229
714.959	8958
715.076	8294
715.193	8441
715.310	9171
715.427	9548
715.544	8177
715.661	9016
715.778	8967
715.895	9505
716.011	8494
716.128	9009
716.245	8717
716.362	9551
716.479	8153
716.596	9061
716.713	8287
716.829	7639
716.946	8418
717.063	8561
717.180	7707
717.296	7792
717.413	8090
717.530	7822
717.646	7853
717.763	7922
717.880	7758
717.996	6808
718.113	6845
718.229	7261
718.346	7082
718.462	6990
718.579	7803
718.695	7990
718.812	8813
718.928	7855
719.045	8069
719.161	6928
719.277	6527
719.394	6516
719.510	7170
719.626	6500
719.743	8451
719.859	6738
719.975	7330
720.092	7713
720.208	9148
720.324	7190
720.440	8033
720.557	7255
720.673	8170
720.789	10025
720.905	15633
721.021	9167
721.137	6155
721.253	6968
721.369	6290
721.486	7220
721.602	8048
721.718	6045
721.834	5069
721.950	6503
722.066	6185
722.181	5665
722.297	6188
722.413	5580
722.529	6007
722.645	5432
722.761	5863
722.877	4876
722.993	5195
723.108	6201
723.224	5583
723.340	6024
723.456	5869
723.571	5405
723.687	5307
723.803	5481
723.918	4432
724.034	5211
724.150	5851
724.265	5793
724.381	8104
724.497	8593
724.612	5123
724.728	5032
724.843	4760
724.959	5187
725.074	7767
725.190	8070
725.305	5460
725.421	5153
725.536	4676
725.651	4962
725.767	5078
725.882	4559
725.997	4719
726.113	5448
726.228	4140
726.343	5002
726.459	4708
726.574	4704
726.689	4567
726.804	4837
726.920	4736
727.035	4624
727.150	4467
727.265	4400
727.380	4898
727.495	4004
727.610	4198
727.725	4506
727.841	4772
727.956	6402
728.071	6769
728.186	4636
728.301	3172
728.416	4619
728.531	4294
728.645	2666
728.760	4388
728.875	3845
728.990	4201
729.105	3552
729.220	4282
729.335	3637
729.449	4231
729.564	4551
729.679	4319
729.794	3428
729.908	4299
730.023	3795
730.138	3761
730.253	4290
730.367	4119
730.482	3790
730.596	3698
730.711	3524
730.826	4447
730.940	3338
731.055	3529
731.169	3112
731.284	3734
731.398	3161
731.513	3318
731.627	3356
731.742	3586
731.856	3842
731.970	2652
732.085	3401
732.199	3463
732.313	2849
732.428	3557
732.542	4372
732.656	3246
732.771	2805
732.885	3673
732.999	2923
733.113	3155
733.227	3113
733.342	3516
733.456	2868
733.570	3476
733.684	2489
733.798	3477
733.912	2786
734.026	3145
734.140	2502
734.254	3188
734.368	4340
734.482	5371
734.596	2343
734.710	2666
734.824	3207
734.938	3153
735.052	1697
735.166	2722
735.280	3432
735.393	2942
735.507	2411
735.621	3443
735.735	4554
735.849	3498
735.962	2163
736.076	2968
736.190	2863
736.303	3632
736.417	3602
736.531	2671
736.644	2063
736.758	2273
736.872	2913
736.985	2472
737.099	3047
737.212	3199
737.326	2260
737.439	3041
737.553	2817
737.666	2960
737.780	2319
737.893	3170
738.007	2993
738.120	2182
738.233	2678
738.347	2630
738.460	2872
738.573	2239
738.687	2879
738.800	3048
738.913	2580
739.026	3267
739.140	2561
739.253	2274
739.366	3102
739.479	2282
739.592	2080
739.705	1987
739.818	2472
739.932	2725
740.045	2382
740.158	2521
740.271	2376
740.384	2222
740.497	2281
740.610	3360
740.723	2040
740.836	2198
740.949	3064
741.062	3370
741.174	2805
741.287	2687
741.400	2251
741.513	2659
741.626	2597
741.739	2981
741.851	2145
741.964	2104
742.077	2190
742.189	3244
742.302	2360
742.415	3312
742.527	2505
742.640	2516
742.753	2555
742.865	2097
742.978	2310
743.090	1867
743.203	1790
743.316	2094
743.428	1528
743.541	2431
743.653	1685
743.766	2332
743.878	2517
743.990	2165
744.103	3256
744.215	3597
744.327	2202
744.440	3060
744.552	2843
744.664	1576
744.777	1822
744.889	2141
745.001	2723
745.113	2335
745.226	1319
745.338	2773
745.450	1462
745.562	1759
745.674	2631
745.786	1943
745.898	1991
746.010	2252
746.122	1689
746.234	2109
746.347	1860
746.459	3021
746.570	1778
746.682	2099
746.794	3871
746.906	3397
747.018	2104
747.130	2241
747.242	1804
747.354	2333
747.466	1881
747.577	2460
747.689	2186
747.801	2077
747.913	2367
748.024	1899
748.136	1672
748.248	2354
748.359	1514
748.471	1464
748.583	2030
748.694	2049
748.806	2606
748.918	2331
749.029	3023
749.141	2858
749.252	1994
749.364	1852
749.475	2963
749.587	2257
749.698	2347
749.809	2374
749.921	1634
750.032	2515
750.144	2117
750.255	2089
750.366	1705
750.478	2360
750.589	2031
750.700	1964
750.811	2567
750.923	2703
751.034	2618
751.145	2990
751.256	2158
751.367	2518
751.479	1922
751.590	1615
751.701	1577
751.812	1572
751.923	2251
752.034	1784
752.145	1481
752.256	1736
752.367	1581
752.478	2555
752.589	2405
752.700	2494
752.811	1914
752.922	1822
753.032	2264
753.143	2334
753.254	1879
753.365	2533
753.476	2108
753.586	1934
753.697	1777
753.808	2423
753.919	1832
754.029	1970
754.140	2067
754.251	2483
754.361	2268
754.472	1656
754.582	1609
754.693	1748
754.804	2561
754.914	1709
755.025	2697
755.135	2718
755.246	1833
755.356	1812
755.466	1672
755.577	2751
755.687	1711
755.798	2032
755.908	2176
756.018	1268
756.129	2264
756.239	2348
756.349	1446
756.460	1966
756.570	1916
756.680	2164
756.790	2172
756.900	2878
757.011	2420
757.121	1781
757.231	1905
757.341	2671
757.451	3199
757.561	2528
757.671	2138
757.781	1572
757.891	2000
758.001	2415
758.111	3143
758.221	2667
758.331	2023
758.441	3118
758.551	2834
758.661	2701
758.771	2474
758.880	2475
758.990	2728
759.100	2507
759.210	2844
759.320	3005
759.429	2798
759.539	2898
759.649	3101
759.758	2576
759.868	3312
759.978	2906
760.087	2913
760.197	3444
760.307	2482
760.416	3334
760.526	2649
760.635	2876
760.745	3972
760.854	3368
760.964	3759
761.073	3769
761.182	3524
761.292	3118
761.401	3571
761.511	3624
761.620	3485
761.729	4412
761.839	3233
761.948	4931
762.057	3676
762.166	4315
762.276	3412
762.385	5362
762.494	4337
762.603	5129
762.712	5376
762.822	5118
762.931	4829
763.040	5197
763.149	5258
763.258	6584
763.367	6359
763.476	6122
763.585	6664
763.694	7250
763.803	6692
763.912	8259
764.021	7625
764.130	8220
764.238	9095
764.347	10037
764.456	9398
764.565	11563
764.674	11599
764.783	12759
764.891	13592
765.000	16894
765.109	18342
765.217	20296
765.326	24332
765.435	29560
765.543	36316
765.652	44788
765.761	58486
765.869	81757
765.978	118352
766.086	181800
766.195	302116
766.303	501476
766.412	569391
766.520	513261
766.629	400384
766.737	237589
766.846	148814
766.954	100523
767.062	73506
767.171	56306
767.279	43265
767.387	34028
767.496	29195
767.604	25877
767.712	22682
767.820	20435
767.928	18866
768.037	16903
768.145	16754
768.253	16126
768.361	15386
768.469	15483
768.577	16075
768.685	16989
768.793	18047
768.901	18102
769.009	22220
769.117	27975
769.225	35511
769.333	48754
769.441	77383
769.549	130291
769.657	247714
769.765	463565
769.873	492175
769.981	366987
770.088	188934
770.196	104399
770.304	66755
770.412	47938
770.519	35705
770.627	28659
770.735	22931
770.842	18986
770.950	16255
771.058	14282
771.165	12636
771.273	12180
771.380	11551
771.488	10059
771.595	8915
771.703	7901
771.810	8234
771.918	7353
772.025	7106
772.133	6381
772.240	5256
772.348	6648
772.455	6303
772.562	5757
772.670	5104
772.777	5671
772.884	5078
772.991	4649
773.099	4237
773.206	3100
773.313	4884
773.420	3826
773.528	3510
773.635	4156
773.742	4365
773.849	3810
773.956	4031
774.063	3171
774.170	3189
774.277	4329
774.384	3079
774.491	3216
774.598	3605
774.705	3953
774.812	3022
774.919	3628
775.026	2624
775.133	2971
775.239	2621
775.346	2550
775.453	2470
775.560	3217
775.667	2019
775.773	2616
775.880	3324
775.987	3097
776.093	2823
776.200	2701
776.307	1969
776.413	3815
776.520	1877
776.627	2071
776.733	2016
776.840	1128
776.946	3230
777.053	3839
777.159	6058
777.266	2454
777.372	5905
777.478	4410
777.585	3603
777.691	2565
777.798	1953
777.904	2717
778.010	2411
778.117	2763
778.223	2519
778.329	1959
778.435	2471
778.542	2042
778.648	2318
778.754	1465
778.860	2728
778.966	1607
779.072	1511
779.178	2528
779.284	2545
779.391	1870
779.497	1572
779.603	4381
779.708	4082
779.815	13139
779.920	44307
780.026	72255
780.132	10561
780.238	2239
780.344	2656
780.450	2511
780.556	1788
780.661	1209
780.767	2594
780.873	2030
780.979	2043
781.085	1055
781.190	1616
781.296	1602
781.402	1382
781.507	1123
781.613	1508
781.719	1118
781.824	588
781.930	1863
782.035	1306
782.141	878
782.246	1718
782.352	1824
782.457	1156
782.563	1159
782.668	875
782.773	1369
782.879	1243
782.984	1880
783.090	1377
783.195	2001
783.300	936
783.405	1280
783.511	834
783.616	2226
783.721	1285
783.826	1302
783.932	1142
784.037	1409
784.142	867
784.247	1162
784.352	1134
784.457	1273
784.562	737
784.667	2219
784.772	726
784.877	190
784.982	1613
785.087	936
785.192	2172
785.297	820
785.402	736
785.507	865
785.611	406
785.716	1264
785.821	1445
785.926	735
786.031	537
786.135	1105
786.240	1028
786.345	329
786.450	905
786.554	1507
786.659	429
786.763	539
786.868	1099
786.973	1964
787.077	857
787.182	1460
787.286	458
787.391	1539
787.495	968
787.600	1228
787.704	578
787.809	1470
787.913	512
788.017	1461
788.122	1298
788.226	1910
788.330	431
788.435	933
788.539	273
788.643	1089
788.747	150
788.852	820
788.956	850
789.060	1343
789.164	776
789.268	54
789.372	1128
789.476	484
789.580	992
789.684	827
789.788	498
789.892	557
789.996	1701
790.100	407
790.204	600
790.308	1276
790.412	432
790.516	1671
790.620	592
790.724	1422
790.828	687
790.931	-173
791.035	2439
791.139	934
791.242	869
791.346	1728
791.450	322
791.554	635
791.657	453
791.761	1505
791.864	1056
791.968	622
792.072	1302
792.175	896
792.279	-102
792.382	470
792.486	1087
792.589	342
792.693	707
792.796	-646
792.899	1408
793.003	537
793.106	-1268
793.209	1028
793.313	2181
793.416	-144
793.519	1466
793.623	1410
793.726	974
793.829	939
793.932	247
794.035	-906
794.138	721
794.242	692
794.345	1305
794.448	2545
794.551	5006
794.654	23099
794.757	38113
794.860	6349
794.963	569
795.066	12
795.169	1386
795.272	361
795.375	298
795.477	219
795.580	324
795.683	155
795.786	622
795.889	-424
795.991	846
796.094	946
796.197	-285
796.300	1917
796.402	274
796.505	524
796.608	237
796.710	1007
796.813	522
796.915	411
797.018	554
797.120	1060
797.223	-1646
797.326	1308
797.428	-135
797.530	405
797.633	690
797.735	480
797.838	349
797.940	796
798.042	-701
798.145	473
798.247	1177
798.349	-747
798.452	987
798.554	430
798.656	-770
798.758	1256
798.860	212
798.962	350
799.065	58
799.167	247
799.269	1793
799.371	817
799.473	355
799.575	373
799.677	-767
799.779	1290
799.881	-1382
799.983	318
800.085	84
800.187	325
800.289	-815
800.390	595
800.492	25
800.594	1443
800.696	-68
800.798	532
800.899	-301
801.001	166
801.103	-488
801.205	203
801.306	-746
801.408	-272
801.509	-423
801.611	824
801.713	-124
801.814	675
801.916	654
802.017	-220
802.119	-105
802.220	-28
802.322	-1292
802.423	2026
802.525	-693
802.626	638
802.727	530
802.829	359
802.930	-1677
803.031	806
803.133	322
803.234	-201
803.335	308
803.436	-661
803.538	-172
803.639	-947
803.740	790
803.841	-19
803.942	202
804.043	455
804.144	-252
804.245	9
804.346	-940
804.447	-717
804.548	-174
804.649	668
804.750	-285
804.851	-525
804.952	-136
805.053	65
805.154	-1253
805.255	883
805.355	-131
805.456	-701
805.557	-544
805.658	-1088
805.758	235
805.859	324
805.960	211
806.061	-510
806.161	-1387
806.262	-116
806.362	183
806.463	-870
806.564	-485
806.664	-76
806.765	685
806.865	-21
806.966	-36
807.066	-70
807.166	154
807.267	679
807.367	-1130
807.468	-58
807.568	-616
807.668	295
807.769	19
807.869	-500
807.969	132
808.069	443
808.170	-363
808.270	-646
808.370	201
808.470	-16
808.570	-1207
808.670	-316
808.770	317
808.870	154
808.970	-431
809.070	-439
809.170	-784
809.271	746
809.370	-805
809.470	-366
809.570	-268
809.670	-327
809.770	217
809.870	514
809.970	-425
810.070	-269
810.169	93
810.269	-1159
810.369	521
810.469	5
810.568	356
810.668	-474
810.768	-349
810.867	132
810.967	-655
811.066	-956
811.166	-889
811.265	275
811.365	-312
811.464	-244
811.564	-382
811.663	-57
811.763	-1372
811.862	-87
811.962	69
812.061	-215
812.160	-912
812.260	55
812.359	413
812.458	233
812.557	1830
812.657	2319
812.756	-453
812.855	-282
812.954	-164
813.053	577
813.153	-415
813.252	-1296
813.351	19
813.450	-349
813.549	-292
813.648	20
813.747	-1147
813.846	-8
813.945	-960
814.044	-694
814.143	-424
814.242	-480
814.341	-771
814.439	-485
814.538	140
814.637	-942
814.736	-145
814.835	-219
814.933	-788
815.032	-1169
815.131	-721
815.229	-1151
815.328	-537
815.427	-443
815.525	-136
815.624	145
815.722	-506
815.821	214
815.919	-298
816.018	-771
816.116	-546
816.215	-422
816.313	22
816.412	-203
816.510	-207
816.609	1530
816.707	-638
816.805	-402
816.904	-880
817.002	520
817.100	184
817.198	341
817.296	-994
817.395	160
817.493	136
817.591	83
817.689	439
817.787	253
817.885	883
817.983	3147
818.081	8483
818.179	19466
818.277	53564
818.375	43451
818.473	7875
818.571	3092
818.669	1265
818.767	1141
818.865	1677
818.963	2066
819.061	2480
819.158	6053
819.256	16956
819.354	42802
819.452	99902
819.549	54899
819.647	10417
819.745	3320
819.842	1811
819.940	1386
820.038	822
820.135	449
820.233	1080
820.330	-732
820.428	-99
820.525	321
820.623	-447
820.720	-329
820.818	178
820.915	33
821.012	393
821.110	-278
821.207	349
821.304	-763
821.402	-302
821.499	369
821.596	1881
821.693	452
821.791	-181
821.888	-29
821.985	-246
822.082	-1154
822.179	774
822.276	387
822.373	-684
822.470	-441
822.567	-832
822.664	-256
822.761	421
822.858	-427
822.955	-499
823.052	343
823.149	-1046
823.246	-799
823.343	-730
823.440	-85
823.536	-1002
823.633	-835
823.730	-662
823.827	-437
823.923	-584
824.020	1375
824.117	-172
824.213	-672
824.310	331
824.407	-308
824.503	-120
824.600	302
824.696	85
824.793	-359
824.889	-1348
824.986	-476
825.082	29
825.179	-375
825.275	-1043
825.371	-1427
825.468	-205
825.564	-922
825.660	613
825.757	-554
825.853	-143
825.949	-972
826.045	-961
826.142	-1080
826.238	-725
826.334	-199
826.430	-1518
826.526	45
826.622	-1028
826.718	-348
826.814	-1803
826.910	1058
827.006	-628
827.102	-924
827.198	298
827.294	-442
827.390	-637
827.486	347
827.582	-1060
827.678	-344
827.774	-60
827.869	-1400
827.965	517
828.061	-436
828.157	-521
828.252	-664
828.348	-1165
828.444	207
828.539	-982
828.635	-701
828.731	75
828.826	-581
828.922	428
829.017	-417
829.113	-470
829.208	-664
829.304	-1350
829.399	7
829.495	-869
829.590	448
829.685	-812
829.781	-944
829.876	-1201
829.971	77
830.066	-903
830.162	-305
830.257	-905
830.352	-1326
830.447	43
830.543	-895
830.638	-2056
830.733	459
830.828	-862
830.923	130
831.018	-487
831.113	-229
831.208	-1325
831.303	-331
831.398	-1185
831.493	-784
831.588	-857
831.683	-1177
831.778	-611
831.873	-266
831.967	243
832.062	-1164
832.157	-989
832.252	-167
832.346	-1380
832.441	-300
832.536	-28
832.631	685
832.725	570
832.820	-829
832.914	-1461
833.009	-573
833.104	-856
833.198	-100
833.293	-717
833.387	-357
833.482	-988
833.576	-1340
833.670	-180
833.765	-1159
833.859	-1441
833.954	-562
834.048	-1364
834.142	-446
834.237	-493
834.331	-489
834.425	-638
834.519	-346
834.613	-191
834.708	-430
834.802	-522
834.896	-1068
834.990	-268
835.084	-362
835.178	-1161
835.272	-702
835.366	-968
835.460	448
835.554	-418
835.648	76
835.742	-347
835.836	-172
835.930	-1379
836.024	-295
836.117	-75
836.211	-928
836.305	587
836.399	196
836.493	-1318
836.586	-204
836.680	-950
836.774	-387
836.867	184
836.961	-904
837.055	80
837.148	-367
837.242	-357
837.335	-953
837.429	-410
837.522	-594
837.616	-62
837.709	495
837.803	-429
837.896	-81
837.989	-1595
838.083	433
838.176	327
838.269	-286
838.363	314
838.456	-498
838.549	-814
838.642	-914
838.735	898
838.829	476
838.922	-1020
839.015	-525
839.108	-1113
839.201	-1088
839.294	-767
839.387	-998
839.480	-1303
839.573	-8
839.666	-293
839.759	250
839.852	-1661
839.945	-800
840.038	-1496
840.131	-557
840.223	-742
840.316	1096
840.409	-983
840.502	-1548
840.594	232
840.687	-1633
840.780	-1136
840.873	-1079
840.965	-408
841.058	226
841.150	-23
841.243	-959
841.336	338
841.428	-1212
841.521	-487
841.613	-1042
841.706	-505
841.798	-1396
841.890	-445
841.983	-2160
842.075	154
842.167	-629
842.260	-820
842.352	117
842.444	-1224
842.537	1107
842.629	940
842.721	-377
842.813	-860
842.905	-1332
842.997	-1065
843.090	-245
843.182	-748
843.274	-26
843.366	1422
843.458	3346
843.550	2664
843.642	-831
843.734	-515
843.826	-424
843.918	-403
844.009	-424
844.101	-1622
844.193	-827
844.285	-580
844.377	-358
844.469	121
844.560	150
844.652	-49
844.744	46
844.835	-689
844.927	-447
845.019	-934
845.110	-770
845.202	-992
845.293	116
845.385	-947
845.476	-253
845.568	-768
845.659	-604
845.751	515
845.842	-971
845.934	-740
846.025	-932
846.116	42
846.208	-263
846.299	-892
846.390	-403
846.482	-734
846.573	261
846.664	-211
846.755	-1212
846.846	-141
846.937	-1401
847.029	-1202
847.120	-692
847.211	-497
847.302	-1
847.393	-1627
847.484	44
847.575	-506
847.666	-792
847.757	-838
847.847	-542
847.938	550
848.029	-930
848.120	-563
848.211	-1164
848.302	-434
848.392	-840
848.483	-221
848.574	-742
848.664	-1106
848.755	-117
848.846	-484
848.936	-1317
849.027	-720
849.118	-270
849.208	-1976
849.299	-184
849.389	-467
849.480	-744
849.570	-1227
849.661	-516
849.751	-312
849.841	-617
849.932	-878
850.022	-783
850.112	-1517
850.203	-637
850.293	-544
850.383	-370
850.474	-1331
850.564	-1099
850.654	-746
850.744	-61
850.834	-1018
850.924	-462
851.014	-491
851.104	-1149
851.194	-677
851.284	-553
851.374	-353
851.464	-677
851.554	-1007
851.644	-1052
851.734	-340
851.824	-1053
851.914	-662
852.004	-16
852.094	90
852.183	-610
852.273	-777
852.363	-1086
852.452	-526
852.542	-356
852.632	-816
852.721	-483
852.811	-1553
852.901	-265
852.990	-972
853.080	524
853.169	-1361
853.259	-1481
853.348	-1322
853.438	-417
853.527	-586
853.617	-1070
853.706	-203
853.795	-1169
853.885	360
853.974	-65
854.063	611
854.152	711
854.242	-403
854.331	-497
854.420	-672
854.509	-692
854.598	-790
854.687	-1512
854.777	-923
854.866	-1032
854.955	-849
855.044	-1204
855.133	-772
855.222	-708
855.311	-1264
855.400	-1601
855.488	-345
855.577	-1281
855.666	-386
855.755	-908
855.844	-578
855.933	-779
856.021	-822
856.110	-890
856.199	-1602
856.288	-765
856.376	-983
856.465	-18
856.554	-569
856.642	-1407
856.731	-1025
856.819	-827
856.908	-1157
856.996	-1756
857.085	-1010
857.173	-506
857.262	-610
857.350	-624
857.438	-1089
857.527	-1046
857.615	-1569
857.703	-774
857.792	-895
857.880	-1174
857.968	-1262
858.056	-1513
858.145	-1207
858.233	-1314
858.321	-1331
858.409	-103
858.497	-1312
858.585	-587
858.673	-577
858.761	-1545
858.849	-1008
858.937	-1198
859.025	-351
859.113	-1034
859.201	-1644
859.289	29
859.377	-1467
859.465	-1279
859.552	-1317
859.640	-822
859.728	-1479
859.816	-710
859.903	-1166
859.991	-1151
860.079	-1427
860.166	-819
860.254	-1138
860.342	-1203
860.429	-1476
860.517	-1655
860.604	-690
860.692	-808
860.779	-1175
860.867	-852
860.954	-864
861.042	-781
861.129	-1304
861.216	-509
861.304	-1773
861.391	-1426
861.478	-1486
861.565	-544
861.653	-840
861.740	-978
861.827	-1522
861.914	-849
862.001	-1011
862.089	-1634
862.176	-1179
862.263	-947
862.350	-1895
862.437	-1256
862.524	-1445
862.611	-369
862.698	-808
862.785	-689
862.871	-656
862.958	-1459
863.045	-1908
863.132	-400
863.219	-478
863.306	-1861
863.392	259
863.479	-302
863.566	-1436
863.652	-693
863.739	-1812
863.826	-952
863.912	-1655
863.999	-1661
864.086	-996
864.172	-1529
864.259	-1263
864.345	-422
864.432	-644
864.518	-827
864.604	-1428
864.691	-1243
864.777	-991
864.863	-1276
864.950	-919
865.036	-1101
865.122	-1701
865.209	-1212
865.295	-765
865.381	-897
865.467	-807
865.553	-2263
865.639	-1686
865.726	-1171
865.812	-600
865.898	-884
865.984	-2104
866.070	109
866.156	438
866.242	-1493
866.328	-1217
866.414	-1103
866.499	-986
866.585	-932
866.671	-1946
866.757	-589
866.843	-1558
866.928	-1205
867.014	-1885
867.100	-484
867.186	-1276
867.271	-61
867.357	-923
867.442	-353
867.528	-1071
867.614	-1027
867.699	-979
867.785	-439
867.870	-399
867.956	668
868.041	198
868.127	-432
868.212	-1094
868.297	214
868.383	-73
868.468	-892
868.553	-139
868.639	-690
868.724	-568
868.809	-82
868.894	-1204
868.979	-1025
869.065	-609
869.150	-1641
869.235	-1445
869.320	-2164
869.405	-1262
869.490	-813
869.575	-1508
869.660	-1005
869.745	-1470
869.830	-2110
869.915	-941
870.000	-950
870.085	-1382
870.169	-1507
870.254	-1219
870.339	-1511
870.424	-1863
870.509	-522
870.593	-1332
870.678	-1692
870.763	-1436
870.847	-1056
870.932	-1869
871.016	-836
871.101	-1470
871.186	-1342
871.270	-919
871.355	-1825
871.439	-1268
871.523	-1560
871.608	-1361
871.692	-641
871.777	-588
871.861	-1121
871.945	-1558
872.030	-905
872.114	-1061
872.198	-1690
872.282	-2366
872.367	-1032
872.451	-1113
872.535	-1102
872.619	-1264
872.703	-1159
872.787	-1083
872.871	-1475
872.955	-1998
873.039	-1526
873.123	-1595
873.207	-510
873.291	-2016
873.375	-1236
873.459	-1120
873.543	-636
873.627	-550
873.711	-1215
873.794	-765
873.878	-1276
873.962	-734
874.045	-2357
874.129	-1231
874.137	-1267
874.213	-1625
874.245	-1411
874.296	-1061
874.352	-1544
874.380	-1785
874.460	-1058
874.464	-1030
874.547	-1378
874.568	-1315
874.631	-1115
874.676	-1150
874.714	-1192
874.784	-1024
874.798	-984
874.881	192
874.892	30
874.965	-1124
874.999	-845
875.048	-453
875.107	-1323
875.131	-1690
875.215	-1402
875.215	-1403
875.298	-1952
875.323	-1613
875.381	-746
875.430	-1172
875.465	-1514
875.538	-1273
875.548	-1232
875.631	-1350
875.646	-1268
875.714	-1002
875.753	-1095
875.798	-1068
875.861	-1296
875.881	-1415
875.964	-839
875.968	-858
876.047	-1188
876.076	-1106
876.130	-886
876.183	-1035
876.213	-1141
876.291	-725
876.296	-702
876.379	-1367
876.398	-1263
876.462	-726
876.506	-419
876.545	-270
876.613	-1227
876.628	-1409
876.711	-896
876.721	-959
876.794	-1372
876.828	-1193
876.877	-1046
876.935	-983
876.960	-901
877.043	-1059
877.043	-1060
877.125	-1297
877.150	-1088
877.208	-545
877.258	-644
877.291	-714
877.365	-689
877.374	-687
877.456	-1113
877.472	-1087
877.539	-903
877.579	-769
877.622	-693
877.687	-473
877.704	-424
877.787	-812
877.794	-822
877.869	-687
877.901	-633
877.952	-754
878.008	-1048
878.034	-1088
878.115	-1092
878.117	-1092
878.199	-1034
878.222	-939
878.282	-800
878.329	-787
878.364	-702
878.437	-528
878.447	-532
878.529	-928
878.544	-971
878.611	-1246
878.651	-1166
878.694	-838
878.758	-414
878.776	-352
878.858	-1205
878.865	-1174
878.941	-820
878.972	-944
879.023	-1163
879.078	-1340
879.105	-1334
879.185	-920
879.187	-912
879.269	-919
879.292	-942
879.351	-1127
879.399	-1258
879.433	-1260
879.506	-164
879.516	-45
879.598	-536
879.613	-632
879.680	-985
879.720	-932
879.762	-796
879.827	-660
879.844	-598
879.926	-846
879.933	-774
880.007	-508
880.040	-683
880.089	-734
880.147	-728
880.171	-772
880.253	-637
880.254	-638
880.335	-324
880.360	-321
880.417	-344
880.467	-116
880.499	146
880.574	147
880.580	99
880.662	-334
880.680	-450
880.744	-714
880.787	-658
880.825	-597
880.893	-755
880.907	-782
880.989	-946
881.000	-915
881.070	-515
881.106	-481
881.152	-586
881.213	-730
881.233	-701
881.315	-320
881.319	-335
881.396	-539
881.426	-521
881.478	-762
881.532	-934
881.559	-812
881.639	-676
881.641	-688
881.722	-669
881.745	-863
881.803	-799
881.852	-650
881.885	-596
881.958	-373
881.966	-347
882.047	-254
882.064	-250
882.129	-320
882.171	8
882.210	260
882.277	-167
882.291	-263
882.372	-714
882.383	-724
882.454	-505
882.489	-304
882.535	-110
882.596	-605
882.616	-816
882.697	-837
882.702	-833
882.778	72
882.808	195
882.859	-292
882.914	-664
882.940	-683
883.020	-861
883.021	-858
883.102	-706
883.127	-699
883.183	-614
883.233	-342
883.264	-356
883.339	-592
883.345	-562
883.426	-406
883.445	-340
883.507	-370
883.551	-367
883.587	-280
883.657	-461
883.668	-540
883.749	-366
883.763	-462
883.830	-700
883.869	-625
883.910	-430
883.975	-369
883.991	-441
884.072	-789
884.081	-790
884.152	-73
884.187	50
884.233	-163
884.292	-336
884.314	-312
884.394	-70
884.398	-70
884.475	-445
884.504	-568
884.555	-292
884.610	-158
884.636	-218
884.716	249
884.716	254
884.797	-432
884.821	-415
884.877	-289
884.927	-405
884.958	-334
885.033	-161
885.038	-134
885.118	132
885.139	244
885.199	-480
885.244	-1020
885.279	-703
885.350	100
885.359	113
885.439	-174
885.456	-210
885.520	-379
885.561	-580
885.600	-347
885.667	150
885.680	60
885.760	-567
885.773	-609
885.840	-333
885.878	-320
885.920	-383
885.984	-563
886.000	-555
886.080	-645
886.089	-619
886.160	-703
886.195	-860
886.240	-585
886.300	-204
886.320	-239
886.400	-234
886.406	-236
886.480	9
886.511	35
886.560	-65
886.616	-186
886.640	-360
886.720	-922
886.722	-935
886.800	-332
886.827	-231
886.879	-353
886.932	-215
886.959	-44
887.038	193
887.039	192
887.119	-271
887.143	-470
887.198	-83
887.248	261
887.278	156
887.354	-66
887.358	-67
887.437	-208
887.459	-213
887.517	177
887.564	362
887.596	196
887.669	-111
887.676	-124
887.755	-272
887.774	-371
887.835	-115
887.880	295
887.914	191
887.985	-398
887.994	-361
888.073	231
888.090	314
888.153	43
888.195	-110
888.232	-44
888.300	60
888.311	113
888.391	457
888.405	512
888.470	4
888.510	-360
888.549	-94
888.615	403
888.628	328
888.708	-98
888.720	-176
888.787	201
888.825	385
888.866	245
888.930	46
888.945	40
889.024	4
889.035	-2
889.103	-107
889.140	-179
889.182	74
889.245	463
889.261	440
889.340	304
889.349	285
889.419	581
889.454	742
889.498	467
889.559	62
889.577	117
889.656	371
889.664	395
889.735	338
889.768	311
889.814	296
889.873	273
889.978	307
890.083	994
890.187	141
890.292	573
890.397	73
890.501	138
890.606	-226
890.710	504
890.815	244
890.919	632
891.024	-785
891.128	1200
891.233	417
891.337	287
891.442	-94
891.546	900
891.650	-446
891.755	-661
891.859	866
891.963	-295
892.068	400
892.172	379
892.276	314
892.380	-423
892.484	415
892.589	-522
892.693	274
892.797	-417
892.901	112
893.005	-425
893.109	-439
893.213	296
893.317	790
893.421	594
893.525	-242
893.629	698
893.733	-205
893.837	203
893.941	-636
894.045	863
894.148	-201
894.252	333
894.356	-4
894.460	-211
894.564	44
894.667	-519
894.771	-101
894.875	280
894.978	588
895.082	-902
895.186	841
895.289	291
895.393	855
895.496	38
895.600	134
895.703	-193
895.807	25
895.910	310
896.014	306
896.117	61
896.221	411
896.324	444
896.427	787
896.531	-373
896.634	-80
896.737	230
896.840	426
896.944	91
897.047	545
897.150	-46
897.253	-578
897.356	217
897.460	202
897.563	-449
897.666	-596
897.769	271
897.872	-436
897.975	454
898.078	146
898.181	-484
898.284	-398
898.387	442
898.490	20
898.593	1162
898.695	-231
898.798	-500
898.901	219
899.004	805
899.107	-364
899.209	-175
899.312	220
899.415	42
899.518	-152
899.620	702
899.723	-253
899.826	133
899.928	168
900.031	-547
900.133	60
900.236	282
900.338	-260
900.441	44
900.543	99
900.646	194
900.748	-1135
900.851	-264
900.953	-1488
901.055	-424
901.158	-370
901.260	194
901.362	441
901.465	102
901.567	484
901.669	986
901.771	-368
901.873	398
901.976	-668
902.078	355
902.180	529
902.282	56
902.384	566
902.486	46
902.588	-162
902.690	6
902.792	-56
902.894	628
902.996	24
903.098	-203
903.200	321
903.302	133
903.404	-241
903.505	100
903.607	-418
903.709	96
903.811	477
903.913	253
904.014	-385
904.116	532
904.218	-327
904.319	583
904.421	56
904.523	1110
904.624	-58
904.726	299
904.827	229
904.929	-60
905.030	117
905.132	516
905.233	197
905.335	-687
905.436	-448
905.537	-1043
905.639	-221
905.740	-27
905.841	-360
905.943	915
906.044	-168
906.145	-37
906.247	-156
906.348	333
906.449	-355
906.550	622
906.651	193
906.752	585
906.854	-70
906.955	-537
907.056	-1110
907.157	0
907.258	-261
907.359	153
907.460	54
907.561	-482
907.662	-155
907.762	178
907.863	-61
907.964	-19
908.065	400
908.166	-672
908.267	-54
908.367	-183
908.468	58
908.569	-25
908.670	-195
908.770	140
908.871	-241
908.971	-38
909.072	-3
909.173	-222
909.273	-672
909.374	-74
909.474	-401
909.575	-429
909.675	403
909.776	611
909.876	-597
909.977	368
910.077	422
910.177	368
910.278	13
910.378	437
910.478	-696
910.579	465
910.679	331
910.779	-335
910.879	-343
910.980	-158
911.080	357
911.180	143
911.280	280
911.380	277
911.480	-301
911.580	-149
911.680	-850
911.780	33
911.880	-260
911.980	-412
912.080	-713
912.180	73
912.280	-142
912.380	523
912.480	-2
912.580	341
912.679	-371
912.779	376
912.879	-529
912.979	-59
913.078	-573
913.178	493
913.278	-201
913.377	-910
913.477	-197
913.577	222
913.676	-335
913.776	149
913.875	-570
913.975	206
914.074	-208
914.174	-818
914.273	-925
914.373	453
914.472	-605
914.572	-980
914.671	-574
914.770	515
914.870	-223
914.969	-28
915.068	-61
915.167	270
915.267	44
915.366	-134
915.465	-623
915.564	-433
915.663	457
915.763	-283
915.862	22
915.961	-650
916.060	-659
916.159	73
916.258	-642
916.357	-2
916.456	198
916.555	27
916.654	-714
916.752	-81
916.851	-548
916.950	646
917.049	-722
917.148	-824
917.247	-143
917.345	531
917.444	277
917.543	-89
917.642	-558
917.740	-925
917.839	-280
917.937	-770
918.036	460
918.135	-419
918.233	-629
918.332	-43
918.430	-873
918.529	-683
918.627	192
918.726	-481
918.824	-525
918.923	-543
919.021	-220
919.119	-158
919.218	318
919.316	-568
919.414	-750
919.512	-263
919.611	-428
919.709	-1062
919.807	-202
919.905	-378
920.003	-796
920.102	-784
920.200	-196
920.298	-347
920.396	368
920.494	139
920.592	-691
920.690	172
920.788	-524
920.886	-408
920.984	-395
921.082	-615
921.180	-440
921.277	-633
921.375	-256
921.473	-358
921.571	-779
921.669	-7
921.766	-409
921.864	50
921.962	-726
922.060	264
922.157	37
922.255	-1058
922.352	-203
922.450	687
922.548	29
922.645	-789
922.743	-561
922.840	-220
922.938	-304
923.035	213
923.133	-504
923.230	-191
923.327	-285
923.425	-134
923.522	462
923.619	540
923.717	-741
923.814	-523
923.911	-660
924.008	-75
924.106	-392
924.203	-423
924.300	142
924.397	-330
924.494	-82
924.591	-1234
924.688	-1168
924.786	160
924.883	375
924.979	-1187
925.077	142
925.173	-556
925.270	-835
925.367	-441
925.464	23
925.561	-342
925.658	-1046
925.755	-821
925.852	-528
925.948	-141
926.045	-751
926.142	-306
926.239	266
926.335	33
926.432	64
926.529	794
926.625	-270
926.722	-1458
926.818	-335
926.915	-266
927.011	-286
927.108	-255
927.204	85
927.301	-207
927.397	-223
927.494	63
927.590	-1042
927.687	-59
927.783	-168
927.879	-656
927.976	-633
928.072	-791
928.168	-1
928.264	394
928.361	-522
928.457	108
928.553	-683
928.649	-422
928.745	-680
928.841	-462
928.937	-870
929.033	600
929.129	89
929.225	-234
929.321	-672
929.417	-71
929.513	-535
929.609	230
929.705	-930
929.801	-280
929.897	56
929.993	-60
930.089	-181
930.184	-193
930.280	-234
930.376	-885
930.471	-402
930.567	-1101
930.663	76
930.758	-724
930.854	-987
930.950	-901
931.045	-1183
931.141	-62
931.236	262
931.332	-310
931.427	-489
931.523	-26
931.618	880
931.714	-846
931.809	-564
931.905	-239
932.000	-79
932.095	230
932.191	-1206
932.286	145
932.381	-1057
932.476	-842
932.572	-696
932.667	-145
932.762	-8
932.857	384
932.952	-377
933.047	125
933.142	-890
933.237	-53
933.332	-22
933.427	-377
933.522	-404
933.617	-448
933.712	-271
933.807	-499
933.902	-891
933.997	-69
934.092	-574
934.187	-634
934.282	-792
934.376	-304
934.471	-1276
934.566	-772
934.661	-554
934.755	1050
934.850	-475
934.945	286
935.039	-555
935.134	-221
935.228	-1165
935.323	-484
935.417	-714
935.512	-241
935.606	-726
935.701	-740
935.795	-57
935.890	-271
935.984	-1176
936.079	274
936.173	-394
936.267	261
936.362	96
936.456	-734
936.550	275
936.644	-164
936.738	-167
936.833	-986
936.927	-226
937.021	-1132
937.115	-588
937.209	-106
937.303	238
937.397	-1061
937.491	-50
937.585	-528
937.679	239
937.773	-554
937.867	-353
937.961	29
938.055	-309
938.149	-249
938.243	-706
938.337	-69
938.430	27
938.524	4
938.618	193
938.712	462
938.805	-648
938.899	93
938.993	53
939.086	245
939.180	797
939.274	700
939.367	157
939.461	-493
939.554	-1091
939.648	-98
939.741	-313
939.835	-644
939.928	-272
940.022	-290
940.115	-624
940.208	-814
940.302	-530
940.395	268
940.488	-297
940.582	164
940.675	-693
940.768	-291
940.861	-949
940.954	-762
941.048	-198
941.141	-73
941.234	-185
941.327	-519
941.420	-13
941.513	-514
941.606	-100
941.699	491
941.792	-995
941.885	-745
941.978	-373
942.071	-645
942.164	-1451
942.257	-318
942.349	-509
942.442	-406
942.535	-362
942.628	-464
942.721	-160
942.813	-300
942.906	472
942.999	-223
943.091	-1208
943.184	-908
943.277	-1454
943.369	207
943.462	-969
943.554	-421
943.647	-1470
943.739	-1304
943.832	-754
943.924	-947
944.017	-597
944.109	-1242
944.201	-261
944.294	-431
944.386	-349
944.478	-935
944.571	-365
944.663	-435
944.755	-435
944.847	-226
944.940	-629
945.032	-1075
945.124	-289
945.216	-428
945.308	-1062
945.400	-221
945.492	-20
945.584	-1375
945.676	-702
945.768	-367
945.860	-834
945.952	-967
946.044	452
946.136	-1100
946.228	-423
946.320	-394
946.412	-594
946.503	-404
946.595	525
946.687	-1090
946.779	-1173
946.870	209
946.962	-999
947.054	82
947.145	-288
947.237	-503
947.329	-906
947.420	-206
947.512	-771
947.603	-575
947.695	360
947.786	-957
947.878	-1616
947.969	-43
948.061	-1036
948.152	-1112
948.243	-553
948.335	44
948.426	-833
948.517	-787
948.609	-420
948.700	-456
948.791	-896
948.882	-1214
948.973	-1220
949.065	-231
949.156	-786
949.247	-862
949.338	-459
949.429	-1466
949.520	-429
949.611	-1017
949.702	-549
949.793	-532
949.884	-986
949.975	-1005
950.066	-600
950.157	-976
950.247	-953
950.338	-706
950.429	-584
950.520	-302
950.611	-1735
950.701	-211
950.792	-1402
950.883	-492
950.973	-737
951.064	-487
951.155	-899
951.245	-424
951.336	-267
951.427	-1280
951.517	-486
951.608	-6
951.698	-990
951.788	-495
951.879	-710
951.969	-494
952.060	-459
952.150	-1298
952.240	-19
952.331	-2294
952.421	365
952.511	-953
952.602	-628
952.692	-289
952.782	-279
952.872	-669
952.962	-993
953.052	-681
953.143	-1896
953.233	-297
953.323	-399
953.413	-2029
953.503	-875
953.593	-377
953.683	-45
953.773	-1557
953.863	-809
953.953	-566
954.042	-547
954.132	-1648
954.222	-724
954.312	-971
954.402	-1008
954.492	-1070
954.581	-1427
954.671	-1212
954.761	-1229
954.850	45
954.940	-987
955.030	-1144
955.119	-778
955.209	-236
955.298	-1307
955.388	-953
955.477	-685
955.567	-1624
955.656	-1081
955.746	-666
955.835	-711
955.925	-599
956.014	-1197
956.103	-867
956.193	-1239
956.282	-938
956.371	-831
956.461	-916
956.550	-1565
956.639	-554
956.728	-810
956.817	-948
956.906	-1934
956.995	-559
957.085	-468
957.174	-1357
957.263	-706
957.352	-507
957.441	-1214
957.530	-793
957.619	-1191
957.708	-1203
957.796	-1100
957.885	-1298
957.974	-1208
958.063	-610
958.152	-1249
958.241	-605
958.329	-969
958.418	-1707
958.507	-2202
958.596	513
958.684	-1319
958.773	-811
958.861	-1007
958.950	-943
959.039	-661
959.127	-1219
959.216	-1096
959.304	-1067
959.393	-1680
959.481	-597
959.570	-863
959.658	-727
959.746	-848
959.835	-1331
959.923	-132
960.011	-644
960.100	-220
960.188	-789
960.276	-1078
960.365	-1364
960.453	-1474
960.541	-1650
960.629	-607
960.717	-645
960.805	-1011
960.893	-442
960.981	-1549
961.069	-336
961.158	-1200
961.245	-906
961.333	-1162
961.421	-1103
961.509	-799
961.597	-195
961.685	-1178
961.773	-1724
961.861	-1194
961.949	-570
962.036	-1344
962.124	-565
962.212	-1255
962.299	-1506
962.387	-1544
962.475	-946
962.562	-2006
962.650	-1007
962.738	-674
962.825	-1775
962.913	-229
963.000	-1195
963.088	-1319
963.175	-1277
963.263	-943
963.350	-1013
963.438	-1254
963.525	-647
963.612	-654
963.700	-599
963.787	276
963.874	-1120
963.962	-983
964.049	-737
964.136	-738
964.223	-1284
964.310	-776
964.398	-901
964.485	-1321
964.572	-809
964.659	9
964.746	-1195
964.833	-633
964.920	-305
965.007	-411
965.094	-1326
965.181	-1823
965.268	-1216
965.355	-1200
965.441	-1488
965.528	-1940
965.615	-697
965.702	-630
965.789	-1244
965.875	-1925
965.962	-1343
966.049	-909
966.136	-751
966.222	-1636
966.309	-1027
966.395	-1666
966.482	-865
966.569	-803
966.655	-568
966.742	-1563
966.828	-1388
966.915	-1247
967.001	-1067
967.087	-2007
967.174	-1339
967.260	-699
967.347	-971
967.433	-1301
967.519	-583
967.605	-2319
967.692	-1378
967.778	-813
967.864	-1189
967.950	-918
968.036	-1306
968.123	-904
968.209	-1664
968.295	-2078
968.381	-413
968.467	-1285
968.553	-1830
968.639	-1183
968.725	-1537
968.811	-944
968.897	-410
968.983	-1082
969.069	-2006
969.154	-1107
969.240	-776
969.326	-1725
969.412	-496
969.497	-1755
969.583	-805
969.669	-629
969.755	-658
969.840	-1105
969.926	-1175
970.012	-1512
970.097	-482
970.183	-2437
970.268	-1459
970.354	-1000
970.439	-1476
970.525	-623
970.610	-1660
970.696	-867
970.781	-1327
970.866	-1680
970.952	334
971.037	-1744
971.122	-1760
971.208	-704
971.293	-605
971.378	-2060
971.463	-1612
971.549	-336
971.634	-1087
971.719	-1031
971.804	-1786
971.889	-625
971.974	-1353
972.059	-1535
972.144	-1373
972.229	-1127
972.314	-1671
972.399	-1029
972.484	-1422
972.569	-1256
972.654	-1812
972.739	-413
972.824	-1673
972.908	-998
972.993	-1622
973.078	-1133
973.163	-647
973.247	-1045
973.332	-1894
973.417	-394
973.501	-1685
973.586	-444
973.671	-1022
973.755	-1317
973.840	-892
973.924	-826
974.009	-996
974.093	-1665
974.178	-1222
974.262	-627
974.346	-1011
974.431	-1350
974.515	-905
974.600	-1686
974.684	-487
974.768	-1899
974.852	-75
974.937	-1855
975.021	-345
975.105	-1112
975.189	-1199
975.273	-770
975.358	-1926
975.442	-2345
975.526	150
975.610	-1037
975.694	-1572
975.778	-215
975.862	-1161
975.946	-2640
976.030	356
976.114	-1474
976.198	-1090
976.281	-1897
976.365	-1068
976.449	-1536
976.533	-829
976.617	-1705
976.700	-833
976.784	-1375
976.868	-1360
976.951	-1310
977.035	-898
977.119	-1426
977.202	-892
977.286	-857
977.369	-1312
977.453	-1064
977.536	-1163
977.620	-1408
977.703	-488
977.787	-1951
977.870	-489
977.953	-1342
978.037	-2390
978.120	-1306
978.203	-1868
978.287	-633
978.370	-886
978.453	-1230
978.536	-1549
978.620	-517
978.703	-1259
978.786	-1854
978.869	-1079
978.952	-1909
979.035	-336
979.118	-774
979.201	-1674
979.284	-1411
979.367	-1500
979.450	-631
979.533	-1366
979.616	-1281
979.699	-1159
979.782	-779
979.865	-465
979.948	-1322
980.030	-1430
980.113	-1152
980.196	-1858
980.279	-1273
980.361	-874
980.444	-840
980.526	-723
980.609	-984
980.692	-746
980.774	-1399
980.857	-1950
980.939	-752
981.022	-1115
981.104	-1838
981.187	-748
981.269	-740
981.352	-455
981.434	-1952
981.516	-1868
981.599	-710
981.681	-1212
981.763	-798
981.846	-1255
981.928	-484
982.010	-2334
982.092	-1824
982.174	-786
982.256	-1419
982.339	-1400
982.421	-1039
982.503	-776
982.585	-1419
982.667	-564
982.749	-1905
982.831	-1284
982.913	-2527
982.995	246
983.077	-1598
983.158	-1027
983.240	-2477
983.322	-364
983.404	-1202
983.486	-1432
983.568	-1187
983.649	-2005
983.731	-1505
983.813	-974
983.894	-490
983.976	-2162
984.058	-2072
984.139	-1198
984.221	-2256
984.302	-555
984.384	-1516
984.465	-1315
984.547	-828
984.628	-1307
984.710	-230
984.791	-1535
984.872	-1355
984.954	-1686
985.035	-1238
985.116	-1280
985.198	-1236
985.279	99
985.360	-1346
985.441	-1517
985.522	-806
985.604	-997
985.685	-2778
985.766	-695
985.847	-165
985.928	-1572
986.009	-813
986.090	-1315
986.171	-1101
986.252	-1719
986.333	-1024
986.414	-1491
986.495	-1964
986.576	-769
986.656	-1389
986.737	-1190
986.818	-566
986.899	-1677
986.980	-1349
987.060	-999
987.141	-1497
987.222	-1581
987.302	-1336
987.383	-353
987.464	-1188
987.544	-969
987.625	-1755
987.705	-1174
987.786	-1009
987.866	-1164
987.947	-1354
988.027	-730
988.108	-1796
988.188	-852
988.268	-926
988.349	-1547
988.429	-1535
988.509	-822
988.589	-1662
988.670	-2814
988.750	-562
988.830	-1707
988.910	-667
988.990	-1378
989.070	-1190
989.151	-548
989.231	-2124
989.311	-1099
989.391	-1335
989.471	-944
989.551	-1133
989.631	-2255
989.711	-1049
989.791	-1981
989.870	-2391
989.950	-774
990.030	-2023
990.110	-1301
990.190	-2200
990.269	-1560
990.349	-1248
990.429	-1935
990.509	-481
990.588	-1571
990.668	-2010
990.747	-1120
990.827	-948
990.907	-1021
990.986	-1285
991.066	-747
991.145	-1938
991.225	-700
991.304	-1841
991.383	-1646
991.463	-1118
991.542	-1254
991.622	-1005
991.701	-1527
991.780	-1391
991.859	-1230
991.939	-539
992.018	-1233
992.097	-1006
992.176	-957
992.256	-1452
992.335	-1425
992.414	-834
992.493	-2795
992.572	-2102
992.651	-1295
992.730	-1554
992.809	-1421
992.888	-2176
992.967	-1253
993.046	-1233
993.125	-1806
993.203	-967
993.282	-1403
993.361	-936
993.440	-921
993.519	-2200
993.597	-1113
993.676	-1229
993.755	-1448
993.834	-1303
993.912	-2150
993.991	-906
994.069	-2799
994.148	-2018
994.226	-1595
994.305	-644
994.384	-1485
994.462	-1284
994.540	-2335
994.619	-2234
994.697	-1725
994.776	-1623
994.854	-596
994.932	-2067
995.011	-710
995.089	-1107
995.167	-1428
995.245	-1422
995.324	-1997
995.402	-165
995.480	-1564
995.558	-2059
995.636	-1485
995.714	-2157
995.792	-1160
995.870	-1081
995.948	-1185
996.026	-1502
996.104	-1359
996.182	-1424
996.260	-1729
996.338	-1720
996.416	-1381
996.494	-1473
996.572	-1152
996.649	-1629
996.727	-2065
996.805	-1864
996.883	-1905
996.960	-1659
997.038	-950
997.116	-1328
997.193	-1628
997.271	-1227
997.348	-1874
997.426	-1508
997.504	-1275
997.581	-717
997.658	-804
997.736	-2097
997.813	-1396
997.891	-532
997.968	-1449
998.046	-1464
998.123	-2275
998.200	-971
998.277	-1968
998.355	-903
998.432	-2180
998.509	-1049
998.586	-638
998.663	-1643
998.741	-708
998.818	-1744
998.895	-2585
998.972	-784
999.049	-1694
999.126	-1721
999.203	-1144
999.280	-2126
999.357	-1888
999.434	-1175
999.511	-1221
999.587	-681
999.664	-1800
999.741	-1485
999.818	-993
999.895	-2181
999.971	-1556
1000.048	-1033
1000.125	-1369
1000.202	-2604
1000.278	-1751
1000.355	-986
1000.431	-2235
1000.508	-1739
1000.584	-1342
1000.661	-1227
1000.738	-1192
1000.814	-2037
1000.890	-1010
1000.967	-2031
1001.043	-1075
1001.120	-2040
1001.196	-1457
1001.272	-2238
1001.349	-1335
1001.425	-1065
1001.501	-1480
1001.577	-1732
1001.654	-1255
1001.730	-2545
1001.806	-1512
1001.882	-2219
1001.958	-1470
1002.034	-858
1002.110	-1893
1002.186	-1925
1002.262	-1494
1002.338	-2429
1002.414	-1079
1002.490	-986
1002.566	-1987
1002.642	-1572
1002.718	-1348
1002.794	-1653
1002.870	-1200
1002.945	-2080
1003.021	-1217
1003.097	-1949
1003.173	-1592
1003.248	-2418
1003.324	-2006
1003.400	-1442
1003.475	-1560
1003.551	-1641
1003.626	-429
1003.702	-1789
1003.777	-1498
1003.853	-1416
1003.928	-2186
1004.004	-2115
1004.079	-1102
1004.155	-2553
1004.230	-2540
1004.305	-794
1004.381	-2202
1004.456	-783
1004.531	-1402
1004.607	-691
1004.682	-1356
1004.757	-1706
1004.832	-1580
1004.907	-1902
1004.982	-1145
1005.057	-1613
1005.133	-1378
1005.208	-1030
1005.283	-1777
1005.358	-794
1005.433	-1981
1005.508	-998
1005.583	-1713
1005.657	-1998
1005.732	-1308
1005.807	-1564
1005.882	-2037
1005.957	-1121
1006.032	-1253
1006.106	-1646
1006.181	-1876
1006.256	-1772
1006.331	-1551
1006.405	-2415
1006.480	-1491
1006.554	-1929
1006.629	-1455
1006.704	-2468
1006.778	-2156
1006.853	-1354
1006.927	-2140
1007.002	-1279
1007.076	-1103
1007.150	-1914
1007.225	-1059
1007.299	-1164
1007.373	-2870
1007.448	-1488
1007.522	-1001
1007.596	-1106
1007.671	-2255
1007.745	-1300
1007.819	-1723
1007.893	-2416
1007.967	-301
1008.041	-2154
1008.115	-637
1008.190	-2147
1008.264	-1038
1008.338	-2952
1008.412	-1849
1008.486	-1644
1008.560	-1150
1008.633	-2424
1008.707	-2025
1008.781	-1509
1008.855	-2114
1008.929	-1180
1009.003	-1846
1009.076	-2002
1009.150	-1893
1009.224	-1173
1009.298	-1069
1009.371	-1450
1009.445	-1059
1009.519	-1676
1009.592	-2035
1009.666	-1934
1009.739	-655
1009.813	-2663
1009.886	-984
1009.960	-1988
1010.033	-1790
1010.107	-1155
1010.180	-1760
1010.253	-2194
1010.327	-1865
1010.400	-1586
1010.473	-1370
1010.547	-1120
1010.620	-1547
1010.693	-447
1010.766	-2339
1010.840	-730
1010.913	-1349
1010.986	-1960
1011.059	-1142
1011.132	-2232
1011.205	-985
1011.278	-1150
1011.351	-1497
1011.424	-2803
1011.497	-1958
1011.570	-1358
1011.643	-2163
1011.716	-1936
1011.789	-1584
1011.862	-1435
1011.934	-1706
1012.007	-2433
1012.080	-1530
1012.153	-1118
1012.225	-1165
1012.298	-2032
1012.371	-1983
1012.443	-1264
1012.516	-2188
1012.588	-1274
1012.661	-1616
1012.733	-2324
1012.806	-433
1012.879	-1949
1012.951	-1243
1013.023	-1257
1013.096	-1822
1013.168	-1778
1013.241	-1724
1013.313	-1449
1013.385	-2076
1013.458	-1481
1013.530	-1894
1013.602	-2702
1013.674	-993
1013.746	-2039
1013.819	-2252
1013.891	-517
1013.963	-1597
1014.035	-1958
1014.107	-1500
1014.179	-1782
1014.251	-1758
1014.323	-1451
1014.395	-1051
1014.467	-1494
1014.539	-1247
1014.611	-1699
1014.683	-1185
1014.754	-1750
1014.826	-1675
1014.898	-1374
1014.970	-1858
1015.042	-1074
1015.113	-1429
1015.185	-621
1015.257	-1856
1015.328	-1312
1015.400	-1646
1015.471	-1763
1015.543	-2538
1015.615	-767
1015.686	-2137
1015.757	-1546
1015.829	-1682
1015.901	-1986
1015.972	-1549
1016.043	-1465
1016.115	-1328
1016.186	-1639
1016.257	-2335
1016.328	-1710
1016.400	-1166
1016.471	-1808
1016.542	-1960
1016.613	-1662
1016.685	-1615
1016.756	-1182
1016.827	-1706
1016.898	-1484
1016.969	-1407
1017.040	-1880
1017.111	-1648
1017.182	-2000
1017.253	-1168
1017.324	-2829
1017.395	-2221
1017.466	-1602
1017.537	-1935
1017.608	-1228
1017.678	-1610
1017.749	-1613
1017.820	-1114
1017.891	-1699
1017.961	-2013
1018.032	-1386
1018.103	-1504
1018.173	-1403
1018.244	-1729
1018.315	-1487
1018.385	-1012
1018.456	-2156
1018.526	-1413
1018.597	-2187
1018.667	-1692
1018.738	-2364
1018.808	-1632
1018.878	-1274
1018.949	-1559
1019.019	-1777
1019.089	-1940
1019.160	-828
1019.230	-1646
1019.300	-915
1019.371	-2354
1019.441	-714
1019.511	-1348
1019.581	-1941
1019.651	-1859
1019.721	-1697
1019.791	-1431
1019.861	-1702
1019.931	-919
1020.001	-1668
1020.071	-1160
1020.141	-1796
1020.211	-1502
1020.281	-2292
1020.351	-2423
1020.421	-1883
1020.491	-989
1020.560	-1822
1020.630	-1824
1020.700	-2264
1020.770	-1387
1020.839	-1390
1020.909	-1884
1020.979	-1909
1021.048	-1337
1021.118	-1554
1021.187	-1355
1021.257	-1706
1021.326	-2142
1021.396	-2008
1021.465	-1982
1021.535	-1950
1021.604	-1676
1021.674	-1372
1021.743	-1116
1021.812	-1581
1021.882	-855
1021.951	-1862
1022.020	-2307
1022.089	-1186
1022.159	-1409
1022.228	-1554
1022.297	-1905
1022.366	-1707
1022.435	-1412
1022.504	-1361
1022.573	-1549
1022.642	-1601
1022.711	-1684
1022.781	-1372
1022.849	-1642
1022.918	-1892
1022.987	-1446
1023.056	-1265
1023.125	-1460
1023.194	-1911
1023.263	-1530
1023.331	-2060
1023.400	-1855
1023.469	-1747
1023.538	-698
1023.606	-1434
1023.675	-1691
1023.744	-1396
1023.812	-1799
1023.881	-1821
1023.949	-986
1024.018	-1755
1024.086	-1400
1024.155	-1780
1024.223	-2533
1024.292	-1982
1024.360	-1205
1024.429	-885
1024.497	-1438
1024.565	-1624
1024.634	-1684
1024.702	-1606
1024.770	-1349
1024.838	-2459
1024.907	-1528
1024.975	-2702
1025.043	-590
1025.111	-2638
1025.179	-1472
1025.247	-705
1025.315	-1983
1025.383	-2489
1025.451	-1164
1025.519	-1611
1025.587	-1701
1025.655	-1831
1025.723	-2166
1025.791	-1697
1025.859	-1361
1025.927	-629
1025.995	-1650
1026.062	-1606
1026.130	-1365
1026.198	-1801
1026.266	-1913
1026.333	-1484
1026.401	-1446
1026.469	-1770
1026.536	-1019
1026.604	-2335
1026.671	-1224
1026.739	-2640
1026.806	-2291
1026.874	-1748
1026.941	-1449
1027.009	-1655
1027.076	-1966
1027.144	-670
1027.211	-1955
1027.278	-2013
1027.345	-1568
1027.413	-1422
1027.480	-2169
1027.547	-1668
1027.614	-2358
1027.682	-1324
1027.749	-1871
1027.816	-1144
1027.883	-1645
1027.950	-1682
1028.017	-1985
1028.084	-1448
1028.151	-1954
1028.218	-1236
1028.285	-1860
1028.352	-2239
1028.419	-1575
1028.486	-2627
1028.553	-1300
1028.619	-2086
1028.686	-1536
1028.753	-2394
1028.820	-2124
1028.886	-1784
1028.953	-1032
1029.020	-2143
1029.086	-1998
1029.153	-2548
1029.220	-2661
1029.286	-2281
1029.353	-1181
1029.419	-2216
1029.486	-1379
1029.552	-2124
1029.619	-2016
1029.685	-1944
1029.751	-1586
1029.818	-944
1029.884	-2757
1029.951	-928
1030.017	-1859
1030.083	-1630
1030.149	-1529
1030.216	-1947
1030.282	-1438
1030.348	-1769
1030.414	-1568
1030.480	-2348
1030.546	-2080
1030.612	-1387
1030.678	-2382
1030.744	-1486
1030.810	-2185
1030.876	-1314
1030.942	-1188
1031.008	-1496
1031.074	-1638
1031.140	-1444
1031.206	-2030
1031.272	-1849
1031.337	-1879
1031.403	-1939
1031.469	-1385
1031.534	-1714
1031.600	-1951
1031.666	-2199
1031.731	-1856
1031.797	-2277
1031.863	-1673
1031.928	-1919
1031.994	-1743
1032.059	-1100
1032.125	-2508
1032.190	-2571
1032.256	-1652
1032.321	-1947
1032.386	-2094
1032.452	-1438
1032.517	-2376
1032.582	-1939
1032.647	-1296
1032.713	-2762
1032.778	-1183
1032.843	-2086
1032.908	-2558
1032.974	-2378
1033.039	-1872
1033.104	-2169
1033.169	-1660
1033.234	-1885
1033.299	-1558
1033.364	-1840
1033.429	-1420
1033.494	-1668
1033.559	-1369
1033.624	-2057
1033.688	-1282
1033.753	-1858
1033.818	-1733
1033.883	-841
1033.948	-1585
1034.013	-2016
1034.077	-2752
1034.142	-1665
1034.207	-2554
1034.271	-2019
1034.336	-1116
1034.400	-1850
1034.465	-1790
1034.530	-1404
1034.594	-1706
1034.658	-896
1034.723	-1617
1034.787	-1907
1034.852	-1925
1034.916	-1933
1034.981	-1793
1035.045	-1598
1035.109	-1562
1035.173	-1452
1035.238	-2250
1035.302	-1582
1035.366	-1233
1035.430	-2238
1035.495	-1991
1035.559	-1477
1035.623	-1602
1035.687	-1822
1035.751	-1829
1035.815	-1963
1035.879	-1783
1035.943	-1557
1036.007	-2010
1036.071	-2069
1036.135	-1549
1036.198	-1624
1036.262	-2609
1036.326	-1687
1036.390	-1536
1036.454	-2128
1036.517	-2067
1036.581	-2154
1036.645	-1876
1036.709	-2587
1036.772	-2307
1036.836	-1643
1036.900	-1583
1036.963	-1655
1037.026	-1822
1037.090	-2032
1037.154	-1848
1037.217	-1920
1037.280	-2345
1037.344	-1651
1037.407	-2251
1037.471	-2135
1037.534	-2022
1037.597	-2071
1037.661	-2370
1037.724	-1397
1037.787	-2232
1037.850	-976
1037.913	-1034
1037.977	-1805
1038.040	-2222
1038.103	-1679
1038.166	-1883
1038.229	-1922
1038.292	-1938
1038.355	-2227
1038.418	-2123
1038.481	-1690
1038.544	-2061
1038.607	-1641
1038.670	-2193
1038.732	-1530
1038.795	-1933
1038.858	-2789
1038.921	-1235
1038.984	-1331
1039.046	-1771
1039.109	-2242
1039.172	-1943
1039.234	-1285
1039.297	-1715
1039.360	-1776
1039.422	-1418
1039.485	-2212
1039.547	-2256
1039.610	-1217
1039.672	-1437
1039.734	-1827
1039.797	-1555
1039.859	-1877
1039.922	-1878
1039.984	-1697
1040.046	-1531
1040.109	-1302
1040.171	-1680
1040.233	-1707
1040.295	-1731
1040.358	-2475
1040.420	-1808
1040.482	-1954
1040.544	-1948
1040.606	-2063
1040.668	-2031
1040.730	-2518
1040.792	-1537
1040.854	-2632
1040.916	-856
1040.978	-2234
1041.040	-867
1041.102	-2130
1041.164	-2238
1041.225	-2343
1041.287	-1501
1041.349	-1295
1041.411	-1984
1041.472	-1183
1041.534	-1499
1041.596	-2261
1041.657	-2197
1041.719	-2362
1041.781	-1709
1041.842	-1394
1041.904	-1921
1041.965	-2110
1042.027	-1489
1042.088	-1729
1042.150	-2258
1042.211	-1794
1042.272	-1302
1042.334	-1626
1042.395	-1173
1042.456	-2307
1042.518	-1970
1042.579	-1153
1042.640	-1513
1042.701	-1112
1042.763	-2075
1042.824	-2377
1042.885	-1678
1042.946	-1928
1043.007	-1402
1043.068	-2184
1043.129	-2034
1043.190	-1724
1043.251	-1357
1043.312	-1768
1043.373	-1095
1043.434	-2181
1043.495	-1716
1043.556	-1180
1043.616	-1307
1043.677	-2211
1043.738	-1493
1043.799	-2158
1043.859	-1618
1043.920	-1637
1043.981	-1324
1044.041	-2129
1044.102	-1988
1044.162	-1975
1044.223	-1894
1044.284	-2090
1044.344	-1283
1044.405	-1497
1044.465	-1346
1044.525	-2489
1044.586	-1633
1044.646	-1403
1044.707	-1445
1044.767	-1423
1044.827	-2380
1044.887	-1518
1044.948	-2056
1045.008	-1846
1045.068	-1009
1045.128	-1652
1045.188	-1101
1045.249	-1001
1045.309	-1516
1045.369	-996
1045.429	-1967
1045.489	-1468
1045.549	-1569
1045.609	-537
1045.669	-1748
1045.729	-1626
1045.789	-1626
1045.848	-1745
1045.908	-454
1045.968	-934
1046.028	-1134
1046.088	-1337
1046.147	-557
1046.207	-688
1046.267	-501
1046.326	-1699
1046.386	-845
1046.446	-985
1046.505	-517
1046.565	-693
1046.624	-1134
1046.684	-514
1046.743	-356
1046.803	-115
1046.862	-127
1046.922	0
