'Start Wavelength	183.907
'End Wavelength	1046.922
'Gate Delay	5.000
'Gate Width (ms)	1.050
'Laser Output Level	0.000
'X Position	0.000
'Y Position	0.000
'Z Position	0.000
'Grid Point Number	1.000
'Shot Number	100.000
183.907	921.000
183.977	-42.000
184.047	171
184.116	485
184.186	410
184.256	13
184.325	35
184.395	530
184.465	509
184.534	435
184.604	-376
184.674	63
184.743	-170
184.813	483
184.883	-237
184.952	340
185.022	188
185.092	-946
185.161	292
185.231	-211
185.301	-431
185.370	-193
185.440	-491
185.509	-257
185.579	54
185.649	213
185.718	560
185.788	633
185.857	-58
185.927	301
185.996	-558
186.066	-381
186.136	-980
186.205	143
186.275	319
186.344	164
186.414	-382
186.483	333
186.553	225
186.622	1226
186.692	-338
186.761	576
186.831	113
186.900	-1000
186.970	620
187.039	465
187.109	1275
187.178	603
187.248	611
187.317	450
187.387	665
187.456	564
187.526	75
187.595	910
187.664	629
187.734	898
187.803	412
187.873	597
187.942	583
188.012	623
188.081	351
188.150	373
188.220	317
188.289	910
188.358	367
188.428	183
188.497	-630
188.567	1055
188.636	407
188.705	-88
188.775	360
188.844	288
188.913	734
188.983	54
189.052	143
189.121	1018
189.191	421
189.260	242
189.329	640
189.399	209
189.468	85
189.537	270
189.606	506
189.676	599
189.745	188
189.814	358
189.883	948
189.953	675
190.022	720
190.091	2175
190.161	1750
190.230	1635
190.299	-97
190.368	-428
190.437	-56
190.507	155
190.576	267
190.645	519
190.714	-71
190.783	-124
190.853	608
190.922	653
190.991	-73
191.060	579
191.129	-809
191.198	631
191.268	-230
191.337	615
191.406	109
191.475	924
191.544	614
191.613	404
191.682	377
191.752	726
191.821	380
191.890	129
191.959	113
192.028	829
192.097	153
192.166	876
192.235	206
192.304	124
192.373	-159
192.442	521
192.511	-123
192.580	322
192.650	-468
192.719	277
192.788	771
192.857	257
192.926	426
192.995	1063
193.064	483
193.133	1300
193.202	1963
193.271	1781
193.340	1554
193.409	1733
193.478	1179
193.547	2002
193.615	2744
193.684	2838
193.753	1357
193.822	1714
193.891	525
193.960	1168
194.029	-257
194.098	492
194.167	651
194.236	995
194.305	267
194.374	-314
194.443	997
194.512	1345
194.580	864
194.649	707
194.718	1030
194.787	717
194.856	170
194.925	1195
194.994	92
195.062	729
195.131	1197
195.200	1208
195.269	1455
195.338	1003
195.407	1137
195.475	518
195.544	937
195.613	380
195.682	679
195.751	1187
195.819	1665
195.888	290
195.957	1190
196.026	1357
196.094	1246
196.163	1243
196.232	1535
196.301	1436
196.369	567
196.438	1016
196.507	221
196.576	838
196.644	168
196.713	767
196.782	474
196.850	649
196.919	177
196.988	1152
197.056	-86
197.125	804
197.194	93
197.262	889
197.331	-155
197.400	-190
197.468	1039
197.537	-313
197.606	436
197.674	770
197.743	2352
197.812	2037
197.880	2460
197.949	1888
198.017	1413
198.086	2030
198.155	1460
198.223	1093
198.292	3020
198.360	898
198.429	1310
198.497	805
198.566	1299
198.635	3036
198.703	1491
198.772	1588
198.840	2941
198.909	2652
198.977	1440
199.046	509
199.114	1446
199.183	1786
199.251	287
199.320	900
199.388	420
199.457	665
199.525	46
199.594	723
199.662	656
199.731	767
199.799	1068
199.867	873
199.936	609
200.004	960
200.073	801
200.141	839
200.210	-460
200.278	1142
200.346	1213
200.415	1490
200.483	1022
200.552	1131
200.620	302
200.688	1051
200.757	312
200.825	741
200.893	814
200.962	1
201.030	494
201.098	1482
201.167	421
201.235	526
201.303	1253
201.372	960
201.440	1322
201.508	1359
201.577	960
201.645	1159
201.713	580
201.781	546
201.850	2090
201.918	1259
201.986	974
202.055	1255
202.123	1320
202.191	1084
202.259	419
202.327	474
202.396	265
202.464	864
202.532	1669
202.600	4847
202.669	2636
202.737	1427
202.805	1011
202.873	1062
202.941	1268
203.009	995
203.078	838
203.146	1596
203.214	677
203.282	371
203.350	1513
203.418	596
203.487	590
203.555	514
203.623	831
203.691	679
203.759	834
203.827	777
203.895	951
203.963	1664
204.031	1463
204.099	1033
204.168	790
204.236	717
204.304	1316
204.372	1085
204.440	993
204.508	781
204.576	928
204.644	1109
204.712	1446
204.780	1266
204.848	1465
204.916	896
204.984	705
205.052	886
205.120	1771
205.188	2076
205.256	1106
205.324	1147
205.392	362
205.460	1219
205.528	966
205.596	1311
205.664	856
205.732	1509
205.799	3487
205.867	5804
205.935	1684
206.003	1602
206.071	413
206.139	1615
206.207	749
206.275	899
206.343	1026
206.411	1649
206.478	841
206.546	1428
206.614	1113
206.682	830
206.750	742
206.818	2241
206.885	1864
206.953	180
207.021	2309
207.089	2002
207.157	381
207.225	1164
207.292	1158
207.360	875
207.428	1253
207.496	650
207.563	1247
207.631	1710
207.699	941
207.767	755
207.834	391
207.902	1575
207.970	1128
208.038	1837
208.105	904
208.173	1622
208.241	1804
208.309	2459
208.376	2196
208.444	2871
208.512	1920
208.579	1701
208.647	1457
208.715	2998
208.782	1156
208.850	1439
208.918	1267
208.985	1467
209.053	1944
209.120	1996
209.188	1347
209.256	883
209.323	1015
209.391	2243
209.459	2657
209.526	2175
209.594	563
209.661	1695
209.729	987
209.796	1820
209.864	1834
209.932	1216
209.999	2441
210.067	1946
210.134	1764
210.202	2703
210.269	2551
210.337	2591
210.404	2213
210.472	2366
210.539	1193
210.607	1462
210.674	2614
210.742	2140
210.809	2061
210.877	2403
210.944	2470
211.012	1757
211.079	3046
211.146	1843
211.214	2004
211.281	1820
211.349	2837
211.416	2624
211.484	2433
211.551	2455
211.618	2006
211.686	2441
211.753	1825
211.821	2040
211.888	1714
211.955	1922
212.023	1516
212.090	2364
212.157	1010
212.225	2674
212.292	3645
212.359	6698
212.427	15926
212.494	8533
212.561	3645
212.629	3220
212.696	2185
212.763	2199
212.831	2060
212.898	2635
212.965	1501
213.032	2249
213.100	2466
213.167	1557
213.234	3490
213.301	3119
213.369	1975
213.436	1672
213.503	1688
213.570	2075
213.638	2324
213.705	1635
213.772	1111
213.839	2465
213.906	3648
213.973	2817
214.041	1477
214.108	2093
214.175	2358
214.242	3019
214.309	1238
214.376	2683
214.444	2528
214.511	2516
214.578	3419
214.645	3163
214.712	2587
214.779	2320
214.846	2468
214.913	2963
214.980	2767
215.048	3449
215.115	3696
215.182	3352
215.249	3604
215.316	3292
215.383	2121
215.450	1991
215.517	2384
215.584	1870
215.651	1711
215.718	2079
215.785	2431
215.852	1710
215.919	3105
215.986	2475
216.053	1594
216.120	1716
216.187	2887
216.254	3040
216.321	1961
216.388	2441
216.455	2633
216.522	2644
216.589	3129
216.656	5114
216.722	4977
216.789	3911
216.856	3797
216.923	3894
216.990	3822
217.057	3584
217.124	3610
217.191	4268
217.258	4985
217.324	6724
217.391	6970
217.458	5483
217.525	3176
217.592	4104
217.659	2670
217.725	3859
217.792	3301
217.859	4273
217.926	1809
217.993	1350
218.059	2058
218.126	2402
218.193	1277
218.260	1463
218.327	1185
218.393	2128
218.460	1781
218.527	1280
218.594	934
218.660	3487
218.727	3593
218.794	2147
218.860	2078
218.927	1579
218.994	1254
219.061	1445
219.127	2635
219.194	3530
219.261	1917
219.327	1598
219.394	1564
219.461	1202
219.527	1879
219.594	3004
219.661	1631
219.727	840
219.794	1773
219.860	1278
219.927	2100
219.994	2906
220.060	5440
220.127	3609
220.193	2393
220.260	2762
220.326	4879
220.393	7077
220.460	10037
220.526	6624
220.593	3922
220.659	5175
220.726	4682
220.792	8348
220.859	9448
220.925	11530
220.992	16885
221.058	14199
221.125	12813
221.191	9668
221.258	4419
221.324	3836
221.391	3056
221.457	1698
221.524	2428
221.590	4376
221.657	9025
221.723	7557
221.789	5984
221.856	6689
221.922	2977
221.989	3210
222.055	2747
222.121	829
222.188	3952
222.254	2597
222.321	1425
222.387	553
222.453	783
222.520	1190
222.586	1131
222.652	1830
222.719	454
222.785	2258
222.851	938
222.918	1728
222.984	1326
223.050	1557
223.116	265
223.183	2566
223.249	516
223.315	1419
223.382	1082
223.448	505
223.514	632
223.580	1121
223.647	906
223.713	1285
223.779	950
223.845	1532
223.911	850
223.978	976
224.044	1742
224.110	366
224.176	1208
224.242	1120
224.309	556
224.375	1423
224.441	796
224.507	1054
224.573	459
224.639	423
224.705	273
224.772	1169
224.838	1008
224.904	2104
224.970	1459
225.036	1004
225.102	1835
225.168	2086
225.234	1375
225.300	1429
225.366	825
225.432	1189
225.499	1512
225.565	1685
225.631	1296
225.697	1517
225.763	2604
225.829	2646
225.895	2838
225.961	4075
226.027	3814
226.093	3276
226.159	3645
226.225	6743
226.291	14685
226.357	23332
226.423	12476
226.489	7613
226.554	4241
226.620	4218
226.686	5715
226.752	8387
226.818	12401
226.884	28455
226.950	26779
227.016	11441
227.082	6709
227.148	4196
227.214	4763
227.279	3695
227.345	2993
227.411	3032
227.477	3052
227.543	5699
227.609	6206
227.674	4054
227.740	2603
227.806	2786
227.872	2337
227.938	2829
228.003	3675
228.069	2139
228.135	1480
228.201	1747
228.267	1221
228.332	1881
228.398	2480
228.464	3135
228.530	572
228.595	1546
228.661	1134
228.727	3339
228.792	2449
228.858	1698
228.924	631
228.990	3415
229.055	1992
229.121	3687
229.187	2258
229.252	1889
229.318	1711
229.384	2105
229.449	2533
229.515	611
229.581	-779
229.646	3467
229.712	1792
229.777	4740
229.843	5035
229.909	4063
229.974	4283
230.040	3705
230.105	2569
230.171	2692
230.236	4145
230.302	6721
230.368	5032
230.433	1377
230.499	2470
230.564	3371
230.630	1769
230.695	1320
230.761	2442
230.826	16
230.892	3946
230.957	1409
231.023	686
231.088	2587
231.154	1471
231.219	2746
231.284	2592
231.350	3606
231.415	1413
231.481	1979
231.546	1436
231.612	1528
231.677	522
231.742	543
231.808	2632
231.873	1123
231.939	375
232.004	4810
232.069	4330
232.135	2547
232.200	1699
232.265	1768
232.331	814
232.396	1126
232.461	716
232.527	896
232.592	1322
232.657	2807
232.723	3641
232.788	3132
232.853	2193
232.918	980
232.984	1460
233.049	1406
233.114	2613
233.179	3734
233.245	5376
233.310	7262
233.375	1502
233.440	2121
233.506	803
233.571	1497
233.636	521
233.701	1279
233.766	3841
233.832	5050
233.897	2384
233.962	2791
234.027	3734
234.092	2408
234.157	2603
234.222	1823
234.288	3346
234.353	12044
234.418	11720
234.483	8170
234.548	4905
234.613	3705
234.678	3586
234.743	4584
234.808	13098
234.873	8644
234.938	4601
235.004	2904
235.069	2708
235.134	1861
235.199	2852
235.264	2458
235.329	779
235.394	2661
235.459	4068
235.524	2673
235.589	2650
235.654	1608
235.719	1254
235.784	3158
235.849	3227
235.913	7673
235.978	7979
236.043	9984
236.108	4130
236.173	3422
236.238	3687
236.303	2461
236.368	2143
236.433	4517
236.498	7854
236.563	6325
236.627	11324
236.692	35503
236.757	31090
236.822	12868
236.887	10442
236.952	8313
237.017	4743
237.081	7603
237.146	7865
237.211	17869
237.276	34009
237.341	55394
237.405	30895
237.470	13496
237.535	9563
237.600	5626
237.664	5155
237.729	3566
237.794	5931
237.859	12199
237.923	8923
237.988	4991
238.053	6833
238.118	7164
238.182	15405
238.247	15147
238.312	7479
238.376	6488
238.441	2799
238.506	4484
238.570	1628
238.635	3761
238.700	3050
238.764	2274
238.829	6860
238.893	10396
238.958	4473
239.023	4800
239.087	2275
239.152	3212
239.216	1989
239.281	2545
239.346	2681
239.410	2987
239.475	3690
239.539	16308
239.604	13020
239.668	4115
239.733	2409
239.797	3940
239.862	10134
239.926	14344
239.991	7184
240.055	3785
240.120	2470
240.184	3349
240.249	2583
240.313	2469
240.378	2799
240.442	9151
240.507	15771
240.571	5320
240.635	6873
240.700	10613
240.764	4209
240.829	3179
240.893	1883
240.957	2706
241.022	8929
241.086	17368
241.151	8337
241.215	2667
241.279	5011
241.344	9502
241.408	4576
241.472	2578
241.537	4214
241.601	3504
241.665	1690
241.730	2954
241.794	4068
241.858	2831
241.922	3344
241.987	3400
242.051	2056
242.115	1915
242.179	2645
242.244	2227
242.308	3126
242.372	2732
242.436	3158
242.501	2454
242.565	1851
242.629	2439
242.693	3319
242.757	1754
242.822	1581
242.886	3212
242.950	3446
243.014	2147
243.078	4506
243.142	3797
243.206	2162
243.271	3600
243.335	2860
243.399	5407
243.463	18717
243.527	53168
243.591	17819
243.655	7726
243.719	4267
243.783	5342
243.847	7753
243.911	10267
243.975	12317
244.040	9178
244.104	5985
244.168	3090
244.232	5502
244.296	8816
244.360	9384
244.424	5193
244.488	3914
244.552	3292
244.615	2055
244.679	3439
244.743	3125
244.807	3424
244.871	2511
244.935	3263
244.999	988
245.063	2410
245.127	4359
245.191	6540
245.255	6299
245.319	5255
245.383	4047
245.446	4386
245.510	2346
245.574	3216
245.638	3978
245.702	3228
245.766	9350
245.829	6682
245.893	3342
245.957	2957
246.021	4168
246.085	3866
246.149	5683
246.212	12530
246.276	17026
246.340	8487
246.404	6106
246.467	5614
246.531	8330
246.595	7057
246.659	5881
246.722	4611
246.786	7653
246.850	6214
246.913	8879
246.977	3298
247.041	3474
247.104	4699
247.168	4648
247.232	11429
247.295	22104
247.359	11912
247.423	4608
247.486	10705
247.550	7326
247.614	5101
247.677	7604
247.741	5207
247.804	3576
247.868	4579
247.932	9251
247.995	21672
248.059	8613
248.122	4244
248.186	6232
248.249	10040
248.313	33456
248.376	37390
248.440	23956
248.503	9071
248.567	8656
248.630	10862
248.694	16335
248.757	18487
248.821	36583
248.884	23492
248.948	20358
249.011	30054
249.075	42337
249.138	38508
249.202	15993
249.265	10086
249.328	13574
249.392	9601
249.455	8388
249.519	5790
249.582	7192
249.645	12942
249.709	9330
249.772	5737
249.835	5904
249.899	6622
249.962	6366
250.025	5407
250.089	13578
250.152	20552
250.215	9899
250.279	7650
250.342	7785
250.405	8270
250.468	5839
250.532	8615
250.595	13645
250.658	44050
250.721	76436
250.785	28331
250.848	16746
250.911	10107
250.974	8859
251.038	10595
251.101	21466
251.164	12828
251.227	12636
251.290	12521
251.354	17329
251.417	60444
251.480	64916
251.543	44193
251.606	108942
251.669	90925
251.732	36765
251.795	34486
251.859	33861
251.922	72365
251.985	46295
252.048	18016
252.111	13115
252.174	12521
252.237	20834
252.300	44280
252.363	47810
252.426	92012
252.489	42793
252.552	22298
252.615	15115
252.678	15460
252.741	33741
252.804	44185
252.867	93599
252.930	61727
252.993	33318
253.056	19842
253.119	15416
253.182	11883
253.245	20180
253.308	15755
253.371	14881
253.434	13582
253.497	11560
253.559	21641
253.622	15686
253.685	20206
253.748	23191
253.811	10041
253.874	13275
253.937	12745
254.000	9123
254.062	15296
254.125	22961
254.188	21333
254.251	19355
254.314	9121
254.376	16979
254.439	20736
254.502	16933
254.565	15180
254.628	27458
254.690	18094
254.753	11076
254.816	8645
254.878	9801
254.941	15873
255.004	16896
255.067	8725
255.129	8038
255.192	5362
255.255	2905
255.317	5855
255.380	4238
255.443	2908
255.505	2752
255.568	2923
255.631	3143
255.693	4193
255.756	2804
255.819	4722
255.881	2632
255.944	2882
256.006	2302
256.069	3516
256.132	2786
256.194	5058
256.257	15161
256.319	11950
256.382	10549
256.444	5215
256.507	4413
256.569	3775
256.632	3566
256.694	8630
256.757	19748
256.819	56920
256.882	25291
256.944	10146
257.007	8181
257.069	9390
257.132	5645
257.194	5906
257.257	4865
257.319	5009
257.381	5098
257.444	15607
257.506	62042
257.569	76861
257.631	40567
257.693	22063
257.756	9883
257.818	9249
257.880	5471
257.943	5367
258.005	3791
258.067	4014
258.130	4435
258.192	5759
258.254	13599
258.317	7609
258.379	4839
258.441	12702
258.503	13205
258.566	16566
258.628	23715
258.690	5815
258.753	6526
258.815	11787
258.877	6929
258.939	5322
259.001	4480
259.064	3402
259.126	4340
259.188	8395
259.250	5108
259.312	6971
259.375	18444
259.437	13658
259.499	4834
259.561	4841
259.623	5119
259.685	4409
259.747	4448
259.809	14904
259.872	32214
259.934	41816
259.996	40247
260.058	11197
260.120	5010
260.182	4745
260.244	4466
260.306	3269
260.368	3751
260.430	3482
260.492	7290
260.554	17282
260.616	14892
260.678	21590
260.740	33711
260.802	9097
260.864	7591
260.926	5886
260.988	6431
261.050	5030
261.112	10423
261.174	29932
261.236	26081
261.298	8647
261.359	13473
261.421	22204
261.483	6116
261.545	5433
261.607	2985
261.669	3560
261.731	8054
261.793	24541
261.854	9707
261.916	6554
261.978	5138
262.040	5331
262.102	5151
262.164	8740
262.225	8349
262.287	3938
262.349	11594
262.411	9636
262.472	5265
262.534	8530
262.596	23109
262.658	8191
262.719	3553
262.781	6688
262.843	20463
262.904	10173
262.966	6835
263.028	8125
263.090	33877
263.151	93169
263.213	30203
263.275	14645
263.336	7399
263.398	5863
263.459	4129
263.521	4519
263.583	10530
263.644	8046
263.706	3804
263.767	1628
263.829	2059
263.891	2607
263.952	2171
264.014	2257
264.075	3555
264.137	9550
264.198	6406
264.260	2211
264.321	2715
264.383	7775
264.444	16662
264.506	4857
264.567	3426
264.629	6433
264.690	12160
264.752	6441
264.813	3476
264.875	2749
264.936	3887
264.998	2310
265.059	2145
265.120	3249
265.182	6243
265.243	29652
265.305	32867
265.366	7595
265.427	4556
265.489	4552
265.550	2361
265.611	3715
265.673	3829
265.734	2872
265.795	2913
265.857	2627
265.918	3095
265.979	9112
266.040	47201
266.102	41848
266.163	11947
266.224	8820
266.286	5840
266.347	3671
266.408	4034
266.469	4745
266.530	2835
266.592	2778
266.653	6858
266.714	13299
266.775	4330
266.836	3284
266.898	1722
266.959	5196
267.020	3401
267.081	3474
267.142	2436
267.203	2837
267.264	1591
267.326	4052
267.387	2864
267.448	2698
267.509	2433
267.570	2644
267.631	1890
267.692	1179
267.753	2290
267.814	1708
267.875	6052
267.936	15883
267.997	7453
268.058	6475
268.119	3322
268.180	3861
268.241	2539
268.302	2453
268.363	1905
268.424	2625
268.485	2740
268.546	1923
268.607	1671
268.668	1147
268.729	1825
268.790	1856
268.851	2385
268.912	9021
268.972	12122
269.033	6161
269.094	1956
269.155	2445
269.216	1669
269.277	2532
269.338	2167
269.398	2892
269.459	2473
269.520	5301
269.581	6312
269.642	8238
269.702	4916
269.763	3447
269.824	2715
269.885	4707
269.945	7062
270.006	4034
270.067	1874
270.128	2110
270.188	1704
270.249	2239
270.310	1586
270.370	2645
270.431	2963
270.492	1934
270.553	2448
270.613	6901
270.674	14462
270.734	6484
270.795	2969
270.856	5713
270.916	4010
270.977	3234
271.038	3041
271.098	4748
271.159	6929
271.219	7486
271.280	3173
271.340	2796
271.401	3379
271.462	11679
271.522	6830
271.583	3494
271.643	3120
271.704	3362
271.764	4048
271.825	10267
271.885	31071
271.946	44523
272.006	15834
272.066	17469
272.127	33894
272.187	11518
272.248	6452
272.308	7360
272.369	22172
272.429	13349
272.489	10245
272.550	11624
272.610	12417
272.671	9190
272.731	8083
272.791	14573
272.852	7932
272.912	7116
272.972	4155
273.033	4087
273.093	7450
273.153	6964
273.214	4597
273.274	5552
273.334	16165
273.394	35343
273.455	16355
273.515	14623
273.575	32067
273.635	15203
273.696	18130
273.756	34538
273.816	15875
273.876	9869
273.936	18706
273.997	36122
274.057	10057
274.117	7019
274.177	10476
274.237	38838
274.297	37352
274.358	29880
274.418	26964
274.478	21944
274.538	9062
274.598	7383
274.658	28733
274.718	38349
274.778	14953
274.838	7335
274.898	15078
274.958	51203
275.018	36443
275.078	23298
275.138	10636
275.198	5914
275.258	4506
275.318	6200
275.378	11604
275.438	12466
275.498	8992
275.558	21070
275.618	45355
275.678	26585
275.738	16112
275.798	12125
275.858	6310
275.918	3966
275.978	4739
276.038	4788
276.098	3366
276.157	7983
276.217	25539
276.277	12421
276.337	8876
276.397	4547
276.457	5787
276.517	3962
276.576	2720
276.636	2621
276.696	6168
276.756	14755
276.815	12514
276.875	6495
276.935	5637
276.995	6282
277.055	2980
277.114	3755
277.174	5695
277.234	19883
277.293	9642
277.353	5183
277.413	4352
277.472	4005
277.532	5033
277.592	7136
277.651	20381
277.711	43277
277.771	14782
277.830	46633
277.890	41377
277.950	25463
278.009	71730
278.069	30246
278.128	30029
278.188	45474
278.248	18412
278.307	47357
278.367	30805
278.426	9937
278.486	6619
278.545	5268
278.605	4715
278.664	4409
278.724	5841
278.783	12454
278.843	33216
278.902	12013
278.962	7486
279.021	8431
279.081	13718
279.140	13403
279.199	9130
279.259	8948
279.318	10169
279.378	13252
279.437	24716
279.496	73297
279.556	200526
279.615	180443
279.675	57269
279.734	33160
279.793	39558
279.853	57364
279.912	23580
279.971	13599
280.031	13241
280.090	20390
280.149	35425
280.208	35971
280.268	134042
280.327	153636
280.386	43315
280.445	27228
280.505	25037
280.564	13253
280.623	9540
280.682	12847
280.742	19806
280.801	7181
280.860	5782
280.919	4790
280.978	4544
281.037	4909
281.097	3697
281.156	5346
281.215	4196
281.274	5432
281.333	20467
281.392	18251
281.451	4832
281.510	3333
281.569	3336
281.628	3740
281.688	2376
281.747	4451
281.806	3547
281.865	3729
281.924	3032
281.983	3659
282.042	1551
282.101	2078
282.160	2841
282.219	2463
282.278	3355
282.337	12242
282.396	9911
282.454	2497
282.513	5541
282.572	20044
282.631	12627
282.690	3492
282.749	2394
282.808	4279
282.867	4031
282.926	4471
282.985	2867
283.043	2754
283.102	2215
283.161	3408
283.220	9065
283.279	22217
283.338	7324
283.396	3785
283.455	4196
283.514	4331
283.573	7523
283.631	6364
283.690	4202
283.749	3815
283.808	8765
283.866	10850
283.925	4516
283.984	4720
284.043	5598
284.101	6571
284.160	4597
284.219	6448
284.277	6110
284.336	9358
284.395	26764
284.453	24548
284.512	10251
284.570	13353
284.629	12248
284.688	11901
284.746	13617
284.805	16098
284.863	21952
284.922	27075
284.981	31827
285.039	43841
285.098	74197
285.156	143315
285.215	183923
285.273	185796
285.332	155222
285.390	91618
285.449	57851
285.507	40567
285.566	29171
285.624	21630
285.683	16660
285.741	14203
285.799	11567
285.858	10072
285.916	8982
285.975	7695
286.033	6252
286.091	6079
286.150	4829
286.208	4659
286.267	4879
286.325	5714
286.383	7826
286.442	7759
286.500	4060
286.558	3878
286.616	3415
286.675	5752
286.733	5087
286.791	4078
286.850	5487
286.908	6406
286.966	11079
287.024	4813
287.083	3001
287.141	3547
287.199	3577
287.257	5711
287.315	4386
287.374	4652
287.432	10058
287.490	6898
287.548	4472
287.606	3908
287.664	3101
287.723	4951
287.781	6738
287.839	4641
287.897	4638
287.955	6027
288.013	11129
288.071	24420
288.129	84063
288.187	221520
288.245	111373
288.303	35315
288.361	20097
288.419	15285
288.477	10572
288.535	7493
288.593	4899
288.651	4716
288.709	3477
288.767	3075
288.825	3304
288.883	3665
288.941	2803
288.999	2414
289.057	2388
289.115	1953
289.173	2839
289.231	3106
289.289	3084
289.346	2717
289.404	3606
289.462	5824
289.520	6147
289.578	3063
289.636	1507
289.694	1131
289.751	2215
289.809	1517
289.867	1954
289.925	2681
289.983	3062
290.040	1403
290.098	1262
290.156	2195
290.214	3618
290.271	1821
290.329	1637
290.387	1607
290.444	1231
290.502	883
290.560	1549
290.617	1095
290.675	1922
290.733	697
290.790	2792
290.848	1956
290.906	1577
290.963	2019
291.021	2330
291.078	1583
291.136	1811
291.194	7383
291.251	18607
291.309	5638
291.366	1939
291.424	1986
291.481	2349
291.539	2492
291.596	2650
291.654	1856
291.711	1284
291.769	2405
291.826	6494
291.884	4615
291.941	1913
291.999	1781
292.056	2233
292.114	3437
292.171	1282
292.228	1958
292.286	3348
292.343	6897
292.401	8266
292.458	5248
292.515	2644
292.573	4210
292.630	3844
292.687	3250
292.745	3719
292.802	3352
292.859	10556
292.917	21746
292.974	12812
293.031	3798
293.089	2500
293.146	2048
293.203	2124
293.260	1964
293.318	3132
293.375	4457
293.432	2559
293.489	1868
293.546	1981
293.604	4000
293.661	13314
293.718	34591
293.775	16843
293.832	8781
293.889	7390
293.947	8753
294.004	5341
294.061	4855
294.118	9140
294.175	20808
294.232	21656
294.289	10089
294.346	4736
294.403	3999
294.460	4160
294.517	3083
294.574	2844
294.631	2320
294.688	3031
294.745	9409
294.802	34168
294.859	35866
294.916	15044
294.973	11051
295.030	7387
295.087	6952
295.144	3681
295.201	3757
295.258	3660
295.315	4342
295.372	12725
295.429	26778
295.486	11419
295.542	6006
295.599	12312
295.656	22808
295.713	16257
295.770	24694
295.827	9771
295.883	4613
295.940	4152
295.997	8372
296.054	8294
296.111	3490
296.167	2413
296.224	2280
296.281	1569
296.338	1809
296.394	2840
296.451	4057
296.508	9802
296.564	21900
296.621	14526
296.678	25533
296.734	41119
296.791	15286
296.848	7544
296.904	8550
296.961	18783
297.018	29441
297.074	22757
297.131	8539
297.187	5908
297.244	9292
297.301	26637
297.357	52197
297.414	19653
297.470	7283
297.527	4761
297.583	3843
297.640	4048
297.696	3055
297.753	2385
297.809	2367
297.866	1733
297.922	1716
297.979	1607
298.035	3103
298.092	5571
298.148	15784
298.204	16579
298.261	7868
298.317	11205
298.374	32811
298.430	21749
298.486	9788
298.543	7480
298.599	6544
298.656	7723
298.712	12637
298.768	31190
298.824	24729
298.881	7709
298.937	5873
298.993	3366
299.050	6072
299.106	4006
299.162	3600
299.218	3594
299.275	2309
299.331	3693
299.387	8076
299.443	28792
299.500	34622
299.556	13789
299.612	6033
299.668	6021
299.724	7618
299.780	8443
299.837	5078
299.893	7911
299.949	26096
300.005	34568
300.061	25939
300.117	42612
300.173	23232
300.229	10583
300.285	12758
300.341	15075
300.397	6851
300.453	4002
300.510	3490
300.566	4749
300.622	5493
300.678	15639
300.734	29744
300.790	26579
300.845	32332
300.901	20487
300.957	28280
301.013	23016
301.069	9100
301.125	6301
301.181	7300
301.237	4742
301.293	3301
301.349	3138
301.405	2191
301.461	2662
301.516	3603
301.572	4211
301.628	8573
301.684	8378
301.740	10664
301.796	19644
301.851	13224
301.907	21639
301.963	22630
302.019	30678
302.074	81134
302.130	85943
302.186	39790
302.242	15594
302.297	10208
302.353	9885
302.409	18847
302.464	17762
302.520	13537
302.576	30982
302.631	37780
302.687	22655
302.743	8510
302.798	4852
302.854	4472
302.910	4967
302.965	5092
303.021	10717
303.076	11105
303.132	13021
303.187	15607
303.243	8024
303.299	4366
303.354	3637
303.410	3179
303.465	2866
303.521	2350
303.576	2387
303.632	4620
303.687	9162
303.743	25763
303.798	25039
303.853	9511
303.909	5236
303.964	3713
304.020	6692
304.075	12468
304.130	10029
304.186	18813
304.241	20583
304.297	16685
304.352	7669
304.358	7421
304.407	5389
304.449	5337
304.463	5318
304.518	5527
304.539	5239
304.573	4726
304.629	5885
304.630	5919
304.684	8381
304.720	17034
304.739	21093
304.794	34201
304.811	29778
304.850	18197
304.902	8141
304.905	7569
304.960	5868
304.992	6098
305.015	6267
305.071	6726
305.083	6448
305.126	5029
305.173	3873
305.181	3769
305.236	2900
305.264	3418
305.292	4059
305.347	5812
305.354	5909
305.402	6552
305.445	7239
305.457	7407
305.512	9669
305.535	9923
305.567	9924
305.622	9170
305.626	9361
305.678	20399
305.716	37563
305.733	41520
305.788	46579
305.807	40689
305.843	32928
305.897	38324
305.898	38308
305.953	37009
305.988	25264
306.008	19852
306.063	12508
306.078	11293
306.118	8944
306.168	6312
306.173	6169
306.228	4723
306.259	4809
306.283	5056
306.338	4599
306.349	4816
306.393	6417
306.440	8226
306.448	8367
306.503	8662
306.530	8334
306.558	12508
306.613	27599
306.620	29443
306.668	41774
306.711	54923
306.723	53908
306.778	39975
306.801	30197
306.833	21117
306.888	9714
306.892	9171
306.943	7896
306.982	6989
306.997	6764
307.052	6777
307.072	6904
307.107	8540
307.162	10595
307.163	10619
307.217	17516
307.253	21410
307.272	21464
307.327	20963
307.343	20133
307.381	18762
307.434	17377
307.436	18248
307.491	39566
307.524	55329
307.546	55635
307.600	52834
307.614	48624
307.655	31864
307.704	16209
307.710	16406
307.765	20816
307.795	25038
307.819	30423
307.874	45114
307.885	46610
307.929	38509
307.975	29181
307.984	30757
308.038	44428
308.065	53202
308.093	97448
308.148	196308
308.156	213714
308.202	300156
308.246	368613
308.257	351404
308.312	203448
308.336	141813
308.366	112808
308.421	71369
308.426	67037
308.475	45640
308.517	31093
308.530	29976
308.585	26769
308.607	25468
308.639	26532
308.694	29572
308.697	29725
308.748	52569
308.787	72408
308.803	69932
308.857	55009
308.877	48267
308.912	46966
308.967	48239
308.967	48134
309.021	72119
309.058	89983
309.076	114318
309.130	192494
309.148	218920
309.185	332275
309.238	505929
309.239	508250
309.293	542668
309.328	536197
309.348	471143
309.402	269040
309.418	213019
309.457	162849
309.508	103740
309.511	103879
309.566	107326
309.598	110541
309.620	138601
309.674	213187
309.688	232089
309.729	217996
309.778	188803
309.783	184421
309.837	124331
309.868	91413
309.892	101390
309.946	127342
309.959	134039
310.001	160217
310.049	186469
310.055	179166
310.109	103943
310.139	62118
310.163	52536
310.218	33781
310.229	30196
310.272	25448
310.319	20307
310.326	19964
310.381	17153
310.409	15898
310.435	15839
310.489	15533
310.499	15440
310.543	15443
310.589	15376
310.598	15488
310.652	16004
310.679	16031
310.706	14810
310.760	12306
310.769	11899
310.814	11165
310.859	10352
310.868	10587
310.923	11458
310.948	11986
310.977	13641
311.031	16775
311.038	17126
311.085	16050
311.128	14719
311.139	14603
311.193	14004
311.218	13581
311.247	12551
311.301	10515
311.308	10234
311.356	11416
311.398	12387
311.410	12253
311.464	11283
311.488	10884
311.518	11697
311.572	12913
311.578	13012
311.626	19515
311.668	25156
311.680	24530
311.734	21068
311.758	19455
311.788	19157
311.842	18491
311.847	18343
311.896	24992
311.937	30651
311.950	30352
312.004	28420
312.027	27439
312.058	23547
312.112	16411
312.117	15633
312.165	14541
312.207	13503
312.297	20524
312.386	15091
312.476	17916
312.566	42745
312.656	20807
312.745	11683
312.835	13725
312.925	16388
313.015	14116
313.104	14284
313.194	13203
313.284	14714
313.374	22788
313.463	19528
313.553	13407
313.643	12184
313.732	10828
313.822	10110
313.912	14195
314.001	17464
314.091	17688
314.180	23431
314.270	23978
314.360	26729
314.449	23212
314.539	13693
314.628	12165
314.718	15077
314.808	19987
314.897	12747
314.987	14166
315.076	20525
315.166	26148
315.255	22490
315.345	24029
315.434	21869
315.524	20052
315.613	26292
315.703	36435
315.792	48329
315.881	132850
315.971	51816
316.060	48173
316.150	57152
316.239	56905
316.328	22133
316.418	14606
316.507	16019
316.597	24171
316.686	20133
316.775	27569
316.865	57320
316.954	15686
317.043	12064
317.133	15626
317.222	13202
317.311	13931
317.400	14801
317.490	23765
317.579	28909
317.668	21469
317.757	33891
317.847	71035
317.936	238683
318.025	106703
318.114	60314
318.203	38514
318.293	43806
318.382	84135
318.471	63102
318.560	74785
318.649	125209
318.738	31567
318.828	29135
318.917	31196
319.006	29921
319.095	68995
319.184	162944
319.273	109206
319.362	69287
319.451	25724
319.540	22748
319.629	57863
319.718	99260
319.807	38323
319.896	60216
319.985	204503
320.074	87429
320.163	24506
320.252	39355
320.341	30344
320.430	27752
320.519	49870
320.608	27810
320.697	21368
320.786	21104
320.875	31696
320.964	43656
321.053	69659
321.142	100632
321.230	105250
321.319	67510
321.408	167513
321.497	63664
321.586	66859
321.675	65244
321.764	64742
321.852	42795
321.941	99078
322.030	65464
322.119	65389
322.207	174224
322.296	93290
322.385	50668
322.474	65658
322.562	213804
322.651	100019
322.740	77648
322.829	104323
322.917	86340
323.006	60366
323.095	54636
323.183	34827
323.272	56855
323.361	85348
323.449	223904
323.538	73602
323.626	161181
323.715	97579
323.804	41108
323.892	149393
323.981	93954
324.069	28657
324.158	73702
324.246	71069
324.335	36177
324.424	65365
324.512	23104
324.601	32666
324.689	61842
324.778	114440
324.866	68885
324.954	21543
325.043	21377
325.131	40816
325.220	59307
325.308	72371
325.397	54335
325.485	36634
325.574	15573
325.662	14490
325.750	19450
325.839	14469
325.927	12291
326.015	20068
326.104	26489
326.192	37102
326.280	13676
326.369	15104
326.457	26105
326.545	51584
326.634	22419
326.722	10963
326.810	13925
326.898	13154
326.987	17403
327.075	47064
327.163	42252
327.251	21411
327.340	39963
327.428	59740
327.516	15140
327.604	14524
327.692	14690
327.781	16721
327.869	28547
327.957	20499
328.045	23806
328.133	11344
328.221	16506
328.309	15004
328.397	14073
328.485	20261
328.574	30349
328.662	110613
328.750	54629
328.838	19930
328.926	13694
329.014	13018
329.102	22298
329.190	51739
329.278	37907
329.366	11293
329.454	9297
329.542	10426
329.630	9868
329.718	11972
329.806	19781
329.893	16072
329.981	17443
330.069	30794
330.157	98231
330.245	258887
330.333	141777
330.421	33804
330.509	35361
330.597	139471
330.684	84576
330.772	26724
330.860	28255
330.948	36800
331.036	18016
331.123	10264
331.211	10415
331.299	15306
331.387	31902
331.475	61478
331.562	20125
331.650	10976
331.738	14205
331.825	17991
331.913	11063
332.001	10684
332.089	15741
332.176	30963
332.264	73015
332.352	58224
332.439	22200
332.527	14855
332.614	12350
332.702	17296
332.790	14374
332.877	40897
332.965	84166
333.052	36736
333.140	37219
333.228	103037
333.315	30296
333.403	19574
333.490	46921
333.578	55735
333.665	136531
333.753	62421
333.840	18327
333.928	20368
334.015	47784
334.103	65423
334.190	195495
334.278	52198
334.365	26993
334.452	20449
334.540	15936
334.627	20201
334.715	29655
334.802	54520
334.889	245234
334.977	236661
335.064	38410
335.151	21568
335.239	18672
335.326	27196
335.413	92936
335.501	126216
335.588	23999
335.675	17375
335.762	21280
335.850	36522
335.937	32125
336.024	68105
336.111	260605
336.199	111273
336.286	28610
336.373	16969
336.460	12414
336.547	12733
336.635	17448
336.722	18475
336.809	14313
336.896	26603
336.983	69740
337.070	149545
337.157	196665
337.245	157481
337.332	109810
337.419	18287
337.506	12725
337.593	15960
337.680	44774
337.767	135690
337.854	45294
337.941	51078
338.028	67079
338.115	26043
338.202	26123
338.289	47403
338.376	168323
338.463	55160
338.550	78169
338.637	84090
338.724	33994
338.811	50076
338.898	14123
338.984	11043
339.071	16088
339.158	22964
339.245	63839
339.332	38067
339.419	40058
339.506	35943
339.593	9671
339.679	12860
339.766	12218
339.853	18839
339.940	48063
340.027	16860
340.113	16635
340.200	25161
340.287	17336
340.374	24300
340.460	44498
340.547	20836
340.634	33464
340.720	121268
340.807	68245
340.894	14094
340.980	14120
341.067	14684
341.154	16894
341.240	30238
341.327	64884
341.414	23315
341.500	27930
341.587	16097
341.674	13931
341.760	43485
341.847	52957
341.933	16747
342.020	7308
342.106	8799
342.193	17034
342.279	36416
342.366	26189
342.452	45623
342.539	25794
342.625	56467
342.712	136015
342.798	57267
342.885	23966
342.971	8996
343.058	8794
343.144	10655
343.230	11670
343.317	14352
343.403	12100
343.490	7222
343.576	8216
343.662	12176
343.749	15894
343.835	19661
343.921	33291
344.008	159769
344.094	352027
344.180	85847
344.267	39888
344.353	110144
344.439	115446
344.525	66045
344.612	26504
344.698	23110
344.784	16487
344.870	11490
344.957	14237
345.043	26066
345.129	19460
345.215	41741
345.301	25635
345.387	16741
345.474	7696
345.560	9543
345.646	12104
345.732	12856
345.818	19699
345.904	16788
345.990	18626
346.076	16239
346.162	32671
346.249	16468
346.335	10437
346.421	13198
346.507	41594
346.593	145455
346.679	37214
346.765	13893
346.851	14477
346.937	15002
347.023	10966
347.108	17219
347.194	14337
347.280	14126
347.366	19141
347.452	47479
347.538	175935
347.624	135057
347.710	115286
347.796	20807
347.882	12006
347.967	11409
348.053	14989
348.139	12157
348.225	11028
348.311	12988
348.397	10586
348.482	16531
348.568	20550
348.654	11426
348.740	15054
348.825	18187
348.911	24829
348.997	81289
349.083	152515
349.168	28795
349.254	17174
349.340	18517
349.425	10477
349.511	20443
349.597	22091
349.682	43485
349.768	121707
349.854	55644
349.939	12778
350.025	10724
350.110	9817
350.196	9576
350.282	9691
350.367	8364
350.453	18790
350.538	20863
350.624	21031
350.709	17338
350.795	10691
350.880	14034
350.966	13894
351.051	22915
351.137	14289
351.222	15487
351.308	43032
351.393	119182
351.479	35018
351.564	15757
351.649	12712
351.735	9888
351.820	8545
351.906	12832
351.991	18161
352.076	75129
352.162	111133
352.247	25462
352.332	20004
352.418	42865
352.503	47071
352.588	176269
352.673	149590
352.759	37664
352.844	19018
352.929	22977
353.014	30881
353.100	19744
353.185	36943
353.270	57550
353.355	52391
353.441	15752
353.526	19362
353.611	47549
353.696	56130
353.781	32121
353.866	15477
353.952	17255
354.037	46975
354.122	108842
354.207	97637
354.292	36501
354.377	16365
354.462	12950
354.547	22241
354.632	18250
354.717	27297
354.802	42810
354.887	17117
354.972	10813
355.057	8936
355.142	9460
355.227	16499
355.312	32592
355.397	71788
355.482	171433
355.567	81252
355.652	55772
355.737	56360
355.822	139526
355.907	111778
355.991	22234
356.076	13658
356.161	11419
356.246	10585
356.331	13316
356.416	31222
356.501	191450
356.585	204059
356.670	39966
356.755	26337
356.840	40415
356.924	163166
357.009	511418
357.094	203272
357.179	57983
357.263	37932
357.348	36791
357.433	36302
357.517	34801
357.602	27103
357.687	21569
357.771	35148
357.856	95587
357.941	59808
358.025	112752
358.110	447551
358.195	221515
358.279	45311
358.364	35464
358.448	117143
358.533	292555
358.617	213773
358.702	200675
358.787	78056
358.871	51416
358.956	40859
359.040	15018
359.125	11450
359.209	13934
359.294	44935
359.378	77880
359.462	43896
359.547	23866
359.631	13841
359.716	11687
359.800	12585
359.885	21417
359.969	17048
360.053	13458
360.138	14815
360.222	25684
360.306	50948
360.391	37299
360.475	64663
360.559	140357
360.644	124827
360.728	87508
360.812	111248
360.896	289773
360.981	146134
361.065	87562
361.149	25341
361.233	25209
361.318	20732
361.402	24864
361.486	20339
361.570	17112
361.654	23885
361.739	60779
361.823	204633
361.907	290016
361.991	63872
362.075	44203
362.159	102916
362.243	68717
362.327	60723
362.411	63420
362.495	37614
362.580	22076
362.664	15577
362.748	16801
362.832	21890
362.916	36589
363.000	105970
363.084	265390
363.168	348750
363.252	98076
363.336	40270
363.420	49197
363.503	135739
363.587	150223
363.671	38851
363.755	31640
363.839	47027
363.923	22447
364.007	52562
364.091	56292
364.175	58364
364.258	210841
364.342	174545
364.426	197600
364.510	112217
364.594	59822
364.677	63064
364.761	250551
364.845	179377
364.929	85565
365.013	71219
365.096	57501
365.180	68774
365.264	55080
365.347	195631
365.431	85838
365.515	30394
365.598	21026
365.682	16716
365.766	26659
365.849	30516
365.933	24024
366.017	24737
366.100	17838
366.184	9167
366.267	13279
366.351	13642
366.435	12706
366.518	10174
366.602	10529
366.685	14159
366.769	17688
366.852	27492
366.936	53107
367.019	34965
367.103	21530
367.186	32750
367.270	14237
367.353	10562
367.436	13732
367.520	11878
367.603	20524
367.687	31912
367.770	61417
367.853	31340
367.937	79893
368.020	129153
368.104	39285
368.187	44732
368.270	62552
368.353	52003
368.437	63150
368.520	116497
368.603	83017
368.687	105177
368.770	189297
368.853	52205
368.936	53287
369.020	45387
369.103	22389
369.186	14324
369.269	18203
369.352	41241
369.436	56425
369.519	35740
369.602	17306
369.685	18450
369.768	22760
369.851	15934
369.934	12530
370.018	20173
370.101	53288
370.184	35876
370.267	24449
370.350	44293
370.433	64277
370.516	137559
370.599	176077
370.682	71216
370.765	124011
370.848	130022
370.931	218235
371.014	81697
371.097	22957
371.180	17822
371.263	11636
371.346	9657
371.429	12634
371.511	14461
371.594	32469
371.677	45504
371.760	42355
371.843	41351
371.926	163631
372.009	362272
372.091	128377
372.174	90597
372.257	181800
372.340	74610
372.423	67383
372.505	67027
372.588	33797
372.671	75507
372.754	224542
372.836	106796
372.919	68512
373.002	127469
373.085	52716
373.167	46624
373.250	105615
373.332	194223
373.415	247871
373.498	498452
373.580	197995
373.663	254084
373.746	329508
373.828	90505
373.911	43013
373.993	40878
374.076	121859
374.159	113173
374.241	64383
374.324	201213
374.406	128422
374.489	139926
374.571	387546
374.654	166051
374.736	83872
374.819	236357
374.901	343935
374.983	353732
375.066	70763
375.148	29045
375.231	94644
375.313	182697
375.395	76143
375.478	22143
375.560	17457
375.643	25802
375.725	77328
375.807	303026
375.890	238287
375.972	112948
376.054	67614
376.136	92284
376.219	42334
376.301	88367
376.383	266000
376.465	106811
376.548	93617
376.630	91693
376.712	233843
376.794	106854
376.877	18533
376.959	12066
377.041	17419
377.123	27916
377.205	31631
377.287	10509
377.369	11333
377.452	14353
377.534	13854
377.616	13377
377.698	14010
377.780	12054
377.862	16441
377.944	14787
378.026	9751
378.108	10417
378.190	11367
378.272	10349
378.354	8421
378.436	8271
378.518	21037
378.600	70065
378.682	62173
378.764	140519
378.846	107620
378.928	35545
379.010	53318
379.091	27656
379.173	14648
379.255	13784
379.337	21958
379.419	70082
379.501	189438
379.583	74484
379.664	24789
379.746	61237
379.828	144624
379.910	188238
379.991	155479
380.073	30618
380.155	23175
380.237	18174
380.318	14535
380.400	16188
380.482	40673
380.564	62264
380.645	62866
380.727	59688
380.809	31684
380.890	23022
380.972	18524
381.053	18406
381.135	21555
381.217	51920
381.298	152933
381.380	76140
381.461	59914
381.543	239949
381.624	290691
381.706	63493
381.787	37451
381.869	40276
381.951	105082
382.032	372249
382.113	252590
382.195	73949
382.276	51822
382.358	97039
382.439	221923
382.521	236323
382.602	359335
382.684	197658
382.765	379359
382.846	554834
382.928	951738
383.009	550242
383.090	419574
383.172	1182541
383.253	1543579
383.334	589580
383.416	422704
383.497	249041
383.578	194291
383.659	368623
383.741	1040156
383.822	1949446
383.903	1111211
383.984	422047
384.066	484184
384.147	305345
384.228	87717
384.309	71923
384.390	55579
384.471	40829
384.553	43419
384.634	57049
384.715	57467
384.796	33289
384.877	40891
384.958	131961
385.039	166362
385.120	67552
385.201	33124
385.282	39216
385.363	40880
385.444	41833
385.525	60502
385.606	165337
385.687	137881
385.768	42177
385.849	51825
385.930	180798
386.011	291897
386.092	87355
386.173	29031
386.254	21540
386.335	22897
386.416	26842
386.496	88249
386.577	143506
386.658	51143
386.739	35212
386.820	29176
386.901	23645
386.981	23018
387.062	17102
387.143	36345
387.224	137295
387.304	125889
387.385	48275
387.466	31401
387.547	34261
387.627	28093
387.708	49727
387.789	219883
387.869	259216
387.950	68802
388.031	17815
388.111	17009
388.192	36235
388.273	52488
388.353	36083
388.434	24426
388.514	44939
388.595	176787
388.676	250632
388.756	136595
388.837	144660
388.917	89139
388.998	20475
389.078	20006
389.159	17602
389.239	18699
389.320	30938
389.400	28789
389.480	48296
389.561	133599
389.641	64855
389.722	29660
389.802	50574
389.883	57056
389.963	144085
390.043	91842
390.124	33188
390.204	53400
390.284	167853
390.365	107531
390.445	107454
390.525	319359
390.605	288917
390.686	94740
390.766	33888
390.846	19945
390.927	14845
391.007	17077
391.087	19264
391.167	22366
391.247	16859
391.328	25798
391.408	34828
391.488	24985
391.568	13701
391.648	25070
391.728	35783
391.808	34623
391.888	39478
391.969	75216
392.049	122893
392.129	51884
392.209	57472
392.289	145573
392.369	79170
392.449	61457
392.529	46307
392.609	41967
392.689	49075
392.769	145124
392.849	126547
392.929	87896
393.009	203860
393.089	171271
393.169	167666
393.248	474491
393.328	1389255
393.408	1455547
393.488	504424
393.568	165369
393.648	84824
393.728	56726
393.807	41052
393.887	36325
393.967	32132
394.047	38907
394.127	48428
394.206	71550
394.286	211384
394.366	800586
394.446	869822
394.525	250036
394.605	73144
394.685	54264
394.764	87854
394.844	143403
394.924	104146
395.003	43452
395.083	33148
395.163	29490
395.242	28089
395.322	28007
395.402	21093
395.481	27757
395.561	64731
395.640	170360
395.720	140174
395.799	170276
395.879	137155
395.958	106107
396.038	317079
396.117	1030023
396.197	1130430
396.276	415797
396.356	149816
396.435	101435
396.515	74154
396.594	92438
396.673	157226
396.753	474317
396.832	1288879
396.912	1024245
396.991	295999
397.070	91538
397.150	53459
397.229	37137
397.308	45124
397.388	71598
397.467	40177
397.546	21164
397.625	19087
397.705	26296
397.784	30651
397.863	17371
397.942	12401
398.022	14083
398.101	44613
398.180	130340
398.259	67985
398.338	23751
398.417	20779
398.497	14566
398.576	15195
398.655	12344
398.734	10326
398.813	11562
398.892	39772
398.971	137801
399.050	67060
399.129	12554
399.208	9554
399.287	10165
399.366	8153
399.445	8836
399.524	10265
399.603	11395
399.682	25959
399.761	60625
399.840	151826
399.919	109828
399.998	18400
400.077	8657
400.156	7637
400.235	12264
400.313	9460
400.392	15760
400.471	78406
400.550	130688
400.629	35614
400.708	16378
400.786	13748
400.865	32105
400.944	38959
401.023	20948
401.102	5703
401.180	6713
401.259	7442
401.338	10857
401.416	18487
401.495	17015
401.574	10633
401.652	11174
401.731	16139
401.810	16644
401.888	9835
401.967	6341
402.046	9833
402.124	15316
402.203	22414
402.281	12583
402.360	16644
402.438	41905
402.517	30594
402.596	12020
402.674	11391
402.753	8263
402.831	7354
402.910	11431
402.988	47722
403.066	165241
403.145	91258
403.223	52040
403.302	139244
403.380	101486
403.459	106536
403.537	43454
403.615	17271
403.694	7117
403.772	5589
403.850	5832
403.929	5847
404.007	8801
404.085	24198
404.164	31316
404.242	11007
404.320	11641
404.398	21988
404.477	61958
404.555	285122
404.633	245101
404.711	38839
404.789	13188
404.868	13889
404.946	10051
405.024	5395
405.102	6623
405.180	6106
405.258	7073
405.336	8065
405.415	8970
405.493	21317
405.571	22674
405.649	8448
405.727	7377
405.805	13774
405.883	15054
405.961	14646
406.039	14964
406.117	9400
406.195	18128
406.273	72563
406.351	262618
406.429	149607
406.507	26145
406.585	11294
406.663	13521
406.740	21063
406.818	18273
406.896	8869
406.974	11527
407.052	26144
407.130	157117
407.208	219936
407.285	44814
407.363	11304
407.441	10691
407.519	9150
407.596	12213
407.674	26199
407.752	59971
407.830	62114
407.907	30049
407.985	15599
408.063	8453
408.141	6297
408.218	13297
408.296	17142
408.373	15679
408.451	15418
408.529	15270
408.606	6100
408.684	5323
408.762	3941
408.839	3755
408.917	4659
408.994	6243
409.072	6641
409.149	6762
409.227	11406
409.304	15230
409.382	11550
409.459	12850
409.537	19811
409.614	19409
409.692	13950
409.769	13668
409.846	19566
409.924	25485
410.001	21961
410.079	16011
410.156	11821
410.233	10877
410.311	10681
410.388	9078
410.465	11293
410.543	11220
410.620	7580
410.697	11725
410.775	13398
410.852	7486
410.929	12503
411.006	17938
411.083	9810
411.161	24453
411.238	24205
411.315	12630
411.392	8124
411.469	13768
411.547	14231
411.624	8270
411.701	7743
411.778	11380
411.855	31514
411.932	17111
412.009	8582
412.086	6744
412.163	9352
412.240	11438
412.317	13272
412.394	11835
412.471	5978
412.548	5723
412.625	7914
412.702	11747
412.779	20558
412.856	13735
412.933	5983
413.010	5835
413.087	12071
413.164	76238
413.241	107413
413.318	28511
413.395	16573
413.471	28728
413.548	11600
413.625	8607
413.702	11458
413.779	7941
413.855	3363
413.932	3445
414.009	4130
414.086	4296
414.162	5370
414.239	12898
414.316	71527
414.393	160790
414.469	55595
414.546	7894
414.623	4660
414.699	6038
414.776	10118
414.853	6740
414.929	7288
415.006	6799
415.082	8327
415.159	6676
415.236	5705
415.312	8021
415.389	20712
415.465	28658
415.542	13882
415.618	10058
415.695	18175
415.771	13320
415.848	11025
415.924	9525
416.000	6639
416.077	5161
416.153	2255
416.230	2898
416.306	3312
416.383	4740
416.459	4784
416.535	3571
416.612	4512
416.688	5020
416.764	6183
416.841	6083
416.917	6186
416.993	7145
417.069	9228
417.146	12834
417.222	17641
417.298	11137
417.374	6797
417.451	9133
417.527	13255
417.603	16411
417.679	10499
417.755	7471
417.831	4328
417.908	3920
417.984	3423
418.060	5894
418.136	22890
418.212	31860
418.288	11204
418.364	5749
418.440	7204
418.516	14158
418.592	15890
418.668	36109
418.744	59461
418.820	42427
418.896	9848
418.972	4748
419.048	7305
419.124	26597
419.200	20722
419.276	5955
419.352	2650
419.428	4179
419.504	8427
419.579	12908
419.655	8806
419.731	9625
419.807	37088
419.883	70640
419.959	47100
420.034	13106
420.110	23966
420.186	100881
420.262	73265
420.337	14508
420.413	12441
420.489	6466
420.565	5525
420.640	6850
420.716	7400
420.792	5398
420.867	7136
420.943	6907
421.019	16831
421.094	13844
421.170	6482
421.245	4837
421.321	6247
421.397	8325
421.472	12496
421.548	31833
421.623	26819
421.699	13503
421.774	14140
421.850	12340
421.925	25221
422.001	21683
422.076	15862
422.152	19850
422.227	33409
422.302	35814
422.378	49770
422.453	91612
422.529	203882
422.604	523496
422.679	764189
422.755	582271
422.830	231173
422.905	93409
422.981	51389
423.056	33262
423.131	24703
423.207	19925
423.282	21668
423.357	40696
423.432	26535
423.508	26266
423.583	62072
423.658	44776
423.733	15448
423.808	16872
423.883	20464
423.959	18307
424.034	14196
424.109	10742
424.184	6298
424.259	6121
424.334	5291
424.409	5558
424.484	6089
424.559	9313
424.634	8468
424.709	13540
424.784	16208
424.859	10077
424.934	17530
425.009	75948
425.084	120198
425.159	41877
425.234	8102
425.309	5924
425.384	21922
425.459	38101
425.534	11724
425.609	6878
425.683	5174
425.758	5483
425.833	6641
425.908	10916
425.983	47219
426.058	133041
426.132	53896
426.207	11177
426.282	12588
426.357	11418
426.431	5053
426.506	5080
426.581	6124
426.655	6269
426.730	5761
426.805	7458
426.879	7094
426.954	7555
427.029	19001
427.103	103766
427.178	232006
427.253	94873
427.327	13781
427.402	17476
427.476	42149
427.551	20843
427.625	6866
427.700	6867
427.774	5034
427.849	7563
427.923	4111
427.998	5521
428.072	7188
428.147	17849
428.221	76588
428.296	200299
428.370	97433
428.444	16181
428.519	16403
428.593	30251
428.667	24897
428.742	31303
428.816	32765
428.890	124397
428.965	195317
429.039	62919
429.113	35584
429.188	14585
429.262	6748
429.336	17267
429.410	56849
429.485	33454
429.559	25660
429.633	20112
429.707	8807
429.781	25689
429.855	139555
429.930	213104
430.004	101220
430.078	133980
430.152	122958
430.226	237615
430.300	228788
430.374	38229
430.448	16094
430.522	45251
430.596	126890
430.670	82987
430.744	220313
430.818	312105
430.892	63675
430.966	13912
431.040	6762
431.114	3851
431.188	3711
431.262	5452
431.336	5541
431.410	15198
431.484	43421
431.557	30952
431.631	6159
431.705	8504
431.779	36746
431.853	163544
431.927	110018
432.000	14350
432.074	5853
432.148	7294
432.222	6985
432.295	4286
432.369	4840
432.443	12662
432.516	83420
432.590	210758
432.664	74527
432.737	11513
432.811	3501
432.885	2565
432.958	2476
433.032	3744
433.106	2089
433.179	2512
433.253	2889
433.326	3072
433.400	1328
433.473	2532
433.547	1338
433.620	3701
433.694	14771
433.767	13045
433.841	4027
433.914	3116
433.988	2932
434.061	2810
434.134	3654
434.208	2501
434.281	1175
434.355	3484
434.428	3865
434.501	2809
434.575	2381
434.648	3082
434.721	2090
434.795	1773
434.868	2407
434.941	2312
435.014	2502
435.088	4352
435.161	8990
435.234	17346
435.307	20707
435.381	10272
435.454	7612
435.527	9244
435.600	9597
435.673	7420
435.746	5352
435.819	5462
435.892	4545
435.966	3629
436.039	3544
436.112	2935
436.185	1345
436.258	2512
436.331	1077
436.404	1257
436.477	1379
436.550	1575
436.623	2067
436.696	2586
436.769	5332
436.842	4013
436.915	4831
436.987	8683
437.060	3258
437.133	2760
437.206	2095
437.279	3271
437.352	2070
437.425	3462
437.498	5047
437.570	14164
437.643	13432
437.716	3161
437.789	2296
437.861	10501
437.934	30424
438.007	13741
438.080	3755
438.152	6055
438.225	15496
438.298	102548
438.370	266717
438.443	106301
438.516	28751
438.588	8326
438.661	3231
438.734	3882
438.806	6034
438.879	6968
438.951	8886
439.024	15366
439.096	5566
439.169	2687
439.241	2566
439.314	2531
439.386	5734
439.459	9506
439.531	16171
439.604	7196
439.676	2206
439.749	2030
439.821	1723
439.893	2706
439.966	3042
440.038	6120
440.110	6407
440.183	4158
440.255	3030
440.327	8060
440.400	45562
440.472	186402
440.544	110336
440.617	15053
440.689	10466
440.761	16798
440.833	25820
440.905	15484
440.978	2527
441.050	2261
441.122	2008
441.194	2769
441.266	2600
441.338	3508
441.411	10727
441.483	70265
441.555	95778
441.627	18410
441.699	9293
441.771	9549
441.843	4450
441.915	3314
441.987	2880
442.059	3017
442.131	4582
442.203	9824
442.275	11904
442.347	10667
442.419	15465
442.491	79551
442.563	185873
442.635	72644
442.706	44202
442.778	31865
442.850	7827
442.922	5251
442.994	6910
443.066	11712
443.137	7604
443.209	8070
443.281	11900
443.353	27964
443.425	99630
443.496	344256
443.568	308505
443.640	104786
443.711	22134
443.783	10061
443.855	6203
443.926	4458
443.998	5227
444.070	7808
444.141	6504
444.213	13412
444.285	16057
444.356	12145
444.428	9675
444.499	4848
444.571	2623
444.642	2542
444.714	5755
444.785	13419
444.857	12768
444.928	25247
445.000	13090
445.071	18081
445.143	21259
445.214	16273
445.285	24488
445.357	71179
445.428	227109
445.500	489651
445.571	289396
445.642	146404
445.714	55880
445.785	44280
445.856	15985
445.928	18428
445.999	13567
446.070	10484
446.141	11608
446.213	16950
446.284	7677
446.355	6985
446.426	4694
446.497	5879
446.569	9313
446.640	18500
446.711	13908
446.782	4658
446.853	7125
446.924	8085
446.995	6158
447.066	5598
447.138	8961
447.209	4652
447.280	1927
447.351	2257
447.422	1941
447.493	5065
447.564	8269
447.635	13202
447.706	4406
447.777	1538
447.847	1689
447.918	2266
447.989	5292
448.060	7161
448.131	16980
448.202	16179
448.273	13711
448.344	4778
448.414	3405
448.485	2700
448.556	2492
448.627	1780
448.698	2904
448.768	1777
448.839	2031
448.910	9207
448.981	7703
449.051	4451
449.122	1728
449.193	2016
449.263	2581
449.334	1546
449.405	6323
449.475	19257
449.546	9678
449.616	10617
449.687	7496
449.758	3954
449.828	2758
449.899	3229
449.969	2534
450.040	2442
450.110	4050
450.181	5648
450.251	2376
450.322	2840
450.392	2637
450.463	2800
450.533	1424
450.604	2395
450.674	2291
450.744	2676
450.815	2296
450.885	2633
450.955	2155
451.026	1949
451.096	2368
451.166	4289
451.237	10483
451.307	24737
451.377	8507
451.447	2660
451.518	1718
451.588	1695
451.658	2929
451.728	6673
451.799	25948
451.869	25431
451.939	5535
452.009	2509
452.079	1356
452.149	3437
452.219	7779
452.289	28927
452.360	17677
452.430	3723
452.500	5725
452.570	7934
452.640	9469
452.710	27573
452.780	36714
452.850	33418
452.920	30632
452.990	8760
453.060	5589
453.129	9699
453.199	10375
453.269	34204
453.339	62188
453.409	90227
453.479	103098
453.549	141772
453.619	147955
453.688	47013
453.758	7920
453.828	4408
453.898	3120
453.968	3775
454.037	3104
454.087	3078
454.107	3068
454.168	1984
454.177	1824
454.247	1793
454.249	1801
454.316	1983
454.330	2368
454.386	3838
454.411	7784
454.456	14437
454.492	17563
454.525	20456
454.574	10417
454.595	6030
454.655	3540
454.665	3162
454.734	3092
454.736	3230
454.804	8409
454.817	11425
454.873	24007
454.898	25118
454.943	27173
454.979	18210
455.013	10086
455.060	6023
455.082	4282
455.141	4636
455.152	4621
455.221	15860
455.222	16007
455.291	28864
455.303	25394
455.360	9640
455.384	9309
455.430	8979
455.465	9139
455.499	9060
455.546	17335
455.569	21204
455.627	14317
455.638	13065
455.707	2569
455.708	2571
455.777	2622
455.789	2606
455.846	2590
455.869	2445
455.916	2135
455.950	2396
455.985	2594
456.031	2725
456.054	2761
456.112	2072
456.124	1988
456.193	1942
456.193	1936
456.262	2001
456.274	2287
456.332	3834
456.355	4009
456.401	3993
456.436	3620
456.470	3416
456.516	2008
456.540	1339
456.597	1846
456.609	1908
456.678	2788
456.678	2788
456.747	1084
456.759	1115
456.817	1503
456.840	1539
456.886	1504
456.920	1228
456.955	1008
457.001	2043
457.024	2518
457.082	2654
457.093	2715
457.162	4943
457.163	4952
457.232	6271
457.243	5811
457.301	3306
457.324	2325
457.370	903
457.405	1429
457.439	1946
457.485	2225
457.508	2332
457.566	2077
457.577	2069
457.646	2792
457.647	2819
457.715	5960
457.727	6363
457.784	8947
457.808	12300
457.853	17550
457.889	20911
457.922	22663
457.969	15160
457.991	13410
458.050	14999
458.060	15183
458.129	26678
458.130	26967
458.198	34591
458.211	31196
458.267	16163
458.292	11583
458.336	6325
458.372	6105
458.405	7463
458.453	9865
458.474	11765
458.533	22680
458.543	23834
458.611	48701
458.614	48703
458.680	35512
458.694	29271
458.749	11730
458.775	8738
458.818	4909
458.855	3703
458.887	2915
458.936	3153
458.955	3156
459.016	2206
459.024	2139
459.093	2705
459.097	2713
459.162	2716
459.177	2858
459.230	3560
459.257	4247
459.299	4775
459.338	4117
459.368	3970
459.418	5258
459.437	5478
459.499	3922
459.505	3794
459.574	2875
459.579	2927
459.643	3424
459.659	3266
459.711	3243
459.740	3598
459.780	3678
459.820	3686
459.849	3791
459.900	3963
459.917	3986
459.981	4107
459.986	4133
460.054	4155
460.061	4146
460.123	4222
460.141	4350
460.191	5278
460.222	6259
460.260	7027
460.302	8561
460.328	8964
460.382	6556
460.397	5954
460.462	4344
460.465	4345
460.534	4875
460.543	4994
460.602	10588
460.623	13102
460.671	18508
460.703	26507
460.739	29643
460.783	26396
460.808	23425
460.864	7572
460.876	5520
460.944	3142
460.945	3119
461.013	3600
461.024	3588
461.081	3522
461.104	3930
461.150	4204
461.184	3565
461.218	3089
461.264	2856
461.286	2909
461.345	2820
461.355	2732
461.423	3041
461.425	3024
461.491	2435
461.505	2508
461.559	4893
461.585	6000
461.628	8384
461.665	11517
461.696	13803
461.745	21154
461.764	20988
461.825	8036
461.832	7358
461.901	3761
461.905	3802
461.969	3813
461.985	3640
462.037	3512
462.065	3371
462.105	3222
462.145	3084
462.173	4025
462.225	6694
462.241	7240
462.305	11129
462.310	11101
462.378	9066
462.385	8346
462.446	4171
462.465	3669
462.514	3405
462.545	3610
462.582	3790
462.625	3843
462.650	3509
462.705	2314
462.718	2357
462.785	3233
462.786	3248
462.854	3765
462.865	4042
462.922	5742
462.945	6347
462.990	5900
463.025	4442
463.058	3488
463.104	2663
463.126	2267
463.184	1721
463.194	1874
463.262	3067
463.264	3109
463.330	3042
463.344	2981
463.398	3853
463.424	4354
463.466	3639
463.504	2745
463.533	2912
463.583	3534
463.601	3884
463.663	4614
463.669	4625
463.737	5339
463.743	5435
463.805	8199
463.823	8783
463.873	11547
463.903	13944
463.940	15451
463.982	17998
464.008	16180
464.062	7968
464.076	7154
464.142	3678
464.144	3612
464.211	3041
464.221	3000
464.279	3276
464.301	3391
464.347	3508
464.381	3729
464.414	4397
464.461	5121
464.482	5302
464.540	5959
464.550	5862
464.617	4874
464.620	4839
464.685	5809
464.699	6023
464.753	6661
464.779	7041
464.820	7799
464.859	8420
464.888	7667
464.938	6220
464.956	6449
465.018	7508
465.023	7464
465.091	6628
465.098	6519
465.158	5486
465.177	5280
465.226	5662
465.257	5810
465.293	6328
465.336	6861
465.361	7090
465.416	7931
465.428	8414
465.495	11025
465.496	11059
465.563	14825
465.575	15602
465.631	18770
465.654	20435
465.698	14461
465.734	7917
465.765	7197
465.813	6688
465.833	6123
465.893	5020
465.900	5058
465.968	5353
465.972	5380
466.035	4995
466.052	4838
466.102	5573
466.131	6038
466.170	5850
466.210	5616
466.237	6131
466.290	7172
466.304	7014
466.369	6170
466.372	6202
466.439	7189
466.449	7308
466.506	8065
466.528	8354
466.573	10458
466.607	12009
466.641	16523
466.687	22912
466.708	25079
466.766	31517
466.775	29630
466.842	14697
466.845	13973
466.909	10388
466.925	9683
466.977	8695
467.004	8209
467.044	8222
467.083	8245
467.111	8729
467.163	9656
467.178	10135
467.242	12124
467.245	12060
467.312	10587
467.321	10389
467.379	9960
467.400	9787
467.446	9608
467.480	9466
467.559	9229
467.638	8805
467.717	7806
467.796	8754
467.875	10301
467.955	10081
468.034	12529
468.113	23562
468.192	34521
468.271	13333
468.350	8951
468.429	10398
468.508	10880
468.588	8118
468.667	8836
468.746	8090
468.825	8507
468.904	6980
468.983	8299
469.062	11029
469.141	14482
469.220	7148
469.299	7472
469.378	7353
469.456	9926
469.535	9291
469.614	8208
469.693	8149
469.772	11169
469.851	12777
469.930	11210
470.009	9232
470.088	9315
470.166	12665
470.245	20737
470.324	25625
470.403	17658
470.482	11762
470.560	8173
470.639	8906
470.718	10781
470.797	8938
470.875	8670
470.954	11791
471.033	12471
471.111	6767
471.190	6448
471.269	5085
471.347	5995
471.426	6329
471.505	7392
471.583	7997
471.662	8157
471.740	6555
471.819	7276
471.898	6279
471.976	7055
472.055	5994
472.133	7539
472.212	8577
472.290	8886
472.369	6710
472.447	6933
472.526	5507
472.604	7818
472.683	6192
472.761	9451
472.839	7483
472.918	7159
472.996	6130
473.075	7604
473.153	6767
473.231	6091
473.310	6532
473.388	7882
473.466	6799
473.545	8365
473.623	11192
473.701	11400
473.780	7020
473.858	4980
473.936	8838
474.014	7656
474.093	6867
474.171	10212
474.249	12547
474.327	9904
474.405	5591
474.484	6476
474.562	5771
474.640	6365
474.718	5603
474.796	6767
474.874	6758
474.952	6529
475.030	5594
475.108	6651
475.187	7170
475.265	7901
475.343	12316
475.421	15189
475.499	6655
475.577	6634
475.655	8804
475.733	14510
475.811	23901
475.889	21602
475.966	16611
476.044	7183
476.122	8601
476.200	11701
476.278	10151
476.356	5954
476.434	5817
476.512	8448
476.590	10935
476.667	10774
476.745	6203
476.823	6437
476.901	5979
476.979	6029
477.056	5607
477.134	6529
477.212	5768
477.290	6068
477.367	5081
477.445	6381
477.523	4267
477.601	4924
477.678	5879
477.756	5494
477.834	7143
477.911	5664
477.989	4596
478.066	5811
478.144	5784
478.222	8803
478.299	13657
478.377	14493
478.454	4983
478.532	4956
478.609	5441
478.687	6438
478.764	4812
478.842	5026
478.919	6127
478.997	7093
479.074	5144
479.152	5601
479.229	7721
479.307	5103
479.384	3946
479.461	4051
479.539	4603
479.616	6167
479.694	5016
479.771	5748
479.848	5792
479.926	6303
480.003	8612
480.080	5679
480.157	4412
480.235	4505
480.312	4650
480.389	5615
480.467	7806
480.544	10691
480.621	5455
480.698	5799
480.775	6624
480.853	5988
480.930	4126
481.007	5055
481.084	5195
481.161	6500
481.238	5930
481.315	4593
481.392	4583
481.470	4895
481.547	5875
481.624	4961
481.701	3698
481.778	4753
481.855	5577
481.932	7547
482.009	12669
482.086	10529
482.163	5465
482.240	11113
482.317	18522
482.393	16149
482.470	4815
482.547	5577
482.624	5023
482.701	6085
482.778	5123
482.855	4928
482.932	4463
483.009	3908
483.085	5181
483.162	6071
483.239	7278
483.316	4790
483.393	5015
483.469	4682
483.546	5748
483.623	6521
483.699	4250
483.776	5026
483.853	5842
483.930	8630
484.006	19967
484.083	34640
484.160	23758
484.236	30683
484.313	25436
484.389	18148
484.466	16812
484.543	15725
484.619	17462
484.696	17371
484.772	17399
484.849	17796
484.925	14824
485.002	14929
485.078	15012
485.155	15554
485.231	14810
485.308	13028
485.384	14010
485.461	16568
485.537	24169
485.614	30376
485.690	14905
485.766	13156
485.843	14854
485.919	22450
485.995	24296
486.072	13600
486.148	11737
486.224	12565
486.301	13008
486.377	14735
486.453	14808
486.530	15364
486.606	18983
486.682	22094
486.758	22732
486.835	27416
486.911	20967
486.987	32228
487.063	44450
487.139	58632
487.215	42183
487.292	21502
487.368	15769
487.444	16647
487.520	20796
487.596	20383
487.672	29524
487.748	76702
487.824	121331
487.900	52599
487.976	18542
488.052	17466
488.128	19767
488.204	17028
488.280	14608
488.356	15452
488.432	27350
488.508	41639
488.584	19525
488.660	14518
488.736	13926
488.812	14373
488.888	18055
488.964	23924
489.039	53873
489.115	90942
489.191	61142
489.267	15836
489.343	12387
489.418	11346
489.494	10162
489.570	9097
489.646	11600
489.722	11733
489.797	11362
489.873	15672
489.949	29568
490.024	30303
490.100	10178
490.176	10349
490.251	14519
490.327	19544
490.403	11807
490.478	10076
490.554	8543
490.629	9206
490.705	9644
490.781	11403
490.856	9014
490.932	11993
491.007	12127
491.083	11298
491.158	9062
491.234	11104
491.309	22112
491.385	26387
491.460	11163
491.536	11188
491.611	10029
491.686	11261
491.762	16088
491.837	34935
491.913	60702
491.988	83152
492.063	115052
492.139	33425
492.214	15677
492.289	9147
492.365	7932
492.440	10700
492.515	9668
492.590	9995
492.666	8128
492.741	10756
492.816	14869
492.891	9877
492.967	7924
493.042	6905
493.117	6297
493.192	8260
493.267	8474
493.342	13548
493.418	13934
493.493	8156
493.568	6259
493.643	7008
493.718	9241
493.793	13635
493.868	18849
493.943	13459
494.018	9201
494.093	7653
494.168	7211
494.243	6837
494.318	6578
494.393	7358
494.468	6672
494.543	5801
494.618	8390
494.693	7506
494.768	6362
494.842	7700
494.917	6593
494.992	7343
495.067	7098
495.142	6218
495.217	8545
495.292	7982
495.366	8015
495.441	11558
495.516	14273
495.591	19536
495.665	74090
495.740	186028
495.815	103952
495.890	13882
495.964	7167
496.039	10249
496.114	7851
496.188	9305
496.263	9382
496.338	7570
496.412	8281
496.487	10876
496.561	11343
496.636	14239
496.710	9754
496.785	10407
496.860	11316
496.934	10154
497.009	10207
497.083	10327
497.158	10075
497.232	12775
497.307	14182
497.381	13105
497.455	14352
497.530	18446
497.604	14273
497.679	15337
497.753	20589
497.827	29316
497.902	28363
497.976	31115
498.050	53286
498.125	197970
498.199	258303
498.273	57592
498.348	39498
498.422	30320
498.496	28211
498.570	25678
498.645	17372
498.719	15179
498.793	17527
498.867	24400
498.941	30595
499.016	77646
499.090	219983
499.164	118096
499.238	14348
499.312	10633
499.386	13629
499.460	13433
499.534	11278
499.609	13556
499.683	17992
499.757	17415
499.831	32264
499.905	135128
499.979	166144
500.053	26961
500.127	25807
500.201	22022
500.275	12980
500.349	10916
500.422	12555
500.496	18342
500.570	40774
500.644	89203
500.718	158497
500.792	53475
500.866	10732
500.940	12496
501.013	11579
501.087	10999
501.161	19519
501.235	26033
501.309	42697
501.382	122793
501.456	142950
501.530	31896
501.603	40271
501.677	23257
501.751	7553
501.825	10902
501.898	16323
501.972	46477
502.046	41099
502.119	10218
502.193	22354
502.266	55188
502.340	35615
502.413	22943
502.487	48005
502.561	32159
502.634	12376
502.708	9651
502.781	7497
502.855	7982
502.928	4220
503.002	6106
503.075	5631
503.149	6033
503.222	6174
503.295	6353
503.369	8497
503.442	10983
503.516	34048
503.589	96322
503.662	75639
503.736	21455
503.809	42609
503.882	42741
503.956	50681
504.029	60613
504.102	50285
504.175	74976
504.249	31391
504.322	14376
504.395	9956
504.468	6908
504.542	6223
504.615	5729
504.688	6261
504.761	4353
504.834	7862
504.907	9964
504.980	17976
505.053	9689
505.127	9129
505.200	13865
505.273	9052
505.346	6379
505.419	3977
505.492	5764
505.565	3500
505.638	4730
505.711	4004
505.784	3371
505.857	3658
505.930	5145
506.003	2936
506.076	6521
506.149	6279
506.221	7507
506.294	8245
506.367	17652
506.440	65899
506.513	53309
506.586	10837
506.659	6699
506.731	5117
506.804	6527
506.877	11481
506.950	8688
507.022	5344
507.095	5956
507.168	8371
507.241	7609
507.313	4286
507.386	5109
507.459	10752
507.531	7301
507.604	4427
507.677	5109
507.749	3300
507.822	7101
507.894	13946
507.967	18873
508.040	9822
508.112	9338
508.185	8645
508.257	6716
508.330	12646
508.402	7674
508.475	6830
508.547	7991
508.620	7021
508.692	10591
508.765	8673
508.837	4281
508.909	5592
508.982	5448
509.054	7549
509.127	6215
509.199	4844
509.271	5189
509.344	4737
509.416	5080
509.488	4497
509.560	6647
509.633	5629
509.705	8040
509.777	6644
509.849	11276
509.922	7924
509.994	5563
510.066	6190
510.138	5707
510.210	14067
510.283	12789
510.355	10078
510.427	9438
510.499	9017
510.571	8381
510.643	7250
510.715	14275
510.787	13366
510.859	10328
510.931	9670
511.003	13832
511.076	14466
511.148	6366
511.219	6081
511.291	10785
511.363	14605
511.435	7667
511.507	5580
511.579	7341
511.651	7764
511.723	6461
511.795	6576
511.867	6985
511.939	6709
512.010	14925
512.082	14836
512.154	7519
512.226	7766
512.298	10746
512.369	17443
512.441	15022
512.513	14297
512.585	11124
512.656	10982
512.728	11108
512.800	8369
512.871	8753
512.943	8625
513.015	6656
513.086	9387
513.158	10840
513.230	9171
513.301	14571
513.373	19651
513.444	11737
513.516	7560
513.588	7947
513.659	9321
513.731	12498
513.802	10355
513.874	22700
513.945	45074
514.016	18840
514.088	8123
514.159	9087
514.231	13160
514.302	17455
514.374	12155
514.445	10611
514.516	18825
514.588	16111
514.659	9624
514.730	15801
514.802	17985
514.873	13410
514.944	14117
515.016	11900
515.087	11755
515.158	14566
515.229	20354
515.301	13314
515.372	17900
515.443	12773
515.514	10204
515.585	7715
515.656	9017
515.728	8667
515.799	7672
515.870	9712
515.941	10500
516.012	8913
516.083	13974
516.154	15566
516.225	21615
516.296	22572
516.367	20378
516.438	22368
516.509	28468
516.580	40025
516.651	128815
516.722	504507
516.793	319756
516.864	47561
516.935	40130
517.006	43339
517.077	56680
517.148	123787
517.219	494248
517.289	971393
517.360	245465
517.431	66941
517.502	20663
517.573	18899
517.643	16628
517.714	17998
517.785	19114
517.856	20380
517.926	27244
517.997	34245
518.068	43026
518.138	59125
518.209	85133
518.280	309713
518.350	1201307
518.421	695730
518.492	83861
518.562	35475
518.633	26383
518.703	23455
518.774	35653
518.845	81761
518.915	100462
518.986	35847
519.056	22930
519.127	35306
519.197	52057
519.268	94957
519.338	71903
519.408	18638
519.479	23516
519.549	19531
519.620	13216
519.690	9405
519.760	8512
519.831	9157
519.901	9148
519.971	8293
520.042	6714
520.112	9396
520.182	12459
520.253	15364
520.323	9260
520.393	12506
520.463	21399
520.534	12504
520.604	29909
520.674	16538
520.744	11118
520.814	29945
520.885	32993
520.955	25459
521.025	91147
521.095	56238
521.165	10486
521.235	8243
521.305	7119
521.375	7403
521.445	8005
521.515	11311
521.585	14999
521.655	14372
521.725	11478
521.795	10522
521.865	5502
521.935	11731
522.005	10213
522.075	6392
522.145	8161
522.215	7199
522.285	12814
522.355	14198
522.424	28201
522.494	25971
522.564	15798
522.634	28905
522.704	96195
522.774	51590
522.843	10215
522.913	9463
522.983	11590
523.053	9902
523.122	9626
523.192	11365
523.262	48185
523.331	64941
523.401	13004
523.471	5777
523.540	7985
523.610	5334
523.680	5186
523.749	6498
523.819	6792
523.888	7295
523.958	5182
524.027	5343
524.097	6412
524.166	6208
524.236	7724
524.305	9746
524.375	5434
524.444	4532
524.514	7768
524.583	5801
524.653	6185
524.722	9067
524.791	5723
524.861	7255
524.930	4727
524.999	5954
525.069	10106
525.138	7810
525.207	8655
525.277	7515
525.346	6432
525.415	7071
525.484	6326
525.554	7823
525.623	9285
525.692	7992
525.761	9085
525.830	10354
525.900	12052
525.969	18066
526.038	28278
526.107	50959
526.176	171657
526.245	174671
526.314	55408
526.383	83740
526.452	133288
526.522	187153
526.591	252767
526.660	77439
526.729	38941
526.797	32931
526.867	60108
526.935	266374
527.004	492037
527.073	341951
527.142	36122
527.211	14874
527.280	11030
527.349	13483
527.418	6436
527.487	7101
527.555	5438
527.624	4773
527.693	3605
527.762	6153
527.831	3529
527.899	5955
527.968	5639
528.037	4781
528.106	7729
528.174	16107
528.243	13104
528.312	15312
528.380	26813
528.449	8419
528.518	6258
528.586	2667
528.655	4192
528.723	3883
528.792	3661
528.861	4175
528.929	2654
528.998	5385
529.066	3287
529.135	4361
529.203	3094
529.272	3319
529.340	4126
529.409	5784
529.477	3778
529.545	4616
529.614	7692
529.682	5792
529.751	8159
529.819	9665
529.887	6378
529.956	3637
530.024	4970
530.092	3826
530.161	6527
530.229	11673
530.297	6698
530.365	4901
530.434	4173
530.502	2786
530.570	3454
530.638	2523
530.707	5191
530.775	6980
530.843	4133
530.911	4434
530.979	3833
531.047	2846
531.115	4268
531.183	4348
531.252	3763
531.320	4395
531.388	3488
531.456	4432
531.524	2159
531.592	5062
531.660	5104
531.728	3741
531.796	2978
531.864	4176
531.932	4280
532.000	3720
532.067	4263
532.135	5578
532.203	7579
532.271	7240
532.339	12654
532.407	45061
532.475	32949
532.542	12261
532.610	10872
532.678	13933
532.746	57839
532.814	197157
532.881	64530
532.949	9227
533.017	6714
533.084	5320
533.152	4800
533.220	5192
533.287	5260
533.355	4068
533.423	4795
533.490	4312
533.558	4755
533.625	5012
533.693	5639
533.761	5241
533.828	6136
533.896	4430
533.963	12279
534.031	18477
534.098	25537
534.166	14064
534.233	5000
534.300	6319
534.368	5607
534.435	5832
534.503	6695
534.570	8314
534.637	7319
534.705	8120
534.772	10288
534.840	15120
534.907	71965
534.974	129314
535.041	20323
535.109	9105
535.176	6579
535.243	6002
535.310	4616
535.378	5215
535.445	4032
535.512	4773
535.579	4897
535.646	4859
535.714	4991
535.781	6390
535.848	7031
535.915	6818
535.982	5026
536.049	5377
536.116	6333
536.183	5255
536.250	6126
536.317	6725
536.384	8273
536.451	14588
536.518	16327
536.585	9476
536.652	12815
536.719	19471
536.786	15711
536.853	11978
536.920	15442
536.987	28207
537.053	25710
537.120	87129
537.187	103728
537.254	11633
537.321	7122
537.388	7919
537.454	5754
537.521	6350
537.588	5203
537.654	6905
537.721	8415
537.788	8802
537.855	5598
537.921	6486
537.988	7480
538.055	7913
538.121	5425
538.188	7774
538.254	12515
538.321	30825
538.388	21681
538.454	8782
538.521	7084
538.587	6261
538.654	5657
538.720	6965
538.787	5091
538.853	7471
538.920	8155
538.986	9760
539.053	7710
539.119	8307
539.185	8363
539.252	10983
539.318	15919
539.385	14329
539.451	9754
539.517	10905
539.583	10607
539.650	23724
539.716	75838
539.782	29210
539.849	7865
539.915	9125
539.981	7531
540.047	10892
540.114	9931
540.180	10703
540.246	9088
540.312	13628
540.378	28548
540.444	33201
540.510	25975
540.576	84430
540.643	36461
540.709	8081
540.775	7442
540.841	8366
540.907	9311
540.973	17404
541.039	15904
541.105	19042
541.171	9697
541.237	8025
541.303	9371
541.369	11507
541.435	14009
541.500	26913
541.566	19674
541.632	7996
541.698	6912
541.764	8181
541.830	7107
541.896	6297
541.961	7527
542.027	7348
542.093	7516
542.159	9366
542.224	8694
542.290	14429
542.356	24934
542.421	33656
542.487	15802
542.553	8957
542.618	8681
542.684	9501
542.750	8985
542.815	10538
542.881	16718
542.947	67338
543.012	66681
543.078	10495
543.143	6887
543.209	9419
543.274	9119
543.340	10253
543.405	23630
543.471	49459
543.536	12595
543.602	8281
543.667	6462
543.732	7989
543.798	6392
543.863	8146
543.928	6995
543.994	5999
544.059	7009
544.124	7537
544.190	6920
544.255	8447
544.320	9089
544.386	9047
544.451	13747
544.516	16473
544.581	13525
544.646	39682
544.712	80716
544.777	19238
544.842	9997
544.907	9838
544.972	9222
545.037	8987
545.102	10373
545.168	9902
545.233	10241
545.298	11596
545.363	12616
545.428	15499
545.493	25155
545.558	63252
545.623	31319
545.688	10694
545.753	10086
545.818	9039
545.883	10496
545.947	10040
546.012	10702
546.077	10817
546.142	11819
546.207	10379
546.272	15463
546.337	17416
546.401	13598
546.466	12820
546.531	10385
546.596	13010
546.661	12592
546.725	13353
546.790	11212
546.855	12530
546.919	11833
546.984	14812
547.049	14626
547.113	18261
547.178	17682
547.243	20504
547.307	22420
547.372	26554
547.436	27241
547.501	26457
547.565	26449
547.630	29549
547.695	30368
547.759	27805
547.823	25993
547.888	23865
547.952	23223
548.017	24540
548.081	28578
548.146	31820
548.210	29654
548.274	27200
548.339	28122
548.403	25454
548.468	23810
548.532	23110
548.596	23112
548.660	23886
548.725	26839
548.789	30536
548.853	32561
548.917	27503
548.982	29077
549.046	29670
549.110	21653
549.174	22496
549.238	24316
549.303	26041
549.367	28456
549.431	26949
549.495	25835
549.559	24863
549.623	28506
549.687	32964
549.751	40498
549.815	39072
549.879	37890
549.943	34350
550.007	38074
550.071	38006
550.135	39529
550.199	33628
550.263	32481
550.327	31338
550.391	34423
550.455	34781
550.519	35210
550.582	38569
550.646	46848
550.710	50674
550.774	41618
550.838	43425
550.901	43708
550.965	46217
551.029	47011
551.093	52839
551.156	59499
551.220	81036
551.284	102604
551.347	68466
551.411	69400
551.475	78030
551.538	48455
551.602	42612
551.666	39465
551.729	36599
551.793	36903
551.856	36014
551.920	35076
551.983	34970
552.047	34485
552.110	35310
552.174	35353
552.237	37565
552.301	34844
552.364	33581
552.428	32438
552.491	34147
552.554	35296
552.618	36183
552.681	38033
552.745	41441
552.808	60356
552.871	91174
552.934	60447
552.998	39768
553.061	35619
553.124	33650
553.187	32763
553.251	33665
553.314	34431
553.377	32625
553.440	35397
553.503	38580
553.567	41003
553.630	34964
553.693	34436
553.756	35344
553.819	34217
553.882	33769
553.945	33437
554.008	33641
554.071	32494
554.134	33987
554.197	32365
554.260	31333
554.323	33776
554.386	33834
554.449	32869
554.512	33211
554.575	31137
554.638	33580
554.701	32153
554.764	32620
554.827	30560
554.889	30061
554.952	27984
555.015	27343
555.078	27880
555.141	29485
555.203	27605
555.266	28197
555.329	27707
555.391	27780
555.454	28617
555.517	28204
555.580	24682
555.642	24301
555.705	23607
555.768	24545
555.830	23968
555.893	22869
555.955	22215
556.018	22075
556.080	21914
556.143	23487
556.206	23384
556.268	23176
556.330	24110
556.393	22835
556.455	20797
556.518	25619
556.580	26934
556.643	20975
556.705	20066
556.767	18497
556.830	19012
556.892	21969
556.955	29102
557.017	26612
557.079	18969
557.142	18267
557.204	21313
557.266	37480
557.328	34650
557.391	17585
557.453	16831
557.515	17306
557.577	19277
557.639	21994
557.701	17149
557.764	16255
557.826	17773
557.888	19649
557.950	19829
558.012	22296
558.074	25919
558.136	54291
558.198	158903
558.260	73337
558.322	24439
558.384	25154
558.446	27730
558.508	33409
558.570	40869
558.632	58623
558.694	89297
558.756	87744
558.818	234285
558.880	701252
558.942	277270
559.003	169309
559.065	102863
559.127	37066
559.189	35379
559.251	36668
559.312	49274
559.374	112515
559.436	434094
559.498	279600
559.559	44617
559.621	35104
559.683	36948
559.744	57391
559.806	183505
559.868	351054
559.929	78169
559.991	36905
560.052	49060
560.114	145631
560.176	114232
560.237	77579
560.299	157840
560.360	44018
560.422	16443
560.483	15110
560.545	11760
560.606	11871
560.667	11640
560.729	11886
560.790	10266
560.852	11766
560.913	11604
560.974	11924
561.036	10704
561.097	11474
561.158	11793
561.220	11610
561.281	11112
561.342	12336
561.403	14120
561.465	17630
561.526	41801
561.587	67467
561.648	19627
561.709	12322
561.771	11784
561.832	11110
561.893	11110
561.954	11462
562.015	11600
562.076	10508
562.137	10849
562.198	11914
562.259	10836
562.320	11760
562.381	13320
562.442	18128
562.503	17009
562.564	11040
562.625	10292
562.686	11079
562.747	12178
562.808	11258
562.869	11057
562.930	13069
562.991	11811
563.051	11453
563.112	10323
563.173	10593
563.234	10198
563.294	10434
563.355	10688
563.416	11590
563.477	10691
563.537	11066
563.598	12560
563.659	10915
563.720	11466
563.780	11916
563.841	12273
563.901	11886
563.962	10286
564.023	10832
564.083	11190
564.144	11344
564.204	10432
564.265	10881
564.325	13077
564.386	20024
564.446	20752
564.507	11884
564.567	10529
564.628	11901
564.688	10701
564.749	9402
564.809	11925
564.869	15066
564.930	11064
564.990	10580
565.050	10148
565.111	11156
565.171	10838
565.231	10522
565.292	11966
565.352	10883
565.412	11508
565.472	12352
565.532	12378
565.593	12057
565.653	11671
565.713	11214
565.773	12993
565.833	15333
565.893	19785
565.953	13655
566.013	12081
566.074	12165
566.134	13692
566.194	21973
566.254	25028
566.314	17729
566.374	13092
566.434	13900
566.494	13910
566.554	14466
566.614	13490
566.673	13809
566.733	15142
566.793	15512
566.853	16185
566.913	16139
566.973	17165
567.033	18124
567.092	16902
567.152	16900
567.212	17631
567.272	17256
567.331	18168
567.391	17840
567.451	20009
567.511	23130
567.570	22917
567.630	19125
567.690	17841
567.749	18336
567.809	19153
567.868	22788
567.928	24456
567.988	28153
568.047	31824
568.107	37866
568.166	51918
568.226	81611
568.285	116897
568.345	99411
568.404	78125
568.464	66337
568.523	59715
568.582	61352
568.642	66526
568.701	81961
568.761	118849
568.820	192764
568.879	188411
568.939	138748
568.998	98209
569.057	73049
569.116	56796
569.176	46575
569.235	37192
569.294	33108
569.353	28434
569.413	25894
569.472	23289
569.531	21251
569.590	19815
569.649	18877
569.708	17206
569.767	18662
569.827	19500
569.886	17737
569.945	15345
570.004	16208
570.063	15881
570.122	16302
570.181	16048
570.240	16479
570.299	16945
570.358	17326
570.417	13570
570.475	13820
570.534	13873
570.593	14392
570.652	14533
570.711	15724
570.770	13223
570.829	14663
570.887	14775
570.946	17838
571.005	13333
571.064	13649
571.122	15421
571.181	16723
571.240	12697
571.299	11872
571.357	12084
571.416	13255
571.475	12570
571.533	14212
571.592	11877
571.650	13004
571.709	11867
571.768	12709
571.826	12345
571.885	12202
571.943	10903
572.002	11959
572.060	12425
572.119	10354
572.177	10531
572.236	10403
572.294	10180
572.352	11668
572.411	10889
572.469	11132
572.528	10948
572.586	11117
572.644	13251
572.703	15916
572.761	12840
572.819	10272
572.877	9486
572.936	10314
572.994	9599
573.052	9872
573.110	11095
573.169	12001
573.227	10540
573.285	10910
573.343	10883
573.401	10977
573.459	10834
573.517	10902
573.576	10870
573.634	10995
573.692	11888
573.750	11332
573.808	9960
573.866	10594
573.924	12535
573.982	13558
574.040	10285
574.098	10997
574.155	10386
574.213	10486
574.271	10655
574.329	11420
574.387	9745
574.445	10262
574.503	8818
574.560	9853
574.618	9378
574.676	9175
574.734	9180
574.792	10437
574.849	9461
574.907	9353
574.965	10306
575.022	9210
575.080	9037
575.138	10202
575.195	9563
575.253	9738
575.311	11611
575.368	10644
575.426	9374
575.483	9969
575.541	9566
575.598	9490
575.656	9559
575.713	10725
575.771	9428
575.828	10068
575.886	9622
575.943	10903
576.001	10007
576.058	10193
576.115	10158
576.173	11449
576.230	12641
576.287	14763
576.345	12756
576.402	11380
576.459	10537
576.517	10579
576.574	11197
576.631	12301
576.688	11094
576.746	10374
576.803	10958
576.860	10462
576.917	10448
576.974	10883
577.031	9758
577.089	10781
577.146	9911
577.203	10541
577.260	11513
577.317	11129
577.374	12439
577.431	12592
577.488	11300
577.545	10763
577.602	10773
577.659	9763
577.716	11196
577.773	10137
577.830	9979
577.886	11712
577.943	9637
578.000	11293
578.057	10389
578.114	10942
578.171	10466
578.227	10813
578.284	10048
578.341	11479
578.398	11468
578.454	11573
578.511	12040
578.568	13576
578.625	11894
578.681	11173
578.738	10673
578.794	11074
578.851	11405
578.908	12417
578.964	11579
579.021	12524
579.077	11818
579.134	11438
579.190	11476
579.247	11842
579.303	11189
579.360	11279
579.416	11295
579.473	12434
579.529	10550
579.586	11433
579.642	12079
579.698	11559
579.755	10727
579.811	12474
579.867	10869
579.924	10901
579.980	11149
580.036	12050
580.093	10978
580.149	11816
580.205	12527
580.261	12465
580.317	11937
580.374	12559
580.430	13696
580.486	14208
580.542	11401
580.598	12983
580.619	12776
580.654	12407
580.692	12464
580.710	12469
580.765	12532
580.767	12517
580.823	13438
580.838	13258
580.879	12704
580.911	12609
580.935	12533
580.984	12988
580.991	13032
581.047	13118
581.057	13152
581.103	13204
581.130	13471
581.159	13692
581.203	13261
581.215	13132
581.270	14493
581.276	14449
581.326	13850
581.349	14045
581.382	14333
581.422	14691
581.438	14793
581.494	15371
581.494	15378
581.550	13988
581.567	14643
581.606	15916
581.640	15515
581.661	15255
581.713	16262
581.717	16325
581.773	15022
581.786	15410
581.829	16586
581.859	16310
581.885	16036
581.932	16831
581.940	16951
581.996	17173
582.004	17228
582.052	17384
582.077	17149
582.107	16901
582.150	18079
582.163	18384
582.219	17796
582.223	17818
582.274	18102
582.296	18346
582.330	18489
582.368	19005
582.386	19269
582.441	18177
582.441	18159
582.497	18688
582.514	18791
582.552	19133
582.587	19671
582.608	19993
582.659	19836
582.663	19789
582.719	20878
582.732	20745
582.774	20528
582.805	21103
582.830	21452
582.877	21182
582.885	21143
582.941	21819
582.950	21966
582.996	22900
583.023	23488
583.052	24035
583.095	23465
583.107	23260
583.162	24759
583.168	24756
583.218	24512
583.240	24667
583.273	25082
583.313	25171
583.328	25190
583.384	25661
583.385	25679
583.439	26115
583.458	26311
583.494	26661
583.531	26260
583.549	26159
583.603	26985
583.605	27014
583.660	28119
583.676	28097
583.715	28269
583.748	29023
583.770	29558
583.820	30788
583.825	30867
583.881	30229
583.893	30344
583.936	31350
583.965	31314
583.991	31123
584.038	32098
584.046	32344
584.101	32706
584.110	32987
584.156	34311
584.183	34115
584.211	34149
584.255	35122
584.266	35350
584.321	35235
584.328	35333
584.376	36852
584.400	37158
584.431	37731
584.472	38829
584.486	39046
584.541	39577
584.545	39561
584.596	40597
584.617	40800
584.651	41726
584.689	43389
584.706	44094
584.761	44421
584.762	44374
584.816	46099
584.834	46398
584.871	47157
584.906	48073
584.926	48794
584.978	49948
584.980	50085
585.035	52349
585.051	52940
585.090	55143
585.123	56749
585.145	57851
585.195	59125
585.200	59467
585.254	63957
585.267	64913
585.309	68968
585.340	71798
585.364	74196
585.412	78738
585.419	79798
585.473	88088
585.484	89493
585.528	101626
585.556	112049
585.583	141671
585.628	200030
585.637	227869
585.692	424558
585.700	458464
585.747	565936
585.772	549404
585.801	389870
585.845	174628
585.856	156365
585.910	107282
585.917	101445
585.965	94433
585.989	91289
586.019	90698
586.061	90138
586.074	90618
586.128	91691
586.133	91594
586.183	94568
586.205	95578
586.237	96978
586.277	97730
586.292	98411
586.346	100052
586.349	99889
586.401	102453
586.421	103259
586.455	106694
586.493	110879
586.509	115549
586.564	129244
586.565	129297
586.618	154414
586.637	160687
586.672	150241
586.709	135986
586.727	135273
586.781	137352
586.781	137755
586.835	138509
586.853	138737
586.889	141011
586.925	142185
586.944	144291
586.996	149263
586.998	149924
587.052	157704
587.068	159603
587.106	165245
587.140	168533
587.161	171925
587.212	179744
587.215	180721
587.269	189300
587.284	190977
587.323	199580
587.356	205493
587.377	209972
587.427	218992
587.431	220682
587.485	234794
587.499	237713
587.539	249247
587.571	257342
587.593	265617
587.643	281097
587.648	283844
587.702	305015
587.715	309161
587.755	328903
587.786	341857
587.810	354269
587.858	377385
587.864	382181
587.917	416931
587.930	423838
587.971	459294
588.001	482711
588.025	506027
588.073	548316
588.079	557008
588.133	619208
588.145	631113
588.187	694382
588.217	734880
588.241	781123
588.288	867444
588.295	885482
588.348	1012847
588.360	1036828
588.402	1167955
588.431	1253662
588.456	1355615
588.503	1542782
588.510	1584917
588.564	1884562
588.575	1941669
588.617	2287500
588.646	2515662
588.671	2780540
588.718	3267497
588.725	3337015
588.778	3795888
588.789	3877409
588.832	3911121
588.861	3901346
588.886	3634168
588.932	3021955
588.939	2997737
588.993	2706453
589.004	2668388
589.047	3469773
589.075	3958336
589.100	4069434
589.147	4176656
589.154	4153251
589.207	3858410
589.218	3787681
589.261	3601426
589.290	3461977
589.314	3530462
589.361	3638238
589.368	3687604
589.421	3999366
589.433	4052843
589.475	3995892
589.504	3920157
589.528	3662691
589.576	3042887
589.582	3119710
589.635	3776609
589.647	3897381
589.689	3996426
589.718	4017322
589.742	3681473
589.790	2974316
589.795	2922122
589.849	2327898
589.861	2181992
589.902	1901034
589.932	1680750
589.955	1572442
590.004	1325680
590.009	1315240
590.062	1143227
590.075	1096658
590.115	1007288
590.146	930337
590.168	896807
590.218	810495
590.222	808518
590.275	738499
590.289	716898
590.328	678441
590.360	642303
590.381	626113
590.431	578845
590.435	579191
590.488	542120
590.503	529547
590.541	509923
590.574	488760
590.594	480794
590.645	453081
590.647	454216
590.700	431011
590.716	422162
590.753	410770
590.787	396735
590.806	392367
590.859	374241
590.859	375688
590.912	361312
590.930	355062
590.965	347864
591.001	337543
591.018	335840
591.071	326310
591.072	324744
591.124	317015
591.143	312386
591.177	308508
591.214	301177
591.230	301685
591.283	299197
591.285	297729
591.336	292476
591.356	288548
591.389	283750
591.427	275052
591.442	273470
591.495	262997
591.498	261030
591.547	256942
591.569	253410
591.600	251953
591.640	247215
591.653	247656
591.706	244837
591.711	243407
591.759	243257
591.782	241520
591.811	244300
591.853	245573
591.864	244607
591.917	233969
591.924	231342
591.969	229986
591.995	227524
592.022	227694
592.066	225157
592.075	226794
592.127	230461
592.137	230068
592.180	234477
592.208	235483
592.233	230067
592.279	216670
592.285	217263
592.338	213769
592.350	211970
592.390	210898
592.421	208365
592.443	208528
592.491	205766
592.495	206673
592.548	205823
592.562	204620
592.600	203721
592.633	201163
592.653	201376
592.704	198329
592.705	199443
592.775	197360
592.846	196243
592.916	200675
592.987	200819
593.058	194008
593.128	186088
593.199	182492
593.270	181327
593.341	179710
593.411	180524
593.482	182313
593.553	178524
593.623	176223
593.694	175784
593.764	179404
593.835	173700
593.906	170451
593.976	171155
594.047	174138
594.117	184055
594.188	183923
594.258	169459
594.329	166379
594.399	167669
594.470	166075
594.540	167107
594.611	166220
594.681	163445
594.751	166440
594.822	168861
594.892	173941
594.963	174368
595.033	174601
595.103	176060
595.174	180244
595.244	205339
595.314	222629
595.384	179511
595.455	175178
595.525	178353
595.595	181379
595.665	181660
595.736	177439
595.806	178215
595.876	179851
595.946	177338
596.016	179855
596.087	181364
596.157	183520
596.227	181556
596.297	188180
596.367	194473
596.437	205767
596.507	222816
596.577	238573
596.647	206143
596.717	204635
596.787	206170
596.857	205086
596.927	205595
596.997	204064
597.067	206642
597.137	211829
597.207	212668
597.277	212175
597.347	205676
597.417	203042
597.487	205309
597.557	210477
597.626	210257
597.696	217981
597.766	224913
597.836	238629
597.906	201743
597.975	189568
598.045	192456
598.115	196443
598.185	205118
598.254	221988
598.324	237501
598.394	241078
598.464	235044
598.533	227663
598.603	214852
598.672	212769
598.742	214856
598.812	214236
598.881	217197
598.951	213827
599.020	215970
599.090	219936
599.159	224563
599.229	218039
599.299	211348
599.368	218269
599.437	214188
599.507	202990
599.576	200471
599.646	199259
599.715	194522
599.785	193929
599.854	194662
599.924	197347
599.993	193744
600.062	190407
600.132	194600
600.201	204854
600.270	230313
600.340	234353
600.409	226708
600.478	225982
600.547	230426
600.617	215944
600.686	189180
600.755	178456
600.824	175274
600.894	170657
600.963	165787
601.032	162463
601.101	160304
601.170	156290
601.239	156042
601.308	161375
601.378	159695
601.447	155428
601.516	154377
601.585	162366
601.654	172167
601.723	161987
601.792	162456
601.861	165754
601.930	173644
601.999	180710
602.068	172831
602.137	184637
602.206	185092
602.275	180877
602.343	192680
602.412	190726
602.481	177385
602.550	174854
602.619	178537
602.688	184260
602.756	180525
602.825	179898
602.894	182833
602.963	183609
603.032	186938
603.100	184826
603.169	185669
603.238	187439
603.307	185262
603.375	186202
603.444	190691
603.513	192077
603.581	195001
603.650	198242
603.719	190974
603.787	193583
603.856	198245
603.924	205839
603.993	209672
604.061	211623
604.130	219769
604.198	223762
604.267	223965
604.335	226922
604.404	230271
604.472	232255
604.541	234632
604.609	235866
604.678	236238
604.746	237502
604.815	246660
604.883	247174
604.951	244906
605.020	248922
605.088	252311
605.156	255936
605.225	256953
605.293	256203
605.361	259081
605.429	260480
605.498	267533
605.566	273947
605.634	283098
605.702	290411
605.771	297244
605.839	296874
605.907	289119
605.975	281659
606.043	276506
606.111	277250
606.180	277985
606.248	272155
606.316	272024
606.384	278049
606.452	288384
606.520	310013
606.588	292527
606.656	281097
606.724	276085
606.792	259819
606.860	236071
606.928	217086
606.996	211182
607.064	207871
607.132	211288
607.200	225863
607.267	232125
607.335	233783
607.403	239330
607.471	233646
607.539	228878
607.607	227000
607.674	205540
607.742	208008
607.810	211212
607.878	206863
607.946	208499
608.013	220206
608.081	224458
608.149	227052
608.216	227666
608.284	235297
608.352	233868
608.419	238196
608.487	246853
608.555	231275
608.622	228626
608.690	244632
608.757	264344
608.825	271044
608.893	269685
608.960	270284
609.028	269091
609.095	265497
609.163	246234
609.230	222717
609.298	206106
609.365	214054
609.432	228819
609.500	250293
609.567	279961
609.635	318942
609.702	333866
609.769	324320
609.837	268546
609.904	243929
609.971	258724
610.039	310608
610.106	437942
610.173	861566
610.241	1956615
610.308	1891017
610.375	988011
610.442	398889
610.509	285927
610.577	258261
610.644	245564
610.711	248757
610.778	249189
610.845	256679
610.912	267698
610.980	274716
611.047	276381
611.114	272740
611.181	262087
611.248	258654
611.315	270254
611.382	276416
611.449	284120
611.516	289323
611.583	285243
611.650	285945
611.717	293073
611.784	300724
611.851	317761
611.918	353191
611.984	414252
612.051	600047
612.118	1239729
612.185	2937981
612.252	1972092
612.319	538318
612.386	398429
612.452	354936
612.519	339898
612.586	346583
612.653	333941
612.719	335702
612.786	321636
612.853	298256
612.919	291914
612.986	294258
613.053	278177
613.120	263162
613.186	254236
613.253	257650
613.319	254474
613.386	258065
613.453	265984
613.519	279269
613.586	296156
613.652	342264
613.719	310827
613.785	293658
613.852	266014
613.918	262307
613.985	263712
614.051	276459
614.118	281455
614.184	271415
614.250	261749
614.317	267820
614.383	263182
614.449	265283
614.516	264451
614.582	271563
614.648	262318
614.715	261768
614.781	257868
614.847	259960
614.914	261216
614.980	256220
615.046	255245
615.112	262507
615.179	271926
615.245	291089
615.311	328790
615.377	448237
615.443	502866
615.509	371438
615.575	316706
615.642	298984
615.708	306428
615.774	327878
615.840	360143
615.906	426539
615.972	611451
616.038	1093732
616.104	1910577
616.170	3581741
616.236	3091213
616.302	838659
616.368	554810
616.434	411499
616.500	364641
616.565	387142
616.631	469570
616.697	402203
616.763	401775
616.829	578318
616.895	994019
616.961	996249
617.026	484197
617.092	323191
617.158	290788
617.224	279687
617.289	260985
617.355	248288
617.421	246133
617.487	242720
617.552	228734
617.618	227500
617.684	226577
617.749	230201
617.815	217388
617.880	215829
617.946	213914
618.012	223579
618.077	225051
618.143	214311
618.208	218513
618.274	234199
618.339	235790
618.405	199587
618.470	198351
618.536	200899
618.601	206003
618.667	191445
618.732	181538
618.798	179711
618.863	177748
618.928	176726
618.994	184096
619.059	195156
619.124	232625
619.190	195698
619.255	174338
619.320	175401
619.386	176207
619.451	172724
619.516	168158
619.581	170576
619.647	175460
619.712	175665
619.777	168815
619.842	173437
619.907	177006
619.972	177656
620.038	177006
620.103	169139
620.168	169815
620.233	171229
620.298	170051
620.363	172173
620.428	175909
620.493	179591
620.558	179397
620.623	182609
620.688	181732
620.753	178491
620.818	183107
620.883	185337
620.948	183535
621.013	182410
621.078	181124
621.143	184700
621.207	188355
621.272	187572
621.337	189907
621.402	188400
621.467	201759
621.532	204710
621.596	195563
621.661	181046
621.726	177690
621.791	179289
621.855	186652
621.920	189985
621.985	188718
622.049	196359
622.114	194581
622.179	192221
622.243	194496
622.308	199482
622.373	202978
622.437	201088
622.502	190681
622.566	190946
622.631	187973
622.695	193005
622.760	191945
622.824	191198
622.889	196815
622.953	208344
623.018	265621
623.082	257278
623.147	205050
623.211	199139
623.276	202624
623.340	188054
623.404	181621
623.469	182932
623.533	183624
623.597	179072
623.662	179157
623.726	169004
623.790	162635
623.854	160053
623.919	162975
623.983	165453
624.047	168595
624.111	166167
624.176	171177
624.240	182528
624.304	191722
624.368	170220
624.432	167513
624.496	174992
624.560	189550
624.625	199043
624.689	180304
624.753	182423
624.817	175906
624.881	173363
624.945	158312
625.009	159134
625.073	161161
625.137	176819
625.201	202633
625.265	195535
625.329	166431
625.393	173749
625.456	167148
625.520	171669
625.584	181044
625.648	197802
625.712	235507
625.776	365644
625.839	383531
625.903	202677
625.967	158238
626.031	200941
626.095	269822
626.158	173494
626.222	131955
626.286	128230
626.349	124407
626.413	119835
626.477	127584
626.540	121894
626.604	120437
626.668	117265
626.731	116120
626.795	119731
626.858	120679
626.922	115507
626.986	116685
627.049	114131
627.113	116318
627.176	113753
627.240	112457
627.303	113063
627.366	111732
627.430	116607
627.493	114125
627.557	114101
627.620	114678
627.684	116437
627.747	116633
627.810	110897
627.874	103854
627.937	102530
628.000	106582
628.064	105376
628.127	93784
628.190	95639
628.253	94020
628.317	92494
628.380	88642
628.443	90841
628.506	92867
628.569	86603
628.632	82928
628.696	83018
628.759	82223
628.822	79617
628.885	80320
628.948	80744
629.011	80463
629.074	79683
629.137	77252
629.200	78550
629.263	83041
629.326	75896
629.389	75833
629.452	76451
629.515	77092
629.578	76896
629.641	79098
629.704	79023
629.767	79905
629.830	74408
629.892	73019
629.955	71826
630.018	79911
630.081	86006
630.144	97532
630.207	81628
630.269	81048
630.332	79054
630.395	72952
630.458	70982
630.520	69072
630.583	70448
630.646	68662
630.708	69865
630.771	69699
630.834	71067
630.896	69410
630.959	70552
631.021	68913
631.084	71164
631.146	74805
631.209	77999
631.272	69156
631.334	69742
631.397	70353
631.459	72634
631.522	75168
631.584	75074
631.646	76282
631.709	81639
631.771	96872
631.834	81905
631.896	73424
631.958	69275
632.021	69118
632.083	66798
632.145	68957
632.208	68602
632.270	68733
632.332	64742
632.395	64820
632.457	67665
632.519	64971
632.581	64695
632.643	64536
632.706	64754
632.768	62754
632.830	64993
632.892	64454
632.954	64844
633.016	66208
633.078	63236
633.141	63210
633.203	64836
633.265	65645
633.327	62552
633.389	64521
633.451	73111
633.513	81732
633.575	75763
633.637	77773
633.698	74836
633.760	68000
633.822	67105
633.884	70111
633.946	69586
634.008	70087
634.070	70212
634.132	74571
634.193	77094
634.255	80256
634.317	81573
634.379	82211
634.441	75437
634.502	71016
634.564	67445
634.626	64335
634.687	63477
634.749	62807
634.811	62025
634.873	60058
634.934	60295
634.996	60272
635.057	60511
635.119	60775
635.181	62293
635.242	62137
635.304	59539
635.365	63628
635.427	62512
635.488	64009
635.550	60660
635.611	62320
635.673	62255
635.734	67323
635.796	68512
635.857	73221
635.918	73203
635.980	77252
636.041	79510
636.102	83024
636.164	81551
636.225	80127
636.286	74167
636.348	70139
636.409	65636
636.470	61784
636.531	61604
636.593	64170
636.654	60289
636.715	56021
636.776	55746
636.838	52644
636.899	55881
636.960	54144
637.021	52267
637.082	51951
637.143	52669
637.204	48988
637.265	49947
637.326	49890
637.387	51038
637.448	49523
637.509	50954
637.570	50595
637.631	50570
637.692	48170
637.753	48374
637.814	49385
637.875	48248
637.936	49112
637.997	49438
638.058	49833
638.119	50441
638.179	47859
638.240	47019
638.301	48816
638.362	47308
638.423	46600
638.483	47146
638.544	44055
638.605	46095
638.666	43683
638.726	47019
638.787	45384
638.848	45671
638.908	44719
638.969	43238
639.030	44128
639.090	43384
639.151	45669
639.211	49957
639.272	61446
639.332	91342
639.393	58031
639.453	47044
639.514	47125
639.574	44153
639.635	42885
639.695	43936
639.756	43091
639.816	46985
639.877	55481
639.937	79894
639.997	98459
640.058	50639
640.118	43315
640.178	41731
640.239	41138
640.299	40867
640.359	41281
640.420	42172
640.480	45731
640.540	48358
640.600	48926
640.661	48494
640.721	48448
640.781	56895
640.841	47555
640.901	42269
640.961	43017
641.021	46788
641.082	54488
641.142	68959
641.202	49425
641.262	39268
641.322	40112
641.382	39039
641.442	39409
641.502	39369
641.562	40405
641.622	38881
641.682	41660
641.742	44245
641.802	43456
641.861	42194
641.921	43062
641.981	46464
642.041	45284
642.101	57424
642.161	42721
642.221	37386
642.280	35066
642.340	35412
642.400	37113
642.460	37991
642.519	37271
642.579	38419
642.639	40053
642.698	37187
642.758	40623
642.818	39668
642.877	39624
642.937	41581
642.997	48155
643.056	66475
643.116	45275
643.175	41555
643.235	40137
643.294	41291
643.354	43096
643.414	47167
643.473	53005
643.532	62739
643.592	81826
643.651	124526
643.711	209813
643.770	419414
643.830	1020329
643.889	2018467
643.948	497168
644.008	104627
644.067	69212
644.126	54686
644.186	47771
644.245	44031
644.304	39117
644.363	42168
644.423	37890
644.482	39393
644.541	40518
644.600	40697
644.659	49453
644.719	58649
644.778	82730
644.837	130750
644.896	265831
644.955	601984
645.014	194980
645.073	57611
645.132	45875
645.191	43103
645.250	41082
645.309	42963
645.368	45025
645.427	53453
645.486	83002
645.545	129200
645.604	50439
645.663	40132
645.722	38877
645.781	42513
645.840	46822
645.898	56022
645.957	76804
646.016	114218
646.075	203015
646.134	398696
646.192	1068372
646.251	1486011
646.310	236444
646.369	77977
646.427	61609
646.486	49374
646.545	43287
646.603	39335
646.662	36498
646.721	36582
646.779	35911
646.838	39290
646.896	45978
646.955	57379
647.014	83557
647.072	150309
647.131	390374
647.189	182428
647.248	42131
647.306	35083
647.365	34365
647.423	29805
647.481	30982
647.540	30151
647.598	30294
647.657	28824
647.715	29878
647.773	28809
647.832	29558
647.890	27311
647.948	28876
648.007	28726
648.065	27398
648.123	29233
648.181	30744
648.240	28617
648.298	26683
648.356	28080
648.414	28475
648.472	28192
648.531	26986
648.589	27256
648.647	27035
648.705	28029
648.763	28523
648.821	28461
648.879	29735
648.937	32353
648.995	37223
649.053	44754
649.111	62168
649.169	97956
649.227	170863
649.285	355903
649.343	990893
649.401	460390
649.459	139396
649.516	80108
649.574	41680
649.632	43739
649.690	44964
649.748	48200
649.806	63864
649.863	107080
649.921	274323
649.979	175896
650.037	38035
650.094	29509
650.152	27428
650.210	24735
650.268	25892
650.325	25762
650.383	27031
650.440	23514
650.498	24735
650.556	24850
650.613	21741
650.671	23856
650.728	24059
650.786	26880
650.843	27914
650.901	23774
650.958	22044
651.016	21877
651.073	21559
651.131	21667
651.188	21141
651.246	22495
651.303	21137
651.360	21455
651.418	21126
651.475	23083
651.532	20317
651.590	22237
651.647	21298
651.704	22137
651.762	21495
651.819	22648
651.876	20695
651.933	21644
651.990	21449
652.048	20080
652.105	20910
652.162	21244
652.219	19290
652.276	20738
652.333	21349
652.390	19204
652.448	19734
652.505	19913
652.562	20208
652.619	20137
652.676	20673
652.733	21789
652.790	19504
652.847	18736
652.904	19875
652.961	18741
653.017	18350
653.074	21121
653.131	20950
653.188	18540
653.245	19721
653.302	18898
653.359	19480
653.415	20360
653.472	18454
653.529	19385
653.586	18669
653.642	19171
653.699	18848
653.756	18475
653.813	19200
653.869	19860
653.926	18346
653.983	18350
654.039	18747
654.096	18294
654.152	19330
654.209	18738
654.266	19824
654.322	19481
654.379	21101
654.435	21747
654.492	23112
654.548	30825
654.605	42590
654.661	24556
654.717	19886
654.774	20186
654.830	20166
654.887	20186
654.943	20359
655.000	19899
655.056	20481
655.112	20359
655.168	18975
655.225	19961
655.281	21415
655.337	24847
655.394	34610
655.450	25910
655.506	25404
655.562	36114
655.618	28499
655.675	18306
655.731	19091
655.787	18251
655.843	19229
655.899	18181
655.955	17913
656.011	19737
656.067	16969
656.123	18349
656.179	19019
656.235	19881
656.291	16925
656.347	20437
656.403	18042
656.459	19243
656.515	19936
656.571	20945
656.627	20641
656.683	19936
656.739	20799
656.795	20097
656.850	20153
656.906	22951
656.962	20453
657.018	18481
657.074	20403
657.129	22873
657.185	27536
657.241	45307
657.297	29994
657.352	19705
657.408	17834
657.464	21125
657.519	20150
657.575	17037
657.630	17275
657.686	17109
657.742	17105
657.797	18012
657.853	18116
657.908	18981
657.964	16830
658.019	18003
658.075	17571
658.130	18277
658.186	14718
658.241	16937
658.297	16148
658.352	17401
658.407	16847
658.463	16503
658.518	16789
658.573	17680
658.629	15873
658.684	16508
658.739	17713
658.795	15292
658.850	18100
658.905	15766
658.960	17474
659.016	16338
659.071	17797
659.126	19173
659.181	20618
659.236	31776
659.291	32616
659.346	21582
659.401	19933
659.457	18597
659.512	17479
659.567	17484
659.622	16892
659.677	16230
659.732	17190
659.787	17428
659.842	18206
659.897	21840
659.952	16797
660.007	17426
660.061	16732
660.116	15892
660.171	16116
660.226	16511
660.281	17207
660.336	14914
660.391	16684
660.445	15866
660.500	17605
660.555	17439
660.610	15077
660.664	16154
660.719	15543
660.774	16566
660.828	17575
660.883	17048
660.938	17524
660.992	16007
661.047	15932
661.101	15991
661.156	15447
661.211	14949
661.265	15666
661.320	15758
661.374	15974
661.429	16324
661.483	16225
661.538	16163
661.592	16641
661.647	16790
661.701	17161
661.755	16172
661.810	16719
661.864	15580
661.919	16016
661.973	16628
662.027	15699
662.081	14732
662.136	16346
662.190	17213
662.244	16724
662.299	15680
662.353	15878
662.407	15498
662.461	16255
662.515	16966
662.569	15953
662.624	17373
662.678	16231
662.732	16430
662.786	16447
662.840	16368
662.894	16748
662.948	15328
663.002	15337
663.056	15592
663.110	15422
663.164	15854
663.218	16247
663.272	16805
663.326	17820
663.380	18039
663.434	16636
663.488	14975
663.542	15639
663.595	16435
663.649	16037
663.703	15869
663.757	16325
663.811	16061
663.864	15095
663.918	16350
663.972	15104
664.026	15488
664.079	15630
664.133	15976
664.187	15165
664.240	15851
664.294	16070
664.348	16210
664.401	15323
664.455	15982
664.508	15596
664.562	15335
664.615	15401
664.669	15290
664.722	15488
664.776	15606
664.829	15410
664.883	16163
664.936	15204
664.990	15765
665.043	17528
665.097	18162
665.150	18681
665.203	16738
665.257	16624
665.310	16735
665.363	17569
665.417	17386
665.470	17640
665.523	16928
665.576	17316
665.630	17251
665.683	16888
665.736	17363
665.789	16823
665.842	16189
665.895	17147
665.949	16790
666.002	15718
666.055	16964
666.108	17500
666.161	16756
666.214	18577
666.267	18779
666.320	21112
666.373	18273
666.426	17798
666.479	16499
666.532	17819
666.585	19255
666.638	19591
666.691	18948
666.744	19676
666.796	19676
666.849	18358
666.902	17868
666.955	16282
667.008	16482
667.060	15164
667.113	15452
667.166	15247
667.219	16188
667.271	16340
667.324	16531
667.377	15405
667.430	16072
667.482	16362
667.535	17501
667.587	17497
667.640	19218
667.693	22200
667.745	35396
667.798	33988
667.850	18608
667.903	16559
667.955	16944
668.008	16738
668.060	19267
668.113	18464
668.165	17993
668.218	18668
668.270	19003
668.322	18101
668.375	16713
668.427	17834
668.479	16829
668.532	18147
668.584	17347
668.636	17441
668.689	19189
668.741	16825
668.793	17773
668.845	16985
668.898	17168
668.950	17062
669.002	18825
669.054	17715
669.106	17475
669.158	18370
669.211	17975
669.263	18312
669.315	20334
669.367	19543
669.419	20146
669.471	20910
669.523	22770
669.575	27319
669.627	24613
669.679	22036
669.731	21846
669.783	22916
669.835	23551
669.886	22592
669.938	24097
669.990	24408
670.042	24842
670.094	25821
670.146	29513
670.197	33445
670.249	39468
670.301	47685
670.353	62265
670.404	84651
670.456	121375
670.508	187196
670.560	304677
670.611	511614
670.663	899820
670.715	1727469
670.766	1944348
670.818	960094
670.869	293318
670.921	147275
670.972	96234
671.024	71236
671.075	56144
671.127	45789
671.178	39735
671.230	36030
671.281	32848
671.333	30531
671.384	30866
671.436	32068
671.487	33337
671.538	37627
671.590	47283
671.641	63947
671.692	95211
671.744	160243
671.795	121671
671.846	55744
671.897	36233
671.949	28630
672.000	24190
672.051	22309
672.102	22513
672.153	18608
672.204	19466
672.256	19155
672.307	18672
672.358	18862
672.409	18132
672.460	18410
672.511	17883
672.562	17464
672.613	17305
672.664	16591
672.715	17956
672.766	15564
672.817	14947
672.868	14948
672.919	15989
672.970	14939
673.021	15183
673.071	14983
673.122	15425
673.173	16444
673.224	15508
673.275	14812
673.326	14910
673.376	15210
673.427	14947
673.478	15308
673.528	15176
673.579	15216
673.630	14728
673.680	15550
673.731	13468
673.782	14062
673.832	14309
673.883	15219
673.934	14987
673.984	14190
674.035	14242
674.085	14540
674.136	15538
674.186	16024
674.237	17949
674.287	21683
674.338	16214
674.388	14675
674.438	14817
674.489	15002
674.539	15574
674.589	15122
674.640	15319
674.690	14281
674.740	15181
674.791	15198
674.841	15467
674.891	15238
674.942	14368
674.992	14291
675.042	13382
675.092	12501
675.142	12854
675.193	13467
675.243	13029
675.293	13500
675.343	14504
675.393	14841
675.443	14173
675.493	13012
675.543	12627
675.593	13804
675.643	13678
675.693	13467
675.743	12936
675.793	12663
675.843	12496
675.893	12811
675.943	12711
675.993	12919
676.043	12641
676.093	12814
676.142	12543
676.192	13149
676.242	12456
676.292	11583
676.341	13129
676.391	12886
676.441	12088
676.491	12092
676.540	12132
676.590	11692
676.640	12761
676.689	12615
676.739	12321
676.789	11928
676.838	11261
676.888	12099
676.937	11270
676.987	11511
677.037	11097
677.086	10961
677.136	11361
677.185	11489
677.235	11411
677.284	11432
677.333	11551
677.383	10362
677.432	10675
677.482	9912
677.531	10954
677.580	12097
677.630	10349
677.679	10156
677.728	12030
677.778	10765
677.827	11100
677.876	10897
677.925	10677
677.975	10640
678.024	10133
678.073	11796
678.122	12389
678.171	12101
678.220	12881
678.269	14024
678.319	13717
678.368	12945
678.417	12743
678.466	12357
678.515	12794
678.564	12051
678.613	11623
678.662	11162
678.711	11536
678.760	10654
678.809	11994
678.857	11802
678.906	11263
678.955	11745
679.004	11585
679.053	11370
679.102	11787
679.151	12275
679.199	10882
679.248	10878
679.297	11528
679.346	12179
679.394	11573
679.443	10758
679.492	10588
679.540	11478
679.589	12300
679.638	10902
679.686	10491
679.735	11298
679.784	11720
679.832	11731
679.881	10731
679.929	10064
679.978	10000
680.026	11197
680.075	10394
680.123	10217
680.172	10283
680.220	9320
680.268	10039
680.317	9865
680.365	9374
680.414	8489
680.462	10196
680.510	9626
680.559	10224
680.607	10473
680.655	10215
680.703	9886
680.752	10254
680.800	9184
680.848	9457
680.896	9460
680.945	9798
680.993	9568
681.041	9004
681.089	9590
681.137	9073
681.185	8763
681.233	9447
681.258	9170
681.281	8852
681.329	9185
681.377	8995
681.380	9159
681.425	11126
681.473	11002
681.502	11057
681.521	10982
681.569	10915
681.617	10654
681.624	10661
681.665	10290
681.713	9974
681.745	10633
681.761	10863
681.809	10599
681.857	11545
681.867	11436
681.904	10845
681.952	10783
681.989	10790
682.000	10717
682.048	11679
682.096	10836
682.111	11156
682.143	11643
682.191	10923
682.233	11437
682.239	11467
682.286	11367
682.334	11358
682.354	11832
682.382	12312
682.430	12579
682.476	12329
682.477	12274
682.525	11797
682.572	12258
682.598	12094
682.620	11864
682.667	12098
682.715	12916
682.720	12948
682.763	12782
682.810	12685
682.841	12632
682.857	12511
682.905	12407
682.952	13009
682.963	13118
683.000	13373
683.047	13337
683.085	13892
683.095	13969
683.142	13201
683.190	13445
683.206	13533
683.237	13532
683.284	12766
683.328	13298
683.332	13308
683.379	14046
683.426	13834
683.449	13717
683.473	13488
683.521	13838
683.568	14003
683.571	14046
683.615	14068
683.662	14275
683.693	14682
683.709	14813
683.757	13940
683.804	14482
683.814	14420
683.851	14060
683.898	14666
683.936	14140
683.945	14000
683.992	15580
684.039	15100
684.057	15521
684.086	15968
684.133	15065
684.179	15843
684.180	15835
684.227	15869
684.274	15730
684.300	16037
684.321	16202
684.368	16183
684.415	15459
684.422	15512
684.462	15625
684.509	15904
684.543	15633
684.556	15508
684.603	15718
684.649	15692
684.665	16030
684.696	16654
684.743	16031
684.786	17179
684.790	17254
684.837	16901
684.883	16768
684.908	17718
684.930	18572
684.977	19076
685.023	18172
685.029	18213
685.070	17999
685.117	17396
685.150	18208
685.164	18608
685.210	19268
685.257	19542
685.272	19679
685.303	19551
685.350	19204
685.393	19082
685.396	19077
685.443	19356
685.490	20527
685.514	20423
685.536	20143
685.583	19705
685.629	19576
685.636	19516
685.675	19069
685.722	19196
685.757	19821
685.768	20081
685.815	20034
685.861	20924
685.878	20870
685.908	20567
685.954	20365
686.000	20077
686.000	20064
686.047	21030
686.093	23275
686.121	22817
686.139	22222
686.185	20860
686.232	20513
686.242	20500
686.278	20620
686.324	20815
686.363	20465
686.370	20386
686.416	20120
686.463	21206
686.484	20860
686.509	20522
686.555	20456
686.601	20296
686.606	20388
686.647	21014
686.693	20816
686.727	20178
686.739	19975
686.785	20829
686.831	20921
686.848	21025
686.877	21098
686.923	20132
686.969	19853
686.969	19852
687.015	21401
687.061	22231
687.090	22296
687.107	22004
687.153	21795
687.199	21745
687.211	21463
687.245	21025
687.291	20914
687.332	21980
687.336	22097
687.382	22770
687.428	22288
687.453	22179
687.474	21924
687.520	21909
687.565	21619
687.574	21558
687.611	21656
687.657	21920
687.695	22224
687.702	22320
687.748	24032
687.794	24640
687.816	24175
687.839	23182
687.885	22706
687.931	22159
687.937	22102
687.976	22513
688.022	22752
688.058	23014
688.067	23049
688.113	23058
688.158	22793
688.179	22855
688.204	23033
688.249	23434
688.295	23964
688.300	23987
688.340	24448
688.386	24844
688.421	24633
688.431	24443
688.477	24002
688.522	24789
688.542	24391
688.567	24267
688.613	25026
688.658	24969
688.663	24992
688.703	24798
688.749	24763
688.784	24303
688.794	24274
688.839	24480
688.884	25176
688.905	25124
688.930	25050
688.975	25104
689.020	25011
689.026	24996
689.065	25079
689.110	24995
689.146	25117
689.155	25103
689.201	24823
689.246	24501
689.267	24416
689.291	24580
689.336	24604
689.381	24868
689.388	24852
689.426	24800
689.471	24547
689.509	24921
689.516	25025
689.561	24902
689.606	24677
689.630	24741
689.651	24777
689.696	25060
689.741	25120
689.750	25130
689.785	25558
689.830	25583
689.871	25759
689.875	25736
689.920	25225
689.965	24946
689.992	24488
690.010	24589
690.054	25025
690.099	25136
690.112	25403
690.144	25823
690.189	24956
690.233	25357
690.233	25389
690.278	25609
690.323	26041
690.354	25617
690.367	25469
690.412	25744
690.457	25741
690.474	25702
690.501	25631
690.546	25702
690.590	25007
690.595	24997
690.635	25544
690.680	25703
690.716	25628
690.724	25637
690.769	25886
690.813	26669
690.836	26483
690.857	26634
690.902	27719
690.946	28343
690.957	28510
690.991	30084
691.035	32242
691.077	33933
691.080	33946
691.124	33179
691.168	32314
691.198	31943
691.213	31618
691.257	30575
691.301	28803
691.318	28244
691.346	27999
691.390	27763
691.434	27157
691.439	27104
691.478	27863
691.522	28326
691.559	28702
691.567	28754
691.611	29378
691.655	28859
691.680	29000
691.699	29152
691.743	29572
691.787	29213
691.800	29190
691.831	29445
691.875	29816
691.919	30225
691.921	30185
691.964	30166
692.008	30275
692.041	30001
692.052	29943
692.096	29550
692.139	29745
692.162	29606
692.183	29555
692.227	29355
692.271	29098
692.282	29113
692.315	29526
692.359	29597
692.402	29362
692.403	29408
692.447	28878
692.490	29337
692.523	29306
692.534	29443
692.578	29509
692.622	29778
692.643	29856
692.666	29893
692.709	29884
692.753	29565
692.763	29537
692.797	29784
692.840	29775
692.884	29763
692.884	29815
692.928	30121
692.971	29975
693.004	29784
693.015	29788
693.059	29629
693.102	29639
693.124	29635
693.146	29960
693.189	30293
693.233	30747
693.245	30884
693.276	31283
693.320	31221
693.363	31440
693.365	31386
693.407	31351
693.450	31275
693.485	31265
693.493	31368
693.537	31658
693.580	31945
693.605	31886
693.624	32458
693.667	33971
693.710	35451
693.725	35989
693.753	38835
693.797	43085
693.840	47250
693.845	47618
693.883	45302
693.926	42557
693.966	40152
693.970	39934
694.013	36881
694.056	33726
694.086	31849
694.099	32059
694.142	31938
694.185	32129
694.206	32117
694.229	32271
694.272	32487
694.315	32588
694.326	32598
694.358	32651
694.401	32465
694.444	32579
694.446	32503
694.487	32609
694.530	32737
694.566	32802
694.573	32716
694.616	31518
694.659	30553
694.686	30001
694.702	30200
694.745	30176
694.787	30467
694.806	30513
694.830	30872
694.873	31322
694.916	31881
694.926	31900
694.959	31507
695.002	31140
695.044	30551
695.046	30467
695.087	31198
695.130	31741
695.166	32325
695.172	32453
695.215	32551
695.258	33015
695.286	33227
695.301	33269
695.343	32836
695.386	32903
695.406	32587
695.428	32565
695.471	32713
695.514	32877
695.526	32854
695.556	33299
695.599	33915
695.641	34216
695.646	34195
695.684	33964
695.726	33709
695.766	33386
695.769	33465
695.811	33315
695.854	33283
695.886	33308
695.896	33377
695.938	33074
695.981	33041
696.005	32833
696.023	33000
696.065	33274
696.108	33746
696.125	33790
696.150	33917
696.192	33879
696.235	34152
696.245	34125
696.277	33999
696.319	33552
696.361	33093
696.365	33000
696.404	33503
696.446	33668
696.485	33949
696.488	34061
696.530	34327
696.572	34650
696.604	34840
696.614	34905
696.656	34945
696.698	34808
696.724	34660
696.740	34701
696.783	34576
696.825	34670
696.844	34546
696.867	34747
696.909	34965
696.951	35157
696.964	35188
696.992	35126
697.034	34692
697.076	34346
697.083	34209
697.118	34700
697.160	35168
697.202	35686
697.203	35612
697.244	35578
697.286	35654
697.323	35426
697.327	35500
697.369	35478
697.411	35430
697.442	35362
697.453	35505
697.494	35711
697.536	35963
697.562	35988
697.578	36032
697.620	35934
697.661	35841
697.682	35674
697.703	35985
697.744	36568
697.786	37091
697.801	37214
697.828	37402
697.869	37385
697.911	37485
697.921	37409
697.952	37097
697.994	36610
698.035	36114
698.040	35962
698.077	35658
698.118	35198
698.160	34803
698.160	34716
698.201	35592
698.243	36500
698.279	37191
698.284	37297
698.325	37428
698.367	37576
698.399	37552
698.408	37519
698.449	36984
698.491	36439
698.518	35963
698.532	36140
698.573	36427
698.614	36724
698.638	36801
698.656	37105
698.697	37593
698.738	38087
698.757	38224
698.779	38325
698.820	38331
698.862	38334
698.877	38246
698.903	38466
698.944	38651
698.985	38844
698.996	38802
699.026	38693
699.067	38411
699.116	37981
699.235	36811
699.354	36720
699.474	37715
699.593	39453
699.713	37722
699.832	37020
699.951	37909
700.070	36114
700.190	36419
700.309	35939
700.428	36115
700.547	34683
700.667	35295
700.786	36785
700.905	34799
701.024	36458
701.143	34492
701.262	33543
701.381	34743
701.500	35988
701.619	35610
701.738	34764
701.857	33653
701.976	32934
702.095	33239
702.214	36155
702.333	34833
702.452	34088
702.571	33959
702.690	33341
702.809	32834
702.928	31795
703.047	33206
703.165	32255
703.284	31431
703.403	30759
703.522	33285
703.640	33326
703.759	34850
703.878	37337
703.997	31128
704.115	32173
704.234	30606
704.353	30678
704.471	31134
704.590	30739
704.708	29740
704.827	30041
704.946	30344
705.064	31380
705.183	30735
705.301	34713
705.420	44613
705.538	39123
705.656	35628
705.775	34676
705.893	36767
706.012	38662
706.130	36975
706.249	36288
706.367	35866
706.485	36801
706.604	35409
706.722	36488
706.840	38098
706.958	39411
707.077	36550
707.195	34232
707.313	34177
707.431	34592
707.549	33254
707.668	33541
707.786	33569
707.904	32698
708.022	32840
708.140	32103
708.258	32640
708.376	33198
708.494	33851
708.612	35927
708.730	46560
708.848	42702
708.966	40237
709.084	38977
709.202	38766
709.320	38283
709.438	37682
709.556	37975
709.674	37333
709.791	36993
709.909	37825
710.027	37197
710.145	36095
710.263	36651
710.380	35850
710.498	36355
710.616	36394
710.733	36027
710.851	35889
710.969	35913
711.086	34231
711.204	34836
711.322	34627
711.439	34840
711.557	33709
711.674	34028
711.792	32663
711.909	33605
712.027	33666
712.144	32806
712.262	33891
712.379	35568
712.497	46127
712.614	45813
712.732	40945
712.849	39779
712.966	40710
713.084	43707
713.201	40252
713.318	40528
713.436	40147
713.553	39564
713.670	41015
713.787	41764
713.905	40711
714.022	40134
714.139	39158
714.256	42454
714.373	49080
714.490	67885
714.608	147241
714.725	542072
714.842	392753
714.959	53323
715.076	40970
715.193	38121
715.310	37176
715.427	35641
715.544	33900
715.661	35003
715.778	35192
715.895	37603
716.011	36651
716.128	34097
716.245	35734
716.362	36142
716.479	35842
716.596	33980
716.713	34215
716.829	32814
716.946	34901
717.063	32496
717.180	31886
717.296	31593
717.413	32429
717.530	32025
717.646	30055
717.763	31097
717.880	30376
717.996	30040
718.113	30620
718.229	30128
718.346	28358
718.462	30502
718.579	33041
718.695	42882
718.812	35546
718.928	32888
719.045	28904
719.161	28307
719.277	28588
719.394	27419
719.510	29348
719.626	29790
719.743	34781
719.859	37985
719.975	58404
720.092	178716
720.208	282033
720.324	47407
720.440	30878
720.557	32592
720.673	38710
720.789	45077
720.905	66145
721.021	32325
721.137	27418
721.253	27489
721.369	28197
721.486	29110
721.602	31573
721.718	26700
721.834	26181
721.950	26910
722.066	25250
722.181	25213
722.297	26755
722.413	25214
722.529	25693
722.645	23496
722.761	24337
722.877	23436
722.993	23911
723.108	25476
723.224	24296
723.340	24104
723.456	23000
723.571	23570
723.687	23584
723.803	24101
723.918	22799
724.034	23733
724.150	22535
724.265	24632
724.381	36390
724.497	34300
724.612	22611
724.728	22317
724.843	22068
724.959	23623
725.074	34067
725.190	33264
725.305	22194
725.421	21744
725.536	21144
725.651	21354
725.767	20881
725.882	20142
725.997	20337
726.113	20973
726.228	20317
726.343	20382
726.459	19736
726.574	21060
726.689	19807
726.804	20732
726.920	21182
727.035	20416
727.150	21066
727.265	20306
727.380	20827
727.495	20015
727.610	18337
727.725	19513
727.841	20212
727.956	20142
728.071	21205
728.186	19793
728.301	18430
728.416	19735
728.531	19260
728.645	18117
728.760	20550
728.875	19352
728.990	18882
729.105	19544
729.220	18796
729.335	20019
729.449	17739
729.564	17748
729.679	17305
729.794	17917
729.908	18588
730.023	18504
730.138	17470
730.253	17913
730.367	17380
730.482	16476
730.596	18257
730.711	17662
730.826	19397
730.940	17521
731.055	19110
731.169	15412
731.284	17456
731.398	16591
731.513	18638
731.627	18037
731.742	20879
731.856	20254
731.970	19104
732.085	21997
732.199	25241
732.313	34581
732.428	75383
732.542	184828
732.656	83432
732.771	25884
732.885	21701
732.999	20713
733.113	21839
733.227	20241
733.342	19026
733.456	20273
733.570	18361
733.684	18654
733.798	18348
733.912	17928
734.026	17903
734.140	17470
734.254	19881
734.368	25783
734.482	23814
734.596	18123
734.710	17942
734.824	18414
734.938	17391
735.052	18682
735.166	18870
735.280	18076
735.393	17578
735.507	17272
735.621	21552
735.735	24441
735.849	17828
735.962	17479
736.076	17901
736.190	16963
736.303	20746
736.417	20252
736.531	17942
736.644	17157
736.758	15906
736.872	16391
736.985	16855
737.099	16177
737.212	15364
737.326	15991
737.439	15761
737.553	16241
737.666	15989
737.780	15570
737.893	15671
738.007	15597
738.120	15453
738.233	15342
738.347	14795
738.460	14846
738.573	15695
738.687	15580
738.800	16782
738.913	17646
739.026	16166
739.140	14742
739.253	14267
739.366	14910
739.479	14819
739.592	14502
739.705	14306
739.818	14497
739.932	14811
740.045	14842
740.158	13943
740.271	14378
740.384	14671
740.497	14153
740.610	15186
740.723	14458
740.836	15037
740.949	15804
741.062	17692
741.174	16108
741.287	14451
741.400	13528
741.513	14821
741.626	15463
741.739	14624
741.851	13691
741.964	14232
742.077	14056
742.189	14155
742.302	15365
742.415	14714
742.527	13609
742.640	13523
742.753	13502
742.865	12912
742.978	13055
743.090	13839
743.203	13674
743.316	12913
743.428	13301
743.541	13939
743.653	12006
743.766	12820
743.878	13809
743.990	14130
744.103	13627
744.215	13723
744.327	13609
744.440	16540
744.552	16391
744.664	13505
744.777	12662
744.889	11721
745.001	12655
745.113	12165
745.226	11601
745.338	12252
745.450	12709
745.562	11662
745.674	12153
745.786	12265
745.898	11137
746.010	12152
746.122	12052
746.234	12226
746.347	12093
746.459	11105
746.570	10418
746.682	13027
746.794	12764
746.906	11556
747.018	11777
747.130	12537
747.242	11787
747.354	11753
747.466	11911
747.577	10874
747.689	11825
747.801	11048
747.913	10609
748.024	11686
748.136	11000
748.248	10771
748.359	11430
748.471	10982
748.583	11416
748.694	11568
748.806	11822
748.918	12062
749.029	10955
749.141	12435
749.252	12948
749.364	13493
749.475	18787
749.587	14386
749.698	10882
749.809	12199
749.921	10467
750.032	11976
750.144	10969
750.255	10374
750.366	9632
750.478	10868
750.589	10919
750.700	11585
750.811	12157
750.923	13677
751.034	21214
751.145	16307
751.256	10621
751.367	10417
751.479	11282
751.590	9876
751.701	10643
751.812	10073
751.923	9397
752.034	10017
752.145	9738
752.256	10357
752.367	10202
752.478	10257
752.589	10181
752.700	9638
752.811	9317
752.922	10444
753.032	10390
753.143	11012
753.254	8730
753.365	9985
753.476	10906
753.586	9725
753.697	9825
753.808	10378
753.919	9046
754.029	9554
754.140	9909
754.251	10854
754.361	9690
754.472	9373
754.582	9356
754.693	10621
754.804	9158
754.914	9112
755.025	8933
755.135	9581
755.246	9869
755.356	9084
755.466	9597
755.577	9692
755.687	9697
755.798	9594
755.908	9775
756.018	9516
756.129	9791
756.239	9977
756.349	9362
756.460	9312
756.570	9178
756.680	9423
756.790	10457
756.900	10787
757.011	9259
757.121	9698
757.231	8714
757.341	9503
757.451	8823
757.561	8992
757.671	8922
757.781	9268
757.891	9697
758.001	8484
758.111	10120
758.221	9860
758.331	10958
758.441	10308
758.551	12416
758.661	11163
758.771	9357
758.880	10666
758.990	10030
759.100	9342
759.210	9992
759.320	9664
759.429	9879
759.539	10426
759.649	10042
759.758	10057
759.868	9962
759.978	9993
760.087	10768
760.197	10656
760.307	10402
760.416	9423
760.526	9371
760.635	10086
760.745	10981
760.854	9811
760.964	11227
761.073	11824
761.182	11046
761.292	10849
761.401	10864
761.511	9112
761.620	10161
761.729	9843
761.839	9522
761.948	9911
762.057	9915
762.166	10599
762.276	8833
762.385	10660
762.494	9592
762.603	10189
762.712	10232
762.822	9970
762.931	10128
763.040	9615
763.149	9693
763.258	9667
763.367	10142
763.476	10520
763.585	10270
763.694	9515
763.803	11169
763.912	11237
764.021	10773
764.130	10862
764.238	10235
764.347	11335
764.456	11117
764.565	11194
764.674	11873
764.783	11330
764.891	11784
765.000	13395
765.109	13945
765.217	14231
765.326	16302
765.435	17858
765.543	19486
765.652	21270
765.761	25096
765.869	35732
765.978	51218
766.086	88986
766.195	179032
766.303	472874
766.412	1175989
766.520	846142
766.629	258491
766.737	100275
766.846	58662
766.954	41566
767.062	32415
767.171	26238
767.279	22587
767.387	18707
767.496	17498
767.604	16360
767.712	15786
767.820	15114
767.928	14984
768.037	13917
768.145	14227
768.253	14761
768.361	13595
768.469	13283
768.577	12437
768.685	14303
768.793	13696
768.901	14441
769.009	15100
769.117	16599
769.225	19603
769.333	25816
769.441	40835
769.549	72533
769.657	168044
769.765	550725
769.873	924745
769.981	311874
770.088	80762
770.196	41653
770.304	29949
770.412	24398
770.519	19950
770.627	17116
770.735	14701
770.842	14681
770.950	13807
771.058	12875
771.165	12552
771.273	12877
771.380	12248
771.488	13282
771.595	13559
771.703	11519
771.810	12969
771.918	11685
772.025	12783
772.133	12285
772.240	12635
772.348	13169
772.455	12598
772.562	12163
772.670	10982
772.777	12143
772.884	10850
772.991	10974
773.099	11716
773.206	10820
773.313	11472
773.420	11303
773.528	10428
773.635	10513
773.742	11338
773.849	11471
773.956	10843
774.063	10866
774.170	10676
774.277	11423
774.384	10861
774.491	10403
774.598	11367
774.705	11095
774.812	11566
774.919	11771
775.026	11470
775.133	10322
775.239	9770
775.346	10479
775.453	10840
775.560	10369
775.667	10559
775.773	10482
775.880	11091
775.987	10174
776.093	10450
776.200	10570
776.307	9955
776.413	10607
776.520	9692
776.627	10933
776.733	10630
776.840	9248
776.946	12073
777.053	10619
777.159	11008
777.266	8611
777.372	10668
777.478	11055
777.585	10938
777.691	9338
777.798	10477
777.904	10418
778.010	12653
778.117	10357
778.223	9409
778.329	9632
778.435	8855
778.542	10154
778.648	9084
778.754	8324
778.860	8861
778.966	9255
779.072	8232
779.178	9769
779.284	9073
779.391	8610
779.497	9213
779.603	11215
779.708	9410
779.815	13616
779.920	29360
780.026	46463
780.132	11831
780.238	8949
780.344	9618
780.450	9897
780.556	8880
780.661	8598
780.767	9347
780.873	8870
780.979	9063
781.085	8668
781.190	8406
781.296	8032
781.402	7737
781.507	8577
781.613	8195
781.719	8407
781.824	8293
781.930	8799
782.035	8893
782.141	8620
782.246	7702
782.352	8082
782.457	7550
782.563	8728
782.668	8102
782.773	7749
782.879	7528
782.984	9489
783.090	10257
783.195	12507
783.300	9020
783.405	8904
783.511	7983
783.616	8886
783.721	8942
783.826	8584
783.932	8598
784.037	7755
784.142	8093
784.247	8151
784.352	7815
784.457	8024
784.562	8044
784.667	8396
784.772	7867
784.877	7053
784.982	8415
785.087	7736
785.192	7805
785.297	7848
785.402	7937
785.507	7610
785.611	7214
785.716	7782
785.821	7371
785.926	7389
786.031	7337
786.135	7572
786.240	7227
786.345	6292
786.450	8160
786.554	7350
786.659	6561
786.763	6382
786.868	7826
786.973	7748
787.077	5794
787.182	6760
787.286	7526
787.391	7296
787.495	6487
787.600	6558
787.704	5942
787.809	8172
787.913	6381
788.017	6566
788.122	7808
788.226	7058
788.330	6482
788.435	6908
788.539	7095
788.643	6720
788.747	6021
788.852	6926
788.956	6598
789.060	6775
789.164	6629
789.268	5770
789.372	6505
789.476	6205
789.580	6241
789.684	5461
789.788	7774
789.892	5963
789.996	6583
790.100	7414
790.204	6940
790.308	7181
790.412	6317
790.516	6940
790.620	5975
790.724	7631
790.828	6084
790.931	4947
791.035	7122
791.139	6270
791.242	5941
791.346	7079
791.450	6178
791.554	5511
791.657	5525
791.761	6885
791.864	6988
791.968	6937
792.072	6966
792.175	5335
792.279	5681
792.382	5789
792.486	6210
792.589	6527
792.693	6744
792.796	4673
792.899	6931
793.003	6321
793.106	3981
793.209	5325
793.313	7066
793.416	5023
793.519	8255
793.623	9052
793.726	9107
793.829	6651
793.932	4969
794.035	5638
794.138	7188
794.242	6953
794.345	6768
794.448	8398
794.551	10783
794.654	16786
794.757	24134
794.860	8909
794.963	6806
795.066	4458
795.169	6245
795.272	5082
795.375	6711
795.477	5323
795.580	5462
795.683	3789
795.786	6147
795.889	4247
795.991	6221
796.094	6531
796.197	4150
796.300	6818
796.402	5430
796.505	5149
796.608	5003
796.710	5393
796.813	4843
796.915	4937
797.018	5507
797.120	5697
797.223	3841
797.326	5791
797.428	4527
797.530	5701
797.633	4872
797.735	5745
797.838	6743
797.940	6309
798.042	4453
798.145	4076
798.247	5517
798.349	3965
798.452	5818
798.554	5556
798.656	4244
798.758	6354
798.860	4348
798.962	4834
799.065	4163
799.167	4499
799.269	6245
799.371	5849
799.473	6835
799.575	5413
799.677	5711
799.779	7743
799.881	6652
799.983	6505
800.085	5241
800.187	5138
800.289	4609
800.390	4896
800.492	5539
800.594	6171
800.696	4669
800.798	4306
800.899	4288
801.001	4513
801.103	4713
801.205	3905
801.306	4746
801.408	3686
801.509	4546
801.611	4503
801.713	5137
801.814	3895
801.916	4527
802.017	4075
802.119	3544
802.220	4805
802.322	3765
802.423	6961
802.525	4201
802.626	5056
802.727	4568
802.829	5327
802.930	2380
803.031	6174
803.133	3852
803.234	3781
803.335	3918
803.436	3322
803.538	4418
803.639	3334
803.740	4718
803.841	3522
803.942	4704
804.043	4424
804.144	3343
804.245	4789
804.346	4186
804.447	4803
804.548	5389
804.649	6342
804.750	4785
804.851	3074
804.952	4326
805.053	4663
805.154	3353
805.255	5287
805.355	3952
805.456	3538
805.557	3345
805.658	3449
805.758	4516
805.859	4471
805.960	4073
806.061	4115
806.161	3369
806.262	4237
806.362	3638
806.463	4080
806.564	5371
806.664	5353
806.765	4341
806.865	5033
806.966	3785
807.066	3978
807.166	5147
807.267	4469
807.367	3366
807.468	4122
807.568	2260
807.668	4576
807.769	4411
807.869	2896
807.969	3311
808.069	4341
808.170	4215
808.270	3066
808.370	3745
808.470	5663
808.570	3058
808.670	4656
808.770	3427
808.870	3394
808.970	4108
809.070	3861
809.170	3651
809.271	3620
809.370	3733
809.470	4345
809.570	2893
809.670	2896
809.770	3020
809.870	4979
809.970	3840
810.070	4511
810.169	4142
810.269	3077
810.369	5108
810.469	3670
810.568	3703
810.668	3257
810.768	3443
810.867	4524
810.967	3141
811.066	3407
811.166	3163
811.265	4147
811.365	3074
811.464	3337
811.564	4147
811.663	3637
811.763	2980
811.862	4144
811.962	4458
812.061	3821
812.160	4433
812.260	4546
812.359	6288
812.458	11014
812.557	26816
812.657	32863
812.756	10095
812.855	5860
812.954	4414
813.053	4982
813.153	4525
813.252	3859
813.351	4914
813.450	4873
813.549	3732
813.648	4107
813.747	3261
813.846	4756
813.945	3266
814.044	4520
814.143	4204
814.242	5382
814.341	3580
814.439	4717
814.538	4472
814.637	3726
814.736	5031
814.835	6226
814.933	4626
815.032	4867
815.131	5182
815.229	6362
815.328	8048
815.427	5824
815.525	6187
815.624	5333
815.722	6488
815.821	6546
815.919	6565
816.018	6271
816.116	8202
816.215	7166
816.313	7427
816.412	8545
816.510	8307
816.609	8824
816.707	9085
816.805	9347
816.904	8859
817.002	10179
817.100	11129
817.198	12843
817.296	11941
817.395	14937
817.493	17206
817.591	19201
817.689	26076
817.787	34480
817.885	53069
817.983	92686
818.081	185293
818.179	411360
818.277	798823
818.375	587576
818.473	226137
818.571	104228
818.669	69164
818.767	60460
818.865	61099
818.963	72133
819.061	102712
819.158	169003
819.256	326935
819.354	670041
819.452	1000039
819.549	646885
819.647	294346
819.745	145245
819.842	88990
819.940	60027
820.038	44853
820.135	36113
820.233	28424
820.330	23766
820.428	19538
820.525	19062
820.623	16938
820.720	14130
820.818	14145
820.915	13032
821.012	11244
821.110	10300
821.207	11225
821.304	9197
821.402	8775
821.499	9162
821.596	8145
821.693	8155
821.791	8702
821.888	9719
821.985	12548
822.082	9298
822.179	7851
822.276	6886
822.373	6456
822.470	6112
822.567	6238
822.664	5087
822.761	6943
822.858	5589
822.955	5770
823.052	5961
823.149	5249
823.246	5416
823.343	4894
823.440	5548
823.536	5406
823.633	5356
823.730	5569
823.827	5027
823.923	5621
824.020	5905
824.117	5136
824.213	4471
824.310	4945
824.407	4049
824.503	5283
824.600	4510
824.696	4073
824.793	5198
824.889	4286
824.986	4318
825.082	3768
825.179	4953
825.275	4415
825.371	4609
825.468	3610
825.564	3478
825.660	5167
825.757	4733
825.853	4888
825.949	3222
826.045	3188
826.142	3933
826.238	4342
826.334	4549
826.430	3829
826.526	3782
826.622	3255
826.718	4350
826.814	3709
826.910	4968
827.006	2903
827.102	2334
827.198	4139
827.294	3954
827.390	3534
827.486	3652
827.582	2726
827.678	3870
827.774	5017
827.869	2688
827.965	4095
828.061	2928
828.157	3866
828.252	3682
828.348	3427
828.444	4252
828.539	2819
828.635	3291
828.731	4119
828.826	2964
828.922	2926
829.017	2952
829.113	3726
829.208	2672
829.304	3474
829.399	4084
829.495	3487
829.590	2990
829.685	2505
829.781	3091
829.876	3446
829.971	2809
830.066	2348
830.162	3436
830.257	3513
830.352	2448
830.447	4194
830.543	3315
830.638	2898
830.733	4757
830.828	2646
830.923	3636
831.018	3216
831.113	4352
831.208	2353
831.303	3305
831.398	2787
831.493	2793
831.588	3002
831.683	2229
831.778	1754
831.873	3191
831.967	3355
832.062	3169
832.157	1608
832.252	4331
832.346	2615
832.441	3739
832.536	5341
832.631	9309
832.725	6923
832.820	2570
832.914	3288
833.009	2509
833.104	3388
833.198	3965
833.293	2390
833.387	3422
833.482	3482
833.576	1929
833.670	3870
833.765	3193
833.859	3184
833.954	3296
834.048	2967
834.142	3606
834.237	2156
834.331	3045
834.425	3131
834.519	1650
834.613	2333
834.708	2577
834.802	2661
834.896	2522
834.990	2208
835.084	2733
835.178	2017
835.272	2020
835.366	2826
835.460	3289
835.554	2750
835.648	2920
835.742	2155
835.836	3282
835.930	1908
836.024	2853
836.117	3321
836.211	2493
836.305	4249
836.399	3911
836.493	1842
836.586	3145
836.680	1483
836.774	2311
836.867	2986
836.961	1782
837.055	2196
837.148	2551
837.242	1556
837.335	2767
837.429	2138
837.522	2445
837.616	2611
837.709	5045
837.803	3615
837.896	3767
837.989	2805
838.083	4695
838.176	5130
838.269	3406
838.363	3367
838.456	2599
838.549	5024
838.642	6839
838.735	10059
838.829	4728
838.922	1758
839.015	2818
839.108	1818
839.201	2408
839.294	2979
839.387	3690
839.480	2092
839.573	3486
839.666	3565
839.759	2642
839.852	1263
839.945	2651
840.038	1749
840.131	1527
840.223	2148
840.316	3084
840.409	2219
840.502	1790
840.594	2665
840.687	1365
840.780	2025
840.873	2245
840.965	2006
841.058	3566
841.150	5151
841.243	3501
841.336	2706
841.428	2623
841.521	1949
841.613	1698
841.706	2028
841.798	2003
841.890	1906
841.983	1481
842.075	2692
842.167	1987
842.260	1922
842.352	3860
842.444	3341
842.537	6487
842.629	6302
842.721	1971
842.813	2454
842.905	1345
842.997	2228
843.090	1818
843.182	4519
843.274	5256
843.366	11943
843.458	18081
843.550	9865
843.642	2987
843.734	2302
843.826	3377
843.918	2993
844.009	2114
844.101	2128
844.193	2706
844.285	2086
844.377	2059
844.469	2623
844.560	1686
844.652	2159
844.744	2563
844.835	2108
844.927	2588
845.019	2480
845.110	2103
845.202	1977
845.293	2003
845.385	1644
845.476	2079
845.568	2866
845.659	1491
845.751	2046
845.842	1889
845.934	1317
846.025	1511
846.116	2140
846.208	1856
846.299	1813
846.390	1962
846.482	2380
846.573	2697
846.664	3499
846.755	4043
846.846	3681
846.937	1458
847.029	2206
847.120	2216
847.211	1832
847.302	2528
847.393	502
847.484	1673
847.575	1290
847.666	1622
847.757	1356
847.847	2382
847.938	2267
848.029	1896
848.120	1574
848.211	2070
848.302	1243
848.392	1257
848.483	2595
848.574	1519
848.664	1234
848.755	1974
848.846	1725
848.936	1634
849.027	1574
849.118	1962
849.208	1429
849.299	3013
849.389	4115
849.480	6140
849.570	10053
849.661	18217
849.751	22424
849.841	6655
849.932	3298
850.022	1385
850.112	2813
850.203	1820
850.293	1148
850.383	1424
850.474	1784
850.564	915
850.654	1880
850.744	1406
850.834	1671
850.924	1121
851.014	2163
851.104	2762
851.194	1522
851.284	2618
851.374	2750
851.464	1944
851.554	2141
851.644	2097
851.734	2929
851.824	2335
851.914	1610
852.004	1606
852.094	39
852.183	1613
852.273	1324
852.363	1478
852.452	1295
852.542	1646
852.632	1907
852.721	1003
852.811	1407
852.901	2210
852.990	1246
853.080	2336
853.169	1404
853.259	2042
853.348	1889
853.438	2485
853.527	2502
853.617	4484
853.706	7898
853.795	13527
853.885	29544
853.974	52338
854.063	96515
854.152	118750
854.242	34811
854.331	7236
854.420	3881
854.509	3589
854.598	3482
854.687	3019
854.777	3406
854.866	2376
854.955	2706
855.044	1808
855.133	2301
855.222	2103
855.311	2112
855.400	1524
855.488	1737
855.577	1816
855.666	2176
855.755	2040
855.844	1901
855.933	1761
856.021	1843
856.110	2121
856.199	1400
856.288	1302
856.376	1156
856.465	503
856.554	2481
856.642	1857
856.731	1956
856.819	959
856.908	1198
856.996	1663
857.085	1268
857.173	1672
857.262	1995
857.350	1086
857.438	1325
857.527	2255
857.615	1299
857.703	1846
857.792	1330
857.880	1928
857.968	902
858.056	2147
858.145	2120
858.233	1342
858.321	1412
858.409	1378
858.497	1556
858.585	1328
858.673	1738
858.761	893
858.849	912
858.937	1824
859.025	1660
859.113	1951
859.201	829
859.289	2207
859.377	1750
859.465	1259
859.552	1424
859.640	1080
859.728	822
859.816	1792
859.903	1527
859.991	584
860.079	1475
860.166	989
860.254	2418
860.342	2029
860.429	591
860.517	965
860.604	1579
860.692	944
860.779	555
860.867	881
860.954	728
861.042	994
861.129	1688
861.216	1210
861.304	1612
861.391	1999
861.478	1612
861.565	2133
861.653	1538
861.740	1137
861.827	1822
861.914	1335
862.001	1130
862.089	1275
862.176	1601
862.263	1741
862.350	2025
862.437	804
862.524	1351
862.611	1116
862.698	1713
862.785	2215
862.871	1123
862.958	964
863.045	2008
863.132	1021
863.219	1133
863.306	1020
863.392	829
863.479	2020
863.566	1058
863.652	1536
863.739	1592
863.826	1570
863.912	846
863.999	1692
864.086	1157
864.172	1998
864.259	1251
864.345	734
864.432	2073
864.518	1222
864.604	1976
864.691	2791
864.777	1360
864.863	1500
864.950	2414
865.036	3093
865.122	3886
865.209	4177
865.295	3833
865.381	3980
865.467	3919
865.553	4508
865.639	4755
865.726	7539
865.812	15697
865.898	27245
865.984	36304
866.070	71239
866.156	57344
866.242	14524
866.328	5316
866.414	3248
866.499	3327
866.585	3845
866.671	2947
866.757	4091
866.843	3722
866.928	3150
867.014	2519
867.100	3740
867.186	3691
867.271	3461
867.357	4763
867.442	3886
867.528	2610
867.614	2267
867.699	2456
867.785	3195
867.870	2232
867.956	3075
868.041	3506
868.127	3595
868.212	3192
868.297	3521
868.383	3992
868.468	4166
868.553	5936
868.639	6823
868.724	10928
868.809	9426
868.894	3283
868.979	2615
869.065	2566
869.150	2349
869.235	1848
869.320	3080
869.405	2062
869.490	1853
869.575	1915
869.660	2040
869.745	2630
869.830	2490
869.915	2690
870.000	1782
870.085	2122
870.169	3146
870.254	2336
870.339	1379
870.424	1208
870.509	2056
870.593	1985
870.678	2873
870.763	1495
870.847	2424
870.932	1637
871.016	2687
871.101	1710
871.186	2091
871.270	2926
871.355	1994
871.439	1738
871.523	1659
871.608	1390
871.692	1668
871.777	2259
871.861	2963
871.945	1357
872.030	2205
872.114	1291
872.198	1092
872.282	1247
872.367	1237
872.451	1627
872.535	1730
872.619	1622
872.703	1216
872.787	1017
872.871	1899
872.955	2271
873.039	1443
873.123	2386
873.207	2231
873.291	1330
873.375	1888
873.459	2027
873.543	1771
873.627	1337
873.711	1450
873.794	2544
873.878	771
873.962	1303
874.045	1540
874.129	1053
874.137	1103
874.213	1606
874.245	1639
874.296	1691
874.352	1610
874.380	1574
874.460	1764
874.464	1773
874.547	1748
874.568	1931
874.631	2460
874.676	2185
874.714	1969
874.784	2291
874.798	2354
874.881	2644
874.892	2396
874.965	674
874.999	1112
875.048	1718
875.107	1551
875.131	1484
875.215	1914
875.215	1913
875.298	1547
875.323	1640
875.381	1845
875.430	2180
875.465	2416
875.538	2277
875.548	2257
875.631	1999
875.646	1784
875.714	768
875.753	945
875.798	1175
875.861	1643
875.881	1774
875.964	802
875.968	828
876.047	1261
876.076	1321
876.130	1455
876.183	1062
876.213	910
876.291	1746
876.296	1785
876.379	1224
876.398	1198
876.462	1199
876.506	1270
876.545	1353
876.613	772
876.628	632
876.711	1450
876.721	1381
876.794	880
876.828	972
876.877	1157
876.935	1131
876.960	1129
877.043	1936
877.043	1938
877.125	2069
877.150	1915
877.208	1614
877.258	1566
877.291	1520
877.365	1132
877.374	1087
877.456	2140
877.472	2012
877.539	1483
877.579	1723
877.622	1952
877.687	1485
877.704	1374
877.787	1484
877.794	1428
877.869	898
877.901	1184
877.952	1548
878.008	1496
878.034	1507
878.115	1201
878.117	1193
878.199	1536
878.222	1381
878.282	905
878.329	1095
878.364	1324
878.437	1591
878.447	1609
878.529	580
878.544	683
878.611	939
878.651	703
878.694	774
878.758	980
878.776	948
878.858	1017
878.865	996
878.941	721
878.972	905
879.023	1163
879.078	843
879.105	830
879.185	1345
879.187	1347
879.269	1255
879.292	1134
879.351	998
879.399	688
879.433	537
879.506	1573
879.516	1655
879.598	1056
879.613	1011
879.680	961
879.720	1166
879.762	1396
879.827	808
879.844	654
879.926	815
879.933	821
880.007	605
880.040	606
880.089	872
880.147	1779
880.171	2216
880.253	3976
880.254	3990
880.335	5260
880.360	5489
880.417	6771
880.467	10461
880.499	12692
880.574	12331
880.580	12087
880.662	4010
880.680	3265
880.744	1307
880.787	999
880.825	990
880.893	260
880.907	138
880.989	676
881.000	641
881.070	745
881.106	887
881.152	798
881.213	696
881.233	706
881.315	725
881.319	731
881.396	617
881.426	415
881.478	192
881.532	430
881.559	579
881.639	684
881.641	679
881.722	618
881.745	553
881.803	612
881.852	693
881.885	788
881.958	1010
881.966	981
882.047	988
882.064	897
882.129	1065
882.171	1425
882.210	1696
882.277	2323
882.291	2353
882.372	1018
882.383	949
882.454	575
882.489	304
882.535	186
882.596	648
882.616	685
882.697	52
882.702	12
882.778	22
882.808	366
882.859	521
882.914	135
882.940	122
883.020	558
883.021	558
883.102	616
883.127	610
883.183	772
883.233	629
883.264	366
883.339	201
883.345	217
883.426	205
883.445	394
883.507	642
883.551	231
883.587	265
883.657	955
883.668	988
883.749	911
883.763	889
883.830	839
883.869	761
883.910	485
883.975	206
883.991	250
884.072	803
884.081	801
884.152	689
884.187	699
884.233	460
884.292	132
884.314	47
884.394	176
884.398	164
884.475	623
884.504	854
884.555	836
884.610	611
884.636	499
884.716	480
884.716	482
884.797	524
884.821	507
884.877	599
884.927	681
884.958	648
885.033	541
885.038	501
885.118	-466
885.139	-596
885.199	206
885.244	770
885.279	659
885.350	520
885.359	520
885.439	433
885.456	390
885.520	516
885.561	494
885.600	179
885.667	127
885.680	275
885.760	508
885.773	657
885.840	868
885.878	772
885.920	761
885.984	805
886.000	810
886.080	779
886.089	803
886.160	434
886.195	105
886.240	-41
886.300	-119
886.320	-2
886.400	717
886.406	746
886.480	780
886.511	884
886.560	948
886.616	784
886.640	711
886.720	523
886.722	521
886.800	206
886.827	82
886.879	308
886.932	539
886.959	587
887.038	840
887.039	834
887.119	209
887.143	52
887.198	202
887.248	395
887.278	293
887.354	-221
887.358	-199
887.437	504
887.459	675
887.517	757
887.564	837
887.596	937
887.669	1090
887.676	1019
887.755	242
887.774	27
887.835	742
887.880	1345
887.914	1114
887.985	426
887.994	430
888.073	776
888.090	781
888.153	324
888.195	87
888.232	264
888.300	666
888.311	654
888.391	499
888.405	479
888.470	573
888.510	580
888.549	260
888.615	-151
888.628	-68
888.708	345
888.720	422
888.787	184
888.825	27
888.866	-183
888.930	-491
888.945	-347
889.024	430
889.035	536
889.103	700
889.140	801
889.182	776
889.245	721
889.261	725
889.340	753
889.349	757
889.419	586
889.454	512
889.498	474
889.559	434
889.577	457
889.656	566
889.664	582
889.735	888
889.768	1033
889.814	842
889.873	589
889.978	-8
890.083	890
890.187	634
890.292	-467
890.397	953
890.501	643
890.606	215
890.710	296
890.815	611
890.919	-298
891.024	215
891.128	569
891.233	-47
891.337	498
891.442	-398
891.546	724
891.650	345
891.755	707
891.859	1321
891.963	291
892.068	602
892.172	503
892.276	375
892.380	585
892.484	718
892.589	415
892.693	1500
892.797	487
892.901	67
893.005	281
893.109	219
893.213	615
893.317	906
893.421	622
893.525	850
893.629	-175
893.733	326
893.837	437
893.941	-132
894.045	801
894.148	312
894.252	-20
894.356	1004
894.460	814
894.564	705
894.667	239
894.771	188
894.875	506
894.978	550
895.082	89
895.186	691
895.289	783
895.393	445
895.496	566
895.600	330
895.703	-569
895.807	980
895.910	-215
896.014	461
896.117	349
896.221	520
896.324	161
896.427	560
896.531	208
896.634	436
896.737	-40
896.840	-196
896.944	123
897.047	-269
897.150	439
897.253	284
897.356	863
897.460	516
897.563	727
897.666	699
897.769	1069
897.872	312
897.975	120
898.078	37
898.181	753
898.284	217
898.387	23
898.490	604
898.593	154
898.695	594
898.798	34
898.901	718
899.004	188
899.107	-187
899.209	-69
899.312	200
899.415	425
899.518	404
899.620	120
899.723	726
899.826	417
899.928	1037
900.031	-445
900.133	-664
900.236	135
900.338	135
900.441	-89
900.543	-44
900.646	-10
900.748	688
900.851	509
900.953	382
901.055	-260
901.158	577
901.260	-82
901.362	442
901.465	-33
901.567	-311
901.669	-92
901.771	468
901.873	-86
901.976	360
902.078	-285
902.180	430
902.282	125
902.384	160
902.486	490
902.588	611
902.690	-125
902.792	-276
902.894	-71
902.996	300
903.098	149
903.200	-55
903.302	620
903.404	395
903.505	-1008
903.607	415
903.709	668
903.811	-454
903.913	852
904.014	-118
904.116	-241
904.218	641
904.319	899
904.421	369
904.523	-75
904.624	334
904.726	-446
904.827	93
904.929	-419
905.030	555
905.132	294
905.233	78
905.335	-709
905.436	-77
905.537	-356
905.639	9
905.740	-197
905.841	196
905.943	-441
906.044	557
906.145	805
906.247	89
906.348	211
906.449	-42
906.550	-443
906.651	315
906.752	138
906.854	494
906.955	-621
907.056	377
907.157	751
907.258	444
907.359	-277
907.460	328
907.561	278
907.662	30
907.762	-146
907.863	-1053
907.964	262
908.065	911
908.166	-752
908.267	-173
908.367	-891
908.468	-391
908.569	-46
908.670	904
908.770	554
908.871	275
908.971	-184
909.072	144
909.173	588
909.273	-222
909.374	-593
909.474	-388
909.575	-362
909.675	778
909.776	-736
909.876	-144
909.977	286
910.077	166
910.177	328
910.278	36
910.378	341
910.478	-66
910.579	-62
910.679	-156
910.779	-21
910.879	226
910.980	-37
911.080	-466
911.180	-742
911.280	-299
911.380	21
911.480	93
911.580	-463
911.680	-217
911.780	624
911.880	528
911.980	114
912.080	-127
912.180	196
912.280	-699
912.380	-154
912.480	5
912.580	-103
912.679	351
912.779	-36
912.879	716
912.979	9
913.078	-99
913.178	-571
913.278	-314
913.377	-342
913.477	-57
913.577	-541
913.676	864
913.776	-356
913.875	165
913.975	477
914.074	-790
914.174	-503
914.273	-412
914.373	-112
914.472	160
914.572	-461
914.671	-488
914.770	314
914.870	100
914.969	-857
915.068	584
915.167	102
915.267	76
915.366	115
915.465	-610
915.564	-309
915.663	-283
915.763	-497
915.862	457
915.961	-53
916.060	525
916.159	433
916.258	-419
916.357	-432
916.456	368
916.555	-916
916.654	-182
916.752	3
916.851	-217
916.950	-182
917.049	48
917.148	-961
917.247	-21
917.345	-140
917.444	460
917.543	-367
917.642	175
917.740	-575
917.839	-261
917.937	487
918.036	931
918.135	522
918.233	291
918.332	-566
918.430	-539
918.529	-651
918.627	326
918.726	285
918.824	-137
918.923	-819
919.021	120
919.119	34
919.218	134
919.316	644
919.414	158
919.512	282
919.611	-492
919.709	-340
919.807	-486
919.905	-389
920.003	-571
920.102	-488
920.200	-467
920.298	333
920.396	-333
920.494	137
920.592	4
920.690	-130
920.788	-55
920.886	-818
920.984	129
921.082	-947
921.180	328
921.277	371
921.375	278
921.473	112
921.571	-279
921.669	704
921.766	17
921.864	-16
921.962	769
922.060	239
922.157	-140
922.255	92
922.352	-537
922.450	344
922.548	-420
922.645	-90
922.743	238
922.840	301
922.938	1349
923.035	-124
923.133	410
923.230	272
923.327	1283
923.425	1042
923.522	844
923.619	318
923.717	19
923.814	482
923.911	-86
924.008	1309
924.106	10
924.203	34
924.300	-175
924.397	365
924.494	1525
924.591	220
924.688	1119
924.786	437
924.883	901
924.979	263
925.077	58
925.173	824
925.270	332
925.367	-39
925.464	682
925.561	900
925.658	1637
925.755	735
925.852	1230
925.948	344
926.045	-257
926.142	224
926.239	855
926.335	264
926.432	457
926.529	593
926.625	794
926.722	-185
926.818	697
926.915	298
927.011	966
927.108	404
927.204	384
927.301	-11
927.397	-284
927.494	59
927.590	287
927.687	1006
927.783	553
927.879	245
927.976	-667
928.072	-871
928.168	1049
928.264	678
928.361	-338
928.457	49
928.553	-12
928.649	-88
928.745	1041
928.841	674
928.937	51
929.033	854
929.129	546
929.225	139
929.321	245
929.417	-127
929.513	1085
929.609	131
929.705	793
929.801	444
929.897	365
929.993	-228
930.089	158
930.184	-260
930.280	-123
930.376	569
930.471	1326
930.567	-318
930.663	721
930.758	-404
930.854	517
930.950	120
931.045	448
931.141	311
931.236	917
931.332	-130
931.427	-702
931.523	-537
931.618	-307
931.714	-806
931.809	225
931.905	855
932.000	-101
932.095	-1067
932.191	651
932.286	-235
932.381	322
932.476	229
932.572	395
932.667	-515
932.762	-185
932.857	-494
932.952	340
933.047	-337
933.142	1
933.237	134
933.332	-580
933.427	312
933.522	-82
933.617	-206
933.712	502
933.807	828
933.902	-335
933.997	524
934.092	-104
934.187	566
934.282	217
934.376	424
934.471	-420
934.566	492
934.661	-75
934.755	-413
934.850	-139
934.945	-143
935.039	-542
935.134	236
935.228	274
935.323	160
935.417	138
935.512	487
935.606	-279
935.701	-282
935.795	-659
935.890	-252
935.984	-166
936.079	14
936.173	161
936.267	121
936.362	182
936.456	466
936.550	353
936.644	213
936.738	-300
936.833	-143
936.927	450
937.021	-780
937.115	-100
937.209	-351
937.303	186
937.397	-470
937.491	-117
937.585	113
937.679	500
937.773	-504
937.867	171
937.961	597
938.055	993
938.149	663
938.243	-126
938.337	-519
938.430	89
938.524	143
938.618	-5
938.712	525
938.805	-263
938.899	-140
938.993	-204
939.086	-724
939.180	494
939.274	-137
939.367	-35
939.461	-10
939.554	157
939.648	-267
939.741	-145
939.835	-419
939.928	-157
940.022	169
940.115	-324
940.208	-804
940.302	482
940.395	38
940.488	-1131
940.582	-199
940.675	-397
940.768	-938
940.861	281
940.954	221
941.048	-206
941.141	-469
941.234	-721
941.327	185
941.420	1060
941.513	280
941.606	-119
941.699	-38
941.792	90
941.885	-654
941.978	13
942.071	-216
942.164	-264
942.257	-411
942.349	-472
942.442	-360
942.535	-790
942.628	209
942.721	-322
942.813	-1119
942.906	493
942.999	-206
943.091	-661
943.184	-604
943.277	-117
943.369	21
943.462	-212
943.554	-229
943.647	-803
943.739	-302
943.832	-75
943.924	-797
944.017	-190
944.109	-1018
944.201	13
944.294	-386
944.386	251
944.478	-622
944.571	-316
944.663	-95
944.755	-189
944.847	-265
944.940	-155
945.032	-920
945.124	-111
945.216	255
945.308	-412
945.400	-1026
945.492	123
945.584	-182
945.676	-339
945.768	-152
945.860	-139
945.952	-694
946.044	35
946.136	-929
946.228	-647
946.320	-906
946.412	286
946.503	-297
946.595	-73
946.687	-786
946.779	-70
946.870	-357
946.962	-775
947.054	-391
947.145	323
947.237	-728
947.329	123
947.420	-773
947.512	-667
947.603	-128
947.695	-66
947.786	-609
947.878	-1374
947.969	-455
948.061	-750
948.152	-1016
948.243	-256
948.335	-165
948.426	-1030
948.517	-764
948.609	-56
948.700	-360
948.791	-168
948.882	-96
948.973	-760
949.065	-721
949.156	-491
949.247	-1727
949.338	-361
949.429	-1022
949.520	104
949.611	-1277
949.702	-42
949.793	-884
949.884	-741
949.975	-629
950.066	-1016
950.157	-444
950.247	-598
950.338	-357
950.429	99
950.520	-570
950.611	-1002
950.701	-532
950.792	-33
950.883	142
950.973	-529
951.064	-325
951.155	-730
951.245	-423
951.336	-71
951.427	-895
951.517	-94
951.608	-508
951.698	-721
951.788	-472
951.879	-529
951.969	-881
952.060	235
952.150	-831
952.240	114
952.331	-2045
952.421	444
952.511	-548
952.602	-364
952.692	-1099
952.782	-420
952.872	-930
952.962	-530
953.052	-532
953.143	-1001
953.233	-502
953.323	-373
953.413	-877
953.503	-352
953.593	-737
953.683	-285
953.773	-1204
953.863	-268
953.953	-910
954.042	-158
954.132	-444
954.222	-782
954.312	34
954.402	-372
954.492	-960
954.581	-690
954.671	-929
954.761	-451
954.850	-402
954.940	-1382
955.030	-736
955.119	-862
955.209	-152
955.298	-1302
955.388	-328
955.477	-579
955.567	-1030
955.656	-895
955.746	-808
955.835	-916
955.925	-723
956.014	-691
956.103	-1432
956.193	285
956.282	-1116
956.371	215
956.461	-816
956.550	-613
956.639	-1413
956.728	-724
956.817	-1126
956.906	-330
956.995	-523
957.085	-1211
957.174	384
957.263	-577
957.352	-448
957.441	-1268
957.530	-478
957.619	-448
957.708	-703
957.796	-503
957.885	-726
957.974	-1528
958.063	-1096
958.152	-977
958.241	-687
958.329	-684
958.418	-1389
958.507	-1182
958.596	178
958.684	-751
958.773	-1353
958.861	-914
958.950	-541
959.039	-1044
959.127	-1010
959.216	-353
959.304	-939
959.393	-747
959.481	-1033
959.570	-779
959.658	-1323
959.746	-392
959.835	-642
959.923	-640
960.011	-1023
960.100	-376
960.188	-1019
960.276	-255
960.365	-880
960.453	-842
960.541	-1522
960.629	-865
960.717	-517
960.805	-1559
960.893	-716
960.981	-1508
961.069	-128
961.158	-551
961.245	-945
961.333	-292
961.421	-754
961.509	-605
961.597	-730
961.685	-974
961.773	-1155
961.861	-1108
961.949	-397
962.036	-963
962.124	-527
962.212	-949
962.299	-1756
962.387	-938
962.475	-1095
962.562	-1848
962.650	-1023
962.738	-844
962.825	-1217
962.913	-962
963.000	-1199
963.088	-712
963.175	-1063
963.263	-1207
963.350	-1717
963.438	-991
963.525	-1918
963.612	-33
963.700	-182
963.787	625
963.874	-847
963.962	-329
964.049	-987
964.136	-1113
964.223	-1227
964.310	-1176
964.398	-1520
964.485	-1531
964.572	-999
964.659	156
964.746	-1147
964.833	-760
964.920	-801
965.007	-998
965.094	-405
965.181	-1135
965.268	-1309
965.355	-225
965.441	-1571
965.528	-2157
965.615	-777
965.702	-1164
965.789	-808
965.875	-952
965.962	-1190
966.049	-2007
966.136	-1052
966.222	-688
966.309	-367
966.395	-1337
966.482	-531
966.569	-1575
966.655	-1748
966.742	-546
966.828	-459
966.915	-1290
967.001	-1005
967.087	-1393
967.174	-907
967.260	-1231
967.347	-874
967.433	-157
967.519	38
967.605	-1172
967.692	-1829
967.778	-986
967.864	-884
967.950	-944
968.036	-1152
968.123	-841
968.209	-1570
968.295	-1836
968.381	203
968.467	-917
968.553	-1423
968.639	-344
968.725	-1680
968.811	-933
968.897	-835
968.983	-637
969.069	-1445
969.154	485
969.240	-123
969.326	-1015
969.412	-1317
969.497	-1513
969.583	-1130
969.669	-689
969.755	-1108
969.840	-1194
969.926	-740
970.012	-1192
970.097	-914
970.183	-909
970.268	-1170
970.354	-1380
970.439	-1193
970.525	394
970.610	-1823
970.696	37
970.781	-953
970.866	-1792
970.952	-1042
971.037	-969
971.122	-1812
971.208	-1309
971.293	-1142
971.378	-1939
971.463	-931
971.549	-2065
971.634	-1383
971.719	-421
971.804	-603
971.889	197
971.974	-1400
972.059	-1038
972.144	-598
972.229	-665
972.314	-1436
972.399	-1451
972.484	-2067
972.569	-943
972.654	-1635
972.739	372
972.824	-1243
972.908	-1639
972.993	-1104
973.078	-1102
973.163	-619
973.247	-862
973.332	-1988
973.417	-250
973.501	-1432
973.586	-821
973.671	-1062
973.755	-409
973.840	-1283
973.924	-428
974.009	-1089
974.093	-1376
974.178	-112
974.262	-1348
974.346	-1552
974.431	-424
974.515	-1628
974.600	-1482
974.684	-718
974.768	-961
974.852	-1156
974.937	-1632
975.021	-742
975.105	-1459
975.189	-620
975.273	-816
975.358	-1238
975.442	-1520
975.526	-816
975.610	-1498
975.694	-2004
975.778	-485
975.862	-604
975.946	-2694
976.030	-174
976.114	-912
976.198	-676
976.281	-1525
976.365	-74
976.449	-713
976.533	-702
976.617	-2294
976.700	-1866
976.784	-825
976.868	-1715
976.951	-1160
977.035	-1218
977.119	-699
977.202	-1245
977.286	-653
977.369	-974
977.453	-729
977.536	-1334
977.620	-1570
977.703	-1370
977.787	-1721
977.870	-633
977.953	65
978.037	-1898
978.120	-612
978.203	-612
978.287	-278
978.370	-1151
978.453	-1313
978.536	-1793
978.620	-454
978.703	-1151
978.786	-1361
978.869	-1865
978.952	-2033
979.035	-397
979.118	-828
979.201	-1585
979.284	-1007
979.367	-2059
979.450	-1161
979.533	-2197
979.616	-1260
979.699	-2333
979.782	-1342
979.865	-1651
979.948	-1936
980.030	-1449
980.113	-349
980.196	-2061
980.279	-948
980.361	-1543
980.444	-1644
980.526	-1318
980.609	-817
980.692	-1771
980.774	-539
980.857	-2628
980.939	-282
981.022	-1800
981.104	-1517
981.187	-1663
981.269	-1439
981.352	-1142
981.434	-2402
981.516	-2318
981.599	-700
981.681	-1419
981.763	-954
981.846	-1163
981.928	-1481
982.010	-2267
982.092	-1624
982.174	-882
982.256	-1470
982.339	-1476
982.421	-1799
982.503	-801
982.585	-2084
982.667	-1493
982.749	-646
982.831	-1645
982.913	-1676
982.995	-953
983.077	-1544
983.158	-581
983.240	-1510
983.322	-1259
983.404	-891
983.486	-1651
983.568	-655
983.649	-1531
983.731	-1267
983.813	-1113
983.894	-728
983.976	-1559
984.058	-1348
984.139	-710
984.221	-1638
984.302	-1147
984.384	-907
984.465	-2076
984.547	-1046
984.628	-2285
984.710	-1092
984.791	-2115
984.872	-1570
984.954	-1263
985.035	-1150
985.116	-1635
985.198	-1871
985.279	-645
985.360	-1707
985.441	-1732
985.522	-1593
985.604	-1814
985.685	-3032
985.766	-1012
985.847	52
985.928	-1618
986.009	-1836
986.090	-1819
986.171	-350
986.252	-2766
986.333	-1472
986.414	-996
986.495	-899
986.576	-1609
986.656	-1644
986.737	-1769
986.818	-2028
986.899	-1457
986.980	-1047
987.060	-929
987.141	-1345
987.222	-739
987.302	-1859
987.383	-941
987.464	-1891
987.544	-1143
987.625	-1509
987.705	-1232
987.786	-429
987.866	-1175
987.947	-853
988.027	-1316
988.108	-1954
988.188	-592
988.268	-1478
988.349	-883
988.429	-1683
988.509	-1324
988.589	-718
988.670	-1861
988.750	89
988.830	-1555
988.910	-1501
988.990	-1560
989.070	-1569
989.151	-1340
989.231	-1413
989.311	-1046
989.391	-1413
989.471	-1339
989.551	-2009
989.631	-2022
989.711	-1478
989.791	-1727
989.870	-1884
989.950	-299
990.030	-1891
990.110	-943
990.190	-1872
990.269	-2042
990.349	-1578
990.429	-662
990.509	-404
990.588	-1767
990.668	-1465
990.747	-1111
990.827	-1441
990.907	-1087
990.986	-1282
991.066	-2471
991.145	-1592
991.225	-1354
991.304	-1958
991.383	-723
991.463	-1668
991.542	-2246
991.622	-1119
991.701	-1989
991.780	-2031
991.859	-1549
991.939	-1280
992.018	-1859
992.097	-1114
992.176	-1146
992.256	-1705
992.335	-2139
992.414	-894
992.493	-1717
992.572	-1095
992.651	-916
992.730	-1596
992.809	-818
992.888	-2832
992.967	-2882
993.046	-1542
993.125	-2389
993.203	-1387
993.282	-1682
993.361	-1071
993.440	-1535
993.519	-2208
993.597	-1040
993.676	-2210
993.755	-1380
993.834	-1022
993.912	-2482
993.991	-109
994.069	-2035
994.148	-1873
994.226	-1720
994.305	-1375
994.384	-2726
994.462	-1022
994.540	-2987
994.619	-1935
994.697	-1924
994.776	-2211
994.854	-1307
994.932	-1586
995.011	-1092
995.089	-1821
995.167	-1952
995.245	-1857
995.324	-3171
995.402	-1622
995.480	-1918
995.558	-1439
995.636	-2478
995.714	-1152
995.792	-637
995.870	-2166
995.948	-1505
996.026	-2257
996.104	-2959
996.182	-1585
996.260	-2032
996.338	-654
996.416	-1762
996.494	-2221
996.572	-1024
996.649	-1697
996.727	-2769
996.805	-1317
996.883	-1808
996.960	-2134
997.038	-1044
997.116	-1265
997.193	-1743
997.271	-1537
997.348	-2056
997.426	-801
997.504	-2052
997.581	-1637
997.658	-1345
997.736	-2363
997.813	-1653
997.891	-597
997.968	-1983
998.046	-1604
998.123	-2487
998.200	-864
998.277	-2236
998.355	-2012
998.432	-2672
998.509	-1814
998.586	-1073
998.663	-1452
998.741	-1495
998.818	-1496
998.895	-1559
998.972	-1568
999.049	-1805
999.126	-2135
999.203	-1537
999.280	-1504
999.357	-1748
999.434	-1648
999.511	-1598
999.587	-1195
999.664	-2548
999.741	-1154
999.818	-992
999.895	-1910
999.971	-2402
1000.048	-1542
1000.125	-1686
1000.202	-2331
1000.278	-1459
1000.355	-1845
1000.431	-1691
1000.508	-2200
1000.584	-2019
1000.661	-2592
1000.738	-2401
1000.814	-2045
1000.890	-1351
1000.967	-1652
1001.043	-1891
1001.120	-2600
1001.196	-1502
1001.272	-1824
1001.349	-1504
1001.425	-1111
1001.501	-1421
1001.577	-2637
1001.654	-1488
1001.730	-2001
1001.806	-1964
1001.882	-2502
1001.958	-1721
1002.034	-1420
1002.110	-2148
1002.186	-2396
1002.262	-2142
1002.338	-2034
1002.414	-457
1002.490	-1571
1002.566	-2301
1002.642	-2172
1002.718	-1498
1002.794	-2438
1002.870	-2130
1002.945	-1982
1003.021	-1494
1003.097	-1522
1003.173	-2027
1003.248	-2716
1003.324	-1979
1003.400	-2507
1003.475	-2261
1003.551	-1743
1003.626	-1606
1003.702	-1615
1003.777	-2300
1003.853	-2188
1003.928	-2044
1004.004	-1741
1004.079	-1039
1004.155	-1922
1004.230	-2603
1004.305	-1184
1004.381	-2207
1004.456	-1264
1004.531	-3272
1004.607	-1991
1004.682	-2722
1004.757	-1529
1004.832	-1861
1004.907	-925
1004.982	-1851
1005.057	-1451
1005.133	-1897
1005.208	-1671
1005.283	-2479
1005.358	-691
1005.433	-2935
1005.508	-1387
1005.583	-2823
1005.657	-1696
1005.732	-1965
1005.807	-1955
1005.882	-2462
1005.957	-1486
1006.032	-1751
1006.106	-1430
1006.181	-1578
1006.256	-1635
1006.331	-1772
1006.405	-2086
1006.480	-1602
1006.554	-1992
1006.629	-1784
1006.704	-1659
1006.778	-2188
1006.853	-1447
1006.927	-1810
1007.002	-1871
1007.076	-1992
1007.150	-1459
1007.225	-2120
1007.299	-972
1007.373	-2264
1007.448	-1831
1007.522	-1710
1007.596	-1156
1007.671	-2620
1007.745	-1299
1007.819	-2756
1007.893	-1457
1007.967	-1892
1008.041	-2505
1008.115	-1377
1008.190	-2183
1008.264	-1848
1008.338	-2190
1008.412	-2082
1008.486	-1768
1008.560	-2021
1008.633	-2316
1008.707	-2121
1008.781	-1162
1008.855	-2311
1008.929	-1979
1009.003	-2607
1009.076	-2532
1009.150	-1798
1009.224	-1757
1009.298	-2125
1009.371	-2968
1009.445	-960
1009.519	-1648
1009.592	-3073
1009.666	-612
1009.739	-2252
1009.813	-1868
1009.886	-1739
1009.960	-2216
1010.033	-2041
1010.107	-1495
1010.180	-2783
1010.253	-1677
1010.327	-2347
1010.400	-2146
1010.473	-1731
1010.547	-1019
1010.620	-2333
1010.693	-2012
1010.766	-2601
1010.840	-2111
1010.913	-1819
1010.986	-1597
1011.059	-1803
1011.132	-2062
1011.205	-1515
1011.278	-1889
1011.351	-2346
1011.424	-1342
1011.497	-2651
1011.570	-2689
1011.643	-2103
1011.716	-2519
1011.789	-1643
1011.862	-1743
1011.934	-1400
1012.007	-3164
1012.080	-2202
1012.153	-1807
1012.225	-1415
1012.298	-2172
1012.371	-2218
1012.443	-961
1012.516	-2595
1012.588	-1531
1012.661	-1422
1012.733	-2578
1012.806	-1042
1012.879	-2655
1012.951	-2012
1013.023	-2106
1013.096	-1582
1013.168	-2102
1013.241	-1381
1013.313	-2161
1013.385	-2690
1013.458	-2053
1013.530	-945
1013.602	-1990
1013.674	-1479
1013.746	-2472
1013.819	-2039
1013.891	-1969
1013.963	-2391
1014.035	-2555
1014.107	-2003
1014.179	-1592
1014.251	-2839
1014.323	-2104
1014.395	-1323
1014.467	-1780
1014.539	-1854
1014.611	-2187
1014.683	-1529
1014.754	-1753
1014.826	-2291
1014.898	-1754
1014.970	-3374
1015.042	-1485
1015.113	-2742
1015.185	-2105
1015.257	-3404
1015.328	-1610
1015.400	-3387
1015.471	-1855
1015.543	-2743
1015.615	-2351
1015.686	-3456
1015.757	-2662
1015.829	-1728
1015.901	-1562
1015.972	-2271
1016.043	-2080
1016.115	-1742
1016.186	-1789
1016.257	-2661
1016.328	-1580
1016.400	-1348
1016.471	-2426
1016.542	-2327
1016.613	-1869
1016.685	-1902
1016.756	-1194
1016.827	-1903
1016.898	-2623
1016.969	-1432
1017.040	-1836
1017.111	-2411
1017.182	-2237
1017.253	-1513
1017.324	-2208
1017.395	-2353
1017.466	-1217
1017.537	-2093
1017.608	-1885
1017.678	-1898
1017.749	-2621
1017.820	-2341
1017.891	-2925
1017.961	-2077
1018.032	-1098
1018.103	-1723
1018.173	-1418
1018.244	-2742
1018.315	-2964
1018.385	-1788
1018.456	-2760
1018.526	-2662
1018.597	-1676
1018.667	-1882
1018.738	-2348
1018.808	-2107
1018.878	-2158
1018.949	-1604
1019.019	-2347
1019.089	-2243
1019.160	-2823
1019.230	-3121
1019.300	-1585
1019.371	-2286
1019.441	-1294
1019.511	-2370
1019.581	-1564
1019.651	-3232
1019.721	-1824
1019.791	-2050
1019.861	-1678
1019.931	-2370
1020.001	-1961
1020.071	-2116
1020.141	-1527
1020.211	-2256
1020.281	-1919
1020.351	-2701
1020.421	-1413
1020.491	-1638
1020.560	-2029
1020.630	-1469
1020.700	-2488
1020.770	-2480
1020.839	-2127
1020.909	-2119
1020.979	-2990
1021.048	-2451
1021.118	-1435
1021.187	-2024
1021.257	-1907
1021.326	-1808
1021.396	-1839
1021.465	-2494
1021.535	-2898
1021.604	-1718
1021.674	-2494
1021.743	-2061
1021.812	-2168
1021.882	-1854
1021.951	-1988
1022.020	-1977
1022.089	-1755
1022.159	-2448
1022.228	-1143
1022.297	-2637
1022.366	-1369
1022.435	-1737
1022.504	-1781
1022.573	-1380
1022.642	-1971
1022.711	-2552
1022.781	-1385
1022.849	-1309
1022.918	-2678
1022.987	-2043
1023.056	-2025
1023.125	-2221
1023.194	-1869
1023.263	-1641
1023.331	-1497
1023.400	-2382
1023.469	-3234
1023.538	-2471
1023.606	-2446
1023.675	-2398
1023.744	-2181
1023.812	-1860
1023.881	-1364
1023.949	-1830
1024.018	-1785
1024.086	-2229
1024.155	-1495
1024.223	-2487
1024.292	-2134
1024.360	-1938
1024.429	-2275
1024.497	-2356
1024.565	-1735
1024.634	-2341
1024.702	-2377
1024.770	-2520
1024.838	-2345
1024.907	-2679
1024.975	-2774
1025.043	-2082
1025.111	-2587
1025.179	-1754
1025.247	-1711
1025.315	-2124
1025.383	-2123
1025.451	-2379
1025.519	-1708
1025.587	-2175
1025.655	-2454
1025.723	-2282
1025.791	-1484
1025.859	-2413
1025.927	-1803
1025.995	-1942
1026.062	-1712
1026.130	-1850
1026.198	-2624
1026.266	-2361
1026.333	-1669
1026.401	-2264
1026.469	-2259
1026.536	-2543
1026.604	-1975
1026.671	-2144
1026.739	-1674
1026.806	-2021
1026.874	-2206
1026.941	-2334
1027.009	-1499
1027.076	-2276
1027.144	-1976
1027.211	-2234
1027.278	-1874
1027.345	-2381
1027.413	-2544
1027.480	-2412
1027.547	-2218
1027.614	-2721
1027.682	-2365
1027.749	-2511
1027.816	-2610
1027.883	-2028
1027.950	-1269
1028.017	-2328
1028.084	-1832
1028.151	-2775
1028.218	-2426
1028.285	-2612
1028.352	-2485
1028.419	-2576
1028.486	-2093
1028.553	-2140
1028.619	-2783
1028.686	-2403
1028.753	-1661
1028.820	-3209
1028.886	-2449
1028.953	-2094
1029.020	-2348
1029.086	-2597
1029.153	-1928
1029.220	-2521
1029.286	-2204
1029.353	-2227
1029.419	-2693
1029.486	-2904
1029.552	-1857
1029.619	-2054
1029.685	-2179
1029.751	-2724
1029.818	-727
1029.884	-2714
1029.951	-1654
1030.017	-2419
1030.083	-2628
1030.149	-2582
1030.216	-2690
1030.282	-1490
1030.348	-2571
1030.414	-2775
1030.480	-2856
1030.546	-2410
1030.612	-2443
1030.678	-2737
1030.744	-2060
1030.810	-2673
1030.876	-2219
1030.942	-2950
1031.008	-2579
1031.074	-2683
1031.140	-2674
1031.206	-2237
1031.272	-2120
1031.337	-2145
1031.403	-2515
1031.469	-2296
1031.534	-2297
1031.600	-2104
1031.666	-2406
1031.731	-2646
1031.797	-2062
1031.863	-2593
1031.928	-2229
1031.994	-2679
1032.059	-2361
1032.125	-2635
1032.190	-2517
1032.256	-3130
1032.321	-3355
1032.386	-2296
1032.452	-2189
1032.517	-2294
1032.582	-2763
1032.647	-2100
1032.713	-1990
1032.778	-1697
1032.843	-2977
1032.908	-2074
1032.974	-2453
1033.039	-2339
1033.104	-2761
1033.169	-2511
1033.234	-1493
1033.299	-2473
1033.364	-1900
1033.429	-2585
1033.494	-1923
1033.559	-3012
1033.624	-2733
1033.688	-2459
1033.753	-2771
1033.818	-2459
1033.883	-1644
1033.948	-1919
1034.013	-1994
1034.077	-2121
1034.142	-2425
1034.207	-1808
1034.271	-1602
1034.336	-2022
1034.400	-2487
1034.465	-2842
1034.530	-1732
1034.594	-2768
1034.658	-1827
1034.723	-2820
1034.787	-2606
1034.852	-1900
1034.916	-3119
1034.981	-2598
1035.045	-2111
1035.109	-2622
1035.173	-1634
1035.238	-2976
1035.302	-2104
1035.366	-2176
1035.430	-1888
1035.495	-2805
1035.559	-2005
1035.623	-2264
1035.687	-2154
1035.751	-2075
1035.815	-2096
1035.879	-2280
1035.943	-2473
1036.007	-2829
1036.071	-2018
1036.135	-2540
1036.198	-2063
1036.262	-2009
1036.326	-2336
1036.390	-1694
1036.454	-2478
1036.517	-2659
1036.581	-1833
1036.645	-1699
1036.709	-1795
1036.772	-2204
1036.836	-2225
1036.900	-2881
1036.963	-2450
1037.026	-2624
1037.090	-2448
1037.154	-2938
1037.217	-2053
1037.280	-2674
1037.344	-2497
1037.407	-3003
1037.471	-1331
1037.534	-2783
1037.597	-1903
1037.661	-2773
1037.724	-2003
1037.787	-2545
1037.850	-2506
1037.913	-2529
1037.977	-1994
1038.040	-2389
1038.103	-2843
1038.166	-2367
1038.229	-2759
1038.292	-1810
1038.355	-2695
1038.418	-2087
1038.481	-2206
1038.544	-1564
1038.607	-1540
1038.670	-2680
1038.732	-2878
1038.795	-3172
1038.858	-1888
1038.921	-2264
1038.984	-2337
1039.046	-2306
1039.109	-2621
1039.172	-2626
1039.234	-2962
1039.297	-2026
1039.360	-2680
1039.422	-2717
1039.485	-2313
1039.547	-2777
1039.610	-1761
1039.672	-2619
1039.734	-2223
1039.797	-2984
1039.859	-1667
1039.922	-2941
1039.984	-2874
1040.046	-2782
1040.109	-2061
1040.171	-2996
1040.233	-2055
1040.295	-2164
1040.358	-2504
1040.420	-2540
1040.482	-2054
1040.544	-2781
1040.606	-2351
1040.668	-2045
1040.730	-1351
1040.792	-2475
1040.854	-2448
1040.916	-3327
1040.978	-1781
1041.040	-2036
1041.102	-2843
1041.164	-2193
1041.225	-2341
1041.287	-2054
1041.349	-2435
1041.411	-1903
1041.472	-1705
1041.534	-1710
1041.596	-1830
1041.657	-1699
1041.719	-2645
1041.781	-1911
1041.842	-2535
1041.904	-3287
1041.965	-2918
1042.027	-2531
1042.088	-1731
1042.150	-2258
1042.211	-2012
1042.272	-1988
1042.334	-2487
1042.395	-1746
1042.456	-2411
1042.518	-2680
1042.579	-2256
1042.640	-2699
1042.701	-2411
1042.763	-3226
1042.824	-1728
1042.885	-2187
1042.946	-2240
1043.007	-1938
1043.068	-2748
1043.129	-2907
1043.190	-2825
1043.251	-3010
1043.312	-2386
1043.373	-2510
1043.434	-2261
1043.495	-3100
1043.556	-2428
1043.616	-2077
1043.677	-1892
1043.738	-2468
1043.799	-2702
1043.859	-2097
1043.920	-1949
1043.981	-1724
1044.041	-2034
1044.102	-2774
1044.162	-2106
1044.223	-2834
1044.284	-2425
1044.344	-2346
1044.405	-1958
1044.465	-2817
1044.525	-1526
1044.586	-1980
1044.646	-1770
1044.707	-2251
1044.767	-1786
1044.827	-1708
1044.887	-2599
1044.948	-1386
1045.008	-1733
1045.068	-1658
1045.128	-1864
1045.188	-2185
1045.249	-1728
1045.309	-2376
1045.369	-1770
1045.429	-2355
1045.489	-2645
1045.549	-2210
1045.609	-2076
1045.669	-2236
1045.729	-1217
1045.789	-2332
1045.848	-2303
1045.908	-2242
1045.968	-1864
1046.028	-2569
1046.088	-2167
1046.147	-2784
1046.207	-1243
1046.267	-1730
1046.326	-2250
1046.386	-2063
1046.446	-817
1046.505	-2056
1046.565	-2119
1046.624	-1034
1046.684	-796
1046.743	-915
1046.803	-1038
1046.862	82
1046.922	0
