'Start Wavelength	183.907
'End Wavelength	1046.922
'Gate Delay	5.000
'Gate Width (ms)	1.050
'Laser Output Level	0.000
'X Position	0.000
'Y Position	0.000
'Z Position	0.000
'Grid Point Number	1.000
'Shot Number	100.000
183.907	524.000
183.977	689.000
184.047	960
184.116	792
184.186	-89
184.256	706
184.325	93
184.395	1358
184.465	342
184.534	890
184.604	-87
184.674	259
184.743	347
184.813	938
184.883	208
184.952	393
185.022	938
185.092	722
185.161	-89
185.231	57
185.301	-123
185.370	563
185.440	605
185.509	482
185.579	48
185.649	84
185.718	708
185.788	800
185.857	-317
185.927	253
185.996	182
186.066	145
186.136	277
186.205	799
186.275	245
186.344	557
186.414	207
186.483	88
186.553	294
186.622	294
186.692	140
186.761	423
186.831	353
186.900	696
186.970	510
187.039	461
187.109	1069
187.178	555
187.248	160
187.317	888
187.387	-679
187.456	557
187.526	658
187.595	1270
187.664	508
187.734	1267
187.803	450
187.873	364
187.942	930
188.012	529
188.081	245
188.150	183
188.220	250
188.289	935
188.358	-17
188.428	906
188.497	623
188.567	480
188.636	263
188.705	371
188.775	487
188.844	147
188.913	770
188.983	809
189.052	-156
189.121	559
189.191	579
189.260	1137
189.329	538
189.399	774
189.468	597
189.537	645
189.606	657
189.676	-109
189.745	737
189.814	692
189.883	928
189.953	444
190.022	202
190.091	1801
190.161	1765
190.230	478
190.299	261
190.368	934
190.437	601
190.507	804
190.576	647
190.645	529
190.714	240
190.783	285
190.853	465
190.922	373
190.991	-22
191.060	255
191.129	1379
191.198	-96
191.268	924
191.337	657
191.406	-115
191.475	283
191.544	362
191.613	315
191.682	375
191.752	-102
191.821	862
191.890	595
191.959	145
192.028	667
192.097	675
192.166	500
192.235	410
192.304	462
192.373	140
192.442	903
192.511	1019
192.580	532
192.650	-178
192.719	692
192.788	531
192.857	214
192.926	257
192.995	771
193.064	1265
193.133	708
193.202	264
193.271	1204
193.340	1257
193.409	1118
193.478	859
193.547	1417
193.615	1906
193.684	1309
193.753	999
193.822	-107
193.891	496
193.960	1021
194.029	517
194.098	1402
194.167	181
194.236	973
194.305	349
194.374	696
194.443	-377
194.512	572
194.580	563
194.649	471
194.718	897
194.787	863
194.856	493
194.925	1046
194.994	1267
195.062	488
195.131	1342
195.200	898
195.269	468
195.338	673
195.407	719
195.475	924
195.544	614
195.613	858
195.682	602
195.751	1352
195.819	485
195.888	663
195.957	770
196.026	791
196.094	1221
196.163	1016
196.232	969
196.301	1294
196.369	1018
196.438	827
196.507	624
196.576	533
196.644	602
196.713	93
196.782	422
196.850	535
196.919	-51
196.988	700
197.056	565
197.125	943
197.194	932
197.262	1254
197.331	283
197.400	1171
197.468	758
197.537	-266
197.606	444
197.674	1280
197.743	1296
197.812	1049
197.880	2030
197.949	1588
198.017	2390
198.086	1049
198.155	889
198.223	1423
198.292	1601
198.360	587
198.429	460
198.497	966
198.566	2380
198.635	2088
198.703	972
198.772	1171
198.840	2346
198.909	1819
198.977	870
199.046	727
199.114	977
199.183	814
199.251	698
199.320	733
199.388	368
199.457	6
199.525	157
199.594	1379
199.662	787
199.731	879
199.799	330
199.867	1338
199.936	97
200.004	799
200.073	665
200.141	848
200.210	390
200.278	931
200.346	422
200.415	577
200.483	-141
200.552	681
200.620	902
200.688	1304
200.757	673
200.825	272
200.893	664
200.962	188
201.030	408
201.098	971
201.167	387
201.235	594
201.303	997
201.372	293
201.440	1124
201.508	1021
201.577	707
201.645	177
201.713	627
201.781	228
201.850	332
201.918	831
201.986	710
202.055	1037
202.123	297
202.191	653
202.259	232
202.327	576
202.396	504
202.464	965
202.532	1274
202.600	2255
202.669	723
202.737	596
202.805	-78
202.873	964
202.941	912
203.009	286
203.078	78
203.146	1063
203.214	1284
203.282	895
203.350	461
203.418	260
203.487	532
203.555	309
203.623	616
203.691	1313
203.759	79
203.827	709
203.895	313
203.963	857
204.031	628
204.099	649
204.168	684
204.236	536
204.304	211
204.372	865
204.440	558
204.508	616
204.576	-162
204.644	967
204.712	-436
204.780	347
204.848	324
204.916	438
204.984	1063
205.052	432
205.120	994
205.188	647
205.256	384
205.324	785
205.392	130
205.460	644
205.528	599
205.596	306
205.664	1155
205.732	952
205.799	2252
205.867	2993
205.935	422
206.003	445
206.071	585
206.139	475
206.207	776
206.275	825
206.343	671
206.411	608
206.478	336
206.546	720
206.614	786
206.682	224
206.750	774
206.818	681
206.885	757
206.953	352
207.021	600
207.089	1188
207.157	145
207.225	351
207.292	584
207.360	1060
207.428	374
207.496	1147
207.563	312
207.631	1109
207.699	609
207.767	710
207.834	1060
207.902	1158
207.970	523
208.038	901
208.105	1626
208.173	650
208.241	432
208.309	649
208.376	1291
208.444	1050
208.512	661
208.579	547
208.647	2159
208.715	935
208.782	632
208.850	697
208.918	821
208.985	1023
209.053	604
209.120	1437
209.188	62
209.256	1328
209.323	581
209.391	1463
209.459	865
209.526	707
209.594	900
209.661	1231
209.729	339
209.796	1515
209.864	583
209.932	630
209.999	668
210.067	630
210.134	791
210.202	764
210.269	975
210.337	1618
210.404	876
210.472	697
210.539	1309
210.607	1302
210.674	937
210.742	656
210.809	428
210.877	1837
210.944	563
211.012	440
211.079	1107
211.146	1166
211.214	820
211.281	1055
211.349	286
211.416	941
211.484	1105
211.551	1111
211.618	675
211.686	1712
211.753	-203
211.821	1495
211.888	866
211.955	1718
212.023	1483
212.090	1476
212.157	888
212.225	1293
212.292	2016
212.359	5168
212.427	10343
212.494	3952
212.561	1320
212.629	1851
212.696	1158
212.763	1380
212.831	1608
212.898	1293
212.965	890
213.032	1805
213.100	782
213.167	1709
213.234	1518
213.301	1370
213.369	688
213.436	1789
213.503	1214
213.570	798
213.638	888
213.705	1652
213.772	1204
213.839	1570
213.906	962
213.973	1266
214.041	1564
214.108	1168
214.175	492
214.242	1136
214.309	1333
214.376	1025
214.444	1122
214.511	1357
214.578	845
214.645	637
214.712	1453
214.779	1100
214.846	975
214.913	1317
214.980	1910
215.048	1690
215.115	1363
215.182	1412
215.249	1316
215.316	1268
215.383	1694
215.450	1668
215.517	1102
215.584	712
215.651	660
215.718	1282
215.785	699
215.852	1535
215.919	1000
215.986	1790
216.053	774
216.120	943
216.187	600
216.254	563
216.321	820
216.388	1134
216.455	1322
216.522	1931
216.589	1656
216.656	2308
216.722	2374
216.789	1925
216.856	2386
216.923	2674
216.990	1774
217.057	1388
217.124	2178
217.191	1932
217.258	1895
217.324	2395
217.391	2674
217.458	3245
217.525	1481
217.592	2035
217.659	902
217.725	2071
217.792	2555
217.859	1644
217.926	423
217.993	1415
218.059	930
218.126	1642
218.193	529
218.260	1021
218.327	1322
218.393	1104
218.460	111
218.527	894
218.594	1400
218.660	2376
218.727	2485
218.794	873
218.860	866
218.927	844
218.994	1244
219.061	799
219.127	1233
219.194	1826
219.261	44
219.327	898
219.394	674
219.461	452
219.527	1184
219.594	765
219.661	756
219.727	591
219.794	786
219.860	607
219.927	824
219.994	1286
220.060	1732
220.127	1365
220.193	1289
220.260	1221
220.326	2080
220.393	3633
220.460	5483
220.526	3009
220.593	1413
220.659	1648
220.726	2239
220.792	5889
220.859	4112
220.925	6318
220.992	9052
221.058	8379
221.125	6660
221.191	5465
221.258	1353
221.324	1057
221.391	1719
221.457	1322
221.524	1471
221.590	1951
221.657	6973
221.723	3707
221.789	4147
221.856	3032
221.922	1292
221.989	1475
222.055	1014
222.121	593
222.188	1340
222.254	878
222.321	762
222.387	1017
222.453	737
222.520	793
222.586	442
222.652	1005
222.719	270
222.785	53
222.851	376
222.918	785
222.984	808
223.050	566
223.116	617
223.183	1330
223.249	76
223.315	271
223.382	569
223.448	882
223.514	424
223.580	659
223.647	-337
223.713	974
223.779	83
223.845	1041
223.911	303
223.978	615
224.044	397
224.110	516
224.176	-57
224.242	235
224.309	777
224.375	427
224.441	359
224.507	-100
224.573	180
224.639	876
224.705	394
224.772	534
224.838	651
224.904	890
224.970	579
225.036	872
225.102	971
225.168	872
225.234	458
225.300	794
225.366	521
225.432	546
225.499	282
225.565	973
225.631	1026
225.697	928
225.763	703
225.829	1566
225.895	1602
225.961	2007
226.027	1683
226.093	1405
226.159	1724
226.225	2750
226.291	8433
226.357	11006
226.423	4917
226.489	3267
226.554	2317
226.620	1829
226.686	2210
226.752	3991
226.818	7729
226.884	16370
226.950	10974
227.016	4348
227.082	2718
227.148	2290
227.214	1184
227.279	1226
227.345	864
227.411	1240
227.477	1353
227.543	1239
227.609	1775
227.674	1227
227.740	926
227.806	952
227.872	759
227.938	1228
228.003	1331
228.069	436
228.135	237
228.201	722
228.267	510
228.332	1516
228.398	1381
228.464	783
228.530	-268
228.595	740
228.661	610
228.727	1872
228.792	1018
228.858	608
228.924	135
228.990	1527
229.055	901
229.121	1302
229.187	1207
229.252	1441
229.318	790
229.384	1134
229.449	1197
229.515	115
229.581	-201
229.646	1673
229.712	656
229.777	3309
229.843	2501
229.909	1183
229.974	1452
230.040	1411
230.105	1199
230.171	1742
230.236	1342
230.302	2902
230.368	1821
230.433	1067
230.499	713
230.564	1763
230.630	406
230.695	900
230.761	654
230.826	759
230.892	1646
230.957	991
231.023	-203
231.088	882
231.154	423
231.219	998
231.284	1368
231.350	1353
231.415	59
231.481	1234
231.546	138
231.612	240
231.677	-237
231.742	663
231.808	619
231.873	1127
231.939	-217
232.004	1446
232.069	875
232.135	605
232.200	709
232.265	687
232.331	-484
232.396	865
232.461	758
232.527	430
232.592	242
232.657	1545
232.723	2132
232.788	1188
232.853	709
232.918	716
232.984	139
233.049	1275
233.114	2339
233.179	1771
233.245	4247
233.310	3010
233.375	1210
233.440	1211
233.506	962
233.571	48
233.636	991
233.701	910
233.766	3051
233.832	3152
233.897	1379
233.962	966
234.027	1393
234.092	1153
234.157	1128
234.222	1482
234.288	3178
234.353	9134
234.418	6411
234.483	3390
234.548	1697
234.613	1386
234.678	872
234.743	3355
234.808	9141
234.873	4002
234.938	1732
235.004	1594
235.069	1198
235.134	946
235.199	1487
235.264	1007
235.329	463
235.394	725
235.459	1177
235.524	1640
235.589	1408
235.654	455
235.719	567
235.784	60
235.849	1193
235.913	4424
235.978	4955
236.043	4375
236.108	1470
236.173	2536
236.238	1571
236.303	1076
236.368	1155
236.433	3803
236.498	4070
236.563	2284
236.627	6609
236.692	22327
236.757	11745
236.822	6002
236.887	3728
236.952	2635
237.017	2509
237.081	2854
237.146	4239
237.211	9112
237.276	23326
237.341	31227
237.405	11111
237.470	6068
237.535	3598
237.600	2429
237.664	2066
237.729	1810
237.794	2983
237.859	5918
237.923	4274
237.988	2145
238.053	4158
238.118	4133
238.182	12931
238.247	7689
238.312	4667
238.376	3014
238.441	1323
238.506	3238
238.570	906
238.635	1235
238.700	558
238.764	1120
238.829	5923
238.893	4894
238.958	2569
239.023	1274
239.087	1018
239.152	2170
239.216	920
239.281	1458
239.346	1222
239.410	1036
239.475	1672
239.539	12637
239.604	6078
239.668	2405
239.733	810
239.797	1555
239.862	3496
239.926	7435
239.991	2216
240.055	1612
240.120	1200
240.184	954
240.249	1424
240.313	1090
240.378	1721
240.442	7901
240.507	8972
240.571	2409
240.635	5958
240.700	4484
240.764	1246
240.829	1646
240.893	594
240.957	1533
241.022	7722
241.086	10305
241.151	2785
241.215	1627
241.279	3357
241.344	4873
241.408	1981
241.472	1310
241.537	1375
241.601	1710
241.665	564
241.730	1128
241.794	1375
241.858	801
241.922	662
241.987	666
242.051	427
242.115	1022
242.179	351
242.244	522
242.308	2270
242.372	1339
242.436	1336
242.501	1319
242.565	1602
242.629	769
242.693	1010
242.757	1506
242.822	382
242.886	1053
242.950	1376
243.014	1605
243.078	1552
243.142	1297
243.206	1017
243.271	1609
243.335	1864
243.399	2983
243.463	14524
243.527	26110
243.591	6565
243.655	2313
243.719	1888
243.783	2850
243.847	4692
243.911	4441
243.975	5831
244.040	2399
244.104	2241
244.168	1600
244.232	3151
244.296	3657
244.360	3364
244.424	2399
244.488	2177
244.552	1657
244.615	1686
244.679	1327
244.743	2067
244.807	1798
244.871	527
244.935	690
244.999	974
245.063	1359
245.127	1636
245.191	3371
245.255	1917
245.319	2285
245.383	1115
245.446	2181
245.510	1010
245.574	1633
245.638	1226
245.702	2064
245.766	4106
245.829	1648
245.893	1830
245.957	1285
246.021	1375
246.085	1548
246.149	2178
246.212	7140
246.276	7528
246.340	2947
246.404	2644
246.467	3756
246.531	3608
246.595	1709
246.659	2144
246.722	2217
246.786	2730
246.850	4226
246.913	3765
246.977	1030
247.041	1561
247.104	1516
247.168	2419
247.232	7040
247.295	12364
247.359	3887
247.423	2845
247.486	5640
247.550	2363
247.614	2509
247.677	2422
247.741	2069
247.804	1834
247.868	2902
247.932	6635
247.995	10379
248.059	3028
248.122	1739
248.186	3215
248.249	6614
248.313	21364
248.376	16706
248.440	10375
248.503	3065
248.567	3453
248.630	5237
248.694	6878
248.757	10170
248.821	20475
248.884	9502
248.948	11698
249.011	15962
249.075	25412
249.138	16366
249.202	6789
249.265	5166
249.328	6508
249.392	4045
249.455	2768
249.519	2790
249.582	3018
249.645	6048
249.709	3961
249.772	3033
249.835	2793
249.899	3723
249.962	2929
250.025	2220
250.089	9185
250.152	9291
250.215	3372
250.279	3256
250.342	3700
250.405	3219
250.468	2796
250.532	4588
250.595	7219
250.658	36070
250.721	37744
250.785	11024
250.848	6784
250.911	3844
250.974	3381
251.038	7540
251.101	11423
251.164	6583
251.227	6429
251.290	5558
251.354	10554
251.417	45879
251.480	29554
251.543	27344
251.606	79036
251.669	38083
251.732	16025
251.795	18757
251.859	20860
251.922	45928
251.985	18238
252.048	7694
252.111	5720
252.174	6189
252.237	12880
252.300	23640
252.363	32523
252.426	54580
252.489	16981
252.552	10788
252.615	8029
252.678	9249
252.741	20045
252.804	31476
252.867	55862
252.930	27576
252.993	14579
253.056	9637
253.119	6243
253.182	5435
253.245	9527
253.308	7103
253.371	6143
253.434	6406
253.497	6402
253.559	12613
253.622	7200
253.685	11120
253.748	6778
253.811	3914
253.874	7873
253.937	5613
254.000	4573
254.062	10140
254.125	10769
254.188	11425
254.251	7567
254.314	4595
254.376	8721
254.439	8559
254.502	7267
254.565	9638
254.628	12238
254.690	7300
254.753	3990
254.816	3947
254.878	4627
254.941	10810
255.004	7460
255.067	3752
255.129	2645
255.192	2506
255.255	1259
255.317	3151
255.380	1945
255.443	1931
255.505	860
255.568	848
255.631	1687
255.693	1850
255.756	52
255.819	1640
255.881	1028
255.944	1327
256.006	1255
256.069	1879
256.132	1528
256.194	3361
256.257	10045
256.319	6338
256.382	3841
256.444	3073
256.507	1429
256.569	1570
256.632	1463
256.694	4644
256.757	14299
256.819	26938
256.882	7379
256.944	3529
257.007	3818
257.069	3854
257.132	1840
257.194	1839
257.257	1234
257.319	1751
257.381	2269
257.444	10373
257.506	40819
257.569	27340
257.631	11370
257.693	7324
257.756	3924
257.818	4228
257.880	2503
257.943	1773
258.005	570
258.067	1337
258.130	1615
258.192	2477
258.254	6109
258.317	2372
258.379	2388
258.441	7307
258.503	5377
258.566	14385
258.628	11762
258.690	2381
258.753	2808
258.815	4423
258.877	2076
258.939	1635
259.001	1875
259.064	383
259.126	2834
259.188	3796
259.250	2287
259.312	2755
259.375	5362
259.437	2530
259.499	1506
259.561	1443
259.623	1446
259.685	1425
259.747	1429
259.809	14102
259.872	17283
259.934	32709
259.996	17073
260.058	4582
260.120	2219
260.182	2415
260.244	1633
260.306	1517
260.368	1480
260.430	1699
260.492	2967
260.554	4911
260.616	4236
260.678	17535
260.740	16010
260.802	3645
260.864	2279
260.926	1881
260.988	2966
261.050	2687
261.112	7272
261.174	22670
261.236	11532
261.298	3958
261.359	11507
261.421	9843
261.483	2506
261.545	1812
261.607	1861
261.669	1884
261.731	7471
261.793	11958
261.854	2938
261.916	2595
261.978	1881
262.040	2678
262.102	2109
262.164	5513
262.225	2824
262.287	1957
262.349	5591
262.411	3454
262.472	1709
262.534	7998
262.596	11049
262.658	2580
262.719	2169
262.781	4767
262.843	11998
262.904	4027
262.966	2594
263.028	4114
263.090	31083
263.151	47475
263.213	11924
263.275	5890
263.336	3069
263.398	2496
263.459	1582
263.521	2240
263.583	5122
263.644	2890
263.706	384
263.767	914
263.829	1112
263.891	1353
263.952	1039
264.014	377
264.075	2283
264.137	5548
264.198	2796
264.260	912
264.321	1233
264.383	4710
264.444	7178
264.506	1775
264.567	1122
264.629	3849
264.690	5242
264.752	2516
264.813	1486
264.875	1405
264.936	1562
264.998	692
265.059	570
265.120	1364
265.182	2642
265.243	18425
265.305	9879
265.366	2227
265.427	1398
265.489	1629
265.550	343
265.611	2301
265.673	885
265.734	928
265.795	1602
265.857	948
265.918	964
265.979	5879
266.040	29311
266.102	14186
266.163	4409
266.224	3645
266.286	1886
266.347	810
266.408	1835
266.469	2300
266.530	758
266.592	781
266.653	4605
266.714	4023
266.775	603
266.836	976
266.898	422
266.959	2269
267.020	432
267.081	1349
267.142	-211
267.203	899
267.264	-92
267.326	1169
267.387	441
267.448	-214
267.509	724
267.570	576
267.631	876
267.692	151
267.753	1134
267.814	228
267.875	4520
267.936	5174
267.997	2001
268.058	2369
268.119	502
268.180	1133
268.241	241
268.302	814
268.363	202
268.424	1285
268.485	776
268.546	493
268.607	395
268.668	278
268.729	-240
268.790	580
268.851	1251
268.912	4843
268.972	2882
269.033	1615
269.094	184
269.155	1646
269.216	645
269.277	1268
269.338	335
269.398	905
269.459	718
269.520	1754
269.581	2722
269.642	2898
269.702	1733
269.763	1564
269.824	1616
269.885	2129
269.945	2820
270.006	1312
270.067	873
270.128	-59
270.188	183
270.249	729
270.310	274
270.370	914
270.431	631
270.492	744
270.553	926
270.613	3400
270.674	6609
270.734	1696
270.795	538
270.856	2377
270.916	857
270.977	770
271.038	1479
271.098	1196
271.159	3052
271.219	2338
271.280	1042
271.340	1204
271.401	2010
271.462	6593
271.522	2239
271.583	1370
271.643	1451
271.704	1335
271.764	1106
271.825	5912
271.885	21264
271.946	19305
272.006	5549
272.066	13088
272.127	15446
272.187	3838
272.248	2115
272.308	4264
272.369	13588
272.429	4763
272.489	5422
272.550	3355
272.610	5466
272.671	3174
272.731	5330
272.791	6235
272.852	2385
272.912	2788
272.972	1294
273.033	954
273.093	2064
273.153	3491
273.214	1933
273.274	2287
273.334	12337
273.394	16836
273.455	5347
273.515	8341
273.575	13519
273.635	5528
273.696	11848
273.756	16410
273.816	4568
273.876	3485
273.936	15367
273.997	17418
274.057	3493
274.117	3153
274.177	5967
274.237	24512
274.297	17625
274.358	14329
274.418	15374
274.478	8393
274.538	4125
274.598	5363
274.658	21742
274.718	20057
274.778	5912
274.838	3654
274.898	14203
274.958	30285
275.018	20615
275.078	9439
275.138	4278
275.198	2269
275.258	2089
275.318	3844
275.378	5246
275.438	4426
275.498	4177
275.558	18799
275.618	24200
275.678	10528
275.738	7258
275.798	4252
275.858	2330
275.918	1011
275.978	2231
276.038	1800
276.098	1783
276.157	4612
276.217	10712
276.277	4057
276.337	2217
276.397	1430
276.457	2563
276.517	1582
276.576	2184
276.636	760
276.696	2377
276.756	8935
276.815	3447
276.875	2401
276.935	2650
276.995	2153
277.055	517
277.114	1272
277.174	3934
277.234	8501
277.293	3039
277.353	1364
277.413	1380
277.472	831
277.532	1356
277.592	3122
277.651	9671
277.711	12126
277.771	4758
277.830	18739
277.890	10676
277.950	14959
278.009	29665
278.069	7613
278.128	11237
278.188	10398
278.248	5697
278.307	15412
278.367	6504
278.426	2344
278.486	1613
278.545	992
278.605	1247
278.664	1190
278.724	1595
278.783	10472
278.843	16874
278.902	4192
278.962	1946
279.021	3338
279.081	5168
279.140	4374
279.199	2192
279.259	2581
279.318	2038
279.378	4847
279.437	9058
279.496	32831
279.556	109732
279.615	55913
279.675	15088
279.734	10343
279.793	16139
279.853	14940
279.912	4965
279.971	4163
280.031	2939
280.090	6267
280.149	9384
280.208	16053
280.268	82330
280.327	52324
280.386	12454
280.445	10852
280.505	7498
280.564	4237
280.623	2956
280.682	6603
280.742	6551
280.801	2089
280.860	1689
280.919	2099
280.978	1383
281.037	1365
281.097	806
281.156	734
281.215	1588
281.274	2484
281.333	13617
281.392	5594
281.451	1161
281.510	1400
281.569	1059
281.628	-166
281.688	759
281.747	1502
281.806	674
281.865	785
281.924	694
281.983	999
282.042	700
282.101	1025
282.160	652
282.219	340
282.278	780
282.337	5930
282.396	1489
282.454	987
282.513	2141
282.572	9050
282.631	2941
282.690	1594
282.749	821
282.808	1595
282.867	1465
282.926	1499
282.985	413
283.043	403
283.102	650
283.161	1076
283.220	6614
283.279	9261
283.338	1627
283.396	1877
283.455	1331
283.514	1416
283.573	2313
283.631	1966
283.690	539
283.749	1227
283.808	3649
283.866	3207
283.925	536
283.984	2035
284.043	1911
284.101	1574
284.160	1391
284.219	2256
284.277	1490
284.336	4432
284.395	13121
284.453	7469
284.512	2833
284.570	4021
284.629	2369
284.688	1913
284.746	1878
284.805	3211
284.863	4204
284.922	4765
284.981	5709
285.039	8490
285.098	17399
285.156	51446
285.215	116131
285.273	87400
285.332	35282
285.390	18600
285.449	11846
285.507	8373
285.566	5688
285.624	4169
285.683	3033
285.741	2439
285.799	2205
285.858	2032
285.916	2262
285.975	1222
286.033	1335
286.091	1602
286.150	875
286.208	1235
286.267	1980
286.325	1470
286.383	2504
286.442	2137
286.500	527
286.558	1135
286.616	384
286.675	2009
286.733	1604
286.791	1157
286.850	1556
286.908	2931
286.966	2864
287.024	1735
287.083	470
287.141	709
287.199	497
287.257	2389
287.315	1115
287.374	2518
287.432	3991
287.490	2762
287.548	1880
287.606	889
287.664	1555
287.723	2945
287.781	2233
287.839	823
287.897	1513
287.955	2452
288.013	5359
288.071	15155
288.129	70895
288.187	134685
288.245	41975
288.303	14379
288.361	9701
288.419	6933
288.477	4652
288.535	3703
288.593	1920
288.651	1475
288.709	610
288.767	457
288.825	864
288.883	1192
288.941	573
288.999	1045
289.057	740
289.115	870
289.173	728
289.231	993
289.289	1354
289.346	550
289.404	715
289.462	1498
289.520	1760
289.578	816
289.636	12
289.694	-16
289.751	187
289.809	874
289.867	117
289.925	809
289.983	1455
290.040	549
290.098	153
290.156	1548
290.214	572
290.271	-81
290.329	116
290.387	143
290.444	119
290.502	-225
290.560	208
290.617	-4
290.675	676
290.733	522
290.790	724
290.848	413
290.906	670
290.963	572
291.021	155
291.078	782
291.136	1383
291.194	5424
291.251	8103
291.309	2010
291.366	430
291.424	401
291.481	-3
291.539	-476
291.596	-552
291.654	639
291.711	-220
291.769	941
291.826	2391
291.884	793
291.941	415
291.999	568
292.056	-6
292.114	377
292.171	196
292.228	266
292.286	812
292.343	3126
292.401	2993
292.458	2243
292.515	1463
292.573	1971
292.630	122
292.687	1260
292.745	457
292.802	1734
292.859	5789
292.917	10848
292.974	4216
293.031	1323
293.089	448
293.146	643
293.203	656
293.260	-273
293.318	397
293.375	1490
293.432	416
293.489	126
293.546	487
293.604	2526
293.661	10321
293.718	18291
293.775	7079
293.832	4016
293.889	1301
293.947	1741
294.004	654
294.061	1618
294.118	5665
294.175	9577
294.232	9224
294.289	2834
294.346	2034
294.403	1387
294.460	1817
294.517	1131
294.574	528
294.631	108
294.688	2269
294.745	7793
294.802	23271
294.859	17136
294.916	6233
294.973	3462
295.030	2831
295.087	2121
295.144	1004
295.201	1428
295.258	1420
295.315	2717
295.372	9902
295.429	14687
295.486	4776
295.542	3945
295.599	9543
295.656	12129
295.713	10483
295.770	13277
295.827	4287
295.883	2307
295.940	2240
295.997	4791
296.054	2749
296.111	1241
296.167	956
296.224	1311
296.281	431
296.338	238
296.394	932
296.451	1217
296.508	7243
296.564	11497
296.621	7722
296.678	20313
296.734	20295
296.791	6549
296.848	4770
296.904	5249
296.961	10280
297.018	17726
297.074	10154
297.131	3256
297.187	3405
297.244	5854
297.301	23100
297.357	28531
297.414	8143
297.470	4038
297.527	2004
297.583	1458
297.640	1467
297.696	1150
297.753	685
297.809	1015
297.866	519
297.922	672
297.979	110
298.035	1331
298.092	3483
298.148	10946
298.204	7115
298.261	3570
298.317	9745
298.374	21462
298.430	9601
298.486	5344
298.543	2744
298.599	4172
298.656	3183
298.712	7800
298.768	16193
298.824	8699
298.881	3097
298.937	1714
298.993	1639
299.050	2352
299.106	2039
299.162	1311
299.218	1847
299.275	810
299.331	1867
299.387	6368
299.443	20468
299.500	14147
299.556	4143
299.612	2685
299.668	1569
299.724	1121
299.780	1102
299.837	1599
299.893	4267
299.949	16260
300.005	14087
300.061	15498
300.117	23297
300.173	9097
300.229	4468
300.285	6015
300.341	5873
300.397	2684
300.453	1139
300.510	1375
300.566	1204
300.622	1311
300.678	3404
300.734	10694
300.790	14623
300.845	16939
300.901	8214
300.957	13432
301.013	8615
301.069	3716
301.125	3014
301.181	2738
301.237	1366
301.293	935
301.349	923
301.405	1190
301.461	488
301.516	1162
301.572	1884
301.628	4240
301.684	3274
301.740	6894
301.796	9896
301.851	6320
301.907	11703
301.963	12088
302.019	25170
302.074	57241
302.130	46132
302.186	18453
302.242	8314
302.297	5098
302.353	5724
302.409	11609
302.464	8502
302.520	8927
302.576	21117
302.631	19410
302.687	9513
302.743	3783
302.798	2368
302.854	1912
302.910	1854
302.965	3148
303.021	5468
303.076	5226
303.132	6589
303.187	7378
303.243	2098
303.299	2484
303.354	490
303.410	1851
303.465	923
303.521	600
303.576	2015
303.632	2605
303.687	6734
303.743	17927
303.798	11738
303.853	4192
303.909	2854
303.964	2888
304.020	3926
304.075	5725
304.130	5363
304.186	9836
304.241	9186
304.297	6666
304.352	2993
304.358	2861
304.407	1788
304.449	1853
304.463	1874
304.518	1135
304.539	1274
304.573	1496
304.629	2127
304.630	2179
304.684	4653
304.720	11615
304.739	15209
304.794	18357
304.811	15703
304.850	8830
304.902	3447
304.905	3123
304.960	2638
304.992	2619
305.015	2613
305.071	2287
305.083	2133
305.126	1554
305.173	1419
305.181	1403
305.236	500
305.264	992
305.292	1562
305.347	1426
305.354	1599
305.402	2576
305.445	2410
305.457	2392
305.512	3991
305.535	3832
305.567	3497
305.622	4278
305.626	4491
305.678	9571
305.716	18999
305.733	22575
305.788	21558
305.807	19603
305.843	15500
305.897	20134
305.898	20195
305.953	18040
305.988	12332
306.008	8892
306.063	5045
306.078	4332
306.118	3061
306.168	2487
306.173	2489
306.228	1858
306.259	1836
306.283	1681
306.338	1273
306.349	1363
306.393	2149
306.440	2968
306.448	3029
306.503	2450
306.530	2841
306.558	4474
306.613	11117
306.620	11809
306.668	16350
306.711	21405
306.723	21830
306.778	16227
306.801	13240
306.833	9103
306.888	3970
306.892	3760
306.943	3182
306.982	2183
306.997	1895
307.052	2169
307.072	2248
307.107	2716
307.162	4290
307.163	4299
307.217	6115
307.253	8052
307.272	8745
307.327	9349
307.343	8917
307.381	6823
307.434	5588
307.436	5810
307.491	13560
307.524	19106
307.546	20946
307.600	20650
307.614	19368
307.655	11930
307.704	5748
307.710	5637
307.765	6654
307.795	8096
307.819	11013
307.874	19153
307.885	19579
307.929	14264
307.975	9088
307.984	9153
308.038	12894
308.065	16491
308.093	28417
308.148	59373
308.156	66241
308.202	117706
308.246	145492
308.257	138030
308.312	75392
308.336	52380
308.366	41390
308.421	25534
308.426	24060
308.475	15315
308.517	9530
308.530	8874
308.585	7556
308.607	7115
308.639	7158
308.694	7777
308.697	7889
308.748	15732
308.787	23137
308.803	23491
308.857	18989
308.877	17184
308.912	13939
308.967	10684
308.967	10642
309.021	15059
309.058	18417
309.076	23232
309.130	40968
309.148	48218
309.185	88278
309.238	157635
309.239	158707
309.293	191735
309.328	191819
309.348	162387
309.402	80106
309.418	58483
309.457	41011
309.508	22090
309.511	21741
309.566	17745
309.598	16144
309.620	18396
309.674	24864
309.688	26501
309.729	25873
309.778	23476
309.783	22942
309.837	16104
309.868	12793
309.892	15219
309.946	22151
309.959	24283
310.001	36528
310.049	47946
310.055	46226
310.109	27535
310.139	17151
310.163	13713
310.218	7977
310.229	6875
310.272	5239
310.319	3822
310.326	3804
310.381	3579
310.409	3610
310.435	3646
310.489	3610
310.499	3572
310.543	3499
310.589	3815
310.598	3841
310.652	3510
310.679	3394
310.706	3134
310.760	2720
310.769	2637
310.814	2230
310.859	1886
310.868	2031
310.923	2678
310.948	3024
310.977	3185
311.031	3668
311.038	3710
311.085	3526
311.128	3237
311.139	3189
311.193	3076
311.218	2896
311.247	2644
311.301	2364
311.308	2309
311.356	2320
311.398	2464
311.410	2450
311.464	2162
311.488	2086
311.518	2038
311.572	1925
311.578	1912
311.626	3534
311.668	5025
311.680	4919
311.734	4256
311.758	3946
311.788	4310
311.842	5017
311.847	5076
311.896	5428
311.937	5763
311.950	6047
312.004	7208
312.027	7676
312.058	6074
312.112	3205
312.117	2913
312.165	3019
312.207	3103
312.297	5335
312.386	4279
312.476	3305
312.566	8316
312.656	4581
312.745	2653
312.835	3035
312.925	3813
313.015	3112
313.104	5062
313.194	2416
313.284	2996
313.374	3849
313.463	4582
313.553	2161
313.643	2370
313.732	2091
313.822	1942
313.912	2987
314.001	2672
314.091	3011
314.180	4430
314.270	5018
314.360	5470
314.449	4324
314.539	2548
314.628	2244
314.718	3143
314.808	4497
314.897	2659
314.987	1759
315.076	3306
315.166	4933
315.255	5765
315.345	4517
315.434	4765
315.524	3845
315.613	4680
315.703	5323
315.792	5568
315.881	4743
315.971	4048
316.060	7805
316.150	14988
316.239	16126
316.328	7860
316.418	2340
316.507	2611
316.597	4302
316.686	4538
316.775	5783
316.865	17366
316.954	4384
317.043	1562
317.133	2424
317.222	1731
317.311	2379
317.400	2537
317.490	3412
317.579	5422
317.668	2264
317.757	4026
317.847	5221
317.936	7800
318.025	11267
318.114	6160
318.203	5190
318.293	7596
318.382	15384
318.471	13266
318.560	15366
318.649	35701
318.738	12320
318.828	6013
318.917	6768
319.006	7362
319.095	17542
319.184	43320
319.273	32207
319.362	17062
319.451	5561
319.540	4472
319.629	9397
319.718	20945
319.807	9603
319.896	12833
319.985	54077
320.074	29616
320.163	5942
320.252	9886
320.341	7496
320.430	7275
320.519	8640
320.608	6560
320.697	3916
320.786	4152
320.875	5297
320.964	7761
321.053	11415
321.142	16437
321.230	21027
321.319	11925
321.408	31613
321.497	16586
321.586	11931
321.675	14551
321.764	17213
321.852	10061
321.941	15898
322.030	15660
322.119	10911
322.207	33038
322.296	27670
322.385	12184
322.474	12430
322.562	36169
322.651	26175
322.740	12569
322.829	19577
322.917	22314
323.006	14331
323.095	10411
323.183	7858
323.272	12499
323.361	19584
323.449	70542
323.538	32172
323.626	40709
323.715	39483
323.804	11285
323.892	38109
323.981	32060
324.069	9318
324.158	18367
324.246	27756
324.335	6116
324.424	12240
324.512	4554
324.601	5411
324.689	7590
324.778	14578
324.866	15472
324.954	5836
325.043	4003
325.131	8706
325.220	17409
325.308	21217
325.397	14151
325.485	11653
325.574	3348
325.662	2239
325.750	3760
325.839	3074
325.927	2032
326.015	3537
326.104	5609
326.192	12210
326.280	3359
326.369	2327
326.457	4057
326.545	8739
326.634	5397
326.722	2344
326.810	2810
326.898	1804
326.987	3332
327.075	7130
327.163	10146
327.251	5124
327.340	4028
327.428	5904
327.516	2072
327.604	2356
327.692	3612
327.781	2762
327.869	7904
327.957	5387
328.045	4608
328.133	1520
328.221	3729
328.309	2864
328.397	2656
328.485	4132
328.574	5205
328.662	19119
328.750	16002
328.838	4809
328.926	2945
329.014	1782
329.102	3799
329.190	10136
329.278	10119
329.366	1990
329.454	1531
329.542	1866
329.630	2331
329.718	1996
329.806	3393
329.893	3831
329.981	3471
330.069	5028
330.157	16677
330.245	58162
330.333	41107
330.421	8061
330.509	6536
330.597	22745
330.684	21715
330.772	6488
330.860	7055
330.948	9330
331.036	5427
331.123	1461
331.211	1612
331.299	3313
331.387	5378
331.475	15837
331.562	5366
331.650	2015
331.738	2454
331.825	4730
331.913	2120
332.001	1221
332.089	2737
332.176	8051
332.264	18900
332.352	21482
332.439	4895
332.527	3038
332.614	3463
332.702	3686
332.790	2897
332.877	7423
332.965	21356
333.052	5912
333.140	3909
333.228	11760
333.315	4620
333.403	2129
333.490	9726
333.578	12451
333.665	11248
333.753	7308
333.840	3212
333.928	2947
334.015	11576
334.103	17565
334.190	60152
334.278	22691
334.365	4949
334.452	3084
334.540	2222
334.627	2563
334.715	7206
334.802	11710
334.889	64151
334.977	99281
335.064	11017
335.151	3684
335.239	2887
335.326	5942
335.413	20533
335.501	46419
335.588	6960
335.675	3304
335.762	2878
335.850	7493
335.937	4801
336.024	12051
336.111	72608
336.199	41677
336.286	5711
336.373	2050
336.460	1802
336.547	1940
336.635	3171
336.722	2822
336.809	2571
336.896	4561
336.983	13962
337.070	39843
337.157	63997
337.245	48741
337.332	50266
337.419	5392
337.506	2581
337.593	3511
337.680	8944
337.767	40635
337.854	13882
337.941	13563
338.028	17784
338.115	7148
338.202	5733
338.289	11244
338.376	50696
338.463	23425
338.550	17504
338.637	30902
338.724	8646
338.811	17574
338.898	4205
338.984	2150
339.071	2721
339.158	3293
339.245	10924
339.332	9635
339.419	8347
339.506	12261
339.593	2023
339.679	1980
339.766	1886
339.853	2639
339.940	9484
340.027	3084
340.113	2757
340.200	4118
340.287	3329
340.374	2758
340.460	7751
340.547	3674
340.634	4736
340.720	21436
340.807	19078
340.894	2100
340.980	3232
341.067	2342
341.154	2693
341.240	2928
341.327	12871
341.414	4135
341.500	4517
341.587	2181
341.674	1970
341.760	5566
341.847	10337
341.933	3140
342.020	1087
342.106	682
342.193	2630
342.279	6223
342.366	3542
342.452	8235
342.539	4503
342.625	7721
342.712	26927
342.798	12488
342.885	5339
342.971	990
343.058	626
343.144	1178
343.230	1672
343.317	1640
343.403	1222
343.490	1622
343.576	1876
343.662	1951
343.749	2367
343.835	3986
343.921	6890
344.008	31141
344.094	108071
344.180	32578
344.267	8647
344.353	21609
344.439	37025
344.525	14827
344.612	6453
344.698	4465
344.784	3891
344.870	1689
344.957	2195
345.043	4137
345.129	2715
345.215	7088
345.301	4331
345.387	2202
345.474	1243
345.560	549
345.646	2756
345.732	1390
345.818	2446
345.904	2260
345.990	2782
346.076	2588
346.162	6879
346.249	2890
346.335	1102
346.421	1812
346.507	8219
346.593	39686
346.679	14077
346.765	1876
346.851	1299
346.937	1904
347.023	2239
347.108	1643
347.194	2731
347.280	1749
347.366	2130
347.452	7836
347.538	42919
347.624	37279
347.710	32650
347.796	6202
347.882	2835
347.967	1314
348.053	2794
348.139	1634
348.225	1001
348.311	1071
348.397	1500
348.482	1906
348.568	3548
348.654	1019
348.740	474
348.825	147
348.911	4130
348.997	14744
349.083	49928
349.168	9916
349.254	1852
349.340	2207
349.425	1707
349.511	2535
349.597	4853
349.682	6297
349.768	26243
349.854	17468
349.939	2211
350.025	729
350.110	1536
350.196	1559
350.282	531
350.367	711
350.453	2896
350.538	5557
350.624	2919
350.709	3167
350.795	840
350.880	1520
350.966	1898
351.051	3724
351.137	3407
351.222	1685
351.308	6618
351.393	25047
351.479	8491
351.564	1892
351.649	1879
351.735	1723
351.820	521
351.906	1636
351.991	2763
352.076	11846
352.162	28061
352.247	5739
352.332	1840
352.418	5308
352.503	7171
352.588	28591
352.673	36756
352.759	7195
352.844	3582
352.929	2554
353.014	5544
353.100	2217
353.185	2913
353.270	6484
353.355	9867
353.441	2488
353.526	2955
353.611	6230
353.696	11516
353.781	5179
353.866	2527
353.952	2037
354.037	6562
354.122	18650
354.207	18857
354.292	7897
354.377	2689
354.462	1045
354.547	2719
354.632	2518
354.717	2748
354.802	2946
354.887	2000
354.972	943
355.057	890
355.142	986
355.227	1473
355.312	4209
355.397	10048
355.482	29513
355.567	19801
355.652	8860
355.737	11070
355.822	26255
355.907	36280
355.991	4719
356.076	2037
356.161	1913
356.246	998
356.331	2384
356.416	5591
356.501	40341
356.585	72064
356.670	11209
356.755	4765
356.840	5707
356.924	21909
357.009	123662
357.094	71477
357.179	11523
357.263	7749
357.348	5322
357.433	6997
357.517	4830
357.602	5182
357.687	3310
357.771	4295
357.856	16707
357.941	14129
358.025	18741
358.110	112650
358.195	79971
358.279	11649
358.364	6203
358.448	17473
358.533	60646
358.617	52277
358.702	45697
358.787	21905
358.871	8801
358.956	8023
359.040	2120
359.125	1998
359.209	1493
359.294	6027
359.378	16219
359.462	7425
359.547	4349
359.631	2010
359.716	1651
359.800	2140
359.885	3544
359.969	2446
360.053	2414
360.138	2939
360.222	3441
360.306	8413
360.391	7213
360.475	8603
360.559	27086
360.644	23658
360.728	21930
360.812	19265
360.896	84163
360.981	41308
361.065	21282
361.149	4978
361.233	4459
361.318	3053
361.402	3642
361.486	3604
361.570	2216
361.654	3620
361.739	9098
361.823	38290
361.907	93922
361.991	20634
362.075	6091
362.159	17040
362.243	12884
362.327	6021
362.411	5879
362.495	4558
362.580	3327
362.664	842
362.748	767
362.832	1411
362.916	1237
363.000	5886
363.084	30359
363.168	97518
363.252	29190
363.336	7116
363.420	8605
363.503	30035
363.587	55656
363.671	10915
363.755	5046
363.839	8139
363.923	3555
364.007	6397
364.091	10410
364.175	9667
364.258	52965
364.342	38515
364.426	8410
364.510	5624
364.594	7145
364.677	10367
364.761	57299
364.845	64554
364.929	15678
365.013	14756
365.096	8168
365.180	13774
365.264	10271
365.347	59108
365.431	36064
365.515	7483
365.598	2901
365.682	2906
365.766	4162
365.849	8172
365.933	3449
366.017	4185
366.100	3896
366.184	928
366.267	1771
366.351	1578
366.435	1038
366.518	1682
366.602	387
366.685	1318
366.769	1529
366.852	3432
366.936	9608
367.019	7241
367.103	3053
367.186	8721
367.270	2744
367.353	357
367.436	967
367.520	1565
367.603	1977
367.687	4138
367.770	10421
367.853	6526
367.937	12996
368.020	36724
368.104	10024
368.187	6897
368.270	9978
368.353	9402
368.437	12041
368.520	32421
368.603	24289
368.687	18082
368.770	49536
368.853	15277
368.936	8731
369.020	10910
369.103	4217
369.186	1221
369.269	1774
369.352	4868
369.436	10092
369.519	6952
369.602	2286
369.685	2298
369.768	2760
369.851	3302
369.934	1088
370.018	2090
370.101	7832
370.184	7223
370.267	3136
370.350	6004
370.433	11851
370.516	26464
370.599	45031
370.682	11697
370.765	20151
370.848	25937
370.931	56310
371.014	28101
371.097	4854
371.180	3192
371.263	1161
371.346	663
371.429	1188
371.511	1177
371.594	3806
371.677	7443
371.760	9196
371.843	7111
371.926	25650
372.009	100378
372.091	40410
372.174	16129
372.257	48394
372.340	25929
372.423	10647
372.505	16683
372.588	6797
372.671	11167
372.754	51149
372.836	37243
372.919	12743
373.002	37435
373.085	13772
373.167	6918
373.250	17444
373.332	48007
373.415	51993
373.498	140570
373.580	64735
373.663	40960
373.746	88475
373.828	25313
373.911	8323
373.993	8020
374.076	28234
374.159	40828
374.241	12888
374.324	41904
374.406	37852
374.489	24971
374.571	105560
374.654	61157
374.736	16432
374.819	57669
374.901	86743
374.983	117914
375.066	25157
375.148	6212
375.231	17809
375.313	59125
375.395	25442
375.478	4450
375.560	2125
375.643	3327
375.725	11885
375.807	77216
375.890	84783
375.972	38208
376.054	15168
376.136	27395
376.219	14826
376.301	14552
376.383	74830
376.465	40016
376.548	16083
376.630	17230
376.712	58614
376.794	41605
376.877	3932
376.959	1006
377.041	1975
377.123	4923
377.205	8620
377.287	1758
377.369	550
377.452	1768
377.534	1611
377.616	1480
377.698	564
377.780	522
377.862	1132
377.944	2223
378.026	1528
378.108	1279
378.190	1027
378.272	1013
378.354	5
378.436	451
378.518	1984
378.600	14191
378.682	13536
378.764	25345
378.846	30728
378.928	5892
379.010	8890
379.091	5686
379.173	1349
379.255	1781
379.337	2585
379.419	9569
379.501	44774
379.583	25088
379.664	3360
379.746	8912
379.828	25830
379.910	40902
379.991	43914
380.073	9248
380.155	2566
380.237	2797
380.318	643
380.400	1651
380.482	3993
380.564	12230
380.645	7239
380.727	8307
380.809	4915
380.890	2519
380.972	1511
381.053	2592
381.135	2947
381.217	6039
381.298	31935
381.380	20140
381.461	9227
381.543	46995
381.624	95738
381.706	20349
381.787	5740
381.869	6653
381.951	14736
382.032	92820
382.113	85075
382.195	17576
382.276	6742
382.358	11338
382.439	47990
382.521	54803
382.602	102883
382.684	50639
382.765	68492
382.846	82834
382.928	90858
383.009	65131
383.090	28999
383.172	100090
383.253	230558
383.334	89983
383.416	81916
383.497	57477
383.578	15747
383.659	25690
383.741	78403
383.822	300339
383.903	210548
383.984	56763
384.066	102608
384.147	85334
384.228	16684
384.309	9040
384.390	7041
384.471	3820
384.553	4395
384.634	6666
384.715	8905
384.796	4884
384.877	4447
384.958	19953
385.039	40131
385.120	14829
385.201	4952
385.282	6356
385.363	5500
385.444	4363
385.525	6072
385.606	32747
385.687	45138
385.768	9269
385.849	7841
385.930	29787
386.011	84955
386.092	30175
386.173	5583
386.254	2507
386.335	3819
386.416	2496
386.496	11551
386.577	34434
386.658	12035
386.739	5947
386.820	5221
386.901	3727
386.981	3073
387.062	1976
387.143	3457
387.224	23766
387.304	34012
387.385	9296
387.466	4089
387.547	5488
387.627	3538
387.708	5824
387.789	39768
387.869	73617
387.950	23632
388.031	3383
388.111	834
388.192	6680
388.273	13038
388.353	8630
388.434	3909
388.514	5865
388.595	34979
388.676	69659
388.756	35674
388.837	27504
388.917	23188
388.998	3792
389.078	2518
389.159	2258
389.239	1523
389.320	4175
389.400	3362
389.480	6290
389.561	28044
389.641	20552
389.722	3262
389.802	7498
389.883	8795
389.963	32333
390.043	29807
390.124	8603
390.204	6083
390.284	31936
390.365	28147
390.445	18907
390.525	64763
390.605	77552
390.686	23857
390.766	6987
390.846	2718
390.927	1321
391.007	1283
391.087	2428
391.167	2270
391.247	1804
391.328	4135
391.408	7043
391.488	5182
391.568	1433
391.648	1993
391.728	5476
391.808	4303
391.888	5521
391.969	10232
392.049	29090
392.129	13344
392.209	7977
392.289	31305
392.369	22194
392.449	12720
392.529	9933
392.609	5244
392.689	5011
392.769	24466
392.849	33361
392.929	10267
393.009	37100
393.089	36335
393.169	8858
393.248	11928
393.328	97927
393.408	182188
393.488	38613
393.568	6502
393.648	4495
393.728	3222
393.807	2454
393.887	2027
393.967	2554
394.047	3283
394.127	6667
394.206	11675
394.286	35405
394.366	188402
394.446	311898
394.525	92797
394.605	19826
394.685	10716
394.764	17335
394.844	32860
394.924	31340
395.003	9070
395.083	5117
395.163	5042
395.242	3632
395.322	4509
395.402	2390
395.481	4421
395.561	8167
395.640	38634
395.720	30425
395.799	38207
395.879	46235
395.958	20571
396.038	54885
396.117	251653
396.197	404688
396.276	144802
396.356	40041
396.435	21934
396.515	12541
396.594	8712
396.673	11629
396.753	19849
396.832	110832
396.912	136568
396.991	45645
397.070	8240
397.150	4031
397.229	2319
397.308	1825
397.388	1448
397.467	1985
397.546	1020
397.625	-320
397.705	3542
397.784	3753
397.863	1434
397.942	1096
398.022	541
398.101	5027
398.180	34850
398.259	25764
398.338	4845
398.417	3022
398.497	1772
398.576	2655
398.655	-655
398.734	405
398.813	628
398.892	4792
398.971	36796
399.050	29814
399.129	2931
399.208	547
399.287	1187
399.366	383
399.445	931
399.524	778
399.603	0
399.682	2589
399.761	8414
399.840	37222
399.919	44880
399.998	6080
400.077	668
400.156	339
400.235	1722
400.313	673
400.392	957
400.471	9278
400.550	29265
400.629	10158
400.708	1569
400.786	1369
400.865	4949
400.944	9796
401.023	5613
401.102	149
401.180	352
401.259	262
401.338	415
401.416	1685
401.495	1566
401.574	855
401.652	181
401.731	1383
401.810	1140
401.888	830
401.967	-560
402.046	518
402.124	1198
402.203	3413
402.281	1474
402.360	690
402.438	7711
402.517	9035
402.596	1745
402.674	1478
402.753	510
402.831	353
402.910	-108
402.988	1952
403.066	11658
403.145	10126
403.223	3334
403.302	9247
403.380	7978
403.459	6002
403.537	2417
403.615	1068
403.694	-1571
403.772	407
403.850	-848
403.929	-18
404.007	-626
404.085	1681
404.164	822
404.242	202
404.320	2687
404.398	12630
404.477	18805
404.555	61275
404.633	91390
404.711	21429
404.789	8797
404.868	1645
404.946	-476
405.024	536
405.102	-686
405.180	695
405.258	-718
405.336	735
405.415	-435
405.493	2057
405.571	1938
405.649	-970
405.727	-701
405.805	1680
405.883	1344
405.961	929
406.039	2084
406.117	447
406.195	1901
406.273	8001
406.351	58314
406.429	55821
406.507	8056
406.585	1898
406.663	1537
406.740	2024
406.818	2429
406.896	1102
406.974	724
407.052	1582
407.130	24034
407.208	66208
407.285	16819
407.363	1658
407.441	1142
407.519	935
407.596	856
407.674	2953
407.752	6678
407.830	11860
407.907	6404
407.985	626
408.063	463
408.141	-721
408.218	1179
408.296	2419
408.373	78
408.451	859
408.529	1181
408.606	280
408.684	-296
408.762	-418
408.839	-1790
408.917	-1027
408.994	-919
409.072	-341
409.149	-728
409.227	281
409.304	40
409.382	-684
409.459	-1011
409.537	-345
409.614	-121
409.692	-131
409.769	-277
409.846	-288
409.924	-127
410.001	145
410.079	155
410.156	681
410.233	-84
410.311	-39
410.388	-555
410.465	-412
410.543	246
410.620	24
410.697	-859
410.775	786
410.852	-1175
410.929	595
411.006	1661
411.083	-319
411.161	1788
411.238	3168
411.315	1335
411.392	-101
411.469	476
411.547	1290
411.624	-1448
411.701	-291
411.778	-311
411.855	2865
411.932	2235
412.009	-397
412.086	-332
412.163	761
412.240	645
412.317	952
412.394	777
412.471	751
412.548	-539
412.625	-847
412.702	119
412.779	2709
412.856	1511
412.933	-172
413.010	674
413.087	1118
413.164	7750
413.241	24626
413.318	6383
413.395	1680
413.471	2749
413.548	2244
413.625	-304
413.702	253
413.779	893
413.855	-709
413.932	-1464
414.009	-387
414.086	-190
414.162	-363
414.239	587
414.316	7365
414.393	32428
414.469	17323
414.546	10
414.623	-694
414.699	-951
414.776	312
414.853	-288
414.929	759
415.006	313
415.082	527
415.159	-13
415.236	148
415.312	-400
415.389	1491
415.465	3385
415.542	2718
415.618	-709
415.695	2609
415.771	237
415.848	386
415.924	456
416.000	1044
416.077	-145
416.153	-293
416.230	-1495
416.306	-1163
416.383	-800
416.459	-385
416.535	-1278
416.612	-691
416.688	-659
416.764	-156
416.841	-932
416.917	166
416.993	-307
417.069	159
417.146	525
417.222	2787
417.298	1352
417.374	-145
417.451	129
417.527	552
417.603	1305
417.679	298
417.755	-459
417.831	-802
417.908	-227
417.984	-929
418.060	-1275
418.136	1991
418.212	5751
418.288	1238
418.364	-402
418.440	-35
418.516	1257
418.592	2070
418.668	4395
418.744	9264
418.820	8895
418.896	1221
418.972	-965
419.048	-793
419.124	2098
419.200	2795
419.276	-82
419.352	-1588
419.428	-1389
419.504	-814
419.579	165
419.655	577
419.731	-25
419.807	4141
419.883	10566
419.959	10766
420.034	2091
420.110	1073
420.186	14035
420.262	20727
420.337	3160
420.413	1146
420.489	-233
420.565	61
420.640	-1357
420.716	443
420.792	-1891
420.867	165
420.943	-343
421.019	863
421.094	1220
421.170	-245
421.245	-1411
421.321	-731
421.397	-1629
421.472	677
421.548	1151
421.623	3504
421.699	382
421.774	1060
421.850	-465
421.925	1973
422.001	2031
422.076	-158
422.152	-760
422.227	1466
422.302	1765
422.378	597
422.453	2332
422.529	4397
422.604	18054
422.679	80611
422.755	64883
422.830	13529
422.905	1536
422.981	166
423.056	-332
423.131	247
423.207	-458
423.282	222
423.357	3833
423.432	3758
423.508	733
423.583	7050
423.658	8331
423.733	1416
423.808	1079
423.883	1916
423.959	1641
424.034	-438
424.109	-464
424.184	-1485
424.259	-777
424.334	348
424.409	-1100
424.484	-1318
424.559	253
424.634	-1088
424.709	177
424.784	1422
424.859	514
424.934	1139
425.009	8024
425.084	23153
425.159	12835
425.234	1412
425.309	-691
425.384	1204
425.459	6859
425.534	2936
425.609	45
425.683	68
425.758	-1184
425.833	-109
425.908	385
425.983	3205
426.058	22425
426.132	15944
426.207	1507
426.282	1651
426.357	1803
426.431	-456
426.506	-484
426.581	281
426.655	-358
426.730	-86
426.805	-1354
426.879	1045
426.954	70
427.029	1146
427.103	11677
427.178	53340
427.253	39371
427.327	4518
427.402	476
427.476	6669
427.551	5269
427.625	812
427.700	700
427.774	-840
427.849	-56
427.923	165
427.998	-751
428.072	-846
428.147	-93
428.221	3589
428.296	10256
428.370	4523
428.444	-187
428.519	918
428.593	4914
428.667	6795
428.742	5408
428.816	5611
428.890	6627
428.965	15132
429.039	8008
429.113	7727
429.188	4159
429.262	683
429.336	57
429.410	7752
429.485	8514
429.559	4484
429.633	5943
429.707	417
429.781	-4
429.855	9637
429.930	23916
430.004	18357
430.078	30412
430.152	33163
430.226	10959
430.300	13059
430.374	2230
430.448	-132
430.522	4624
430.596	31937
430.670	27225
430.744	18561
430.818	60377
430.892	24974
430.966	2454
431.040	136
431.114	-227
431.188	-704
431.262	-471
431.336	-434
431.410	772
431.484	7343
431.557	9241
431.631	748
431.705	-863
431.779	-1032
431.853	2946
431.927	5296
432.000	331
432.074	380
432.148	269
432.222	158
432.295	-211
432.369	-456
432.443	96
432.516	9312
432.590	53791
432.664	36700
432.737	3081
432.811	-185
432.885	-1243
432.958	-824
433.032	-924
433.106	-651
433.179	-1301
433.253	-1165
433.326	-728
433.400	-562
433.473	-1482
433.547	-1372
433.620	-929
433.694	447
433.767	2667
433.841	-692
433.914	-761
433.988	-806
434.061	-962
434.134	-1270
434.208	-1137
434.281	-983
434.355	-1091
434.428	-539
434.501	-983
434.575	-1350
434.648	-91
434.721	-811
434.795	-1371
434.868	-1686
434.941	-1459
435.014	-1340
435.088	-1559
435.161	-711
435.234	569
435.307	2030
435.381	-173
435.454	-630
435.527	-882
435.600	-926
435.673	-1810
435.746	-440
435.819	-1307
435.892	-1018
435.966	-809
436.039	-555
436.112	-724
436.185	-430
436.258	-994
436.331	-1883
436.404	-1333
436.477	-420
436.550	-1046
436.623	-1070
436.696	-1395
436.769	-939
436.842	-571
436.915	-14
436.987	944
437.060	-110
437.133	-754
437.206	-1112
437.279	-294
437.352	-525
437.425	-1047
437.498	-517
437.570	925
437.643	1939
437.716	100
437.789	-164
437.861	-863
437.934	4338
438.007	4677
438.080	-1311
438.152	-83
438.225	1938
438.298	12247
438.370	72672
438.443	55793
438.516	10068
438.588	1833
438.661	34
438.734	248
438.806	-1
438.879	324
438.951	346
439.024	2073
439.096	1040
439.169	-622
439.241	-183
439.314	-1809
439.386	378
439.459	672
439.531	2635
439.604	1491
439.676	-109
439.749	-889
439.821	-848
439.893	-1180
439.966	-332
440.038	-115
440.110	634
440.183	-893
440.255	-566
440.327	502
440.400	3473
440.472	37000
440.544	50531
440.617	7206
440.689	1731
440.761	1606
440.833	4347
440.905	4401
440.978	659
441.050	-1111
441.122	-129
441.194	-555
441.266	-788
441.338	-1216
441.411	444
441.483	7267
441.555	26802
441.627	9659
441.699	1047
441.771	1389
441.843	80
441.915	-1246
441.987	-443
442.059	-1016
442.131	-458
442.203	771
442.275	708
442.347	1069
442.419	-82
442.491	-460
442.563	2556
442.635	3342
442.706	5595
442.778	9408
442.850	1278
442.922	-641
442.994	8
443.066	285
443.137	405
443.209	-1125
443.281	-477
443.353	-531
443.425	2174
443.496	4113
443.568	8057
443.640	3110
443.711	1147
443.783	-1140
443.855	-349
443.926	-779
443.998	-482
444.070	-30
444.141	284
444.213	380
444.285	2536
444.356	508
444.428	2035
444.499	-554
444.571	-163
444.642	-611
444.714	-831
444.785	151
444.857	1875
444.928	4506
445.000	4084
445.071	2312
445.143	5047
445.214	1638
445.285	821
445.357	6647
445.428	9148
445.500	14330
445.571	18117
445.642	7407
445.714	3270
445.785	10280
445.856	3697
445.928	2406
445.999	2062
446.070	718
446.141	1066
446.213	2320
446.284	816
446.355	126
446.426	837
446.497	-227
446.569	-718
446.640	2369
446.711	2994
446.782	-220
446.853	712
446.924	826
446.995	63
447.066	189
447.138	1113
447.209	599
447.280	-555
447.351	-451
447.422	-1119
447.493	-166
447.564	845
447.635	1095
447.706	989
447.777	-688
447.847	-965
447.918	-1672
447.989	128
448.060	283
448.131	2717
448.202	4374
448.273	2694
448.344	504
448.414	-390
448.485	-106
448.556	-630
448.627	-1217
448.698	-514
448.768	-1182
448.839	-1025
448.910	228
448.981	2481
449.051	425
449.122	-1023
449.193	-1248
449.263	-388
449.334	-839
449.405	55
449.475	2585
449.546	3307
449.616	736
449.687	2370
449.758	288
449.828	-456
449.899	-1247
449.969	-377
450.040	-790
450.110	-93
450.181	269
450.251	3
450.322	-570
450.392	-685
450.463	-252
450.533	488
450.604	-424
450.674	-258
450.744	-359
450.815	606
450.885	-940
450.955	-492
451.026	-1197
451.096	-649
451.166	519
451.237	620
451.307	5633
451.377	4655
451.447	-189
451.518	-882
451.588	-596
451.658	-295
451.728	330
451.799	4320
451.869	11113
451.939	3359
452.009	39
452.079	51
452.149	-229
452.219	699
452.289	5805
452.360	9141
452.430	1586
452.500	502
452.570	43
452.640	1310
452.710	1483
452.780	8162
452.850	6220
452.920	7477
452.990	3621
453.060	382
453.129	881
453.199	2339
453.269	4828
453.339	25690
453.409	46600
453.479	29996
453.549	48831
453.619	58849
453.688	34258
453.758	6173
453.828	170
453.898	551
453.968	373
454.037	238
454.087	224
454.107	211
454.168	182
454.177	174
454.247	-299
454.249	-292
454.316	-268
454.330	-247
454.386	-184
454.411	655
454.456	1964
454.492	4868
454.525	7442
454.574	4531
454.595	3289
454.655	268
454.665	-230
454.734	810
454.736	816
454.804	662
454.817	1499
454.873	4837
454.898	6907
454.943	10542
454.979	7504
455.013	4758
455.060	2196
455.082	1123
455.141	521
455.152	399
455.221	2439
455.222	2560
455.291	11118
455.303	11088
455.360	10758
455.384	15201
455.430	22355
455.465	21191
455.499	20176
455.546	12018
455.569	8225
455.627	7033
455.638	6839
455.707	1026
455.708	1024
455.777	-171
455.789	27
455.846	922
455.869	589
455.916	-12
455.950	278
455.985	510
456.031	-61
456.054	-349
456.112	102
456.124	193
456.193	-584
456.193	-594
456.262	719
456.274	814
456.332	1057
456.355	1012
456.401	815
456.436	558
456.470	303
456.516	347
456.540	401
456.597	-698
456.609	-911
456.678	122
456.678	121
456.747	-93
456.759	-191
456.817	-702
456.840	-535
456.886	-267
456.920	-108
456.955	-20
457.001	-471
457.024	-541
457.082	-158
457.093	-102
457.162	812
457.163	823
457.232	1902
457.243	1798
457.301	1027
457.324	564
457.370	23
457.405	33
457.439	-61
457.485	-291
457.508	-412
457.566	-70
457.577	21
457.646	255
457.647	262
457.715	252
457.727	326
457.784	667
457.808	641
457.853	615
457.889	763
457.922	925
457.969	597
457.991	336
458.050	552
458.060	637
458.129	1082
458.130	1086
458.198	780
458.211	766
458.267	625
458.292	565
458.336	531
458.372	320
458.405	290
458.453	311
458.474	288
458.533	1226
458.543	1355
458.611	1414
458.614	1429
458.680	1127
458.694	1073
458.749	1227
458.775	1095
458.818	733
458.855	428
458.887	191
458.936	-189
458.955	-254
459.016	600
459.024	715
459.093	443
459.097	460
459.162	369
459.177	375
459.230	658
459.257	987
459.299	1214
459.338	980
459.368	941
459.418	1509
459.437	1606
459.499	1322
459.505	1287
459.574	700
459.579	671
459.643	703
459.659	738
459.711	488
459.740	394
459.780	539
459.820	645
459.849	660
459.900	971
459.917	1003
459.981	845
459.986	841
460.054	616
460.061	663
460.123	1449
460.141	1501
460.191	1382
460.222	1317
460.260	1517
460.302	2200
460.328	2083
460.382	1727
460.397	1734
460.462	755
460.465	741
460.534	1267
460.543	1314
460.602	2471
460.623	3045
460.671	5320
460.703	7341
460.739	7656
460.783	8737
460.808	8367
460.864	3144
460.876	2646
460.944	1279
460.945	1266
461.013	1318
461.024	1329
461.081	1278
461.104	1475
461.150	1328
461.184	1082
461.218	1055
461.264	867
461.286	802
461.345	671
461.355	642
461.423	706
461.425	699
461.491	915
461.505	1059
461.559	1788
461.585	2120
461.628	3686
461.665	5255
461.696	6192
461.745	9052
461.764	8592
461.825	4820
461.832	4789
461.901	2023
461.905	1978
461.969	1173
461.985	1149
462.037	1520
462.065	1470
462.105	1009
462.145	855
462.173	1813
462.225	3368
462.241	3467
462.305	4372
462.310	4289
462.378	4041
462.385	3748
462.446	2214
462.465	1675
462.514	901
462.545	1096
462.582	1425
462.625	1342
462.650	1219
462.705	1334
462.718	1388
462.785	1483
462.786	1487
462.854	1552
462.865	1613
462.922	2472
462.945	2932
462.990	2836
463.025	2512
463.058	2060
463.104	1139
463.126	960
463.184	595
463.194	611
463.262	942
463.264	956
463.330	1369
463.344	1474
463.398	1771
463.424	1747
463.466	1520
463.504	1663
463.533	1632
463.583	1109
463.601	1184
463.663	1743
463.669	1774
463.737	1936
463.743	1991
463.805	3557
463.823	3916
463.873	5327
463.903	6337
463.940	7347
463.982	8849
464.008	7497
464.062	4012
464.076	3867
464.142	1712
464.144	1675
464.211	1423
464.221	1390
464.279	1488
464.301	1545
464.347	1775
464.381	2042
464.414	2007
464.461	1946
464.482	2172
464.540	2719
464.550	2607
464.617	1941
464.620	1903
464.685	2101
464.699	2222
464.753	3207
464.779	3655
464.820	3803
464.859	3969
464.888	4164
464.938	4343
464.956	4330
465.018	4408
465.023	4375
465.091	3563
465.098	3516
465.158	2946
465.177	2696
465.226	2911
465.257	3096
465.293	3099
465.336	3038
465.361	3254
465.416	3818
465.428	3948
465.495	4554
465.496	4576
465.563	7079
465.575	7493
465.631	9985
465.654	11330
465.698	8660
465.734	5809
465.765	4783
465.813	3031
465.833	2883
465.893	2898
465.900	2859
465.968	2562
465.972	2538
466.035	2366
466.052	2328
466.102	2937
466.131	3229
466.170	2927
466.210	2695
466.237	2733
466.290	2705
466.304	2803
466.369	3339
466.372	3356
466.439	3696
466.449	3737
466.506	3912
466.528	3995
466.573	5034
466.607	5801
466.641	7929
466.687	10878
466.708	12275
466.766	16202
466.775	15302
466.842	8520
466.845	8181
466.909	5262
466.925	4584
466.977	4325
467.004	4262
467.044	4762
467.083	5246
467.111	5161
467.163	5001
467.178	5325
467.242	6659
467.245	6594
467.312	5111
467.321	4910
467.379	4519
467.400	4371
467.446	4935
467.480	5337
467.559	5635
467.638	3949
467.717	3678
467.796	5038
467.875	4963
467.955	4365
468.034	5064
468.113	11396
468.192	18971
468.271	7658
468.350	3568
468.429	3093
468.508	3929
468.588	4600
468.667	3432
468.746	3851
468.825	3860
468.904	3028
468.983	3422
469.062	5076
469.141	6912
469.220	3705
469.299	3573
469.378	3745
469.456	4828
469.535	3803
469.614	4453
469.693	3341
469.772	3965
469.851	5983
469.930	5113
470.009	3656
470.088	3651
470.166	3570
470.245	4932
470.324	7398
470.403	4502
470.482	4634
470.560	3423
470.639	3356
470.718	4256
470.797	4152
470.875	3327
470.954	4415
471.033	5902
471.111	3455
471.190	2796
471.269	2770
471.347	2849
471.426	2869
471.505	4061
471.583	3722
471.662	3933
471.740	3623
471.819	3893
471.898	3177
471.976	3627
472.055	2263
472.133	2933
472.212	4158
472.290	3624
472.369	3762
472.447	3019
472.526	2645
472.604	3064
472.683	3263
472.761	3239
472.839	3088
472.918	2532
472.996	2296
473.075	3755
473.153	3161
473.231	2252
473.310	3129
473.388	3489
473.466	2954
473.545	3548
473.623	4844
473.701	5415
473.780	2520
473.858	2879
473.936	3895
474.014	3496
474.093	2919
474.171	4146
474.249	6139
474.327	5081
474.405	2992
474.484	2829
474.562	2616
474.640	2320
474.718	2875
474.796	3394
474.874	3029
474.952	1835
475.030	2350
475.108	2983
475.187	3274
475.265	3538
475.343	3443
475.421	3498
475.499	2024
475.577	3566
475.655	3042
475.733	5979
475.811	9810
475.889	11628
475.966	7549
476.044	3367
476.122	2996
476.200	3005
476.278	2745
476.356	2929
476.434	3556
476.512	2857
476.590	3247
476.667	3221
476.745	1184
476.823	2615
476.901	1967
476.979	2245
477.056	2722
477.134	2159
477.212	2676
477.290	2562
477.367	2336
477.445	1170
477.523	3078
477.601	1855
477.678	1886
477.756	3078
477.834	2956
477.911	2353
477.989	2420
478.066	2396
478.144	2537
478.222	2307
478.299	2740
478.377	3206
478.454	2143
478.532	1241
478.609	2464
478.687	2574
478.764	2849
478.842	2025
478.919	3129
478.997	1911
479.074	1749
479.152	3017
479.229	3262
479.307	1604
479.384	1000
479.461	1761
479.539	1145
479.616	2412
479.694	1884
479.771	2439
479.848	2436
479.926	2378
480.003	4028
480.080	2466
480.157	1880
480.235	906
480.312	1772
480.389	2266
480.467	2890
480.544	4484
480.621	2489
480.698	2483
480.775	3590
480.853	2037
480.930	2451
481.007	1812
481.084	2115
481.161	1862
481.238	2627
481.315	1481
481.392	2329
481.470	1647
481.547	1866
481.624	2569
481.701	2139
481.778	2207
481.855	2632
481.932	2429
482.009	5708
482.086	4863
482.163	2080
482.240	1741
482.317	2773
482.393	2740
482.470	2314
482.547	2267
482.624	1402
482.701	1359
482.778	1472
482.855	898
482.932	2215
483.009	833
483.085	1479
483.162	1155
483.239	2123
483.316	1833
483.393	1136
483.469	1668
483.546	1777
483.623	1177
483.699	1925
483.776	1654
483.853	2407
483.930	2528
484.006	7526
484.083	16523
484.160	10391
484.236	15921
484.313	14068
484.389	8480
484.466	7997
484.543	7503
484.619	6862
484.696	7550
484.772	6893
484.849	7877
484.925	6932
485.002	7165
485.078	6905
485.155	6624
485.231	6292
485.308	5894
485.384	6299
485.461	7506
485.537	10128
485.614	14486
485.690	7482
485.766	6359
485.843	6493
485.919	8362
485.995	10337
486.072	6646
486.148	5720
486.224	5388
486.301	5216
486.377	6874
486.453	6316
486.530	6412
486.606	8980
486.682	9931
486.758	10648
486.835	12109
486.911	9319
486.987	13848
487.063	16671
487.139	22129
487.215	16346
487.292	8186
487.368	6316
487.444	6488
487.520	7215
487.596	6309
487.672	6262
487.748	7498
487.824	10696
487.900	7148
487.976	5202
488.052	5191
488.128	7486
488.204	7229
488.280	5746
488.356	6046
488.432	9704
488.508	19618
488.584	9260
488.660	5551
488.736	5276
488.812	5957
488.888	7070
488.964	8090
489.039	16457
489.115	31687
489.191	22619
489.267	6294
489.343	5360
489.418	5064
489.494	4167
489.570	3773
489.646	4362
489.722	4308
489.797	5248
489.873	5514
489.949	11821
490.024	14397
490.100	5221
490.176	4099
490.251	5058
490.327	6948
490.403	4814
490.478	3562
490.554	3605
490.629	3489
490.705	3214
490.781	4342
490.856	3859
490.932	4862
491.007	4553
491.083	4718
491.158	4459
491.234	3920
491.309	8628
491.385	11914
491.460	4577
491.536	3653
491.611	4161
491.686	4218
491.762	6107
491.837	9623
491.913	20437
491.988	24754
492.063	42677
492.139	12767
492.214	6439
492.289	3106
492.365	3370
492.440	3542
492.515	3510
492.590	3997
492.666	3147
492.741	3720
492.816	6561
492.891	4874
492.967	4128
493.042	2644
493.117	3595
493.192	4288
493.267	6619
493.342	21684
493.418	47158
493.493	11305
493.568	2037
493.643	2800
493.718	4138
493.793	4653
493.868	7101
493.943	4128
494.018	2957
494.093	2112
494.168	2794
494.243	2418
494.318	2135
494.393	2195
494.468	2266
494.543	1710
494.618	2690
494.693	3116
494.768	2015
494.842	2289
494.917	1737
494.992	2642
495.067	2234
495.142	1515
495.217	1887
495.292	2329
495.366	3191
495.441	3681
495.516	4791
495.591	6229
495.665	18376
495.740	63144
495.815	38342
495.890	4458
495.964	2677
496.039	4012
496.114	2432
496.188	2876
496.263	3977
496.338	2849
496.412	3275
496.487	4824
496.561	3637
496.636	4474
496.710	3879
496.785	2811
496.860	4533
496.934	3340
497.009	3546
497.083	3855
497.158	3610
497.232	4209
497.307	5211
497.381	4610
497.455	5259
497.530	6233
497.604	5369
497.679	4637
497.753	7454
497.827	11582
497.902	11563
497.976	13260
498.050	18973
498.125	79328
498.199	136770
498.273	27638
498.348	15377
498.422	12143
498.496	9697
498.570	8782
498.645	7075
498.719	5903
498.793	6070
498.867	8480
498.941	12990
499.016	25965
499.090	102808
499.164	65009
499.238	4971
499.312	3249
499.386	4583
499.460	5198
499.534	3756
499.609	4233
499.683	6991
499.757	7950
499.831	10612
499.905	51422
499.979	84889
500.053	13124
500.127	8819
500.201	7562
500.275	4548
500.349	3549
500.422	4552
500.496	6392
500.570	13265
500.644	28600
500.718	72216
500.792	28034
500.866	4174
500.940	4478
501.013	5276
501.087	3098
501.161	6501
501.235	9735
501.309	14017
501.382	45441
501.456	67541
501.530	12468
501.603	16131
501.677	10117
501.751	2677
501.825	3662
501.898	5642
501.972	17101
502.046	19600
502.119	3381
502.193	6550
502.266	21409
502.340	16466
502.413	6722
502.487	19272
502.561	13085
502.634	4052
502.708	2449
502.781	2353
502.855	1850
502.928	1039
503.002	1495
503.075	496
503.149	1676
503.222	1938
503.295	2145
503.369	2741
503.442	3276
503.516	9519
503.589	35657
503.662	34110
503.736	8274
503.809	14055
503.882	17392
503.956	17123
504.029	25049
504.102	6755
504.175	5854
504.249	2706
504.322	1912
504.395	2450
504.468	1429
504.542	350
504.615	1185
504.688	924
504.761	170
504.834	1821
504.907	1690
504.980	4523
505.053	2723
505.127	1800
505.200	4811
505.273	3192
505.346	2252
505.419	870
505.492	967
505.565	1357
505.638	1085
505.711	593
505.784	420
505.857	545
505.930	1452
506.003	326
506.076	1938
506.149	1922
506.221	2500
506.294	2491
506.367	4755
506.440	25062
506.513	24425
506.586	3095
506.659	1461
506.731	1656
506.804	1437
506.877	2243
506.950	2191
507.022	597
507.095	1122
507.168	3027
507.241	1796
507.313	774
507.386	500
507.459	2082
507.531	1616
507.604	1688
507.677	1298
507.749	382
507.822	1227
507.894	4089
507.967	7072
508.040	3424
508.112	1651
508.185	2678
508.257	2056
508.330	3493
508.402	1773
508.475	1576
508.547	2176
508.620	2220
508.692	4038
508.765	3090
508.837	862
508.909	2110
508.982	1262
509.054	2276
509.127	2305
509.199	1386
509.271	965
509.344	1284
509.416	1626
509.488	1469
509.560	571
509.633	2145
509.705	2275
509.777	1918
509.849	3201
509.922	1878
509.994	1992
510.066	2444
510.138	722
510.210	4829
510.283	4433
510.355	3984
510.427	3057
510.499	2440
510.571	1991
510.643	2798
510.715	3684
510.787	4702
510.859	3488
510.931	2961
511.003	4473
511.076	4728
511.148	2390
511.219	2269
511.291	2903
511.363	5151
511.435	2183
511.507	2477
511.579	1621
511.651	2653
511.723	1187
511.795	799
511.867	2092
511.939	2824
512.010	3701
512.082	4697
512.154	2768
512.226	3401
512.298	3371
512.369	6167
512.441	4995
512.513	4795
512.585	3412
512.656	3352
512.728	3138
512.800	2868
512.871	2832
512.943	2599
513.015	2563
513.086	2206
513.158	2225
513.230	2760
513.301	3161
513.373	6264
513.444	3914
513.516	2051
513.588	2727
513.659	2597
513.731	3413
513.802	2746
513.874	5855
513.945	11927
514.016	6009
514.088	2116
514.159	2608
514.231	3541
514.302	4836
514.374	3912
514.445	2635
514.516	6749
514.588	5958
514.659	3112
514.730	5233
514.802	5651
514.873	3742
514.944	5353
515.016	3457
515.087	3204
515.158	3422
515.229	6845
515.301	4259
515.372	5733
515.443	4581
515.514	2904
515.585	1522
515.656	2205
515.728	1758
515.799	2026
515.870	2495
515.941	2306
516.012	2269
516.083	3065
516.154	3959
516.225	6049
516.296	6089
516.367	4493
516.438	3783
516.509	5980
516.580	7643
516.651	16022
516.722	76534
516.793	66062
516.864	9534
516.935	8709
517.006	9721
517.077	11231
517.148	21602
517.219	64132
517.289	178593
517.360	57462
517.431	22575
517.502	4516
517.573	3514
517.643	3252
517.714	4528
517.785	4394
517.856	3793
517.926	5332
517.997	6063
518.068	8821
518.138	12511
518.209	14901
518.280	39225
518.350	213037
518.421	157977
518.492	15115
518.562	5744
518.633	3933
518.703	2596
518.774	3935
518.845	4631
518.915	4952
518.986	3174
519.056	5127
519.127	8647
519.197	13389
519.268	28685
519.338	31072
519.408	5960
519.479	6360
519.549	5008
519.620	3232
519.690	2104
519.760	1650
519.831	1905
519.901	2458
519.971	1657
520.042	1440
520.112	1576
520.182	2624
520.253	3890
520.323	2289
520.393	2139
520.463	6698
520.534	2614
520.604	7706
520.674	5264
520.744	3321
520.814	7229
520.885	11509
520.955	6596
521.025	32351
521.095	26337
521.165	3220
521.235	2233
521.305	2076
521.375	2034
521.445	1914
521.515	2406
521.585	3359
521.655	3667
521.725	2511
521.795	2615
521.865	241
521.935	2882
522.005	2510
522.075	1228
522.145	1677
522.215	1329
522.285	2715
522.355	2400
522.424	7463
522.494	9400
522.564	4920
522.634	5429
522.704	26330
522.774	17899
522.843	3293
522.913	1273
522.983	2831
523.053	2651
523.122	1673
523.192	2430
523.262	11317
523.331	19113
523.401	2898
523.471	816
523.540	733
523.610	568
523.680	1667
523.749	274
523.819	1185
523.888	1556
523.958	1322
524.027	748
524.097	512
524.166	887
524.236	666
524.305	2124
524.375	594
524.444	588
524.514	1698
524.583	1357
524.653	1640
524.722	1678
524.791	270
524.861	1339
524.930	204
524.999	350
525.069	2178
525.138	1521
525.207	1219
525.277	1430
525.346	757
525.415	580
525.484	524
525.554	1268
525.623	766
525.692	600
525.761	-68
525.830	159
525.900	561
525.969	633
526.038	1890
526.107	234
526.176	3720
526.245	3261
526.314	2875
526.383	4340
526.452	3192
526.522	5917
526.591	9585
526.660	11978
526.729	7381
526.797	5305
526.867	9928
526.935	56504
527.004	71484
527.073	24276
527.142	3644
527.211	1061
527.280	1162
527.349	2226
527.418	821
527.487	918
527.555	959
527.624	60
527.693	-401
527.762	698
527.831	275
527.899	425
527.968	639
528.037	9
528.106	1485
528.174	3677
528.243	3046
528.312	2685
528.380	6052
528.449	1152
528.518	1497
528.586	-445
528.655	782
528.723	352
528.792	806
528.861	-83
528.929	-258
528.998	305
529.066	329
529.135	10
529.203	399
529.272	-982
529.340	351
529.409	433
529.477	643
529.545	1
529.614	2014
529.682	577
529.751	1917
529.819	2745
529.887	1617
529.956	-409
530.024	414
530.092	0
530.161	700
530.229	2884
530.297	1273
530.365	924
530.434	248
530.502	464
530.570	158
530.638	-589
530.707	298
530.775	1304
530.843	-521
530.911	619
530.979	-143
531.047	663
531.115	-37
531.183	-35
531.252	-182
531.320	242
531.388	200
531.456	453
531.524	-601
531.592	870
531.660	189
531.728	-367
531.796	-501
531.864	371
531.932	712
532.000	-170
532.067	118
532.135	552
532.203	990
532.271	1129
532.339	2364
532.407	8704
532.475	8963
532.542	3179
532.610	3138
532.678	2443
532.746	11761
532.814	56750
532.881	24395
532.949	2606
533.017	1739
533.084	325
533.152	778
533.220	-83
533.287	503
533.355	1305
533.423	623
533.490	-638
533.558	-463
533.625	-17
533.693	572
533.761	1056
533.828	1544
533.896	831
533.963	2372
534.031	4982
534.098	5244
534.166	3643
534.233	968
534.300	619
534.368	1272
534.435	326
534.503	529
534.570	1005
534.637	-520
534.705	57
534.772	234
534.840	346
534.907	1638
534.974	2146
535.041	844
535.109	463
535.176	100
535.243	588
535.310	335
535.378	336
535.445	54
535.512	-13
535.579	179
535.646	88
535.714	680
535.781	1606
535.848	1415
535.915	993
535.982	708
536.049	1496
536.116	996
536.183	363
536.250	213
536.317	259
536.384	1545
536.451	2411
536.518	3386
536.585	888
536.652	3002
536.719	3695
536.786	3164
536.853	1581
536.920	3244
536.987	6309
537.053	5035
537.120	17819
537.187	33461
537.254	2714
537.321	595
537.388	2058
537.454	-98
537.521	356
537.588	-157
537.654	452
537.721	815
537.788	1806
537.855	164
537.921	417
537.988	877
538.055	680
538.121	277
538.188	390
538.254	1620
538.321	6612
538.388	6523
538.454	1616
538.521	724
538.587	532
538.654	278
538.720	316
538.787	538
538.853	744
538.920	1148
538.986	1826
539.053	265
539.119	861
539.185	1309
539.252	2020
539.318	3078
539.385	2339
539.451	469
539.517	2119
539.583	1378
539.650	3002
539.716	18774
539.782	9052
539.849	967
539.915	1193
539.981	274
540.047	1526
540.114	1964
540.180	2011
540.246	1370
540.312	1239
540.378	4972
540.444	8747
540.510	4987
540.576	19162
540.643	11569
540.709	1104
540.775	1061
540.841	539
540.907	1509
540.973	3546
541.039	3513
541.105	3562
541.171	1975
541.237	373
541.303	2399
541.369	2054
541.435	1790
541.500	5130
541.566	4877
541.632	692
541.698	390
541.764	546
541.830	485
541.896	186
541.961	1396
542.027	757
542.093	1098
542.159	880
542.224	1333
542.290	2329
542.356	4093
542.421	9552
542.487	3382
542.553	1608
542.618	1553
542.684	1349
542.750	1057
542.815	1788
542.881	2741
542.947	13238
543.012	20447
543.078	1805
543.143	1148
543.209	652
543.274	849
543.340	1755
543.405	3522
543.471	12167
543.536	3444
543.602	593
543.667	616
543.732	1666
543.798	927
543.863	1234
543.928	315
543.994	766
544.059	1099
544.124	1308
544.190	271
544.255	1224
544.320	340
544.386	680
544.451	1869
544.516	3329
544.581	2580
544.646	6440
544.712	22576
544.777	6388
544.842	1824
544.907	1359
544.972	1169
545.037	1580
545.102	2485
545.168	1175
545.233	1504
545.298	2569
545.363	2285
545.428	2818
545.493	4799
545.558	14700
545.623	9605
545.688	1776
545.753	1944
545.818	1360
545.883	1999
545.947	856
546.012	2148
546.077	1188
546.142	2123
546.207	821
546.272	3122
546.337	3548
546.401	2159
546.466	1829
546.531	1926
546.596	2023
546.661	1788
546.725	1859
546.790	1194
546.855	639
546.919	496
546.984	1784
547.049	1041
547.113	2162
547.178	1282
547.243	1800
547.307	2261
547.372	1025
547.436	2746
547.501	1510
547.565	1507
547.630	2308
547.695	3344
547.759	1964
547.823	2016
547.888	1760
547.952	1870
548.017	1323
548.081	1337
548.146	2572
548.210	3107
548.274	948
548.339	1387
548.403	1459
548.468	16
548.532	1333
548.596	1432
548.660	748
548.725	1755
548.789	2486
548.853	3786
548.917	2136
548.982	2386
549.046	3759
549.110	1812
549.174	1496
549.238	1288
549.303	775
549.367	2492
549.431	948
549.495	1031
549.559	813
549.623	2050
549.687	986
549.751	3301
549.815	2725
549.879	2608
549.943	1153
550.007	2141
550.071	1071
550.135	3130
550.199	1399
550.263	1614
550.327	2080
550.391	1780
550.455	2184
550.519	902
550.582	2651
550.646	2295
550.710	3860
550.774	2726
550.838	1217
550.901	1598
550.965	2544
551.029	1568
551.093	3196
551.156	2570
551.220	5140
551.284	9430
551.347	4217
551.411	6800
551.475	13342
551.538	4167
551.602	1785
551.666	1253
551.729	607
551.793	1879
551.856	1469
551.920	2162
551.983	1680
552.047	935
552.110	1135
552.174	1051
552.237	1559
552.301	2072
552.364	1023
552.428	1419
552.491	891
552.554	2332
552.618	1865
552.681	2124
552.745	1710
552.808	3774
552.871	7363
552.934	3876
552.998	1710
553.061	2023
553.124	2059
553.187	1670
553.251	1949
553.314	3145
553.377	2666
553.440	3642
553.503	10712
553.567	34033
553.630	11677
553.693	2265
553.756	1599
553.819	1406
553.882	1450
553.945	1173
554.008	1393
554.071	927
554.134	1655
554.197	1093
554.260	878
554.323	2438
554.386	2385
554.449	1318
554.512	2012
554.575	744
554.638	797
554.701	1772
554.764	1307
554.827	2181
554.889	1212
554.952	1447
555.015	-160
555.078	1203
555.141	2383
555.203	499
555.266	1988
555.329	1406
555.391	1408
555.454	2005
555.517	2189
555.580	1048
555.642	1380
555.705	1787
555.768	1189
555.830	2224
555.893	1451
555.955	1625
556.018	1276
556.080	1690
556.143	1840
556.206	1168
556.268	1931
556.330	2310
556.393	1912
556.455	1929
556.518	2081
556.580	3899
556.643	1848
556.705	1183
556.767	632
556.830	1277
556.892	2316
556.955	2852
557.017	4082
557.079	2784
557.142	1618
557.204	1356
557.266	5809
557.328	6040
557.391	503
557.453	1871
557.515	2070
557.577	2202
557.639	3392
557.701	1930
557.764	-157
557.826	1710
557.888	2042
557.950	1759
558.012	1152
558.074	1574
558.136	1424
558.198	3711
558.260	2872
558.322	2348
558.384	1510
558.446	3394
558.508	2485
558.570	3760
558.632	5666
558.694	12766
558.756	6780
558.818	5480
558.880	17423
558.942	10281
559.003	4654
559.065	4000
559.127	2138
559.189	1794
559.251	2487
559.312	2548
559.374	3199
559.436	9024
559.498	9942
559.559	3077
559.621	3087
559.683	2888
559.744	4376
559.806	5900
559.868	10374
559.929	4580
559.991	3663
560.052	3151
560.114	4817
560.176	4516
560.237	4098
560.299	5171
560.360	3433
560.422	3143
560.483	2554
560.545	2874
560.606	2028
560.667	1772
560.729	1976
560.790	2233
560.852	2265
560.913	2020
560.974	2612
561.036	2684
561.097	2530
561.158	3289
561.220	2707
561.281	2418
561.342	3288
561.403	5237
561.465	3976
561.526	7809
561.587	18364
561.648	6754
561.709	4002
561.771	3039
561.832	2836
561.893	2647
561.954	3284
562.015	2736
562.076	2393
562.137	3153
562.198	3394
562.259	2866
562.320	3058
562.381	4251
562.442	4873
562.503	5229
562.564	3504
562.625	2606
562.686	3434
562.747	3602
562.808	3567
562.869	3209
562.930	3932
562.991	4290
563.051	3502
563.112	3519
563.173	3949
563.234	3283
563.294	4066
563.355	2932
563.416	3713
563.477	3261
563.537	3749
563.598	4979
563.659	2700
563.720	3255
563.780	3608
563.841	4199
563.901	3418
563.962	4103
564.023	3818
564.083	4042
564.144	4290
564.204	3113
564.265	3713
564.325	4847
564.386	6738
564.446	7955
564.507	4060
564.567	3267
564.628	3342
564.688	4175
564.749	4127
564.809	5485
564.869	5840
564.930	4016
564.990	3850
565.050	4332
565.111	4264
565.171	3907
565.231	3748
565.292	5211
565.352	3168
565.412	5398
565.472	4800
565.532	4929
565.593	4510
565.653	4465
565.713	4850
565.773	5090
565.833	5260
565.893	8359
565.953	5792
566.013	4839
566.074	6281
566.134	6529
566.194	7734
566.254	9563
566.314	6940
566.374	6782
566.434	6525
566.494	6749
566.554	6077
566.614	6947
566.673	6544
566.733	6792
566.793	7204
566.853	7685
566.913	8579
566.973	8501
567.033	8750
567.092	8384
567.152	8560
567.212	8655
567.272	8413
567.331	9475
567.391	8933
567.451	10799
567.511	11058
567.570	11358
567.630	9766
567.690	8682
567.749	9545
567.809	9759
567.868	11712
567.928	12688
567.988	14504
568.047	17419
568.107	19444
568.166	24587
568.226	34730
568.285	50965
568.345	51312
568.404	42723
568.464	38528
568.523	35177
568.582	34232
568.642	37797
568.701	42757
568.761	55880
568.820	80530
568.879	96117
568.939	77000
568.998	58364
569.057	46150
569.116	36953
569.176	30383
569.235	24265
569.294	22528
569.353	18747
569.413	17441
569.472	15445
569.531	14830
569.590	12599
569.649	11648
569.708	11155
569.767	11038
569.827	10783
569.886	10690
569.945	9679
570.004	8695
570.063	8222
570.122	9324
570.181	8530
570.240	8013
570.299	8722
570.358	8930
570.417	7417
570.475	7168
570.534	7011
570.593	7676
570.652	7980
570.711	6919
570.770	8131
570.829	7400
570.887	6890
570.946	7952
571.005	6619
571.064	6772
571.122	6715
571.181	7170
571.240	6927
571.299	6879
571.357	6220
571.416	6686
571.475	7051
571.533	7644
571.592	6054
571.650	6597
571.709	5826
571.768	6453
571.826	6925
571.885	6008
571.943	6166
572.002	5743
572.060	5999
572.119	5749
572.177	6089
572.236	6222
572.294	4943
572.352	6037
572.411	5569
572.469	6248
572.528	6323
572.586	6585
572.644	6868
572.703	8092
572.761	6630
572.819	6373
572.877	6156
572.936	5453
572.994	6100
573.052	5418
573.110	6140
573.169	5807
573.227	6555
573.285	6339
573.343	5493
573.401	5802
573.459	6656
573.517	6626
573.576	5728
573.634	6035
573.692	5961
573.750	7126
573.808	5996
573.866	5985
573.924	7312
573.982	7524
574.040	7575
574.098	6236
574.155	6330
574.213	6332
574.271	5797
574.329	5815
574.387	6521
574.445	5346
574.503	5785
574.560	5736
574.618	6430
574.676	5210
574.734	6005
574.792	7042
574.849	5890
574.907	5898
574.965	5539
575.022	5763
575.080	5947
575.138	7211
575.195	6482
575.253	6427
575.311	7214
575.368	7065
575.426	6224
575.483	6294
575.541	7117
575.598	6212
575.656	5963
575.713	6896
575.771	6176
575.828	6806
575.886	6116
575.943	7534
576.001	7119
576.058	6113
576.115	7962
576.173	7608
576.230	7547
576.287	8820
576.345	8275
576.402	7531
576.459	6897
576.517	7511
576.574	7831
576.631	7750
576.688	7243
576.746	7399
576.803	7460
576.860	7291
576.917	6929
576.974	7346
577.031	7988
577.089	8226
577.146	7244
577.203	8309
577.260	7895
577.317	7936
577.374	8172
577.431	8040
577.488	7492
577.545	8219
577.602	7845
577.659	7919
577.716	7897
577.773	8421
577.830	8038
577.886	9154
577.943	7982
578.000	7883
578.057	8230
578.114	9409
578.171	10808
578.227	10777
578.284	13059
578.341	12508
578.398	10384
578.454	9838
578.511	9435
578.568	9709
578.625	9123
578.681	8636
578.738	8812
578.794	9236
578.851	8819
578.908	8980
578.964	9792
579.021	10689
579.077	9239
579.134	9264
579.190	8375
579.247	9084
579.303	8436
579.360	8898
579.416	7867
579.473	8156
579.529	8230
579.586	9171
579.642	10129
579.698	9784
579.755	9289
579.811	9626
579.867	10107
579.924	9514
579.980	10055
580.036	11124
580.093	12933
580.149	15163
580.205	18994
580.261	17931
580.317	15089
580.374	12861
580.430	13256
580.486	12176
580.542	11424
580.598	10458
580.619	10319
580.654	10083
580.692	10478
580.710	10685
580.765	10904
580.767	10916
580.823	10900
580.838	10704
580.879	10195
580.911	10132
580.935	10106
580.984	9835
580.991	9803
581.047	11109
581.057	11007
581.103	10583
581.130	11126
581.159	11699
581.203	12292
581.215	12457
581.270	12894
581.276	12850
581.326	12373
581.349	12038
581.382	11585
581.422	11996
581.438	12165
581.494	11557
581.494	11547
581.550	10670
581.567	10920
581.606	11486
581.640	11204
581.661	10993
581.713	11683
581.717	11746
581.773	11751
581.786	11608
581.829	11170
581.859	11518
581.885	11759
581.932	12019
581.940	12095
581.996	11424
582.004	11393
582.052	11107
582.077	11693
582.107	12400
582.150	12438
582.163	12445
582.219	11733
582.223	11772
582.274	12318
582.296	12101
582.330	11717
582.368	13159
582.386	13793
582.441	13191
582.441	13190
582.497	13300
582.514	13163
582.552	13068
582.587	13936
582.608	14358
582.659	14314
582.663	14307
582.719	13809
582.732	13835
582.774	14079
582.805	14013
582.830	13897
582.877	14041
582.885	14070
582.941	14701
582.950	14855
582.996	15620
583.023	15819
583.052	16098
583.095	16144
583.107	16257
583.162	18018
583.168	18249
583.218	19907
583.240	19679
583.273	19199
583.313	18037
583.328	17544
583.384	17198
583.385	17189
583.439	17101
583.458	16990
583.494	16837
583.531	16577
583.549	16441
583.603	16196
583.605	16190
583.660	17023
583.676	17032
583.715	17032
583.748	16797
583.770	16651
583.820	17234
583.825	17325
583.881	17922
583.893	17888
583.936	17440
583.965	17784
583.991	18058
584.038	17855
584.046	17843
584.101	17806
584.110	17801
584.156	18053
584.183	18299
584.211	18421
584.255	19298
584.266	19466
584.321	18735
584.328	18702
584.376	18835
584.400	18841
584.431	18895
584.472	19152
584.486	19142
584.541	19020
584.545	19041
584.596	19859
584.617	20148
584.651	20659
584.689	21244
584.706	21484
584.761	20967
584.762	20976
584.816	22762
584.834	22781
584.871	22773
584.906	22651
584.926	22638
584.978	23603
584.980	23646
585.035	23820
585.051	23816
585.090	23900
585.123	24425
585.145	24859
585.195	25350
585.200	25422
585.254	26313
585.267	26486
585.309	27493
585.340	28986
585.364	30065
585.412	30363
585.419	30164
585.473	29167
585.484	28928
585.528	29117
585.556	29606
585.583	30570
585.628	31608
585.637	32017
585.692	34871
585.700	35578
585.747	41420
585.772	43372
585.801	41212
585.845	36503
585.856	35716
585.910	33622
585.917	33419
585.965	33961
585.989	33858
586.019	34107
586.061	34831
586.074	34970
586.128	35726
586.133	35772
586.183	37689
586.205	38620
586.237	39528
586.277	40042
586.292	40223
586.346	41335
586.349	41346
586.401	41837
586.421	42129
586.455	43124
586.493	44205
586.509	45309
586.564	49090
586.565	49154
586.618	58302
586.637	61796
586.672	63204
586.709	61123
586.727	57995
586.781	50652
586.781	50689
586.835	52805
586.853	52806
586.889	53189
586.925	54710
586.944	55635
586.996	57513
586.998	57611
587.052	59604
587.068	60285
587.106	62367
587.140	63938
587.161	64813
587.212	67256
587.215	67449
587.269	70349
587.284	71172
587.323	73747
587.356	75993
587.377	77698
587.427	81437
587.431	81785
587.485	85536
587.499	86801
587.539	90779
587.571	93509
587.593	95938
587.643	101045
587.648	101581
587.702	107959
587.715	109274
587.755	115599
587.786	120422
587.810	123997
587.858	132569
587.864	133852
587.917	145194
587.930	147831
587.971	158392
588.001	166296
588.025	173302
588.073	186832
588.079	188947
588.133	208808
588.145	212889
588.187	232060
588.217	246170
588.241	259506
588.288	286533
588.295	291179
588.348	328594
588.360	336644
588.402	375614
588.431	402405
588.456	430276
588.503	484610
588.510	495227
588.564	577946
588.575	594718
588.617	688657
588.646	752412
588.671	829230
588.718	970880
588.725	1001566
588.778	1225230
588.789	1266979
588.832	1426887
588.861	1527123
588.886	1495346
588.932	1419646
588.939	1387108
588.993	1085094
589.004	1026564
589.047	1238297
589.075	1379188
589.100	1484632
589.147	1656574
589.154	1638178
589.207	1453480
589.218	1410876
589.261	1280226
589.290	1185789
589.314	1177341
589.361	1158338
589.368	1175326
589.421	1298075
589.433	1320825
589.475	1452334
589.504	1535906
589.528	1476256
589.576	1335656
589.582	1335048
589.635	1301462
589.647	1292102
589.689	1440110
589.718	1533370
589.742	1409895
589.790	1138937
589.795	1114938
589.849	857914
589.861	796761
589.902	685928
589.932	601251
589.955	557322
590.004	463066
590.009	457471
590.062	389835
590.075	372818
590.115	337886
590.146	310544
590.168	297197
590.218	266308
590.222	264776
590.275	240501
590.289	233858
590.328	219630
590.360	207657
590.381	200715
590.431	183719
590.435	183194
590.488	169689
590.503	165746
590.541	158832
590.574	152700
590.594	149629
590.645	140506
590.647	140401
590.700	132265
590.716	129649
590.753	124835
590.787	120218
590.806	118363
590.859	112487
590.859	112564
590.912	106911
590.930	104875
590.965	101995
591.001	99107
591.018	98300
591.071	95232
591.072	95046
591.124	92347
591.143	91233
591.177	89791
591.214	87775
591.230	86981
591.283	83879
591.285	83613
591.336	83632
591.356	83514
591.389	82231
591.427	80294
591.442	79388
591.495	75329
591.498	74912
591.547	72624
591.569	71367
591.600	71272
591.640	70898
591.653	70393
591.706	67686
591.711	67281
591.759	67773
591.782	67800
591.811	67792
591.853	67625
591.864	67694
591.917	67192
591.924	66998
591.969	63125
591.995	60670
592.022	60865
592.066	60922
592.075	61117
592.127	61647
592.137	61625
592.180	64637
592.208	66397
592.233	64571
592.279	60603
592.285	60211
592.338	55892
592.350	54805
592.390	53835
592.421	52932
592.443	53053
592.491	53019
592.495	53024
592.548	51755
592.562	51309
592.600	51441
592.633	51378
592.653	50726
592.704	48490
592.705	48771
592.775	48923
592.846	49859
592.916	49258
592.987	49930
593.058	49301
593.128	46183
593.199	44215
593.270	43717
593.341	43718
593.411	42099
593.482	43310
593.553	41731
593.623	40461
593.694	39498
593.764	40917
593.835	41105
593.906	38365
593.976	37683
594.047	38767
594.117	40621
594.188	45094
594.258	38932
594.329	35149
594.399	35848
594.470	34802
594.540	33565
594.611	34410
594.681	33897
594.751	34321
594.822	34840
594.892	35565
594.963	35500
595.033	36007
595.103	33751
595.174	34968
595.244	40158
595.314	55782
595.384	42150
595.455	31319
595.525	31948
595.595	32492
595.665	31424
595.736	31757
595.806	30815
595.876	31714
595.946	29792
596.016	28968
596.087	29838
596.157	30208
596.227	29559
596.297	30366
596.367	30616
596.437	31816
596.507	36237
596.577	48067
596.647	39270
596.717	29628
596.787	28659
596.857	29593
596.927	28184
596.997	29899
597.067	28894
597.137	31976
597.207	31659
597.277	29569
597.347	29319
597.417	29536
597.487	29465
597.557	30823
597.626	30086
597.696	31170
597.766	33203
597.836	41052
597.906	38822
597.975	28331
598.045	26913
598.115	27821
598.185	26558
598.254	27767
598.324	28252
598.394	30301
598.464	30020
598.533	29212
598.603	26789
598.672	28000
598.742	27818
598.812	26167
598.881	25911
598.951	25935
599.020	24438
599.090	23834
599.159	25354
599.229	25649
599.299	24110
599.368	24172
599.437	24850
599.507	24494
599.576	25701
599.646	26323
599.715	28685
599.785	26104
599.854	25727
599.924	27919
599.993	27301
600.062	24592
600.132	24882
600.201	24450
600.270	25304
600.340	26230
600.409	23587
600.478	24117
600.547	23709
600.617	25351
600.686	24195
600.755	24375
600.824	25502
600.894	25886
600.963	22979
601.032	22332
601.101	21401
601.170	23215
601.239	21983
601.308	23391
601.378	23200
601.447	22878
601.516	22133
601.585	22513
601.654	23005
601.723	23941
601.792	22948
601.861	24182
601.930	27029
601.999	29553
602.068	24165
602.137	22952
602.206	23842
602.275	23454
602.343	25935
602.412	30271
602.481	24380
602.550	22038
602.619	21325
602.688	22492
602.756	22627
602.825	21812
602.894	21351
602.963	19511
603.032	21138
603.100	20059
603.169	20929
603.238	21634
603.307	20475
603.375	21253
603.444	20188
603.513	20983
603.581	19697
603.650	20831
603.719	20327
603.787	20447
603.856	20633
603.924	20621
603.993	21796
604.061	19969
604.130	20944
604.198	22236
604.267	20377
604.335	20011
604.404	20003
604.472	20048
604.541	19534
604.609	19860
604.678	19936
604.746	19958
604.815	19284
604.883	19528
604.951	20262
605.020	19902
605.088	19372
605.156	20349
605.225	20288
605.293	19556
605.361	19670
605.429	20438
605.498	20215
605.566	21616
605.634	20659
605.702	20966
605.771	19400
605.839	20049
605.907	19099
605.975	19361
606.043	18759
606.111	19995
606.180	19864
606.248	23232
606.316	27948
606.384	23864
606.452	25150
606.520	29698
606.588	26978
606.656	19283
606.724	18190
606.792	18598
606.860	16625
606.928	17478
606.996	17013
607.064	16426
607.132	16487
607.200	17625
607.267	17216
607.335	17776
607.403	16585
607.471	17167
607.539	17762
607.607	17302
607.674	16477
607.742	17257
607.810	19003
607.878	19044
607.946	17680
608.013	17078
608.081	17024
608.149	19411
608.216	16644
608.284	17334
608.352	17158
608.419	17696
608.487	22763
608.555	25413
608.622	16643
608.690	17572
608.757	16674
608.825	18489
608.893	18090
608.960	21365
609.028	26268
609.095	26753
609.163	23868
609.230	18227
609.298	18809
609.365	17519
609.432	17233
609.500	16605
609.567	19086
609.635	21079
609.702	19596
609.769	20012
609.837	21191
609.904	22410
609.971	19235
610.039	22185
610.106	26563
610.173	41643
610.241	81797
610.308	156760
610.375	177042
610.442	64661
610.509	27517
610.577	22437
610.644	19283
610.711	18779
610.778	19486
610.845	19261
610.912	19084
610.980	20226
611.047	27395
611.114	29080
611.181	19929
611.248	17532
611.315	17030
611.382	16896
611.449	16315
611.516	17674
611.583	16831
611.650	17348
611.717	17816
611.784	17681
611.851	16991
611.918	19506
611.984	21739
612.051	23059
612.118	32806
612.185	63892
612.252	100319
612.319	32234
612.386	18843
612.452	18216
612.519	19104
612.586	24848
612.653	27979
612.719	18907
612.786	17216
612.853	16379
612.919	16699
612.986	16072
613.053	15343
613.120	15995
613.186	15482
613.253	16696
613.319	15545
613.386	16444
613.453	16982
613.519	19442
613.586	23112
613.652	38983
613.719	36036
613.785	35338
613.852	20257
613.918	17685
613.985	18460
614.051	23357
614.118	43789
614.184	84953
614.250	32752
614.317	17544
614.383	16276
614.449	16144
614.516	15980
614.582	16446
614.648	17002
614.715	15709
614.781	16450
614.847	16818
614.914	17604
614.980	18359
615.046	17812
615.112	16983
615.179	17918
615.245	20346
615.311	26876
615.377	47905
615.443	83974
615.509	59776
615.575	31392
615.642	24133
615.708	22097
615.774	23583
615.840	24395
615.906	32068
615.972	48402
616.038	95120
616.104	175468
616.170	157709
616.236	181830
616.302	68146
616.368	31507
616.434	25577
616.500	22844
616.565	22881
616.631	23299
616.697	23338
616.763	20653
616.829	22629
616.895	28442
616.961	36576
617.026	28897
617.092	21581
617.158	18277
617.224	18445
617.289	18284
617.355	19367
617.421	17567
617.487	18763
617.552	17912
617.618	17447
617.684	16632
617.749	17650
617.815	16100
617.880	16773
617.946	16214
618.012	17658
618.077	18604
618.143	17254
618.208	17460
618.274	17518
618.339	18946
618.405	18071
618.470	17590
618.536	19393
618.601	20393
618.667	21798
618.732	19415
618.798	18956
618.863	18314
618.928	18869
618.994	19441
619.059	22708
619.124	29789
619.190	33154
619.255	20241
619.320	18603
619.386	18820
619.451	18362
619.516	18307
619.581	18582
619.647	17538
619.712	18624
619.777	17472
619.842	18443
619.907	18448
619.972	19183
620.038	19534
620.103	18348
620.168	17778
620.233	18143
620.298	17568
620.363	17594
620.428	16359
620.493	17926
620.558	17132
620.623	17117
620.688	17225
620.753	17316
620.818	16204
620.883	17701
620.948	17520
621.013	17956
621.078	18198
621.143	17205
621.207	19460
621.272	19397
621.337	22324
621.402	21819
621.467	24161
621.532	31346
621.596	25203
621.661	24011
621.726	19794
621.791	20382
621.855	20490
621.920	24948
621.985	22670
622.049	26026
622.114	26473
622.179	24850
622.243	22881
622.308	23770
622.373	22320
622.437	22682
622.502	21673
622.566	22187
622.631	22090
622.695	22701
622.760	22677
622.824	22587
622.889	22604
622.953	25568
623.018	32780
623.082	50208
623.147	27622
623.211	23309
623.276	23465
623.340	22304
623.404	20266
623.469	21552
623.533	21031
623.597	21368
623.662	19971
623.726	20497
623.790	20520
623.854	20647
623.919	19639
623.983	20585
624.047	20730
624.111	20438
624.176	19790
624.240	21455
624.304	25543
624.368	23285
624.432	20605
624.496	20786
624.560	22916
624.625	25949
624.689	24127
624.753	20272
624.817	20591
624.881	19243
624.945	18841
625.009	19284
625.073	19837
625.137	21676
625.201	25610
625.265	33414
625.329	22364
625.393	21367
625.456	22021
625.520	21045
625.584	21787
625.648	26491
625.712	33293
625.776	65697
625.839	112836
625.903	82731
625.967	26331
626.031	30558
626.095	55409
626.158	43938
626.222	19606
626.286	17586
626.349	17133
626.413	17901
626.477	19340
626.540	20011
626.604	17220
626.668	18963
626.731	16846
626.795	17631
626.858	18753
626.922	17785
626.986	17068
627.049	16892
627.113	16316
627.176	16274
627.240	15619
627.303	16842
627.366	15896
627.430	17252
627.493	16384
627.557	16309
627.620	17770
627.684	16125
627.747	16115
627.810	15529
627.874	15232
627.937	15058
628.000	16719
628.064	16903
628.127	15615
628.190	15857
628.253	15934
628.317	16001
628.380	15545
628.443	15759
628.506	16847
628.569	15840
628.632	14817
628.696	13992
628.759	14106
628.822	14307
628.885	14132
628.948	14811
629.011	14514
629.074	15017
629.137	14942
629.200	14177
629.263	16573
629.326	16145
629.389	14766
629.452	14307
629.515	15353
629.578	15548
629.641	16133
629.704	15420
629.767	15472
629.830	14513
629.892	13836
629.955	14563
630.018	15778
630.081	16055
630.144	20976
630.207	18392
630.269	17164
630.332	15357
630.395	16263
630.458	15147
630.520	13609
630.583	14787
630.646	12058
630.708	13033
630.771	12809
630.834	13064
630.896	12090
630.959	12414
631.021	12614
631.084	13165
631.146	13726
631.209	16316
631.272	14060
631.334	12889
631.397	11629
631.459	11827
631.522	13053
631.584	12564
631.646	11909
631.709	13033
631.771	16095
631.834	18101
631.896	11924
631.958	11498
632.021	12083
632.083	11162
632.145	12266
632.208	12444
632.270	13287
632.332	11543
632.395	10938
632.457	12905
632.519	12174
632.581	11698
632.643	10765
632.706	11707
632.768	10633
632.830	11103
632.892	11320
632.954	10963
633.016	11776
633.078	12052
633.141	11105
633.203	10992
633.265	11347
633.327	10701
633.389	10886
633.451	12698
633.513	14112
633.575	16095
633.637	15423
633.698	17031
633.760	12334
633.822	11226
633.884	10799
633.946	11330
634.008	10502
634.070	10987
634.132	12583
634.193	15088
634.255	10441
634.317	10668
634.379	11221
634.441	10722
634.502	10452
634.564	10564
634.626	9551
634.687	11050
634.749	10130
634.811	10373
634.873	10293
634.934	10847
634.996	9455
635.057	10065
635.119	9495
635.181	9797
635.242	10434
635.304	9420
635.365	10472
635.427	9996
635.488	9953
635.550	9874
635.611	10218
635.673	9699
635.734	10361
635.796	10415
635.857	11686
635.918	10671
635.980	9745
636.041	10074
636.102	9758
636.164	10950
636.225	9771
636.286	9783
636.348	10410
636.409	10256
636.470	9850
636.531	9714
636.593	9879
636.654	11737
636.715	9557
636.776	9926
636.838	8581
636.899	8626
636.960	8842
637.021	9018
637.082	8799
637.143	9535
637.204	8225
637.265	8200
637.326	8464
637.387	9518
637.448	7871
637.509	8761
637.570	8685
637.631	8913
637.692	7562
637.753	7367
637.814	7575
637.875	8352
637.936	8485
637.997	8667
638.058	9075
638.119	9441
638.179	8522
638.240	8383
638.301	7938
638.362	7681
638.423	8631
638.483	8669
638.544	7375
638.605	8241
638.666	6959
638.726	8655
638.787	7857
638.848	8031
638.908	7701
638.969	8018
639.030	7545
639.090	7534
639.151	7346
639.211	8656
639.272	10356
639.332	17124
639.393	20553
639.453	9442
639.514	8289
639.574	7842
639.635	7363
639.695	8249
639.756	7188
639.816	9019
639.877	9412
639.937	14160
639.997	25830
640.058	17862
640.118	7736
640.178	7558
640.239	7878
640.299	7365
640.359	7008
640.420	7207
640.480	6986
640.540	7567
640.600	6636
640.661	7418
640.721	7219
640.781	10644
640.841	9629
640.901	8321
640.961	7393
641.021	8938
641.082	8796
641.142	12876
641.202	14537
641.262	7998
641.322	7139
641.382	6478
641.442	6856
641.502	7474
641.562	7612
641.622	6333
641.682	6220
641.742	7467
641.802	7035
641.861	7921
641.921	8021
641.981	9196
642.041	8700
642.101	10558
642.161	12269
642.221	7090
642.280	6599
642.340	6321
642.400	5717
642.460	6387
642.519	6721
642.579	7078
642.639	5781
642.698	5707
642.758	7660
642.818	6707
642.877	6308
642.937	6931
642.997	8134
643.056	11765
643.116	13090
643.175	8325
643.235	6286
643.294	6271
643.354	5931
643.414	6787
643.473	7151
643.532	7168
643.592	7021
643.651	8448
643.711	11019
643.770	15430
643.830	26356
643.889	69715
643.948	66320
644.008	10946
644.067	7344
644.126	6556
644.186	5817
644.245	6083
644.304	5455
644.363	6263
644.423	5551
644.482	6269
644.541	4855
644.600	6123
644.659	6134
644.719	6435
644.778	6588
644.837	7571
644.896	8762
644.955	14563
645.014	16525
645.073	9945
645.132	7766
645.191	7070
645.250	5546
645.309	6646
645.368	4911
645.427	6750
645.486	5391
645.545	7221
645.604	6479
645.663	6336
645.722	6202
645.781	6310
645.840	5222
645.898	4810
645.957	5747
646.016	6490
646.075	9067
646.134	12519
646.192	21921
646.251	59141
646.310	33736
646.369	7181
646.427	6163
646.486	5629
646.545	5181
646.603	5896
646.662	5601
646.721	5402
646.779	5383
646.838	4410
646.896	5547
646.955	6511
647.014	5615
647.072	7131
647.131	9072
647.189	12154
647.248	5455
647.306	6332
647.365	5009
647.423	4308
647.481	5509
647.540	4390
647.598	5045
647.657	5012
647.715	4836
647.773	4637
647.832	4884
647.890	4807
647.948	4778
648.007	5345
648.065	5301
648.123	5097
648.181	7305
648.240	6892
648.298	7939
648.356	6852
648.414	4887
648.472	5417
648.531	5032
648.589	5506
648.647	5263
648.705	4487
648.763	4801
648.821	5561
648.879	4377
648.937	5315
648.995	5718
649.053	5284
649.111	5692
649.169	6473
649.227	7265
649.285	10355
649.343	20928
649.401	35333
649.459	20650
649.516	31033
649.574	12354
649.632	17247
649.690	34553
649.748	20572
649.806	9496
649.863	18515
649.921	15718
649.979	10525
650.037	6371
650.094	5426
650.152	5026
650.210	5866
650.268	5009
650.325	5385
650.383	4537
650.440	4415
650.498	4627
650.556	5053
650.613	4353
650.671	4214
650.728	4697
650.786	5105
650.843	4311
650.901	3447
650.958	4126
651.016	5090
651.073	4059
651.131	4820
651.188	3344
651.246	4569
651.303	3908
651.360	4898
651.418	3119
651.475	4625
651.532	3891
651.590	4675
651.647	3289
651.704	4226
651.762	3764
651.819	5370
651.876	3942
651.933	4007
651.990	4078
652.048	3774
652.105	3727
652.162	4438
652.219	3915
652.276	4229
652.333	4312
652.390	3924
652.448	4146
652.505	3844
652.562	4262
652.619	6154
652.676	5626
652.733	11381
652.790	6027
652.847	3656
652.904	4268
652.961	3929
653.017	2921
653.074	5023
653.131	4452
653.188	2943
653.245	3436
653.302	4044
653.359	3220
653.415	4266
653.472	3729
653.529	4420
653.586	3242
653.642	4391
653.699	3309
653.756	3646
653.813	3038
653.869	3896
653.926	2706
653.983	3713
654.039	3833
654.096	3802
654.152	4367
654.209	3124
654.266	4211
654.322	3049
654.379	4561
654.435	4532
654.492	4179
654.548	6368
654.605	9945
654.661	11292
654.717	3359
654.774	4714
654.830	4453
654.887	4236
654.943	4093
655.000	4762
655.056	4077
655.112	3865
655.168	3078
655.225	4645
655.281	3695
655.337	4990
655.394	7608
655.450	10405
655.506	6889
655.562	7022
655.618	11411
655.675	4679
655.731	4418
655.787	3601
655.843	3805
655.899	3473
655.955	3205
656.011	4131
656.067	3068
656.123	4535
656.179	3783
656.235	4784
656.291	4043
656.347	4928
656.403	3470
656.459	4178
656.515	3814
656.571	4786
656.627	4699
656.683	4352
656.739	4569
656.795	3358
656.850	4164
656.906	5332
656.962	4250
657.018	3484
657.074	3426
657.129	4047
657.185	3944
657.241	4106
657.297	3169
657.352	4128
657.408	3194
657.464	4696
657.519	3806
657.575	3373
657.630	3702
657.686	4113
657.742	3344
657.797	4464
657.853	3151
657.908	4586
657.964	2815
658.019	3729
658.075	3618
658.130	4455
658.186	3152
658.241	4072
658.297	3284
658.352	3205
658.407	3760
658.463	3206
658.518	3578
658.573	4250
658.629	2596
658.684	3741
658.739	3132
658.795	2263
658.850	3170
658.905	3219
658.960	3739
659.016	2840
659.071	2712
659.126	4302
659.181	4083
659.236	6328
659.291	9974
659.346	6624
659.401	5477
659.457	4848
659.512	6215
659.567	7435
659.622	3934
659.677	3968
659.732	2369
659.787	4130
659.842	3520
659.897	5371
659.952	5330
660.007	3805
660.061	3095
660.116	2627
660.171	3072
660.226	3722
660.281	3667
660.336	2179
660.391	3021
660.445	2614
660.500	3264
660.555	3945
660.610	3557
660.664	3420
660.719	2585
660.774	3728
660.828	3312
660.883	3793
660.938	3648
660.992	2446
661.047	2932
661.101	3628
661.156	2766
661.211	3479
661.265	2666
661.320	3141
661.374	3201
661.429	2677
661.483	2522
661.538	3161
661.592	2465
661.647	3705
661.701	3483
661.755	3700
661.810	3211
661.864	3134
661.919	2746
661.973	3975
662.027	2718
662.081	2684
662.136	2750
662.190	3252
662.244	3663
662.299	3426
662.353	2942
662.407	3039
662.461	2188
662.515	3921
662.569	2332
662.624	3959
662.678	3257
662.732	3282
662.786	2598
662.840	3973
662.894	3650
662.948	3347
663.002	2628
663.056	2789
663.110	2274
663.164	3716
663.218	3330
663.272	3600
663.326	3579
663.380	3508
663.434	3153
663.488	3228
663.542	3832
663.595	3524
663.649	2768
663.703	4345
663.757	2811
663.811	2555
663.864	2272
663.918	3816
663.972	2915
664.026	3838
664.079	2406
664.133	3531
664.187	3533
664.240	2625
664.294	2535
664.348	3876
664.401	2323
664.455	3868
664.508	2705
664.562	3518
664.615	2387
664.669	2611
664.722	2962
664.776	3081
664.829	2402
664.883	3311
664.936	2691
664.990	3461
665.043	4191
665.097	3113
665.150	3496
665.203	4316
665.257	3066
665.310	3754
665.363	3043
665.417	3793
665.470	2490
665.523	4169
665.576	3034
665.630	3667
665.683	2679
665.736	3311
665.789	3465
665.842	3010
665.895	2482
665.949	3542
666.002	2829
666.055	3567
666.108	4046
666.161	3185
666.214	3188
666.267	3838
666.320	3565
666.373	4809
666.426	2777
666.479	2722
666.532	3211
666.585	3377
666.638	4496
666.691	3948
666.744	3503
666.796	4589
666.849	3806
666.902	4451
666.955	2622
667.008	2905
667.060	2963
667.113	2885
667.166	2473
667.219	3081
667.271	2338
667.324	3320
667.377	2931
667.430	3796
667.482	2282
667.535	5091
667.587	3657
667.640	4019
667.693	3668
667.745	6192
667.798	10094
667.850	6047
667.903	2836
667.955	3713
668.008	3300
668.060	3520
668.113	3959
668.165	4239
668.218	4476
668.270	3489
668.322	2748
668.375	3462
668.427	3775
668.479	3495
668.532	3486
668.584	3816
668.636	3446
668.689	3402
668.741	3083
668.793	3965
668.845	2927
668.898	3191
668.950	2757
669.002	4029
669.054	3198
669.106	3919
669.158	3445
669.211	3568
669.263	3648
669.315	4329
669.367	4548
669.419	5438
669.471	4717
669.523	4732
669.575	7052
669.627	7405
669.679	5142
669.731	5045
669.783	4409
669.835	5404
669.886	5891
669.938	5009
669.990	4709
670.042	3256
670.094	4682
670.146	4380
670.197	4911
670.249	6608
670.301	6244
670.353	9118
670.404	11843
670.456	16526
670.508	24976
670.560	42596
670.611	72990
670.663	128028
670.715	237700
670.766	508604
670.818	480078
670.869	122325
670.921	35528
670.972	20880
671.024	14642
671.075	11426
671.127	8487
671.178	6719
671.230	5951
671.281	6165
671.333	5109
671.384	4596
671.436	4432
671.487	5507
671.538	4567
671.590	5186
671.641	4942
671.692	5711
671.744	5374
671.795	7898
671.846	4790
671.897	4104
671.949	3050
672.000	4919
672.051	2912
672.102	4568
672.153	3993
672.204	4300
672.256	3125
672.307	4003
672.358	3597
672.409	3938
672.460	2970
672.511	3893
672.562	2747
672.613	3534
672.664	2527
672.715	3666
672.766	2507
672.817	3588
672.868	3186
672.919	3382
672.970	2729
673.021	3220
673.071	2414
673.122	3661
673.173	2556
673.224	3174
673.275	2268
673.326	3706
673.376	2347
673.427	1876
673.478	2829
673.528	2579
673.579	2849
673.630	3154
673.680	2705
673.731	2786
673.782	2524
673.832	2901
673.883	2987
673.934	3415
673.984	2740
674.035	2387
674.085	2433
674.136	3784
674.186	2600
674.237	3332
674.287	4504
674.338	5568
674.388	2587
674.438	2596
674.489	1905
674.539	2928
674.589	2833
674.640	3080
674.690	3147
674.740	2717
674.791	2824
674.841	3039
674.891	2634
674.942	2706
674.992	2611
675.042	2551
675.092	2027
675.142	2310
675.193	2566
675.243	2516
675.293	1903
675.343	2543
675.393	2522
675.443	3096
675.493	2761
675.543	2748
675.593	2939
675.643	2411
675.693	2177
675.743	2565
675.793	2301
675.843	1692
675.893	2316
675.943	2386
675.993	1859
676.043	3124
676.093	2886
676.142	2037
676.192	1615
676.242	2231
676.292	2357
676.341	2283
676.391	2671
676.441	2141
676.491	2092
676.540	1781
676.590	2204
676.640	2262
676.689	2085
676.739	2206
676.789	1763
676.838	1538
676.888	2336
676.937	2499
676.987	1519
677.037	2083
677.086	1477
677.136	1904
677.185	2140
677.235	2196
677.284	1693
677.333	2255
677.383	1580
677.432	1290
677.482	1796
677.531	2418
677.580	1585
677.630	1984
677.679	1593
677.728	2026
677.778	1710
677.827	1800
677.876	1763
677.925	2145
677.975	1208
678.024	1672
678.073	1191
678.122	2217
678.171	1696
678.220	2569
678.269	2779
678.319	3283
678.368	2111
678.417	2005
678.466	2658
678.515	2111
678.564	1559
678.613	1826
678.662	2365
678.711	2074
678.760	2271
678.809	1953
678.857	1394
678.906	2167
678.955	1663
679.004	2059
679.053	2178
679.102	1521
679.151	2094
679.199	2767
679.248	1448
679.297	1984
679.346	2570
679.394	2867
679.443	2232
679.492	2236
679.540	2053
679.589	2144
679.638	1866
679.686	2138
679.735	1912
679.784	2305
679.832	1483
679.881	1978
679.929	1058
679.978	840
680.026	790
680.075	1805
680.123	1411
680.172	2174
680.220	1239
680.268	1243
680.317	1059
680.365	1970
680.414	1507
680.462	2101
680.510	1680
680.559	2764
680.607	708
680.655	1284
680.703	1130
680.752	1649
680.800	1208
680.848	593
680.896	1331
680.945	1212
680.993	1767
681.041	1807
681.089	1756
681.137	1681
681.185	985
681.233	2022
681.258	2120
681.281	2153
681.329	1826
681.377	1909
681.380	1994
681.425	2413
681.473	2258
681.502	2520
681.521	2602
681.569	2742
681.617	2596
681.624	2650
681.665	2529
681.713	2326
681.745	2582
681.761	2611
681.809	3171
681.857	3051
681.867	3244
681.904	3667
681.952	3470
681.989	3087
682.000	2907
682.048	3034
682.096	4019
682.111	3819
682.143	3166
682.191	4176
682.233	3820
682.239	3709
682.286	4023
682.334	4314
682.354	4283
682.382	4131
682.430	4356
682.476	4541
682.477	4490
682.525	4359
682.572	4999
682.598	4861
682.620	4642
682.667	6024
682.715	4816
682.720	4940
682.763	5623
682.810	5867
682.841	5690
682.857	5514
682.905	5845
682.952	5485
682.963	5578
683.000	5682
683.047	6373
683.085	6982
683.095	7082
683.142	6421
683.190	6243
683.206	6382
683.237	6534
683.284	6545
683.328	7191
683.332	7197
683.379	6578
683.426	6909
683.449	7094
683.473	7205
683.521	7749
683.568	7680
683.571	7730
683.615	7785
683.662	7284
683.693	7935
683.709	8192
683.757	8564
683.804	8674
683.814	8579
683.851	8149
683.898	8816
683.936	8730
683.945	8660
683.992	9102
684.039	8900
684.057	8965
684.086	8989
684.133	9116
684.179	9103
684.180	9063
684.227	9346
684.274	9975
684.300	9999
684.321	9947
684.368	10166
684.415	9917
684.422	9982
684.462	10128
684.509	9973
684.543	9794
684.556	9725
684.603	9753
684.649	10465
684.665	10368
684.696	10059
684.743	11050
684.786	11553
684.790	11556
684.837	10976
684.883	10670
684.908	10786
684.930	10988
684.977	11321
685.023	12491
685.029	12470
685.070	11840
685.117	11741
685.150	11821
685.164	11822
685.210	12946
685.257	12576
685.272	12653
685.303	12795
685.350	12053
685.393	13547
685.396	13638
685.443	13319
685.490	14336
685.514	13871
685.536	13445
685.583	13931
685.629	12970
685.636	13103
685.675	13538
685.722	13392
685.757	13703
685.768	13848
685.815	14139
685.861	14426
685.878	14352
685.908	14135
685.954	14303
686.000	13886
686.000	13865
686.047	14867
686.093	14639
686.121	15409
686.139	15919
686.185	15105
686.232	15485
686.242	15311
686.278	14581
686.324	15809
686.363	15675
686.370	15599
686.416	15304
686.463	14853
686.484	15113
686.509	15663
686.555	15537
686.601	15853
686.606	15951
686.647	16235
686.693	15886
686.727	15469
686.739	15401
686.785	15819
686.831	15294
686.848	15460
686.877	15850
686.923	15632
686.969	16539
686.969	16539
687.015	16176
687.061	16421
687.090	16647
687.107	16831
687.153	17106
687.199	16683
687.211	16801
687.245	16838
687.291	16341
687.332	16378
687.336	16422
687.382	16465
687.428	16693
687.453	16845
687.474	16907
687.520	16762
687.565	17052
687.574	17104
687.611	17253
687.657	16924
687.695	17191
687.702	17312
687.748	17655
687.794	18470
687.816	18549
687.839	18450
687.885	17820
687.931	18164
687.937	18135
687.976	17855
688.022	17701
688.058	17956
688.067	18128
688.113	18448
688.158	18558
688.179	18654
688.204	18601
688.249	19086
688.295	18497
688.300	18536
688.340	19220
688.386	19411
688.421	19761
688.431	19819
688.477	19437
688.522	20368
688.542	20153
688.567	19801
688.613	19987
688.658	19406
688.663	19463
688.703	20198
688.749	19410
688.784	19778
688.794	19949
688.839	20062
688.884	20479
688.905	20628
688.930	20582
688.975	20151
689.020	19905
689.026	19938
689.065	20689
689.110	20376
689.146	20868
689.155	20982
689.201	20819
689.246	20927
689.267	20891
689.291	20833
689.336	20859
689.381	20774
689.388	20738
689.426	20983
689.471	21112
689.509	21535
689.516	21599
689.561	21320
689.606	21231
689.630	21411
689.651	21546
689.696	21333
689.741	20830
689.750	20908
689.785	21713
689.830	21831
689.871	22380
689.875	22410
689.920	21884
689.965	21819
689.992	21550
690.010	21552
690.054	22003
690.099	21545
690.112	21728
690.144	22438
690.189	22257
690.233	23014
690.233	23047
690.278	22641
690.323	23129
690.354	22705
690.367	22649
690.412	23136
690.457	23125
690.474	23424
690.501	24171
690.546	24447
690.590	25518
690.595	25509
690.635	25902
690.680	26513
690.716	27446
690.724	27840
690.769	29156
690.813	30625
690.836	31485
690.857	33654
690.902	37757
690.946	42244
690.957	43288
690.991	54076
691.035	68674
691.077	83085
691.080	84595
691.124	110788
691.168	133648
691.198	149527
691.213	141481
691.257	116881
691.301	92889
691.318	83260
691.346	74000
691.390	59167
691.434	43616
691.439	41883
691.478	38859
691.522	34854
691.559	32085
691.567	32083
691.611	30845
691.655	30186
691.680	29455
691.699	29068
691.743	28882
691.787	27829
691.800	27604
691.831	27776
691.875	28329
691.919	28132
691.921	28078
691.964	27951
692.008	28262
692.041	27945
692.052	27933
692.096	28568
692.139	28544
692.162	28586
692.183	28534
692.227	28029
692.271	27736
692.282	27536
692.315	27544
692.359	28525
692.402	28270
692.403	28318
692.447	27962
692.490	27590
692.523	27479
692.534	27657
692.578	27969
692.622	27950
692.643	27907
692.666	28110
692.709	28902
692.753	29484
692.763	29467
692.797	29116
692.840	28777
692.884	28480
692.884	28541
692.928	28995
692.971	29380
693.004	29324
693.015	29433
693.059	29676
693.102	30270
693.124	30358
693.146	30546
693.189	30833
693.233	31419
693.245	31449
693.276	32080
693.320	32682
693.363	33332
693.365	33294
693.407	35324
693.450	37398
693.485	39045
693.493	39962
693.537	44052
693.580	48285
693.605	50611
693.624	54698
693.667	64175
693.710	73965
693.725	77286
693.753	98599
693.797	131475
693.840	166073
693.845	169975
693.883	221321
693.926	276678
693.966	326752
693.970	321862
694.013	264591
694.056	206925
694.086	167305
694.099	156833
694.142	121849
694.185	87078
694.206	70207
694.229	65913
694.272	57643
694.315	49563
694.326	47365
694.358	45540
694.401	42452
694.444	39915
694.446	39678
694.487	38439
694.530	37497
694.566	36191
694.573	36115
694.616	35453
694.659	34555
694.686	34109
694.702	33915
694.745	32803
694.787	31824
694.806	31356
694.830	31594
694.873	31792
694.916	31967
694.926	31987
694.959	32062
695.002	31843
695.044	31662
695.046	31582
695.087	31594
695.130	31776
695.166	31310
695.172	31361
695.215	31720
695.258	31893
695.286	31874
695.301	31820
695.343	31455
695.386	31495
695.406	31206
695.428	31267
695.471	31319
695.514	31527
695.526	31451
695.556	31344
695.599	31301
695.641	31179
695.646	31091
695.684	31152
695.726	31067
695.766	30848
695.769	30931
695.811	31297
695.854	31282
695.886	31557
695.896	31717
695.938	31610
695.981	31720
696.005	31610
696.023	31553
696.065	31467
696.108	31223
696.125	31068
696.150	31215
696.192	31289
696.235	31457
696.245	31392
696.277	31619
696.319	31718
696.361	32011
696.365	31951
696.404	32388
696.446	32773
696.485	33093
696.488	33197
696.530	33242
696.572	33628
696.604	33679
696.614	33720
696.656	33547
696.698	33277
696.724	33155
696.740	32951
696.783	32083
696.825	31327
696.844	30825
696.867	30884
696.909	30992
696.951	30891
696.964	30831
696.992	31224
697.034	31627
697.076	32097
697.083	32084
697.118	32160
697.160	32117
697.202	32072
697.203	31989
697.244	31827
697.286	31403
697.323	31016
697.327	31117
697.369	31291
697.411	31505
697.442	31509
697.453	31554
697.494	31435
697.536	31292
697.562	31173
697.578	31439
697.620	31841
697.661	32258
697.682	32375
697.703	32350
697.744	32180
697.786	31987
697.801	31829
697.828	32212
697.869	32634
697.911	33110
697.921	33140
697.952	32994
697.994	32647
698.035	32292
698.040	32163
698.077	32116
698.118	31997
698.160	31893
698.160	31807
698.201	32040
698.243	32260
698.279	32400
698.284	32487
698.325	32433
698.367	32371
698.399	32258
698.408	32315
698.449	32151
698.491	32014
698.518	31800
698.532	31990
698.573	32364
698.614	32702
698.638	32811
698.656	32781
698.697	32491
698.738	32232
698.757	32007
698.779	32392
698.820	32979
698.862	33551
698.877	33678
698.903	33768
698.944	33753
698.985	33743
698.996	33651
699.026	33697
699.067	33636
699.116	33474
699.235	32846
699.354	32971
699.474	32378
699.593	33321
699.713	34319
699.832	32417
699.951	32066
700.070	32000
700.190	31223
700.309	32754
700.428	32050
700.547	32654
700.667	31028
700.786	31148
700.905	31214
701.024	31790
701.143	31801
701.262	30673
701.381	30078
701.500	31061
701.619	30759
701.738	30560
701.857	30231
701.976	30207
702.095	29483
702.214	30928
702.333	30093
702.452	30304
702.571	30218
702.690	29776
702.809	28869
702.928	28829
703.047	29359
703.165	29222
703.284	28137
703.403	28615
703.522	28513
703.640	29089
703.759	29198
703.878	31122
703.997	29931
704.115	28235
704.234	27291
704.353	29029
704.471	28565
704.590	27519
704.708	27246
704.827	28262
704.946	27159
705.064	27330
705.183	29045
705.301	28086
705.420	32804
705.538	39568
705.656	34370
705.775	33048
705.893	35005
706.012	50545
706.130	39144
706.249	33233
706.367	32432
706.485	33258
706.604	31877
706.722	31312
706.840	32088
706.958	32607
707.077	32293
707.195	31121
707.313	30722
707.431	29836
707.549	29603
707.668	29301
707.786	29998
707.904	30500
708.022	30707
708.140	29564
708.258	29209
708.376	28675
708.494	29214
708.612	30072
708.730	34053
708.848	39443
708.966	35838
709.084	33947
709.202	31953
709.320	32771
709.438	33537
709.556	33687
709.674	32610
709.791	33694
709.909	32312
710.027	33148
710.145	31953
710.263	31434
710.380	32133
710.498	31958
710.616	31769
710.733	31205
710.851	30966
710.969	31151
711.086	31585
711.204	31784
711.322	30257
711.439	30744
711.557	30603
711.674	30847
711.792	30725
711.909	30592
712.027	32031
712.144	30287
712.262	29148
712.379	30146
712.497	33802
712.614	42065
712.732	37820
712.849	34277
712.966	32942
713.084	34302
713.201	35690
713.318	34695
713.436	34989
713.553	33941
713.670	34489
713.787	34967
713.905	34055
714.022	33644
714.139	31500
714.256	32897
714.373	32816
714.490	33172
714.608	32273
714.725	37035
714.842	55325
714.959	38464
715.076	30396
715.193	30508
715.310	30223
715.427	31750
715.544	30208
715.661	30167
715.778	29440
715.895	30184
716.011	31746
716.128	32262
716.245	29393
716.362	30775
716.479	31127
716.596	31184
716.713	28788
716.829	28883
716.946	28223
717.063	28491
717.180	27823
717.296	26578
717.413	28102
717.530	27842
717.646	27302
717.763	27406
717.880	26854
717.996	27079
718.113	26341
718.229	26691
718.346	26381
718.462	25681
718.579	26974
718.695	29489
718.812	30888
718.928	26494
719.045	27542
719.161	25246
719.277	25520
719.394	25127
719.510	25272
719.626	25084
719.743	25443
719.859	28162
719.975	25892
720.092	26580
720.208	31475
720.324	30573
720.440	24543
720.557	25840
720.673	27366
720.789	29094
720.905	33215
721.021	36611
721.137	25490
721.253	24441
721.369	23720
721.486	25155
721.602	24656
721.718	25743
721.834	23011
721.950	23302
722.066	23457
722.181	23279
722.297	22629
722.413	24017
722.529	22717
722.645	23270
722.761	21594
722.877	22194
722.993	21532
723.108	22746
723.224	23180
723.340	22556
723.456	22150
723.571	21616
723.687	22515
723.803	21301
723.918	21982
724.034	21554
724.150	20706
724.265	21504
724.381	22063
724.497	27941
724.612	22799
724.728	21041
724.843	20800
724.959	20851
725.074	21597
725.190	26568
725.305	22228
725.421	20556
725.536	19841
725.651	19957
725.767	20159
725.882	19977
725.997	19409
726.113	20143
726.228	18464
726.343	19624
726.459	19557
726.574	19122
726.689	19658
726.804	19563
726.920	18460
727.035	19964
727.150	18484
727.265	19501
727.380	19218
727.495	18307
727.610	18143
727.725	18899
727.841	19410
727.956	20848
728.071	28550
728.186	20778
728.301	19052
728.416	17307
728.531	18677
728.645	18253
728.760	18152
728.875	18624
728.990	17539
729.105	18497
729.220	17631
729.335	17597
729.449	16939
729.564	17775
729.679	16748
729.794	15690
729.908	17093
730.023	17748
730.138	16807
730.253	17386
730.367	17520
730.482	16292
730.596	16186
730.711	17519
730.826	16449
730.940	16896
731.055	16306
731.169	16416
731.284	15790
731.398	16118
731.513	16339
731.627	16998
731.742	15714
731.856	15897
731.970	16291
732.085	16043
732.199	15600
732.313	16382
732.428	16091
732.542	18081
732.656	19492
732.771	17850
732.885	14459
732.999	15646
733.113	15723
733.227	16476
733.342	15902
733.456	15147
733.570	15176
733.684	15094
733.798	14979
733.912	15191
734.026	15274
734.140	14805
734.254	14963
734.368	15847
734.482	19004
734.596	16758
734.710	15018
734.824	15722
734.938	15107
735.052	15482
735.166	14577
735.280	15286
735.393	14619
735.507	14855
735.621	15098
735.735	16644
735.849	16267
735.962	14919
736.076	14531
736.190	14627
736.303	14489
736.417	16330
736.531	15013
736.644	14913
736.758	13451
736.872	14020
736.985	14274
737.099	15108
737.212	13708
737.326	14353
737.439	14486
737.553	14063
737.666	13674
737.780	14202
737.893	13604
738.007	14599
738.120	13509
738.233	13182
738.347	14333
738.460	14150
738.573	12986
738.687	13251
738.800	13385
738.913	14512
739.026	14289
739.140	14451
739.253	14650
739.366	13284
739.479	13208
739.592	13376
739.705	12859
739.818	13450
739.932	12957
740.045	13820
740.158	13320
740.271	13223
740.384	13616
740.497	13656
740.610	13976
740.723	13941
740.836	13745
740.949	14284
741.062	14347
741.174	15107
741.287	12886
741.400	13107
741.513	12867
741.626	13771
741.739	12807
741.851	13398
741.964	13314
742.077	13197
742.189	12382
742.302	13325
742.415	12646
742.527	13416
742.640	12413
742.753	13185
742.865	13125
742.978	12451
743.090	12818
743.203	12992
743.316	12466
743.428	12591
743.541	12947
743.653	12113
743.766	13251
743.878	13337
743.990	12437
744.103	14194
744.215	13103
744.327	12940
744.440	12870
744.552	14695
744.664	13115
744.777	12736
744.889	12204
745.001	12915
745.113	12351
745.226	12448
745.338	11780
745.450	12257
745.562	12330
745.674	12600
745.786	11936
745.898	12942
746.010	12714
746.122	12722
746.234	12085
746.347	13117
746.459	12281
746.570	12246
746.682	12997
746.794	12886
746.906	12741
747.018	13149
747.130	13308
747.242	13627
747.354	11984
747.466	12967
747.577	11996
747.689	13047
747.801	12430
747.913	12223
748.024	12239
748.136	12465
748.248	12438
748.359	12997
748.471	12475
748.583	12307
748.694	12280
748.806	14086
748.918	13062
749.029	13228
749.141	12633
749.252	12872
749.364	11924
749.475	13621
749.587	14803
749.698	13573
749.809	12226
749.921	13202
750.032	12808
750.144	12798
750.255	11926
750.366	13268
750.478	11919
750.589	12364
750.700	12966
750.811	13469
750.923	12045
751.034	13032
751.145	17064
751.256	13800
751.367	12264
751.479	12579
751.590	12640
751.701	12533
751.812	12931
751.923	12951
752.034	12844
752.145	13048
752.256	12408
752.367	12258
752.478	12328
752.589	13285
752.700	12745
752.811	11741
752.922	11968
753.032	13231
753.143	13467
753.254	12187
753.365	13072
753.476	13227
753.586	12524
753.697	13394
753.808	12885
753.919	12842
754.029	13013
754.140	13096
754.251	12903
754.361	12662
754.472	13394
754.582	12740
754.693	12948
754.804	13383
754.914	13009
755.025	13314
755.135	12992
755.246	13526
755.356	13204
755.466	13579
755.577	13533
755.687	13896
755.798	14092
755.908	14593
756.018	13452
756.129	13951
756.239	13325
756.349	13445
756.460	13272
756.570	14064
756.680	13928
756.790	13896
756.900	15109
757.011	14406
757.121	14485
757.231	15048
757.341	14506
757.451	14799
757.561	14486
757.671	14520
757.781	15323
757.891	14898
758.001	15012
758.111	15735
758.221	15846
758.331	16069
758.441	15863
758.551	16354
758.661	17483
758.771	16270
758.880	16088
758.990	17474
759.100	17978
759.210	17569
759.320	18038
759.429	17863
759.539	17434
759.649	17610
759.758	18103
759.868	19147
759.978	17961
760.087	19637
760.197	19597
760.307	19809
760.416	19813
760.526	20021
760.635	19951
760.745	21226
760.854	21655
760.964	21261
761.073	22965
761.182	22308
761.292	22807
761.401	24026
761.511	24085
761.620	25394
761.729	25433
761.839	26278
761.948	27184
762.057	27499
762.166	28331
762.276	28036
762.385	29730
762.494	30923
762.603	30955
762.712	32453
762.822	34121
762.931	35957
763.040	35369
763.149	37270
763.258	38025
763.367	40767
763.476	42146
763.585	44018
763.694	45681
763.803	48282
763.912	52366
764.021	54896
764.130	56052
764.238	60952
764.347	62395
764.456	68915
764.565	74178
764.674	80333
764.783	86670
764.891	95583
765.000	105880
765.109	116152
765.217	131723
765.326	150045
765.435	174851
765.543	202642
765.652	241119
765.761	293695
765.869	361383
765.978	453132
766.086	567505
766.195	701177
766.303	797659
766.412	737266
766.520	513575
766.629	627693
766.737	791358
766.846	733234
766.954	605123
767.062	480719
767.171	378176
767.279	304794
767.387	246280
767.496	206085
767.604	175667
767.712	153134
767.820	134620
767.928	122432
768.037	111757
768.145	105573
768.253	99820
768.361	98372
768.469	94423
768.577	96133
768.685	98472
768.793	104324
768.901	111263
769.009	124001
769.117	141663
769.225	171242
769.333	212075
769.441	281358
769.549	388229
769.657	548400
769.765	716684
769.873	674162
769.981	541560
770.088	712401
770.196	622998
770.304	460998
770.412	344388
770.519	264420
770.627	208889
770.735	170106
770.842	143149
770.950	122478
771.058	106137
771.165	94938
771.273	84983
771.380	77612
771.488	69486
771.595	64600
771.703	59865
771.810	57284
771.918	52056
772.025	48374
772.133	46797
772.240	43814
772.348	40429
772.455	39536
772.562	37975
772.670	36293
772.777	34066
772.884	33111
772.991	30988
773.099	30869
773.206	29948
773.313	28106
773.420	28146
773.528	27220
773.635	25366
773.742	25396
773.849	23803
773.956	23394
774.063	22750
774.170	22931
774.277	22083
774.384	21688
774.491	20138
774.598	21419
774.705	20642
774.812	20266
774.919	20088
775.026	20395
775.133	19321
775.239	19245
775.346	17786
775.453	18544
775.560	17426
775.667	17917
775.773	17526
775.880	17563
775.987	17545
776.093	17549
776.200	15812
776.307	16197
776.413	16503
776.520	15309
776.627	14832
776.733	15447
776.840	13992
776.946	14855
777.053	14327
777.159	14319
777.266	14594
777.372	14710
777.478	13690
777.585	13682
777.691	14026
777.798	13892
777.904	13302
778.010	13726
778.117	14973
778.223	13310
778.329	12683
778.435	12800
778.542	12310
778.648	12083
778.754	12325
778.860	11964
778.966	11468
779.072	12329
779.178	12086
779.284	13048
779.391	12125
779.497	12834
779.603	14794
779.708	18076
779.815	27178
779.920	59183
780.026	194641
780.132	203267
780.238	36289
780.344	18875
780.450	14350
780.556	13347
780.661	12032
780.767	10844
780.873	10867
780.979	10875
781.085	11292
781.190	10625
781.296	10372
781.402	9335
781.507	9939
781.613	9705
781.719	9425
781.824	9361
781.930	9431
782.035	9698
782.141	9407
782.246	9302
782.352	9266
782.457	9124
782.563	9509
782.668	8853
782.773	9896
782.879	8831
782.984	9344
783.090	8997
783.195	9651
783.300	9816
783.405	8867
783.511	8067
783.616	9088
783.721	8822
783.826	7529
783.932	8756
784.037	8705
784.142	8325
784.247	8291
784.352	8542
784.457	8341
784.562	8714
784.667	8207
784.772	8118
784.877	8362
784.982	8732
785.087	6969
785.192	8189
785.297	8946
785.402	7414
785.507	7987
785.611	7999
785.716	8095
785.821	8155
785.926	8541
786.031	7484
786.135	7621
786.240	8415
786.345	6980
786.450	8425
786.554	6754
786.659	7682
786.763	6819
786.868	7854
786.973	7658
787.077	6714
787.182	7121
787.286	7232
787.391	7428
787.495	7218
787.600	6251
787.704	6608
787.809	7399
787.913	7338
788.017	6836
788.122	8257
788.226	6759
788.330	6864
788.435	6963
788.539	6831
788.643	6825
788.747	6805
788.852	6562
788.956	7061
789.060	6137
789.164	6969
789.268	5875
789.372	6820
789.476	5794
789.580	6685
789.684	6671
789.788	6786
789.892	6030
789.996	6235
790.100	6702
790.204	7060
790.308	6149
790.412	6457
790.516	6584
790.620	6813
790.724	5535
790.828	6297
790.931	6488
791.035	6795
791.139	6162
791.242	6739
791.346	6615
791.450	7086
791.554	5997
791.657	5816
791.761	6790
791.864	7659
791.968	6714
792.072	6579
792.175	6434
792.279	5773
792.382	6107
792.486	5835
792.589	5959
792.693	6316
792.796	5595
792.899	6505
793.003	5689
793.106	5566
793.209	5514
793.313	6779
793.416	6064
793.519	6096
793.623	5853
793.726	7229
793.829	7333
793.932	6130
794.035	5783
794.138	6563
794.242	7229
794.345	6766
794.448	9680
794.551	15292
794.654	34457
794.757	113810
794.860	136245
794.963	21420
795.066	8987
795.169	7873
795.272	6648
795.375	7802
795.477	6538
795.580	6533
795.683	5593
795.786	5547
795.889	5431
795.991	6324
796.094	5394
796.197	5948
796.300	4925
796.402	5275
796.505	5404
796.608	4752
796.710	5968
796.813	5290
796.915	5150
797.018	5479
797.120	4788
797.223	4838
797.326	5958
797.428	5459
797.530	5495
797.633	4842
797.735	5570
797.838	5486
797.940	6564
798.042	5522
798.145	4977
798.247	5902
798.349	4176
798.452	5022
798.554	6086
798.656	4052
798.758	5497
798.860	5518
798.962	4544
799.065	5015
799.167	4509
799.269	5454
799.371	5003
799.473	4519
799.575	4676
799.677	5126
799.779	5230
799.881	5559
799.983	5136
800.085	5556
800.187	4819
800.289	4667
800.390	4908
800.492	4707
800.594	5047
800.696	4410
800.798	3829
800.899	4259
801.001	4500
801.103	5131
801.205	3773
801.306	4769
801.408	3838
801.509	4633
801.611	4683
801.713	5249
801.814	4267
801.916	4602
802.017	4284
802.119	4622
802.220	4311
802.322	3865
802.423	5423
802.525	4072
802.626	3703
802.727	4383
802.829	4779
802.930	4511
803.031	5099
803.133	4651
803.234	4305
803.335	4713
803.436	3851
803.538	4692
803.639	3258
803.740	4643
803.841	3381
803.942	4714
804.043	3985
804.144	4418
804.245	4260
804.346	4570
804.447	3674
804.548	4750
804.649	4984
804.750	4578
804.851	3343
804.952	4809
805.053	3736
805.154	3113
805.255	3893
805.355	3773
805.456	4061
805.557	4121
805.658	2375
805.758	4068
805.859	3416
805.960	4311
806.061	4062
806.161	4339
806.262	4263
806.362	3768
806.463	4315
806.564	4456
806.664	3901
806.765	4167
806.865	3851
806.966	4635
807.066	3812
807.166	4538
807.267	3541
807.367	3875
807.468	3755
807.568	4036
807.668	3513
807.769	4359
807.869	3399
807.969	4048
808.069	4762
808.170	3843
808.270	3673
808.370	3886
808.470	4235
808.570	3823
808.670	3563
808.770	4270
808.870	3684
808.970	4405
809.070	3310
809.170	3543
809.271	3194
809.370	3780
809.470	4295
809.570	4690
809.670	3800
809.770	4062
809.870	4191
809.970	4763
810.070	3808
810.169	4236
810.269	2628
810.369	5333
810.469	3514
810.568	3431
810.668	3057
810.768	4273
810.867	3796
810.967	3440
811.066	3070
811.166	2881
811.265	4095
811.365	3676
811.464	4004
811.564	4007
811.663	3641
811.763	2907
811.862	4343
811.962	3248
812.061	3508
812.160	4228
812.260	3691
812.359	4676
812.458	3914
812.557	7594
812.657	10841
812.756	11408
812.855	4633
812.954	4060
813.053	4026
813.153	4460
813.252	3788
813.351	3836
813.450	3600
813.549	3361
813.648	3882
813.747	4543
813.846	3640
813.945	4158
814.044	4069
814.143	3376
814.242	3428
814.341	4406
814.439	4438
814.538	3633
814.637	4137
814.736	4636
814.835	3958
814.933	4085
815.032	4646
815.131	3612
815.229	4327
815.328	4654
815.427	4337
815.525	4945
815.624	3931
815.722	4652
815.821	4469
815.919	4934
816.018	4692
816.116	6239
816.215	4595
816.313	6031
816.412	5423
816.510	5352
816.609	5465
816.707	6144
816.805	6136
816.904	6647
817.002	6170
817.100	7561
817.198	7869
817.296	9695
817.395	10101
817.493	11433
817.591	12904
817.689	15355
817.787	19780
817.885	26420
817.983	41879
818.081	70506
818.179	134545
818.277	273389
818.375	426392
818.473	311132
818.571	146331
818.669	78468
818.767	55285
818.865	48296
818.963	49533
819.061	57603
819.158	80377
819.256	128856
819.354	224993
819.452	395552
819.549	471051
819.647	348067
819.745	193588
819.842	106751
819.940	68052
820.038	48503
820.135	35907
820.233	28917
820.330	23016
820.428	19105
820.525	17609
820.623	14240
820.720	12741
820.818	11937
820.915	10392
821.012	9356
821.110	9030
821.207	8945
821.304	7762
821.402	7970
821.499	7251
821.596	6612
821.693	6060
821.791	6485
821.888	5905
821.985	6131
822.082	6994
822.179	6374
822.276	5005
822.373	4742
822.470	5172
822.567	4773
822.664	4549
822.761	4767
822.858	3955
822.955	4617
823.052	4077
823.149	3606
823.246	3680
823.343	4150
823.440	3793
823.536	4209
823.633	3561
823.730	4191
823.827	3505
823.923	3441
824.020	4422
824.117	3494
824.213	2840
824.310	3780
824.407	3419
824.503	3247
824.600	3239
824.696	2961
824.793	3382
824.889	2528
824.986	3143
825.082	3949
825.179	2889
825.275	3606
825.371	3698
825.468	3980
825.564	2540
825.660	2854
825.757	2928
825.853	3479
825.949	2979
826.045	3667
826.142	2472
826.238	2466
826.334	2680
826.430	3279
826.526	2982
826.622	3410
826.718	2812
826.814	3407
826.910	2932
827.006	2694
827.102	2119
827.198	3080
827.294	2612
827.390	2698
827.486	3178
827.582	2514
827.678	2943
827.774	2923
827.869	1833
827.965	3380
828.061	2424
828.157	2450
828.252	3290
828.348	1850
828.444	3286
828.539	2640
828.635	2447
828.731	3531
828.826	2084
828.922	2644
829.017	2369
829.113	3037
829.208	2525
829.304	2497
829.399	3227
829.495	1896
829.590	1749
829.685	3511
829.781	3070
829.876	1846
829.971	2614
830.066	2432
830.162	2386
830.257	2180
830.352	2649
830.447	3031
830.543	2425
830.638	1841
830.733	2602
830.828	2350
830.923	2031
831.018	3256
831.113	1865
831.208	2386
831.303	2210
831.398	2661
831.493	2155
831.588	2618
831.683	1717
831.778	2451
831.873	2441
831.967	2864
832.062	1668
832.157	2013
832.252	3297
832.346	1901
832.441	2724
832.536	3368
832.631	3312
832.725	5267
832.820	3104
832.914	2436
833.009	2761
833.104	2163
833.198	2888
833.293	2660
833.387	2315
833.482	2909
833.576	1970
833.670	2779
833.765	2355
833.859	1643
833.954	2514
834.048	2820
834.142	1848
834.237	1887
834.331	1802
834.425	2204
834.519	2144
834.613	2464
834.708	2642
834.802	1520
834.896	1337
834.990	2255
835.084	2449
835.178	1322
835.272	1931
835.366	1686
835.460	2225
835.554	2402
835.648	1609
835.742	2205
835.836	2185
835.930	1674
836.024	1466
836.117	2092
836.211	1864
836.305	2446
836.399	2937
836.493	2529
836.586	2234
836.680	2613
836.774	2345
836.867	1879
836.961	1646
837.055	2018
837.148	1370
837.242	2538
837.335	1801
837.429	1746
837.522	1582
837.616	3168
837.709	2844
837.803	2365
837.896	2268
837.989	2752
838.083	3122
838.176	3042
838.269	3207
838.363	2881
838.456	2530
838.549	2806
838.642	3107
838.735	4529
838.829	4607
838.922	3176
839.015	1956
839.108	2392
839.201	1688
839.294	2251
839.387	1902
839.480	2023
839.573	1507
839.666	2426
839.759	2295
839.852	1596
839.945	1819
840.038	2307
840.131	1958
840.223	1907
840.316	2032
840.409	1782
840.502	1729
840.594	2060
840.687	703
840.780	2572
840.873	1520
840.965	3024
841.058	1706
841.150	2594
841.243	2519
841.336	2208
841.428	1951
841.521	1902
841.613	1193
841.706	2121
841.798	1755
841.890	1796
841.983	2222
842.075	2973
842.167	2303
842.260	2169
842.352	2004
842.444	2367
842.537	2851
842.629	3547
842.721	2938
842.813	2460
842.905	873
842.997	2090
843.090	2421
843.182	2863
843.274	2926
843.366	4005
843.458	5584
843.550	8744
843.642	4250
843.734	2435
843.826	2136
843.918	2576
844.009	2466
844.101	2929
844.193	2286
844.285	1882
844.377	2108
844.469	1983
844.560	1631
844.652	2312
844.744	1682
844.835	2720
844.927	2167
845.019	2247
845.110	2024
845.202	1827
845.293	1455
845.385	1911
845.476	1546
845.568	2469
845.659	1716
845.751	2750
845.842	1995
845.934	1013
846.025	2230
846.116	2014
846.208	1455
846.299	2209
846.390	1986
846.482	2478
846.573	1398
846.664	2995
846.755	1298
846.846	2772
846.937	2048
847.029	1740
847.120	1919
847.211	989
847.302	2333
847.393	1342
847.484	2000
847.575	2107
847.666	938
847.757	1743
847.847	2097
847.938	2838
848.029	2317
848.120	1746
848.211	1577
848.302	1912
848.392	1345
848.483	1814
848.574	1966
848.664	1660
848.755	1829
848.846	2103
848.936	1464
849.027	1827
849.118	1450
849.208	1892
849.299	1484
849.389	2258
849.480	2078
849.570	1717
849.661	2427
849.751	2144
849.841	1703
849.932	2165
850.022	1391
850.112	2190
850.203	1098
850.293	1482
850.383	1394
850.474	1832
850.564	2011
850.654	2088
850.744	1586
850.834	1896
850.924	1271
851.014	1861
851.104	1062
851.194	1657
851.284	1642
851.374	2255
851.464	2119
851.554	1868
851.644	1442
851.734	2913
851.824	2823
851.914	4973
852.004	8278
852.094	14152
852.183	10866
852.273	2740
852.363	1887
852.452	2731
852.542	1604
852.632	1861
852.721	2293
852.811	1520
852.901	1338
852.990	1692
853.080	1855
853.169	2053
853.259	1366
853.348	1172
853.438	1379
853.527	2665
853.617	1334
853.706	2193
853.795	1674
853.885	2692
853.974	1950
854.063	3704
854.152	3822
854.242	4427
854.331	2068
854.420	2310
854.509	1771
854.598	1549
854.687	1863
854.777	1677
854.866	702
854.955	1734
855.044	1686
855.133	1132
855.222	821
855.311	1580
855.400	1415
855.488	1202
855.577	1527
855.666	1649
855.755	1178
855.844	1537
855.933	2188
856.021	2335
856.110	2389
856.199	1536
856.288	2305
856.376	425
856.465	1111
856.554	1256
856.642	628
856.731	1869
856.819	1884
856.908	1834
856.996	816
857.085	1209
857.173	1512
857.262	1279
857.350	1872
857.438	1104
857.527	1666
857.615	1885
857.703	1387
857.792	1313
857.880	1372
857.968	1434
858.056	2203
858.145	1849
858.233	1061
858.321	1643
858.409	1628
858.497	692
858.585	1034
858.673	1471
858.761	1643
858.849	1237
858.937	1224
859.025	1582
859.113	1527
859.201	1470
859.289	1656
859.377	1713
859.465	618
859.552	1014
859.640	380
859.728	1836
859.816	1190
859.903	1160
859.991	829
860.079	1258
860.166	1536
860.254	1395
860.342	1084
860.429	1614
860.517	1664
860.604	2034
860.692	1256
860.779	1796
860.867	784
860.954	1828
861.042	1613
861.129	1785
861.216	1839
861.304	1297
861.391	1341
861.478	1905
861.565	1772
861.653	2021
861.740	1051
861.827	1821
861.914	1288
862.001	1725
862.089	2247
862.176	1763
862.263	1443
862.350	1013
862.437	568
862.524	1217
862.611	1441
862.698	1553
862.785	1313
862.871	1223
862.958	1200
863.045	1376
863.132	1148
863.219	1683
863.306	791
863.392	2163
863.479	1750
863.566	1439
863.652	1317
863.739	1078
863.826	2112
863.912	1453
863.999	1073
864.086	1444
864.172	1121
864.259	1463
864.345	1168
864.432	1857
864.518	1051
864.604	1530
864.691	1463
864.777	1435
864.863	2402
864.950	686
865.036	1102
865.122	1812
865.209	1680
865.295	1300
865.381	1270
865.467	1713
865.553	1451
865.639	861
865.726	1326
865.812	1749
865.898	2038
865.984	2349
866.070	2395
866.156	4939
866.242	2661
866.328	2023
866.414	671
866.499	1505
866.585	501
866.671	415
866.757	1645
866.843	1376
866.928	1042
867.014	1055
867.100	1301
867.186	951
867.271	921
867.357	2094
867.442	2466
867.528	1228
867.614	834
867.699	1075
867.785	1378
867.870	1734
867.956	1163
868.041	1454
868.127	997
868.212	1813
868.297	1367
868.383	1655
868.468	1205
868.553	2817
868.639	2403
868.724	3194
868.809	5450
868.894	4045
868.979	1310
869.065	1356
869.150	1013
869.235	722
869.320	1330
869.405	840
869.490	1053
869.575	1684
869.660	1679
869.745	1483
869.830	1367
869.915	239
870.000	932
870.085	267
870.169	1014
870.254	985
870.339	1205
870.424	1461
870.509	1783
870.593	1106
870.678	896
870.763	1319
870.847	1067
870.932	959
871.016	609
871.101	463
871.186	629
871.270	388
871.355	584
871.439	1157
871.523	684
871.608	679
871.692	94
871.777	1839
871.861	1058
871.945	823
872.030	734
872.114	1128
872.198	1035
872.282	1494
872.367	683
872.451	296
872.535	528
872.619	877
872.703	890
872.787	800
872.871	597
872.955	1291
873.039	361
873.123	976
873.207	1726
873.291	1155
873.375	705
873.459	1084
873.543	540
873.627	898
873.711	-124
873.794	490
873.878	504
873.962	503
874.045	557
874.129	1191
874.137	1172
874.213	983
874.245	802
874.296	519
874.352	406
874.380	342
874.460	672
874.464	686
874.547	1016
874.568	888
874.631	497
874.676	86
874.714	-251
874.784	631
874.798	809
874.881	1386
874.892	1365
874.965	1195
874.999	679
875.048	-55
875.107	466
875.131	688
875.215	455
875.215	456
875.298	1628
875.323	1322
875.381	623
875.430	813
875.465	910
875.538	697
875.548	671
875.631	686
875.646	599
875.714	212
875.753	593
875.798	1044
875.861	723
875.881	584
875.964	1456
875.968	1380
876.047	274
876.076	523
876.130	864
876.183	908
876.213	1000
876.291	1559
876.296	1574
876.379	441
876.398	368
876.462	393
876.506	384
876.545	315
876.613	802
876.628	900
876.711	795
876.721	765
876.794	503
876.828	428
876.877	415
876.935	327
876.960	290
877.043	415
877.043	418
877.125	1093
877.150	1014
877.208	830
877.258	920
877.291	953
877.365	757
877.374	748
877.456	582
877.472	501
877.539	75
877.579	339
877.622	566
877.687	542
877.704	591
877.787	417
877.794	444
877.869	610
877.901	679
877.952	880
878.008	861
878.034	767
878.115	474
878.117	473
878.199	818
878.222	837
878.282	790
878.329	603
878.364	466
878.437	561
878.447	546
878.529	655
878.544	701
878.611	1209
878.651	1054
878.694	797
878.758	494
878.776	419
878.858	515
878.865	488
878.941	155
878.972	308
879.023	464
879.078	608
879.105	757
879.185	428
879.187	422
879.269	837
879.292	770
879.351	254
879.399	253
879.433	410
879.506	821
879.516	848
879.598	536
879.613	391
879.680	128
879.720	596
879.762	778
879.827	-87
879.844	-214
879.926	614
879.933	612
880.007	298
880.040	355
880.089	560
880.147	611
880.171	597
880.253	264
880.254	268
880.335	973
880.360	876
880.417	908
880.467	1283
880.499	1551
880.574	2337
880.580	2333
880.662	1617
880.680	1386
880.744	700
880.787	517
880.825	650
880.893	658
880.907	604
880.989	855
881.000	826
881.070	528
881.106	299
881.152	168
881.213	290
881.233	222
881.315	141
881.319	141
881.396	820
881.426	771
881.478	136
881.532	97
881.559	291
881.639	120
881.641	116
881.722	810
881.745	840
881.803	768
881.852	965
881.885	978
881.958	384
881.966	335
882.047	472
882.064	401
882.129	29
882.171	58
882.210	301
882.277	615
882.291	647
882.372	1139
882.383	1068
882.454	576
882.489	570
882.535	438
882.596	304
882.616	359
882.697	651
882.702	651
882.778	199
882.808	213
882.859	431
882.914	223
882.940	73
883.020	-45
883.021	-44
883.102	559
883.127	513
883.183	160
883.233	126
883.264	209
883.339	249
883.345	247
883.426	185
883.445	189
883.507	197
883.551	164
883.587	183
883.657	336
883.668	364
883.749	512
883.763	533
883.830	185
883.869	-23
883.910	102
883.975	321
883.991	259
884.072	47
884.081	34
884.152	623
884.187	721
884.233	411
884.292	270
884.314	242
884.394	-311
884.398	-300
884.475	129
884.504	162
884.555	117
884.610	-16
884.636	-9
884.716	90
884.716	88
884.797	207
884.821	148
884.877	143
884.927	283
884.958	331
885.033	318
885.038	302
885.118	12
885.139	-59
885.199	-248
885.244	-213
885.279	-122
885.350	-260
885.359	-210
885.439	530
885.456	622
885.520	263
885.561	182
885.600	301
885.667	416
885.680	392
885.760	146
885.773	102
885.840	252
885.878	478
885.920	353
885.984	-24
886.000	31
886.080	152
886.089	211
886.160	158
886.195	45
886.240	132
886.300	257
886.320	140
886.400	-292
886.406	-328
886.480	-229
886.511	-92
886.560	266
886.616	560
886.640	503
886.720	404
886.722	402
886.800	327
886.827	320
886.879	386
886.932	313
886.959	159
887.038	-38
887.039	-39
887.119	-91
887.143	-97
887.198	5
887.248	139
887.278	212
887.354	329
887.358	322
887.437	267
887.459	226
887.517	461
887.564	701
887.596	543
887.669	115
887.676	102
887.755	32
887.774	12
887.835	196
887.880	338
887.914	298
887.985	185
887.994	203
888.073	301
888.090	379
888.153	65
888.195	-287
888.232	-328
888.300	-271
888.311	-203
888.391	301
888.405	381
888.470	151
888.510	29
888.549	36
888.615	49
888.628	-2
888.708	-292
888.720	-326
888.787	108
888.825	334
888.866	348
888.930	367
888.945	303
889.024	27
889.035	-10
889.103	-138
889.140	-199
889.182	-220
889.245	-230
889.261	-258
889.340	-390
889.349	-396
889.419	134
889.454	393
889.498	363
889.559	352
889.577	460
889.656	935
889.664	985
889.735	143
889.768	-257
889.814	-110
889.873	95
889.978	-985
890.083	497
890.187	-352
890.292	-180
890.397	245
890.501	574
890.606	-21
890.710	237
890.815	-524
890.919	161
891.024	295
891.128	-374
891.233	-540
891.337	108
891.442	-124
891.546	-319
891.650	-199
891.755	-423
891.859	211
891.963	-535
892.068	184
892.172	631
892.276	-81
892.380	574
892.484	507
892.589	-256
892.693	-370
892.797	-243
892.901	-633
893.005	-669
893.109	-46
893.213	317
893.317	20
893.421	-27
893.525	-149
893.629	-350
893.733	-80
893.837	-256
893.941	-235
894.045	-364
894.148	-114
894.252	405
894.356	-229
894.460	559
894.564	-774
894.667	17
894.771	426
894.875	-312
894.978	-510
895.082	87
895.186	-27
895.289	636
895.393	293
895.496	-169
895.600	-281
895.703	316
895.807	22
895.910	481
896.014	-715
896.117	-388
896.221	-105
896.324	-449
896.427	204
896.531	-335
896.634	-577
896.737	448
896.840	-365
896.944	-133
897.047	-1283
897.150	-385
897.253	-197
897.356	258
897.460	-321
897.563	-767
897.666	-380
897.769	-83
897.872	89
897.975	110
898.078	-511
898.181	-93
898.284	-265
898.387	97
898.490	-152
898.593	-309
898.695	-1166
898.798	357
898.901	154
899.004	-23
899.107	18
899.209	121
899.312	55
899.415	-73
899.518	-590
899.620	-196
899.723	-670
899.826	-123
899.928	-540
900.031	141
900.133	-596
900.236	59
900.338	-134
900.441	377
900.543	-309
900.646	33
900.748	-339
900.851	415
900.953	-907
901.055	28
901.158	-413
901.260	-930
901.362	-23
901.465	-432
901.567	-954
901.669	-162
901.771	-547
901.873	300
901.976	559
902.078	-662
902.180	-714
902.282	48
902.384	-1049
902.486	-152
902.588	-575
902.690	134
902.792	-222
902.894	98
902.996	-124
903.098	797
903.200	-338
903.302	-12
903.404	-304
903.505	-870
903.607	53
903.709	-82
903.811	-234
903.913	400
904.014	-181
904.116	-11
904.218	-917
904.319	-340
904.421	-578
904.523	180
904.624	-77
904.726	443
904.827	-605
904.929	-618
905.030	-324
905.132	-278
905.233	-144
905.335	-344
905.436	-700
905.537	-241
905.639	-301
905.740	147
905.841	-193
905.943	437
906.044	-670
906.145	308
906.247	-301
906.348	178
906.449	-735
906.550	-398
906.651	-415
906.752	166
906.854	-663
906.955	322
907.056	-85
907.157	626
907.258	-625
907.359	-408
907.460	-166
907.561	175
907.662	24
907.762	-532
907.863	-629
907.964	-484
908.065	-478
908.166	403
908.267	-167
908.367	-546
908.468	-672
908.569	269
908.670	-411
908.770	-70
908.871	-1041
908.971	272
909.072	-519
909.173	24
909.273	-281
909.374	-188
909.474	-95
909.575	-278
909.675	-10
909.776	267
909.876	-102
909.977	97
910.077	2
910.177	-519
910.278	-552
910.378	29
910.478	-261
910.579	369
910.679	-493
910.779	-471
910.879	-175
910.980	-729
911.080	-256
911.180	-144
911.280	-111
911.380	-838
911.480	-591
911.580	-610
911.680	-253
911.780	-120
911.880	-810
911.980	257
912.080	-778
912.180	686
912.280	-791
912.380	-522
912.480	-531
912.580	-206
912.679	-430
912.779	-142
912.879	120
912.979	145
913.078	-72
913.178	-67
913.278	-165
913.377	-206
913.477	-150
913.577	-339
913.676	93
913.776	-246
913.875	-1011
913.975	6
914.074	-76
914.174	849
914.273	-812
914.373	-859
914.472	-820
914.572	121
914.671	-621
914.770	486
914.870	-962
914.969	262
915.068	-642
915.167	-444
915.267	-540
915.366	270
915.465	-244
915.564	-329
915.663	-571
915.763	-793
915.862	-733
915.961	-543
916.060	-214
916.159	88
916.258	-1274
916.357	-85
916.456	-454
916.555	-416
916.654	-797
916.752	-732
916.851	-922
916.950	369
917.049	-847
917.148	290
917.247	-362
917.345	-327
917.444	-730
917.543	-449
917.642	-376
917.740	-1124
917.839	-249
917.937	34
918.036	-346
918.135	-311
918.233	67
918.332	-558
918.430	-643
918.529	-130
918.627	-370
918.726	-317
918.824	-586
918.923	-131
919.021	-498
919.119	47
919.218	-493
919.316	239
919.414	-783
919.512	-93
919.611	-718
919.709	-232
919.807	-689
919.905	-543
920.003	128
920.102	37
920.200	-574
920.298	-505
920.396	83
920.494	-149
920.592	-348
920.690	-518
920.788	230
920.886	-477
920.984	76
921.082	-168
921.180	-165
921.277	-232
921.375	-926
921.473	-312
921.571	-194
921.669	-1411
921.766	-1103
921.864	-350
921.962	-584
922.060	-448
922.157	390
922.255	-853
922.352	-641
922.450	108
922.548	-216
922.645	-160
922.743	-577
922.840	308
922.938	-427
923.035	-814
923.133	-268
923.230	-265
923.327	-602
923.425	-943
923.522	-290
923.619	-202
923.717	-958
923.814	-340
923.911	-851
924.008	-327
924.106	-307
924.203	-1350
924.300	-2
924.397	-838
924.494	-1287
924.591	-959
924.688	-849
924.786	-270
924.883	-847
924.979	-433
925.077	-617
925.173	-448
925.270	142
925.367	-575
925.464	-850
925.561	270
925.658	-35
925.755	-933
925.852	-1051
925.948	-115
926.045	-459
926.142	-680
926.239	-943
926.335	-460
926.432	-1191
926.529	-916
926.625	-919
926.722	-1218
926.818	-405
926.915	-1000
927.011	-610
927.108	311
927.204	-619
927.301	238
927.397	-1013
927.494	-645
927.590	-870
927.687	-987
927.783	-176
927.879	-780
927.976	-971
928.072	-665
928.168	-94
928.264	186
928.361	-626
928.457	-560
928.553	-957
928.649	-962
928.745	-669
928.841	-152
928.937	-739
929.033	-760
929.129	-1016
929.225	-883
929.321	-1663
929.417	-609
929.513	-724
929.609	-239
929.705	-1270
929.801	125
929.897	-467
929.993	-509
930.089	-176
930.184	-470
930.280	-1096
930.376	-894
930.471	287
930.567	-933
930.663	-1335
930.758	-831
930.854	-1247
930.950	-736
931.045	-813
931.141	502
931.236	-762
931.332	-265
931.427	-319
931.523	-274
931.618	-143
931.714	-821
931.809	-1055
931.905	-788
932.000	-578
932.095	-548
932.191	-835
932.286	-1148
932.381	-1069
932.476	-451
932.572	-933
932.667	-1088
932.762	-313
932.857	-35
932.952	-1268
933.047	-328
933.142	-886
933.237	-972
933.332	-1344
933.427	-251
933.522	-1085
933.617	-613
933.712	-610
933.807	-565
933.902	-903
933.997	-1272
934.092	-601
934.187	-128
934.282	-1023
934.376	-391
934.471	-865
934.566	-247
934.661	-1023
934.755	-36
934.850	-840
934.945	-533
935.039	-482
935.134	478
935.228	-715
935.323	-11
935.417	-1558
935.512	-398
935.606	-1037
935.701	-242
935.795	-967
935.890	-167
935.984	-38
936.079	-617
936.173	-1804
936.267	-1056
936.362	-1053
936.456	-289
936.550	-375
936.644	-1177
936.738	-448
936.833	-1150
936.927	-1039
937.021	-449
937.115	-410
937.209	-493
937.303	-618
937.397	-496
937.491	-1174
937.585	-712
937.679	-830
937.773	-203
937.867	-63
937.961	-563
938.055	-328
938.149	243
938.243	-501
938.337	-1011
938.430	-978
938.524	-1298
938.618	-437
938.712	-185
938.805	-879
938.899	-1132
938.993	-600
939.086	-646
939.180	-834
939.274	-101
939.367	-737
939.461	-409
939.554	-1567
939.648	-409
939.741	-226
939.835	-1088
939.928	-747
940.022	-50
940.115	-775
940.208	-545
940.302	-786
940.395	-1130
940.488	-547
940.582	-568
940.675	-836
940.768	-318
940.861	-265
940.954	-1520
941.048	-1669
941.141	-658
941.234	-1248
941.327	-736
941.420	-589
941.513	374
941.606	-970
941.699	-229
941.792	-1729
941.885	-444
941.978	-790
942.071	-599
942.164	-599
942.257	-1063
942.349	-1080
942.442	-1140
942.535	-1128
942.628	-801
942.721	-62
942.813	-888
942.906	-1065
942.999	-457
943.091	-533
943.184	-920
943.277	-358
943.369	-132
943.462	-925
943.554	-677
943.647	-898
943.739	-1093
943.832	-731
943.924	-1179
944.017	-857
944.109	-735
944.201	-861
944.294	-122
944.386	-1123
944.478	-822
944.571	-913
944.663	-688
944.755	-848
944.847	-1069
944.940	-1144
945.032	-844
945.124	-1097
945.216	-760
945.308	-675
945.400	-98
945.492	-791
945.584	-648
945.676	-872
945.768	-1057
945.860	-120
945.952	-616
946.044	-1382
946.136	-923
946.228	-56
946.320	-508
946.412	-464
946.503	-690
946.595	-791
946.687	-1092
946.779	-836
946.870	-1021
946.962	-854
947.054	-1021
947.145	-642
947.237	-57
947.329	-1195
947.420	-1150
947.512	-645
947.603	-1246
947.695	-710
947.786	-745
947.878	-868
947.969	-105
948.061	-321
948.152	-1182
948.243	-836
948.335	-1089
948.426	-515
948.517	-1087
948.609	-647
948.700	-873
948.791	-1068
948.882	473
948.973	-826
949.065	-590
949.156	-1115
949.247	-818
949.338	-1260
949.429	-1061
949.520	-1550
949.611	-1448
949.702	-942
949.793	-127
949.884	-474
949.975	-882
950.066	-354
950.157	-875
950.247	-1321
950.338	-923
950.429	-1643
950.520	-842
950.611	-1016
950.701	-1053
950.792	-873
950.883	-693
950.973	-775
951.064	-115
951.155	-1536
951.245	-775
951.336	-1386
951.427	-335
951.517	-954
951.608	-769
951.698	-1287
951.788	-18
951.879	-814
951.969	-953
952.060	-965
952.150	-876
952.240	-239
952.331	-1968
952.421	-734
952.511	-714
952.602	-333
952.692	-1435
952.782	-1013
952.872	-1298
952.962	-1196
953.052	-619
953.143	-1689
953.233	-519
953.323	-693
953.413	-756
953.503	-1805
953.593	-834
953.683	-678
953.773	-269
953.863	-907
953.953	-859
954.042	-931
954.132	-1489
954.222	-334
954.312	-264
954.402	-514
954.492	-350
954.581	-1167
954.671	-128
954.761	-917
954.850	-366
954.940	-1127
955.030	-813
955.119	-499
955.209	-514
955.298	-868
955.388	-164
955.477	-816
955.567	-884
955.656	-248
955.746	-183
955.835	-1201
955.925	-1848
956.014	-1596
956.103	-909
956.193	-785
956.282	-498
956.371	-267
956.461	-991
956.550	-1273
956.639	-1093
956.728	-1733
956.817	-362
956.906	-1557
956.995	-1019
957.085	-1021
957.174	-980
957.263	-981
957.352	-592
957.441	-914
957.530	-1073
957.619	-1688
957.708	-450
957.796	-1489
957.885	-109
957.974	-1475
958.063	-507
958.152	-717
958.241	-437
958.329	-242
958.418	-589
958.507	-1513
958.596	173
958.684	-522
958.773	-634
958.861	-118
958.950	-803
959.039	67
959.127	216
959.216	-1350
959.304	-936
959.393	-720
959.481	-641
959.570	-1446
959.658	-1169
959.746	-1212
959.835	-728
959.923	-1051
960.011	-1021
960.100	-672
960.188	-513
960.276	-705
960.365	-387
960.453	-492
960.541	348
960.629	-63
960.717	-1536
960.805	-621
960.893	-912
960.981	-881
961.069	-859
961.158	-1077
961.245	-1152
961.333	-1054
961.421	-1474
961.509	-740
961.597	-730
961.685	215
961.773	-499
961.861	-848
961.949	-656
962.036	-982
962.124	-417
962.212	-918
962.299	-1010
962.387	-969
962.475	-856
962.562	-850
962.650	-441
962.738	-971
962.825	-562
962.913	-655
963.000	-1121
963.088	-683
963.175	-692
963.263	-795
963.350	-638
963.438	-52
963.525	-839
963.612	-837
963.700	-218
963.787	-184
963.874	626
963.962	37
964.049	-474
964.136	-90
964.223	-1623
964.310	-644
964.398	-655
964.485	-1370
964.572	-621
964.659	-1593
964.746	-321
964.833	-1298
964.920	-1055
965.007	-1129
965.094	-1220
965.181	-2232
965.268	-60
965.355	-620
965.441	-731
965.528	-701
965.615	-1019
965.702	-307
965.789	-934
965.875	-873
965.962	-1069
966.049	-1250
966.136	-765
966.222	-1130
966.309	-932
966.395	-1283
966.482	-680
966.569	-570
966.655	-408
966.742	-1161
966.828	-691
966.915	-832
967.001	-343
967.087	-651
967.174	-814
967.260	-1180
967.347	-1066
967.433	137
967.519	32
967.605	-482
967.692	-606
967.778	-1256
967.864	113
967.950	-1132
968.036	-533
968.123	-949
968.209	-1607
968.295	-1512
968.381	-513
968.467	-1402
968.553	-1034
968.639	-539
968.725	-1670
968.811	-994
968.897	-397
968.983	-1766
969.069	-777
969.154	-691
969.240	-1018
969.326	-1391
969.412	-1591
969.497	-1204
969.583	-386
969.669	-1138
969.755	-392
969.840	-1652
969.926	-816
970.012	-1124
970.097	-306
970.183	-835
970.268	-1389
970.354	-687
970.439	-1239
970.525	-674
970.610	-735
970.696	-1194
970.781	-511
970.866	-692
970.952	-418
971.037	-1230
971.122	-1201
971.208	-1244
971.293	-1363
971.378	-1210
971.463	-618
971.549	-1143
971.634	-945
971.719	-1364
971.804	-643
971.889	-702
971.974	-893
972.059	-769
972.144	-860
972.229	-1145
972.314	-939
972.399	-567
972.484	-1059
972.569	-1103
972.654	-1032
972.739	-1413
972.824	-669
972.908	-769
972.993	-1412
973.078	-534
973.163	-792
973.247	-1607
973.332	-1025
973.417	-176
973.501	-1434
973.586	-1154
973.671	-201
973.755	-1131
973.840	-260
973.924	-2188
974.009	-1161
974.093	-1620
974.178	-835
974.262	-1135
974.346	-543
974.431	-1236
974.515	-628
974.600	-1428
974.684	-837
974.768	-897
974.852	-418
974.937	-1495
975.021	-586
975.105	-1393
975.189	-1054
975.273	-904
975.358	-1026
975.442	-1853
975.526	-1180
975.610	-1737
975.694	-825
975.778	-1549
975.862	-1261
975.946	-1212
976.030	-440
976.114	-2214
976.198	-616
976.281	-1553
976.365	-822
976.449	-1513
976.533	-858
976.617	-1119
976.700	-815
976.784	-694
976.868	-1192
976.951	-1391
977.035	-1494
977.119	-1218
977.202	-1160
977.286	-1263
977.369	-643
977.453	-891
977.536	-1495
977.620	-459
977.703	-405
977.787	-1447
977.870	16
977.953	-417
978.037	-1725
978.120	-1459
978.203	-1385
978.287	-735
978.370	-1008
978.453	-545
978.536	-1377
978.620	-758
978.703	-714
978.786	-1108
978.869	-2183
978.952	-1912
979.035	-822
979.118	-1459
979.201	-1234
979.284	-1153
979.367	-1029
979.450	-864
979.533	-503
979.616	-1612
979.699	-888
979.782	-1150
979.865	-1903
979.948	-1565
980.030	-1673
980.113	-1160
980.196	-844
980.279	-1140
980.361	-1419
980.444	-754
980.526	-1310
980.609	-1201
980.692	-1428
980.774	-1196
980.857	-1521
980.939	-722
981.022	-927
981.104	-799
981.187	-847
981.269	-880
981.352	-917
981.434	-1417
981.516	-1415
981.599	-771
981.681	-710
981.763	-1245
981.846	-912
981.928	-1573
982.010	-1234
982.092	-857
982.174	-1132
982.256	-1712
982.339	-1187
982.421	-1774
982.503	-1013
982.585	-674
982.667	-1447
982.749	-1556
982.831	-752
982.913	-1824
982.995	-690
983.077	-2581
983.158	-1259
983.240	-1632
983.322	-1060
983.404	-1514
983.486	-1364
983.568	-1494
983.649	-486
983.731	-1345
983.813	-1570
983.894	-1233
983.976	-1452
984.058	-1100
984.139	-723
984.221	-1682
984.302	-1656
984.384	-1365
984.465	-1648
984.547	-1699
984.628	-1353
984.710	-1709
984.791	-1967
984.872	-1167
984.954	-1444
985.035	-2048
985.116	-1756
985.198	-1659
985.279	-781
985.360	-2262
985.441	-1423
985.522	-1207
985.604	-659
985.685	-2005
985.766	-546
985.847	-1412
985.928	-1679
986.009	-1590
986.090	-1637
986.171	-1800
986.252	-969
986.333	-1551
986.414	-1371
986.495	-1637
986.576	-1551
986.656	-1660
986.737	-1144
986.818	-1435
986.899	-1040
986.980	-1057
987.060	-1350
987.141	-1586
987.222	-1227
987.302	-1742
987.383	-1426
987.464	-1624
987.544	-1210
987.625	-1213
987.705	-1593
987.786	-1710
987.866	-1878
987.947	-977
988.027	-1726
988.108	-1580
988.188	-536
988.268	-1332
988.349	-1855
988.429	-1409
988.509	-1188
988.589	-1424
988.670	-1481
988.750	-1625
988.830	-1046
988.910	-2252
988.990	-999
989.070	-1098
989.151	-1755
989.231	-1069
989.311	-1567
989.391	-2301
989.471	-1312
989.551	-1308
989.631	-946
989.711	-1026
989.791	-1637
989.870	-1554
989.950	-1304
990.030	-2328
990.110	-1546
990.190	-1509
990.269	-1693
990.349	-1817
990.429	-817
990.509	-1337
990.588	-1505
990.668	-1149
990.747	-1229
990.827	-1092
990.907	-1326
990.986	-1682
991.066	-704
991.145	-1646
991.225	-1158
991.304	-1899
991.383	-1710
991.463	-1792
991.542	-1994
991.622	-1226
991.701	-1853
991.780	-1313
991.859	-1357
991.939	-1679
992.018	-862
992.097	-1333
992.176	-1949
992.256	-1578
992.335	-1525
992.414	-1262
992.493	-1875
992.572	-2297
992.651	-652
992.730	-1663
992.809	-1195
992.888	-2314
992.967	-1413
993.046	-2611
993.125	-2069
993.203	-1520
993.282	-1028
993.361	-1680
993.440	-1740
993.519	-2669
993.597	-1704
993.676	-1144
993.755	-1628
993.834	-856
993.912	-1005
993.991	-1868
994.069	-1589
994.148	-1749
994.226	-1700
994.305	-1008
994.384	-1483
994.462	-1120
994.540	-883
994.619	-1686
994.697	-969
994.776	-864
994.854	-1086
994.932	-2197
995.011	-470
995.089	-1463
995.167	-1531
995.245	-2435
995.324	-1867
995.402	-2040
995.480	-1892
995.558	-1352
995.636	-2030
995.714	-2254
995.792	-512
995.870	-1694
995.948	-1141
996.026	-1491
996.104	-1531
996.182	-1422
996.260	-1714
996.338	-2025
996.416	-1622
996.494	-2163
996.572	-769
996.649	-1796
996.727	-1921
996.805	-1863
996.883	-415
996.960	-1013
997.038	-715
997.116	-2141
997.193	-2332
997.271	-1437
997.348	-1073
997.426	-1554
997.504	-1411
997.581	-1952
997.658	-1868
997.736	-1997
997.813	-1386
997.891	-1007
997.968	-2226
998.046	-2610
998.123	-1089
998.200	-1509
998.277	-1677
998.355	-1362
998.432	-1887
998.509	-1718
998.586	-1276
998.663	-1742
998.741	-1639
998.818	-1946
998.895	-1420
998.972	-832
999.049	-1099
999.126	-2148
999.203	-1999
999.280	-1777
999.357	-1757
999.434	-1574
999.511	-821
999.587	-2035
999.664	-1492
999.741	-1638
999.818	-1295
999.895	-1301
999.971	-1480
1000.048	-1701
1000.125	-1385
1000.202	-2007
1000.278	-1987
1000.355	-1847
1000.431	-1778
1000.508	-2092
1000.584	-1707
1000.661	-1855
1000.738	-1514
1000.814	-1034
1000.890	-1630
1000.967	-1722
1001.043	-886
1001.120	-2203
1001.196	-2143
1001.272	-2304
1001.349	-1557
1001.425	-1521
1001.501	-1739
1001.577	-2069
1001.654	-1535
1001.730	-2200
1001.806	-1733
1001.882	-2349
1001.958	-1473
1002.034	-2138
1002.110	-2014
1002.186	-2445
1002.262	-1475
1002.338	-1929
1002.414	-1095
1002.490	-2505
1002.566	-1404
1002.642	-1442
1002.718	-1209
1002.794	-2683
1002.870	-1610
1002.945	-1956
1003.021	-1017
1003.097	-2414
1003.173	-1398
1003.248	-2032
1003.324	-1853
1003.400	-1973
1003.475	-2277
1003.551	-1706
1003.626	-2110
1003.702	-1515
1003.777	-1336
1003.853	-1736
1003.928	-1742
1004.004	-1477
1004.079	-1857
1004.155	-2520
1004.230	-2000
1004.305	-1617
1004.381	-1279
1004.456	-2111
1004.531	-2363
1004.607	-1605
1004.682	-1705
1004.757	-1700
1004.832	-1047
1004.907	-3083
1004.982	-1836
1005.057	-1989
1005.133	-2768
1005.208	-2167
1005.283	-1124
1005.358	-1254
1005.433	-1689
1005.508	-1956
1005.583	-2536
1005.657	-2197
1005.732	-1000
1005.807	-2066
1005.882	-1998
1005.957	-2334
1006.032	-1070
1006.106	-2127
1006.181	-1203
1006.256	-2228
1006.331	-2927
1006.405	-2695
1006.480	-951
1006.554	-1904
1006.629	-1493
1006.704	-2062
1006.778	-1734
1006.853	-1459
1006.927	-1822
1007.002	-2320
1007.076	-1129
1007.150	-1924
1007.225	-1127
1007.299	-1564
1007.373	-2003
1007.448	-1524
1007.522	-1156
1007.596	-1658
1007.671	-2089
1007.745	-1137
1007.819	-2066
1007.893	-1886
1007.967	-1839
1008.041	-2390
1008.115	-1140
1008.190	-1621
1008.264	-1515
1008.338	-2839
1008.412	-1659
1008.486	-1698
1008.560	-1289
1008.633	-2144
1008.707	-1491
1008.781	-1684
1008.855	-1606
1008.929	-1669
1009.003	-1934
1009.076	-2257
1009.150	-1683
1009.224	-1971
1009.298	-1452
1009.371	-2371
1009.445	-1695
1009.519	-2531
1009.592	-2125
1009.666	-1490
1009.739	-1929
1009.813	-2596
1009.886	-1304
1009.960	-2545
1010.033	-1743
1010.107	-1315
1010.180	-2175
1010.253	-2093
1010.327	-2542
1010.400	-1787
1010.473	-923
1010.547	-1348
1010.620	-2219
1010.693	-1551
1010.766	-1509
1010.840	-2091
1010.913	-1176
1010.986	-1956
1011.059	-2517
1011.132	-1747
1011.205	-861
1011.278	-1665
1011.351	-1779
1011.424	-1059
1011.497	-2163
1011.570	-2126
1011.643	-1848
1011.716	-1423
1011.789	-1171
1011.862	-1734
1011.934	-1258
1012.007	-2458
1012.080	-1183
1012.153	-2190
1012.225	-891
1012.298	-2142
1012.371	-1712
1012.443	-2150
1012.516	-1842
1012.588	-2281
1012.661	-1471
1012.733	-2381
1012.806	-1748
1012.879	-2134
1012.951	-2509
1013.023	-1216
1013.096	-1721
1013.168	-2003
1013.241	-1308
1013.313	-1288
1013.385	-1456
1013.458	-1980
1013.530	-2208
1013.602	-2035
1013.674	-1358
1013.746	-2258
1013.819	-1856
1013.891	-1715
1013.963	-1733
1014.035	-2047
1014.107	-2001
1014.179	-2275
1014.251	-1952
1014.323	-2161
1014.395	-1796
1014.467	-2069
1014.539	-1749
1014.611	-2252
1014.683	-1318
1014.754	-2558
1014.826	-1675
1014.898	-2509
1014.970	-2608
1015.042	-2420
1015.113	-1251
1015.185	-2425
1015.257	-2045
1015.328	-1414
1015.400	-2366
1015.471	-2301
1015.543	-1516
1015.615	-1827
1015.686	-1637
1015.757	-1976
1015.829	-2136
1015.901	-1986
1015.972	-2276
1016.043	-1435
1016.115	-2165
1016.186	-1676
1016.257	-2556
1016.328	-1847
1016.400	-1352
1016.471	-2275
1016.542	-2111
1016.613	-2539
1016.685	-1685
1016.756	-2689
1016.827	-1580
1016.898	-2621
1016.969	-1612
1017.040	-2338
1017.111	-1671
1017.182	-1605
1017.253	-2297
1017.324	-1794
1017.395	-3122
1017.466	-1993
1017.537	-1781
1017.608	-1931
1017.678	-1404
1017.749	-2204
1017.820	-2018
1017.891	-2756
1017.961	-2023
1018.032	-2007
1018.103	-1479
1018.173	-1823
1018.244	-1659
1018.315	-2576
1018.385	-2040
1018.456	-2804
1018.526	-2418
1018.597	-1650
1018.667	-1729
1018.738	-2997
1018.808	-2710
1018.878	-1775
1018.949	-2282
1019.019	-2284
1019.089	-1968
1019.160	-2223
1019.230	-1444
1019.300	-1231
1019.371	-2506
1019.441	-2350
1019.511	-1856
1019.581	-2385
1019.651	-1596
1019.721	-2258
1019.791	-1601
1019.861	-2473
1019.931	-1974
1020.001	-2797
1020.071	-1421
1020.141	-1970
1020.211	-1484
1020.281	-2631
1020.351	-2019
1020.421	-2438
1020.491	-1192
1020.560	-1930
1020.630	-1806
1020.700	-2589
1020.770	-2111
1020.839	-2537
1020.909	-2200
1020.979	-1614
1021.048	-1904
1021.118	-2413
1021.187	-2333
1021.257	-2432
1021.326	-1705
1021.396	-1559
1021.465	-2379
1021.535	-1826
1021.604	-2583
1021.674	-2410
1021.743	-1720
1021.812	-1394
1021.882	-2346
1021.951	-2310
1022.020	-2418
1022.089	-2899
1022.159	-1989
1022.228	-1617
1022.297	-2160
1022.366	-2269
1022.435	-1676
1022.504	-1555
1022.573	-2124
1022.642	-2555
1022.711	-2434
1022.781	-2462
1022.849	-1747
1022.918	-2308
1022.987	-1878
1023.056	-2029
1023.125	-2033
1023.194	-1999
1023.263	-2131
1023.331	-2553
1023.400	-1637
1023.469	-2352
1023.538	-2331
1023.606	-2501
1023.675	-1626
1023.744	-2117
1023.812	-2238
1023.881	-2376
1023.949	-2034
1024.018	-2369
1024.086	-2704
1024.155	-2635
1024.223	-1894
1024.292	-2846
1024.360	-1821
1024.429	-1960
1024.497	-1981
1024.565	-1546
1024.634	-2192
1024.702	-1855
1024.770	-2293
1024.838	-2784
1024.907	-1609
1024.975	-2269
1025.043	-1443
1025.111	-2568
1025.179	-1937
1025.247	-2758
1025.315	-2522
1025.383	-1968
1025.451	-2448
1025.519	-2117
1025.587	-2611
1025.655	-2601
1025.723	-2090
1025.791	-1972
1025.859	-1993
1025.927	-2562
1025.995	-2496
1026.062	-2249
1026.130	-2613
1026.198	-3546
1026.266	-1946
1026.333	-2854
1026.401	-1699
1026.469	-2074
1026.536	-2098
1026.604	-3053
1026.671	-2971
1026.739	-2925
1026.806	-1805
1026.874	-2055
1026.941	-1457
1027.009	-3003
1027.076	-2330
1027.144	-2329
1027.211	-2192
1027.278	-2621
1027.345	-1493
1027.413	-2450
1027.480	-2365
1027.547	-2846
1027.614	-2544
1027.682	-2268
1027.749	-1614
1027.816	-2271
1027.883	-2278
1027.950	-2258
1028.017	-2061
1028.084	-1322
1028.151	-2118
1028.218	-2171
1028.285	-1975
1028.352	-2722
1028.419	-2141
1028.486	-2624
1028.553	-1738
1028.619	-2786
1028.686	-2442
1028.753	-2417
1028.820	-2645
1028.886	-2492
1028.953	-2085
1029.020	-2341
1029.086	-1891
1029.153	-2263
1029.220	-2627
1029.286	-2371
1029.353	-1999
1029.419	-1900
1029.486	-2131
1029.552	-2354
1029.619	-2283
1029.685	-2492
1029.751	-2118
1029.818	-1770
1029.884	-1805
1029.951	-1549
1030.017	-2079
1030.083	-2353
1030.149	-1605
1030.216	-2721
1030.282	-1994
1030.348	-2410
1030.414	-2923
1030.480	-2866
1030.546	-3078
1030.612	-2216
1030.678	-2703
1030.744	-2466
1030.810	-2133
1030.876	-1427
1030.942	-2199
1031.008	-2991
1031.074	-1786
1031.140	-3185
1031.206	-2355
1031.272	-3229
1031.337	-2314
1031.403	-1871
1031.469	-1970
1031.534	-2878
1031.600	-2167
1031.666	-2264
1031.731	-2112
1031.797	-2633
1031.863	-2575
1031.928	-2860
1031.994	-2667
1032.059	-2537
1032.125	-1812
1032.190	-2738
1032.256	-1894
1032.321	-2630
1032.386	-2456
1032.452	-2176
1032.517	-2096
1032.582	-2188
1032.647	-2343
1032.713	-2865
1032.778	-2360
1032.843	-2652
1032.908	-2220
1032.974	-2558
1033.039	-2881
1033.104	-3086
1033.169	-2823
1033.234	-3208
1033.299	-2486
1033.364	-2300
1033.429	-1741
1033.494	-2278
1033.559	-1777
1033.624	-2303
1033.688	-2274
1033.753	-3246
1033.818	-2287
1033.883	-2546
1033.948	-2575
1034.013	-2162
1034.077	-1846
1034.142	-2469
1034.207	-2809
1034.271	-2705
1034.336	-1802
1034.400	-2022
1034.465	-2398
1034.530	-2724
1034.594	-2332
1034.658	-1939
1034.723	-2245
1034.787	-1679
1034.852	-1858
1034.916	-2764
1034.981	-2336
1035.045	-2106
1035.109	-2489
1035.173	-2545
1035.238	-3243
1035.302	-3260
1035.366	-2326
1035.430	-2487
1035.495	-2413
1035.559	-1912
1035.623	-1836
1035.687	-2863
1035.751	-2860
1035.815	-2673
1035.879	-2586
1035.943	-3194
1036.007	-2091
1036.071	-3031
1036.135	-1548
1036.198	-2699
1036.262	-2854
1036.326	-2777
1036.390	-1736
1036.454	-2410
1036.517	-1856
1036.581	-3339
1036.645	-2302
1036.709	-2587
1036.772	-2572
1036.836	-2066
1036.900	-2240
1036.963	-2768
1037.026	-2664
1037.090	-2530
1037.154	-2859
1037.217	-3105
1037.280	-1980
1037.344	-3412
1037.407	-2685
1037.471	-2315
1037.534	-1745
1037.597	-2394
1037.661	-1778
1037.724	-2233
1037.787	-2576
1037.850	-2256
1037.913	-2944
1037.977	-3115
1038.040	-2905
1038.103	-2423
1038.166	-2502
1038.229	-3026
1038.292	-2144
1038.355	-2430
1038.418	-2753
1038.481	-2800
1038.544	-2488
1038.607	-2531
1038.670	-1487
1038.732	-2843
1038.795	-2413
1038.858	-2809
1038.921	-2602
1038.984	-2893
1039.046	-3060
1039.109	-2372
1039.172	-2687
1039.234	-2658
1039.297	-2654
1039.360	-2193
1039.422	-2580
1039.485	-2307
1039.547	-2054
1039.610	-2947
1039.672	-2010
1039.734	-2046
1039.797	-2036
1039.859	-2496
1039.922	-2723
1039.984	-2570
1040.046	-2642
1040.109	-1815
1040.171	-2959
1040.233	-2256
1040.295	-2792
1040.358	-2872
1040.420	-1882
1040.482	-2716
1040.544	-2701
1040.606	-3196
1040.668	-2711
1040.730	-2374
1040.792	-2801
1040.854	-3635
1040.916	-2712
1040.978	-2749
1041.040	-2062
1041.102	-2980
1041.164	-2922
1041.225	-2732
1041.287	-2364
1041.349	-3172
1041.411	-2665
1041.472	-3126
1041.534	-1808
1041.596	-2994
1041.657	-2932
1041.719	-2989
1041.781	-2295
1041.842	-2574
1041.904	-2498
1041.965	-2454
1042.027	-2498
1042.088	-3065
1042.150	-1932
1042.211	-2282
1042.272	-2623
1042.334	-2840
1042.395	-2306
1042.456	-2676
1042.518	-2150
1042.579	-2854
1042.640	-2307
1042.701	-2630
1042.763	-2554
1042.824	-3500
1042.885	-2737
1042.946	-3005
1043.007	-2737
1043.068	-2661
1043.129	-2398
1043.190	-2892
1043.251	-1846
1043.312	-2929
1043.373	-3217
1043.434	-3135
1043.495	-2755
1043.556	-1990
1043.616	-2003
1043.677	-2416
1043.738	-1957
1043.799	-2741
1043.859	-2861
1043.920	-2890
1043.981	-2378
1044.041	-2724
1044.102	-2257
1044.162	-2485
1044.223	-1774
1044.284	-2187
1044.344	-2196
1044.405	-2350
1044.465	-2668
1044.525	-3175
1044.586	-2576
1044.646	-2555
1044.707	-2592
1044.767	-2253
1044.827	-2389
1044.887	-2047
1044.948	-2941
1045.008	-1935
1045.068	-2030
1045.128	-2658
1045.188	-2464
1045.249	-1403
1045.309	-2798
1045.369	-2511
1045.429	-2242
1045.489	-2397
1045.549	-2621
1045.609	-1894
1045.669	-1586
1045.729	-2748
1045.789	-2440
1045.848	-1685
1045.908	-2351
1045.968	-2137
1046.028	-1422
1046.088	-2623
1046.147	-2041
1046.207	-2987
1046.267	-2195
1046.326	-2464
1046.386	-1698
1046.446	-1749
1046.505	-1956
1046.565	-1903
1046.624	-2193
1046.684	-2335
1046.743	-1352
1046.803	-1935
1046.862	-1061
1046.922	0
