'Start Wavelength	183.907
'End Wavelength	1046.922
'Gate Delay	5.000
'Gate Width (ms)	1.050
'Laser Output Level	0.000
'X Position	0.000
'Y Position	0.000
'Z Position	0.000
'Grid Point Number	1.000
'Shot Number	100.000
183.907	404.000
183.977	91.000
184.047	126
184.116	417
184.186	165
184.256	-48
184.325	-145
184.395	187
184.465	628
184.534	-276
184.604	5
184.674	246
184.743	-137
184.813	272
184.883	-177
184.952	251
185.022	579
185.092	-125
185.161	70
185.231	-101
185.301	-390
185.370	-282
185.440	-449
185.509	-456
185.579	205
185.649	-24
185.718	581
185.788	645
185.857	-111
185.927	193
185.996	-509
186.066	360
186.136	-15
186.205	55
186.275	-860
186.344	-132
186.414	58
186.483	211
186.553	498
186.622	-513
186.692	26
186.761	-325
186.831	-148
186.900	-7
186.970	481
187.039	633
187.109	266
187.178	460
187.248	-518
187.317	705
187.387	298
187.456	265
187.526	605
187.595	606
187.664	-515
187.734	143
187.803	195
187.873	386
187.942	442
188.012	392
188.081	-331
188.150	-658
188.220	454
188.289	-108
188.358	-586
188.428	84
188.497	-183
188.567	308
188.636	-164
188.705	44
188.775	570
188.844	-412
188.913	111
188.983	70
189.052	-239
189.121	-625
189.191	-55
189.260	421
189.329	366
189.399	138
189.468	40
189.537	-100
189.606	-620
189.676	435
189.745	211
189.814	-16
189.883	-151
189.953	289
190.022	-454
190.091	409
190.161	315
190.230	426
190.299	-469
190.368	-433
190.437	84
190.507	-395
190.576	12
190.645	-337
190.714	-394
190.783	-483
190.853	290
190.922	-92
190.991	-244
191.060	687
191.129	-191
191.198	-404
191.268	314
191.337	-15
191.406	-199
191.475	759
191.544	-947
191.613	479
191.682	-403
191.752	213
191.821	-221
191.890	381
191.959	-39
192.028	355
192.097	206
192.166	776
192.235	72
192.304	-142
192.373	-676
192.442	213
192.511	206
192.580	-112
192.650	-790
192.719	-281
192.788	304
192.857	-579
192.926	-318
192.995	678
193.064	-357
193.133	477
193.202	-229
193.271	509
193.340	-41
193.409	-281
193.478	393
193.547	71
193.615	-306
193.684	630
193.753	152
193.822	-109
193.891	-551
193.960	-74
194.029	-169
194.098	941
194.167	-644
194.236	540
194.305	-137
194.374	-436
194.443	-524
194.512	-299
194.580	-375
194.649	710
194.718	70
194.787	-43
194.856	57
194.925	27
194.994	-539
195.062	285
195.131	192
195.200	-280
195.269	210
195.338	54
195.407	104
195.475	-149
195.544	-169
195.613	19
195.682	-127
195.751	86
195.819	-111
195.888	221
195.957	465
196.026	479
196.094	356
196.163	-163
196.232	102
196.301	-199
196.369	-404
196.438	-66
196.507	165
196.576	-503
196.644	198
196.713	-86
196.782	-76
196.850	-135
196.919	-179
196.988	-216
197.056	-166
197.125	-704
197.194	-663
197.262	-240
197.331	-93
197.400	173
197.468	-146
197.537	-361
197.606	-94
197.674	665
197.743	260
197.812	-584
197.880	128
197.949	-671
198.017	331
198.086	866
198.155	-795
198.223	-514
198.292	-60
198.360	-624
198.429	-760
198.497	217
198.566	60
198.635	-88
198.703	-232
198.772	1023
198.840	-346
198.909	-635
198.977	315
199.046	-31
199.114	38
199.183	842
199.251	428
199.320	287
199.388	-426
199.457	254
199.525	-150
199.594	-327
199.662	47
199.731	116
199.799	-457
199.867	-20
199.936	-457
200.004	334
200.073	-303
200.141	-353
200.210	-550
200.278	-344
200.346	-735
200.415	446
200.483	-379
200.552	268
200.620	104
200.688	14
200.757	166
200.825	328
200.893	-587
200.962	-591
201.030	-550
201.098	194
201.167	-78
201.235	653
201.303	171
201.372	662
201.440	-60
201.508	-304
201.577	226
201.645	-29
201.713	-217
201.781	82
201.850	-551
201.918	-175
201.986	-1148
202.055	454
202.123	159
202.191	-370
202.259	725
202.327	81
202.396	-460
202.464	-190
202.532	157
202.600	1350
202.669	-380
202.737	-126
202.805	122
202.873	-103
202.941	-50
203.009	-238
203.078	-387
203.146	-312
203.214	-1006
203.282	-573
203.350	205
203.418	377
203.487	-879
203.555	4
203.623	-949
203.691	-555
203.759	-528
203.827	-793
203.895	-619
203.963	-264
204.031	-369
204.099	621
204.168	-1
204.236	308
204.304	-61
204.372	246
204.440	-369
204.508	97
204.576	-65
204.644	-81
204.712	-135
204.780	-225
204.848	-390
204.916	-562
204.984	-689
205.052	-458
205.120	-419
205.188	27
205.256	37
205.324	-373
205.392	-627
205.460	-239
205.528	173
205.596	177
205.664	-340
205.732	-808
205.799	135
205.867	-130
205.935	252
206.003	191
206.071	244
206.139	-749
206.207	255
206.275	-229
206.343	406
206.411	-424
206.478	-63
206.546	319
206.614	-174
206.682	-263
206.750	376
206.818	-447
206.885	489
206.953	-755
207.021	-5
207.089	-49
207.157	-670
207.225	-388
207.292	-135
207.360	13
207.428	-661
207.496	-47
207.563	239
207.631	-354
207.699	91
207.767	20
207.834	-286
207.902	2
207.970	-393
208.038	-168
208.105	-319
208.173	-477
208.241	576
208.309	-328
208.376	-41
208.444	634
208.512	-187
208.579	-709
208.647	130
208.715	504
208.782	-511
208.850	206
208.918	-298
208.985	277
209.053	-221
209.120	174
209.188	-1001
209.256	140
209.323	-409
209.391	-106
209.459	528
209.526	-381
209.594	-378
209.661	1055
209.729	-323
209.796	426
209.864	-529
209.932	-569
209.999	742
210.067	-75
210.134	125
210.202	-120
210.269	107
210.337	637
210.404	-575
210.472	-55
210.539	18
210.607	235
210.674	-877
210.742	292
210.809	-520
210.877	-690
210.944	597
211.012	-539
211.079	359
211.146	-918
211.214	-825
211.281	-109
211.349	427
211.416	387
211.484	203
211.551	-285
211.618	-295
211.686	-679
211.753	-573
211.821	415
211.888	60
211.955	-137
212.023	224
212.090	1181
212.157	319
212.225	-611
212.292	-260
212.359	510
212.427	706
212.494	690
212.561	342
212.629	-714
212.696	-429
212.763	391
212.831	-384
212.898	897
212.965	341
213.032	407
213.100	45
213.167	-333
213.234	317
213.301	131
213.369	300
213.436	-231
213.503	-70
213.570	-358
213.638	-201
213.705	16
213.772	-808
213.839	290
213.906	354
213.973	651
214.041	-587
214.108	-219
214.175	170
214.242	-724
214.309	-645
214.376	-409
214.444	-167
214.511	16
214.578	-13
214.645	-105
214.712	-53
214.779	-187
214.846	340
214.913	-331
214.980	-66
215.048	389
215.115	659
215.182	39
215.249	133
215.316	88
215.383	101
215.450	344
215.517	-332
215.584	136
215.651	-18
215.718	-106
215.785	207
215.852	-556
215.919	46
215.986	-78
216.053	-355
216.120	47
216.187	-112
216.254	-113
216.321	-764
216.388	-907
216.455	454
216.522	620
216.589	-107
216.656	52
216.722	-83
216.789	-204
216.856	573
216.923	-270
216.990	-43
217.057	-44
217.124	195
217.191	51
217.258	426
217.324	817
217.391	681
217.458	-42
217.525	32
217.592	8
217.659	-965
217.725	259
217.792	1072
217.859	236
217.926	-620
217.993	119
218.059	97
218.126	35
218.193	-38
218.260	-128
218.327	-582
218.393	316
218.460	-760
218.527	-280
218.594	-106
218.660	-693
218.727	211
218.794	-117
218.860	-339
218.927	13
218.994	-508
219.061	-864
219.127	-232
219.194	-108
219.261	-605
219.327	-198
219.394	536
219.461	-260
219.527	218
219.594	-78
219.661	-482
219.727	-694
219.794	240
219.860	537
219.927	-213
219.994	565
220.060	-345
220.127	498
220.193	226
220.260	758
220.326	31
220.393	803
220.460	1412
220.526	1488
220.593	-134
220.659	1647
220.726	274
220.792	1903
220.859	377
220.925	1564
220.992	1351
221.058	1967
221.125	1191
221.191	393
221.258	311
221.324	198
221.391	-10
221.457	152
221.524	-341
221.590	458
221.657	628
221.723	492
221.789	-80
221.856	406
221.922	-371
221.989	-172
222.055	582
222.121	-876
222.188	1265
222.254	350
222.321	471
222.387	-405
222.453	-457
222.520	-109
222.586	-868
222.652	-277
222.719	-153
222.785	376
222.851	218
222.918	560
222.984	-208
223.050	-315
223.116	-1187
223.183	200
223.249	-623
223.315	-517
223.382	212
223.448	75
223.514	-1271
223.580	358
223.647	-754
223.713	-597
223.779	-778
223.845	-91
223.911	-368
223.978	-55
224.044	-496
224.110	-511
224.176	-183
224.242	-195
224.309	-1048
224.375	4
224.441	-219
224.507	-576
224.573	-662
224.639	51
224.705	-383
224.772	155
224.838	161
224.904	313
224.970	143
225.036	-643
225.102	-778
225.168	-69
225.234	25
225.300	4
225.366	-788
225.432	254
225.499	-386
225.565	-186
225.631	-9
225.697	-1086
225.763	320
225.829	-296
225.895	-357
225.961	599
226.027	-117
226.093	225
226.159	888
226.225	940
226.291	2593
226.357	3685
226.423	1613
226.489	945
226.554	-314
226.620	927
226.686	571
226.752	1743
226.818	2606
226.884	4504
226.950	3659
227.016	1513
227.082	1058
227.148	387
227.214	-523
227.279	316
227.345	-252
227.411	128
227.477	-174
227.543	1215
227.609	452
227.674	1066
227.740	-523
227.806	218
227.872	-376
227.938	35
228.003	-10
228.069	-75
228.135	-105
228.201	-274
228.267	-144
228.332	202
228.398	-971
228.464	656
228.530	-533
228.595	83
228.661	-599
228.727	-647
228.792	500
228.858	-534
228.924	-1237
228.990	482
229.055	97
229.121	193
229.187	-559
229.252	-93
229.318	-417
229.384	109
229.449	409
229.515	-714
229.581	-1319
229.646	1071
229.712	248
229.777	442
229.843	-14
229.909	681
229.974	150
230.040	439
230.105	-594
230.171	-443
230.236	-208
230.302	614
230.368	371
230.433	-307
230.499	98
230.564	667
230.630	6
230.695	-133
230.761	451
230.826	-601
230.892	17
230.957	-234
231.023	-665
231.088	367
231.154	-649
231.219	158
231.284	-656
231.350	24
231.415	-633
231.481	88
231.546	44
231.612	28
231.677	-952
231.742	-787
231.808	417
231.873	-232
231.939	-1369
232.004	661
232.069	22
232.135	-110
232.200	-345
232.265	-656
232.331	-129
232.396	-166
232.461	-691
232.527	-455
232.592	-680
232.657	920
232.723	-1182
232.788	552
232.853	118
232.918	-471
232.984	-767
233.049	-256
233.114	-283
233.179	-230
233.245	376
233.310	123
233.375	-263
233.440	-97
233.506	-865
233.571	-538
233.636	111
233.701	137
233.766	-238
233.832	-202
233.897	-426
233.962	-975
234.027	57
234.092	-328
234.157	-892
234.222	-407
234.288	-445
234.353	98
234.418	226
234.483	1087
234.548	-51
234.613	56
234.678	-447
234.743	-217
234.808	1016
234.873	-194
234.938	329
235.004	54
235.069	-475
235.134	-743
235.199	-91
235.264	104
235.329	-1098
235.394	148
235.459	128
235.524	-809
235.589	90
235.654	-251
235.719	-400
235.784	741
235.849	-206
235.913	-89
235.978	446
236.043	-227
236.108	-603
236.173	-451
236.238	-303
236.303	-848
236.368	-337
236.433	911
236.498	302
236.563	317
236.627	1564
236.692	6320
236.757	4228
236.822	1994
236.887	489
236.952	1090
237.017	-741
237.081	850
237.146	866
237.211	3696
237.276	5590
237.341	8186
237.405	3140
237.470	1542
237.535	-35
237.600	188
237.664	537
237.729	86
237.794	-1
237.859	1519
237.923	525
237.988	-11
238.053	450
238.118	1063
238.182	192
238.247	1663
238.312	-104
238.376	159
238.441	-1100
238.506	1164
238.570	-1349
238.635	362
238.700	-221
238.764	-309
238.829	285
238.893	-301
238.958	134
239.023	213
239.087	-386
239.152	-430
239.216	-692
239.281	-281
239.346	-72
239.410	265
239.475	-342
239.539	1365
239.604	-402
239.668	1152
239.733	92
239.797	1192
239.862	2264
239.926	1701
239.991	673
240.055	545
240.120	322
240.184	-391
240.249	-874
240.313	-375
240.378	-562
240.442	723
240.507	398
240.571	331
240.635	82
240.700	556
240.764	-339
240.829	-12
240.893	-686
240.957	-214
241.022	626
241.086	1107
241.151	-138
241.215	-849
241.279	223
241.344	-666
241.408	62
241.472	-752
241.537	694
241.601	-41
241.665	-858
241.730	-930
241.794	-62
241.858	-50
241.922	-642
241.987	-604
242.051	-522
242.115	-509
242.179	-459
242.244	-59
242.308	315
242.372	394
242.436	-25
242.501	-1084
242.565	-7
242.629	-622
242.693	-217
242.757	-533
242.822	-474
242.886	358
242.950	-673
243.014	-742
243.078	-139
243.142	-353
243.206	-920
243.271	13
243.335	-785
243.399	795
243.463	681
243.527	4836
243.591	608
243.655	-118
243.719	-1389
243.783	360
243.847	255
243.911	1030
243.975	348
244.040	-910
244.104	926
244.168	1
244.232	-295
244.296	640
244.360	157
244.424	-381
244.488	150
244.552	-119
244.615	-1613
244.679	95
244.743	-599
244.807	-1102
244.871	261
244.935	-170
244.999	-1630
245.063	-306
245.127	-100
245.191	-13
245.255	-336
245.319	428
245.383	-1227
245.446	1426
245.510	77
245.574	8
245.638	-300
245.702	-499
245.766	227
245.829	475
245.893	-965
245.957	9
246.021	515
246.085	142
246.149	101
246.212	1738
246.276	1629
246.340	192
246.404	495
246.467	-200
246.531	-383
246.595	1672
246.659	-63
246.722	-885
246.786	-221
246.850	345
246.913	144
246.977	-798
247.041	25
247.104	177
247.168	254
247.232	1696
247.295	2379
247.359	913
247.423	17
247.486	572
247.550	167
247.614	-670
247.677	128
247.741	386
247.804	-520
247.868	410
247.932	326
247.995	2172
248.059	8
248.122	-715
248.186	586
248.249	963
248.313	3864
248.376	3960
248.440	2141
248.503	182
248.567	1437
248.630	100
248.694	1239
248.757	2840
248.821	4214
248.884	3166
248.948	2081
249.011	4098
249.075	5137
249.138	5334
249.202	1325
249.265	151
249.328	777
249.392	541
249.455	351
249.519	-396
249.582	431
249.645	986
249.709	1206
249.772	-585
249.835	-69
249.899	-39
249.962	794
250.025	672
250.089	660
250.152	2546
250.215	759
250.279	-294
250.342	380
250.405	791
250.468	-24
250.532	488
250.595	1476
250.658	4879
250.721	7840
250.785	2475
250.848	2029
250.911	-136
250.974	429
251.038	640
251.101	2973
251.164	1093
251.227	1310
251.290	916
251.354	1734
251.417	7302
251.480	6304
251.543	5257
251.606	14168
251.669	8547
251.732	3699
251.795	4367
251.859	3853
251.922	8695
251.985	4526
252.048	2370
252.111	953
252.174	626
252.237	2911
252.300	5425
252.363	6187
252.426	11580
252.489	3784
252.552	2247
252.615	377
252.678	2260
252.741	4704
252.804	4701
252.867	11225
252.930	6074
252.993	3001
253.056	2802
253.119	1049
253.182	948
253.245	1257
253.308	801
253.371	880
253.434	638
253.497	1609
253.559	2965
253.622	1040
253.685	1971
253.748	1062
253.811	480
253.874	1284
253.937	261
254.000	458
254.062	1761
254.125	2168
254.188	2777
254.251	1446
254.314	-79
254.376	1803
254.439	1860
254.502	1988
254.565	1944
254.628	2670
254.690	1443
254.753	231
254.816	174
254.878	111
254.941	2278
255.004	989
255.067	187
255.129	-164
255.192	329
255.255	-754
255.317	350
255.380	-125
255.443	118
255.505	-338
255.568	-1868
255.631	-136
255.693	-318
255.756	-793
255.819	143
255.881	-426
255.944	-70
256.006	-765
256.069	-974
256.132	-806
256.194	-411
256.257	175
256.319	886
256.382	-856
256.444	493
256.507	343
256.569	-409
256.632	-838
256.694	595
256.757	3669
256.819	9781
256.882	2423
256.944	1406
257.007	1241
257.069	213
257.132	468
257.194	-24
257.257	-547
257.319	-148
257.381	-557
257.444	2579
257.506	10973
257.569	11509
257.631	4570
257.693	2787
257.756	42
257.818	147
257.880	-204
257.943	460
258.005	-1394
258.067	-391
258.130	-569
258.192	140
258.254	267
258.317	10
258.379	-263
258.441	1403
258.503	1767
258.566	1166
258.628	1867
258.690	-601
258.753	-78
258.815	533
258.877	-270
258.939	-161
259.001	-230
259.064	-237
259.126	-564
259.188	-64
259.250	-244
259.312	353
259.375	1328
259.437	-48
259.499	768
259.561	493
259.623	-261
259.685	342
259.747	-726
259.809	1229
259.872	1888
259.934	3284
259.996	3761
260.058	829
260.120	-197
260.182	-459
260.244	-466
260.306	-944
260.368	-8
260.430	-602
260.492	1162
260.554	2853
260.616	320
260.678	2710
260.740	739
260.802	-289
260.864	120
260.926	-296
260.988	1130
261.050	143
261.112	2702
261.174	5463
261.236	1055
261.298	515
261.359	161
261.421	1648
261.483	-494
261.545	-93
261.607	-1288
261.669	-130
261.731	396
261.793	2081
261.854	-1261
261.916	916
261.978	141
262.040	-215
262.102	477
262.164	-558
262.225	553
262.287	-646
262.349	166
262.411	546
262.472	-367
262.534	-288
262.596	325
262.658	362
262.719	-893
262.781	422
262.843	-528
262.904	139
262.966	-149
263.028	-841
263.090	2908
263.151	7342
263.213	2526
263.275	1255
263.336	215
263.398	39
263.459	-910
263.521	268
263.583	677
263.644	334
263.706	-1331
263.767	-788
263.829	-476
263.891	-631
263.952	-892
264.014	-628
264.075	938
264.137	3220
264.198	351
264.260	-279
264.321	-432
264.383	850
264.444	4710
264.506	198
264.567	-242
264.629	2272
264.690	3214
264.752	960
264.813	194
264.875	-992
264.936	505
264.998	19
265.059	-356
265.120	-372
265.182	147
265.243	5679
265.305	4329
265.366	413
265.427	-192
265.489	-1
265.550	-1648
265.611	194
265.673	-249
265.734	-80
265.795	246
265.857	543
265.918	-799
265.979	1913
266.040	8777
266.102	6455
266.163	1625
266.224	275
266.286	-10
266.347	-740
266.408	-707
266.469	-336
266.530	-1289
266.592	-944
266.653	622
266.714	433
266.775	-98
266.836	-251
266.898	-922
266.959	309
267.020	-681
267.081	117
267.142	-589
267.203	-857
267.264	-1424
267.326	36
267.387	-711
267.448	-1241
267.509	-981
267.570	-723
267.631	-888
267.692	-1266
267.753	-415
267.814	-1613
267.875	582
267.936	1428
267.997	665
268.058	411
268.119	-487
268.180	-116
268.241	-1230
268.302	-704
268.363	-607
268.424	-790
268.485	-163
268.546	-1559
268.607	-602
268.668	-736
268.729	-913
268.790	-714
268.851	-354
268.912	717
268.972	140
269.033	-30
269.094	-1871
269.155	-810
269.216	-143
269.277	-770
269.338	-943
269.398	-472
269.459	-1140
269.520	-212
269.581	-258
269.642	2
269.702	-750
269.763	-631
269.824	-304
269.885	95
269.945	377
270.006	72
270.067	-657
270.128	-349
270.188	-1379
270.249	-343
270.310	-839
270.370	-19
270.431	-253
270.492	-775
270.553	-392
270.613	-194
270.674	1782
270.734	330
270.795	-91
270.856	498
270.916	-1289
270.977	-543
271.038	-175
271.098	4
271.159	201
271.219	-332
271.280	-1525
271.340	29
271.401	-1145
271.462	-375
271.522	-630
271.583	-781
271.643	-381
271.704	-921
271.764	-611
271.825	1225
271.885	5104
271.946	5412
272.006	876
272.066	2835
272.127	4840
272.187	1101
272.248	42
272.308	163
272.369	2808
272.429	1388
272.489	155
272.550	476
272.610	774
272.671	219
272.731	650
272.791	521
272.852	-348
272.912	353
272.972	-397
273.033	-270
273.093	-1081
273.153	545
273.214	-350
273.274	-58
273.334	3418
273.394	4336
273.455	195
273.515	2232
273.575	2954
273.635	1230
273.696	1964
273.756	3933
273.816	645
273.876	63
273.936	759
273.997	2501
274.057	-789
274.117	-518
274.177	820
274.237	6516
274.297	3391
274.358	2053
274.418	3133
274.478	1225
274.538	-17
274.598	-712
274.658	934
274.718	1317
274.778	-282
274.838	43
274.898	-425
274.958	2982
275.018	2517
275.078	3070
275.138	132
275.198	-328
275.258	-1469
275.318	21
275.378	203
275.438	1512
275.498	264
275.558	1268
275.618	3598
275.678	1328
275.738	1624
275.798	1237
275.858	5
275.918	-258
275.978	-412
276.038	307
276.098	-605
276.157	276
276.217	3085
276.277	767
276.337	561
276.397	-496
276.457	-115
276.517	-438
276.576	-212
276.636	-872
276.696	70
276.756	1852
276.815	154
276.875	-780
276.935	-593
276.995	-151
277.055	-871
277.114	-20
277.174	-92
277.234	2353
277.293	-268
277.353	-121
277.413	270
277.472	-801
277.532	-1463
277.592	-185
277.651	1244
277.711	1678
277.771	209
277.830	4138
277.890	3117
277.950	1816
278.009	5747
278.069	1065
278.128	1629
278.188	2835
278.248	840
278.307	3066
278.367	1592
278.426	-942
278.486	-510
278.545	-1031
278.605	-1387
278.664	-974
278.724	-412
278.783	1762
278.843	3363
278.902	770
278.962	-348
279.021	-396
279.081	77
279.140	-329
279.199	-228
279.259	746
279.318	-388
279.378	583
279.437	2138
279.496	8769
279.556	16814
279.615	10916
279.675	2594
279.734	1109
279.793	3865
279.853	6852
279.912	1558
279.971	583
280.031	-642
280.090	2488
280.149	3428
280.208	1845
280.268	12093
280.327	8842
280.386	724
280.445	1462
280.505	1455
280.564	830
280.623	46
280.682	1512
280.742	1851
280.801	-476
280.860	-768
280.919	-437
280.978	-930
281.037	-134
281.097	-916
281.156	167
281.215	-94
281.274	-379
281.333	2487
281.392	1231
281.451	-428
281.510	-1026
281.569	-408
281.628	-849
281.688	-1206
281.747	34
281.806	-664
281.865	-433
281.924	-1597
281.983	-688
282.042	-1222
282.101	-623
282.160	-1451
282.219	-747
282.278	-585
282.337	1123
282.396	-284
282.454	-806
282.513	213
282.572	2508
282.631	185
282.690	-570
282.749	-1062
282.808	-144
282.867	-818
282.926	-968
282.985	-749
283.043	-497
283.102	-808
283.161	246
283.220	-22
283.279	2929
283.338	136
283.396	-1263
283.455	-720
283.514	-610
283.573	817
283.631	-293
283.690	-182
283.749	-524
283.808	-431
283.866	1003
283.925	-1442
283.984	32
284.043	79
284.101	-890
284.160	-1365
284.219	-117
284.277	-308
284.336	470
284.395	2843
284.453	1530
284.512	1030
284.570	496
284.629	165
284.688	-92
284.746	-296
284.805	-149
284.863	443
284.922	670
284.981	841
285.039	2892
285.098	5969
285.156	15350
285.215	26543
285.273	25148
285.332	14949
285.390	7327
285.449	4554
285.507	2733
285.566	1505
285.624	1122
285.683	1063
285.741	243
285.799	91
285.858	270
285.916	-120
285.975	-269
286.033	-23
286.091	-701
286.150	-462
286.208	581
286.267	369
286.325	650
286.383	46
286.442	-292
286.500	-790
286.558	280
286.616	-1210
286.675	-123
286.733	-1369
286.791	155
286.850	-237
286.908	-429
286.966	243
287.024	-1071
287.083	-684
287.141	-610
287.199	370
287.257	657
287.315	-22
287.374	-382
287.432	1110
287.490	457
287.548	-619
287.606	-729
287.664	-1078
287.723	24
287.781	-277
287.839	-363
287.897	-611
287.955	538
288.013	158
288.071	2838
288.129	11881
288.187	30271
288.245	12055
288.303	3645
288.361	1740
288.419	1140
288.477	-34
288.535	-498
288.593	13
288.651	-175
288.709	-616
288.767	-376
288.825	-840
288.883	-954
288.941	-1298
288.999	-652
289.057	-1129
289.115	-1144
289.173	-1068
289.231	-638
289.289	-782
289.346	-916
289.404	-790
289.462	-70
289.520	168
289.578	-423
289.636	-1068
289.694	-1312
289.751	-1284
289.809	-777
289.867	-1566
289.925	-660
289.983	-675
290.040	-750
290.098	-330
290.156	-991
290.214	-527
290.271	-869
290.329	-78
290.387	-1149
290.444	-1455
290.502	-650
290.560	-171
290.617	39
290.675	-537
290.733	-1009
290.790	-553
290.848	-432
290.906	-941
290.963	279
291.021	-694
291.078	-1406
291.136	-415
291.194	1627
291.251	3887
291.309	263
291.366	-701
291.424	-711
291.481	-522
291.539	-622
291.596	-888
291.654	-933
291.711	-1057
291.769	-995
291.826	-169
291.884	-999
291.941	-1312
291.999	-515
292.056	-547
292.114	-78
292.171	-801
292.228	-715
292.286	-1227
292.343	-52
292.401	283
292.458	-174
292.515	-538
292.573	-997
292.630	-545
292.687	-595
292.745	-886
292.802	-6
292.859	2530
292.917	3184
292.974	486
293.031	-906
293.089	-807
293.146	-171
293.203	-1228
293.260	-103
293.318	-771
293.375	931
293.432	-327
293.489	-613
293.546	-1362
293.604	96
293.661	1211
293.718	5168
293.775	2445
293.832	425
293.889	42
293.947	-206
294.004	-276
294.061	-256
294.118	1356
294.175	3973
294.232	7167
294.289	2175
294.346	-938
294.403	-58
294.460	169
294.517	-395
294.574	-565
294.631	-1072
294.688	685
294.745	1103
294.802	7932
294.859	9904
294.916	3367
294.973	473
295.030	-462
295.087	-191
295.144	59
295.201	280
295.258	-994
295.315	29
295.372	2099
295.429	2716
295.486	694
295.542	922
295.599	4838
295.656	7860
295.713	4717
295.770	4352
295.827	1182
295.883	-360
295.940	-647
295.997	903
296.054	509
296.111	-188
296.167	-159
296.224	-610
296.281	-783
296.338	185
296.394	-881
296.451	-419
296.508	1454
296.564	4429
296.621	2832
296.678	4681
296.734	7092
296.791	3074
296.848	941
296.904	763
296.961	2794
297.018	4741
297.074	2725
297.131	606
297.187	-304
297.244	790
297.301	4316
297.357	7780
297.414	887
297.470	792
297.527	334
297.583	47
297.640	-886
297.696	13
297.753	-198
297.809	-583
297.866	-1602
297.922	-510
297.979	-808
298.035	-667
298.092	-155
298.148	2114
298.204	2357
298.261	775
298.317	2499
298.374	6351
298.430	2384
298.486	246
298.543	-239
298.599	87
298.656	254
298.712	1273
298.768	2981
298.824	2119
298.881	571
298.937	658
298.993	-106
299.050	106
299.106	-938
299.162	-411
299.218	-280
299.275	-370
299.331	-404
299.387	1185
299.443	4699
299.500	6809
299.556	2378
299.612	957
299.668	224
299.724	2174
299.780	1801
299.837	368
299.893	1261
299.949	5417
300.005	6181
300.061	5480
300.117	8691
300.173	3952
300.229	842
300.285	1360
300.341	1813
300.397	814
300.453	-769
300.510	-101
300.566	-136
300.622	826
300.678	4404
300.734	8728
300.790	5334
300.845	4931
300.901	4176
300.957	6719
301.013	3939
301.069	1245
301.125	-318
301.181	263
301.237	-2
301.293	-1058
301.349	-493
301.405	-268
301.461	111
301.516	-378
301.572	-158
301.628	559
301.684	612
301.740	1529
301.796	2727
301.851	1884
301.907	2854
301.963	3527
302.019	5781
302.074	15638
302.130	13247
302.186	5948
302.242	2567
302.297	956
302.353	1282
302.409	2471
302.464	1980
302.520	1551
302.576	5285
302.631	5547
302.687	2786
302.743	478
302.798	-155
302.854	-801
302.910	203
302.965	626
303.021	1129
303.076	1125
303.132	1648
303.187	2113
303.243	-22
303.299	603
303.354	-683
303.410	-124
303.465	112
303.521	104
303.576	-195
303.632	833
303.687	1605
303.743	3920
303.798	3501
303.853	1262
303.909	-114
303.964	-592
304.020	581
304.075	736
304.130	1086
304.186	3028
304.241	3731
304.297	2757
304.352	1313
304.358	1130
304.407	-353
304.449	206
304.463	397
304.518	-548
304.539	-240
304.573	240
304.629	42
304.630	74
304.684	1508
304.720	2461
304.739	2940
304.794	5041
304.811	4519
304.850	3209
304.902	438
304.905	257
304.960	40
304.992	-125
305.015	-213
305.071	456
305.083	357
305.126	-88
305.173	-372
305.181	-405
305.236	-217
305.264	74
305.292	327
305.347	530
305.354	518
305.402	551
305.445	455
305.457	387
305.512	86
305.535	211
305.567	449
305.622	1088
305.626	1131
305.678	2152
305.716	4928
305.733	5975
305.788	6390
305.807	5496
305.843	3888
305.897	4800
305.898	4809
305.953	5077
305.988	3152
306.008	2036
306.063	1642
306.078	1329
306.118	671
306.168	465
306.173	452
306.228	114
306.259	323
306.283	457
306.338	-188
306.349	-149
306.393	36
306.440	-336
306.448	-394
306.503	845
306.530	782
306.558	955
306.613	3095
306.620	3319
306.668	4723
306.711	5926
306.723	5997
306.778	4210
306.801	3238
306.833	2137
306.888	763
306.892	704
306.943	327
306.982	364
306.997	400
307.052	-107
307.072	100
307.107	456
307.162	663
307.163	667
307.217	1703
307.253	2211
307.272	2261
307.327	2309
307.343	2039
307.381	1472
307.434	1762
307.436	1830
307.491	3225
307.524	4943
307.546	5497
307.600	5654
307.614	5081
307.655	2967
307.704	1401
307.710	1381
307.765	1780
307.795	2262
307.819	2715
307.874	4444
307.885	4580
307.929	4038
307.975	2885
307.984	2946
308.038	4787
308.065	6121
308.093	9884
308.148	19733
308.156	21991
308.202	34050
308.246	40733
308.257	39783
308.312	24586
308.336	18151
308.366	13498
308.421	8673
308.426	8161
308.475	4766
308.517	3138
308.530	2863
308.585	2529
308.607	2247
308.639	2321
308.694	2747
308.697	2794
308.748	4278
308.787	5879
308.803	5963
308.857	4648
308.877	4230
308.912	3909
308.967	3574
308.967	3572
309.021	5128
309.058	6404
309.076	8010
309.130	14463
309.148	16993
309.185	27217
309.238	45216
309.239	45383
309.293	49478
309.328	47592
309.348	42386
309.402	23080
309.418	18443
309.457	13028
309.508	7716
309.511	7578
309.566	6142
309.598	5730
309.620	5884
309.674	6451
309.688	6612
309.729	6167
309.778	5240
309.783	5150
309.837	4277
309.868	3717
309.892	4467
309.946	6875
309.959	7607
310.001	10158
310.049	12176
310.055	11741
310.109	6966
310.139	4191
310.163	3353
310.218	2218
310.229	2005
310.272	1766
310.319	1721
310.326	1653
310.381	1021
310.409	783
310.435	884
310.489	743
310.499	820
310.543	1292
310.589	1218
310.598	1202
310.652	1631
310.679	1693
310.706	1499
310.760	1120
310.769	1037
310.814	1059
310.859	1277
310.868	1293
310.923	1207
310.948	1149
310.977	1256
311.031	1483
311.038	1531
311.085	1183
311.128	627
311.139	655
311.193	935
311.218	1014
311.247	1021
311.301	1180
311.308	1181
311.356	1318
311.398	1527
311.410	1543
311.464	1344
311.488	1358
311.518	1241
311.572	965
311.578	927
311.626	1766
311.668	2508
311.680	2429
311.734	2008
311.758	1833
311.788	1927
311.842	2072
311.847	2080
311.896	2938
311.937	3689
311.950	3616
312.004	3273
312.027	3099
312.058	2499
312.112	1434
312.117	1328
312.165	1337
312.207	1349
312.297	1903
312.386	2290
312.476	2438
312.566	2583
312.656	1919
312.745	643
312.835	1831
312.925	2017
313.015	1686
313.104	1851
313.194	1565
313.284	1647
313.374	2410
313.463	1625
313.553	1185
313.643	929
313.732	1392
313.822	761
313.912	1473
314.001	1323
314.091	2083
314.180	2771
314.270	2441
314.360	2473
314.449	1499
314.539	746
314.628	1487
314.718	1547
314.808	1238
314.897	1474
314.987	1723
315.076	1674
315.166	2676
315.255	1845
315.345	2243
315.434	1746
315.524	1978
315.613	2017
315.703	2361
315.792	2922
315.881	6794
315.971	2923
316.060	3974
316.150	4240
316.239	4488
316.328	1986
316.418	1470
316.507	1241
316.597	1664
316.686	1638
316.775	2614
316.865	4707
316.954	1662
317.043	722
317.133	1174
317.222	1080
317.311	1641
317.400	1028
317.490	1973
317.579	2440
317.668	1761
317.757	2368
317.847	5011
317.936	12340
318.025	6472
318.114	3622
318.203	2939
318.293	3684
318.382	7328
318.471	5937
318.560	7336
318.649	14750
318.738	4031
318.828	2127
318.917	2534
319.006	2820
319.095	6013
319.184	17896
319.273	9343
319.362	4574
319.451	2807
319.540	2217
319.629	2789
319.718	4763
319.807	3203
319.896	5227
319.985	21280
320.074	7789
320.163	2811
320.252	3192
320.341	3698
320.430	3514
320.519	3156
320.608	1644
320.697	3272
320.786	2409
320.875	2496
320.964	3209
321.053	3600
321.142	5066
321.230	6755
321.319	4719
321.408	10469
321.497	5268
321.586	3507
321.675	4770
321.764	5056
321.852	4306
321.941	6513
322.030	4046
322.119	4578
322.207	9506
322.296	8173
322.385	5055
322.474	4644
322.562	11398
322.651	6904
322.740	4385
322.829	6734
322.917	6397
323.006	4081
323.095	3376
323.183	3046
323.272	4435
323.361	5727
323.449	15853
323.538	6400
323.626	11263
323.715	7496
323.804	3251
323.892	9875
323.981	6714
324.069	2912
324.158	5597
324.246	6647
324.335	2633
324.424	3858
324.512	1225
324.601	2495
324.689	3933
324.778	7772
324.866	5095
324.954	1670
325.043	1296
325.131	2993
325.220	4744
325.308	4327
325.397	3781
325.485	2527
325.574	1284
325.662	2219
325.750	915
325.839	1366
325.927	1556
326.015	1623
326.104	1804
326.192	2711
326.280	963
326.369	1241
326.457	1772
326.545	3408
326.634	1461
326.722	1563
326.810	1636
326.898	1897
326.987	1764
327.075	2714
327.163	2692
327.251	2155
327.340	3156
327.428	4683
327.516	1649
327.604	1708
327.692	2102
327.781	1186
327.869	1981
327.957	1872
328.045	1226
328.133	1859
328.221	864
328.309	1277
328.397	1239
328.485	1415
328.574	2410
328.662	5715
328.750	3460
328.838	1574
328.926	1975
329.014	1104
329.102	1753
329.190	5079
329.278	3138
329.366	1373
329.454	1266
329.542	1876
329.630	997
329.718	683
329.806	1207
329.893	1494
329.981	1512
330.069	2286
330.157	7626
330.245	21945
330.333	13206
330.421	2767
330.509	2313
330.597	6978
330.684	5249
330.772	2258
330.860	3472
330.948	5324
331.036	2637
331.123	514
331.211	840
331.299	2182
331.387	2975
331.475	7194
331.562	2690
331.650	999
331.738	1273
331.825	1937
331.913	1307
332.001	1155
332.089	1094
332.176	3375
332.264	5480
332.352	5187
332.439	2218
332.527	1184
332.614	646
332.702	1707
332.790	718
332.877	2055
332.965	4801
333.052	1536
333.140	1098
333.228	2677
333.315	1437
333.403	1406
333.490	3002
333.578	2804
333.665	3325
333.753	1457
333.840	1122
333.928	1952
334.015	3557
334.103	7118
334.190	20377
334.278	7317
334.365	4101
334.452	2676
334.540	1779
334.627	2541
334.715	2792
334.802	4817
334.889	18838
334.977	20992
335.064	5119
335.151	2642
335.239	2871
335.326	3046
335.413	10301
335.501	16215
335.588	3085
335.675	2087
335.762	3388
335.850	5769
335.937	4784
336.024	8912
336.111	25729
336.199	15012
336.286	4617
336.373	2279
336.460	1528
336.547	2176
336.635	1936
336.722	1730
336.809	1581
336.896	2420
336.983	7164
337.070	17420
337.157	22603
337.245	12733
337.332	9331
337.419	1318
337.506	1221
337.593	2374
337.680	6095
337.767	19158
337.854	5019
337.941	5508
338.028	4948
338.115	2268
338.202	3485
338.289	4450
338.376	11386
338.463	5283
338.550	10191
338.637	11982
338.724	3325
338.811	4970
338.898	1178
338.984	1781
339.071	1453
339.158	2239
339.245	3437
339.332	2779
339.419	3450
339.506	3465
339.593	591
339.679	1291
339.766	911
339.853	1627
339.940	2850
340.027	767
340.113	1015
340.200	1546
340.287	910
340.374	1580
340.460	2729
340.547	1978
340.634	2184
340.720	6099
340.807	3542
340.894	1714
340.980	1389
341.067	-95
341.154	2028
341.240	2004
341.327	3143
341.414	2470
341.500	1634
341.587	1739
341.674	752
341.760	2774
341.847	2325
341.933	1410
342.020	-258
342.106	1560
342.193	935
342.279	1615
342.366	1375
342.452	2484
342.539	1252
342.625	2890
342.712	7194
342.798	2790
342.885	1684
342.971	-65
343.058	1208
343.144	1087
343.230	872
343.317	1462
343.403	586
343.490	1412
343.576	892
343.662	782
343.749	808
343.835	1016
343.921	2668
344.008	10933
344.094	24263
344.180	5611
344.267	1955
344.353	7139
344.439	8301
344.525	3789
344.612	2396
344.698	2680
344.784	664
344.870	1179
344.957	872
345.043	1627
345.129	97
345.215	2344
345.301	961
345.387	1646
345.474	514
345.560	634
345.646	1384
345.732	1530
345.818	764
345.904	997
345.990	793
346.076	149
346.162	2186
346.249	2632
346.335	606
346.421	1464
346.507	2933
346.593	9539
346.679	2719
346.765	963
346.851	292
346.937	399
347.023	1154
347.108	726
347.194	1046
347.280	565
347.366	1048
347.452	3679
347.538	12888
347.624	9706
347.710	7794
347.796	1199
347.882	231
347.967	953
348.053	989
348.139	1277
348.225	205
348.311	308
348.397	691
348.482	1279
348.568	1295
348.654	690
348.740	1877
348.825	1454
348.911	2011
348.997	6580
349.083	10967
349.168	2379
349.254	1180
349.340	1951
349.425	1237
349.511	1770
349.597	1867
349.682	2517
349.768	7353
349.854	4825
349.939	500
350.025	628
350.110	1334
350.196	511
350.282	-10
350.367	1380
350.453	1257
350.538	1425
350.624	854
350.709	1857
350.795	403
350.880	297
350.966	1335
351.051	2544
351.137	1036
351.222	840
351.308	2218
351.393	6884
351.479	1862
351.564	978
351.649	1175
351.735	552
351.820	529
351.906	867
351.991	1357
352.076	3203
352.162	6498
352.247	1446
352.332	1342
352.418	2727
352.503	2742
352.588	10390
352.673	8186
352.759	2247
352.844	358
352.929	855
353.014	1261
353.100	1143
353.185	2464
353.270	3350
353.355	2338
353.441	1402
353.526	391
353.611	2988
353.696	2545
353.781	2238
353.866	241
353.952	1360
354.037	2145
354.122	4973
354.207	4549
354.292	1407
354.377	784
354.462	860
354.547	-477
354.632	1365
354.717	2470
354.802	3309
354.887	866
354.972	431
355.057	935
355.142	223
355.227	447
355.312	2098
355.397	2715
355.482	7026
355.567	3793
355.652	2887
355.737	3495
355.822	8767
355.907	7273
355.991	1702
356.076	-19
356.161	1010
356.246	247
356.331	995
356.416	1736
356.501	13573
356.585	13362
356.670	2660
356.755	2535
356.840	2185
356.924	11072
357.009	31591
357.094	13770
357.179	2773
357.263	1780
357.348	2291
357.433	429
357.517	1542
357.602	1647
357.687	1286
357.771	3156
357.856	6295
357.941	4428
358.025	7665
358.110	30799
358.195	15668
358.279	3444
358.364	2396
358.448	6083
358.533	17270
358.617	12696
358.702	11955
358.787	5106
358.871	2394
358.956	1185
359.040	913
359.125	615
359.209	633
359.294	3534
359.378	5492
359.462	2002
359.547	1431
359.631	1008
359.716	44
359.800	296
359.885	2579
359.969	150
360.053	1466
360.138	493
360.222	1521
360.306	2147
360.391	2432
360.475	2828
360.559	8080
360.644	6334
360.728	3918
360.812	7746
360.896	20151
360.981	10265
361.065	5306
361.149	1361
361.233	2031
361.318	1387
361.402	1687
361.486	1464
361.570	1130
361.654	1185
361.739	2993
361.823	12944
361.907	20712
361.991	4592
362.075	2137
362.159	4855
362.243	5579
362.327	6587
362.411	10479
362.495	4576
362.580	2190
362.664	1790
362.748	1713
362.832	2443
362.916	5966
363.000	17584
363.084	32900
363.168	29173
363.252	7664
363.336	4357
363.420	4499
363.503	14986
363.587	19471
363.671	3498
363.755	1775
363.839	3737
363.923	1463
364.007	3535
364.091	4311
364.175	7068
364.258	29054
364.342	27463
364.426	38237
364.510	20455
364.594	8665
364.677	7193
364.761	17244
364.845	13915
364.929	4825
365.013	3217
365.096	3282
365.180	3649
365.264	5932
365.347	25640
365.431	12298
365.515	3343
365.598	321
365.682	1726
365.766	3143
365.849	4296
365.933	1694
366.017	2775
366.100	2173
366.184	-28
366.267	1399
366.351	499
366.435	460
366.518	250
366.602	1031
366.685	690
366.769	1210
366.852	3323
366.936	4257
367.019	1946
367.103	1763
367.186	4910
367.270	1083
367.353	-353
367.436	1771
367.520	120
367.603	592
367.687	729
367.770	2138
367.853	1810
367.937	5079
368.020	9072
368.104	2116
368.187	2028
368.270	3826
368.353	3541
368.437	2986
368.520	8218
368.603	5056
368.687	5910
368.770	12445
368.853	2790
368.936	3208
369.020	4669
369.103	1469
369.186	498
369.269	989
369.352	1713
369.436	3389
369.519	1774
369.602	134
369.685	1592
369.768	1596
369.851	878
369.934	758
370.018	411
370.101	1644
370.184	3295
370.267	1694
370.350	2734
370.433	4429
370.516	9148
370.599	12319
370.682	3052
370.765	8324
370.848	8340
370.931	14085
371.014	7936
371.097	1130
371.180	1082
371.263	465
371.346	-681
371.429	709
371.511	105
371.594	1264
371.677	3296
371.760	5020
371.843	2513
371.926	11716
372.009	25509
372.091	9959
372.174	5514
372.257	14036
372.340	4994
372.423	5027
372.505	8859
372.588	2064
372.671	5119
372.754	13509
372.836	7614
372.919	7228
373.002	16643
373.085	3225
373.167	2603
373.250	5371
373.332	12956
373.415	17757
373.498	35475
373.580	14745
373.663	17259
373.746	22902
373.828	5971
373.911	2598
373.993	2472
374.076	14187
374.159	14291
374.241	5273
374.324	12597
374.406	8772
374.489	9720
374.571	29242
374.654	11898
374.736	5739
374.819	17394
374.901	26225
374.983	25999
375.066	5430
375.148	1659
375.231	11944
375.313	22724
375.395	9703
375.478	1738
375.560	1831
375.643	1502
375.725	6019
375.807	21958
375.890	19234
375.972	7311
376.054	4423
376.136	6062
376.219	2579
376.301	6211
376.383	19037
376.465	7704
376.548	3869
376.630	5132
376.712	16847
376.794	7760
376.877	710
376.959	-280
377.041	1311
377.123	3808
377.205	4726
377.287	108
377.369	1413
377.452	433
377.534	183
377.616	127
377.698	546
377.780	260
377.862	157
377.944	728
378.026	242
378.108	570
378.190	623
378.272	1133
378.354	306
378.436	-109
378.518	593
378.600	7109
378.682	5754
378.764	8287
378.846	7419
378.928	2044
379.010	2278
379.091	1657
379.173	883
379.255	11
379.337	565
379.419	3890
379.501	11827
379.583	4621
379.664	888
379.746	2700
379.828	9490
379.910	11019
379.991	10333
380.073	847
380.155	1282
380.237	540
380.318	764
380.400	199
380.482	1395
380.564	3046
380.645	3378
380.727	2994
380.809	2041
380.890	988
380.972	433
381.053	43
381.135	986
381.217	2633
381.298	9346
381.380	4318
381.461	3444
381.543	15435
381.624	20811
381.706	4931
381.787	2697
381.869	3095
381.951	6417
382.032	25971
382.113	18785
382.195	3371
382.276	3179
382.358	5682
382.439	13835
382.521	16805
382.602	26543
382.684	11162
382.765	19793
382.846	19772
382.928	20896
383.009	11642
383.090	8365
383.172	27068
383.253	45909
383.334	19239
383.416	23247
383.497	11465
383.578	4970
383.659	7818
383.741	24580
383.822	65268
383.903	36038
383.984	14674
384.066	28600
384.147	17793
384.228	5082
384.309	3012
384.390	2115
384.471	1533
384.553	2032
384.634	2267
384.715	3572
384.796	1039
384.877	2029
384.958	7942
385.039	10613
385.120	3534
385.201	2255
385.282	2452
385.363	3319
385.444	1807
385.525	2869
385.606	11988
385.687	9478
385.768	3026
385.849	4360
385.930	13435
386.011	22626
386.092	6690
386.173	3614
386.254	1771
386.335	2464
386.416	2208
386.496	6207
386.577	9799
386.658	4538
386.739	2826
386.820	3162
386.901	2679
386.981	2731
387.062	1259
387.143	2977
387.224	8178
387.304	10555
387.385	4245
387.466	2447
387.547	3261
387.627	1900
387.708	4579
387.789	14966
387.869	18754
387.950	6143
388.031	1561
388.111	688
388.192	5712
388.273	8360
388.353	5091
388.434	1480
388.514	3237
388.595	12983
388.676	17599
388.756	9621
388.837	8275
388.917	5398
388.998	443
389.078	972
389.159	1086
389.239	-309
389.320	1644
389.400	531
389.480	3620
389.561	8987
389.641	5162
389.722	1498
389.802	2257
389.883	4434
389.963	10453
390.043	7231
390.124	2193
390.204	3122
390.284	9719
390.365	6562
390.445	9543
390.525	16516
390.605	12262
390.686	5089
390.766	2856
390.846	961
390.927	554
391.007	-228
391.087	1654
391.167	1015
391.247	611
391.328	1927
391.408	3655
391.488	3646
391.568	-618
391.648	1146
391.728	2853
391.808	2066
391.888	1135
391.969	4891
392.049	7552
392.129	5027
392.209	4293
392.289	11347
392.369	7552
392.449	8362
392.529	4876
392.609	3693
392.689	4347
392.769	10036
392.849	9889
392.929	9071
393.009	18713
393.089	14871
393.169	15134
393.248	43953
393.328	137793
393.408	149111
393.488	53129
393.568	16588
393.648	8231
393.728	4970
393.807	2976
393.887	4872
393.967	2634
394.047	3069
394.127	3153
394.206	6055
394.286	19249
394.366	74037
394.446	82095
394.525	25320
394.605	7362
394.685	5394
394.764	11515
394.844	18870
394.924	13723
395.003	3744
395.083	1606
395.163	2395
395.242	1976
395.322	1893
395.402	388
395.481	3165
395.561	5802
395.640	20089
395.720	18832
395.799	21873
395.879	16485
395.958	9283
396.038	29478
396.117	93772
396.197	106668
396.276	42921
396.356	15503
396.435	11205
396.515	8719
396.594	6442
396.673	14003
396.753	45095
396.832	127058
396.912	102528
396.991	28752
397.070	9779
397.150	3897
397.229	4225
397.308	4937
397.388	12483
397.467	6685
397.546	2719
397.625	-404
397.705	3173
397.784	887
397.863	1087
397.942	475
398.022	507
398.101	5153
398.180	18117
398.259	9498
398.338	3109
398.417	510
398.497	316
398.576	676
398.655	147
398.734	457
398.813	1671
398.892	4801
398.971	18453
399.050	8636
399.129	-86
399.208	766
399.287	842
399.366	111
399.445	98
399.524	578
399.603	-1591
399.682	1464
399.761	3668
399.840	18498
399.919	15824
399.998	1647
400.077	332
400.156	-805
400.235	1862
400.313	69
400.392	-419
400.471	4209
400.550	8745
400.629	1048
400.708	886
400.786	643
400.865	3977
400.944	4105
401.023	3088
401.102	-321
401.180	-216
401.259	374
401.338	278
401.416	948
401.495	148
401.574	297
401.652	-224
401.731	473
401.810	648
401.888	-615
401.967	-343
402.046	473
402.124	730
402.203	139
402.281	738
402.360	1187
402.438	5873
402.517	3430
402.596	1085
402.674	85
402.753	-75
402.831	-66
402.910	741
402.988	3372
403.066	13363
403.145	8592
403.223	4228
403.302	12249
403.380	9998
403.459	9963
403.537	3711
403.615	1471
403.694	-920
403.772	-177
403.850	-161
403.929	-450
404.007	85
404.085	2477
404.164	1636
404.242	364
404.320	2516
404.398	8834
404.477	10233
404.555	21875
404.633	19918
404.711	8361
404.789	4743
404.868	977
404.946	68
405.024	-210
405.102	-16
405.180	-905
405.258	-1414
405.336	85
405.415	-1005
405.493	2088
405.571	1932
405.649	-174
405.727	-460
405.805	850
405.883	712
405.961	399
406.039	727
406.117	-986
406.195	-29
406.273	2317
406.351	17652
406.429	11590
406.507	1926
406.585	-487
406.663	3
406.740	687
406.818	-191
406.896	-811
406.974	452
407.052	-899
407.130	9618
407.208	14460
407.285	2753
407.363	-235
407.441	-590
407.519	-384
407.596	494
407.674	2083
407.752	13081
407.830	13680
407.907	4418
407.985	390
408.063	486
408.141	93
408.218	1621
408.296	793
408.373	353
408.451	-107
408.529	96
408.606	-1138
408.684	-771
408.762	-658
408.839	-1125
408.917	-512
408.994	-228
409.072	-505
409.149	-812
409.227	377
409.304	1139
409.382	1063
409.459	1697
409.537	2596
409.614	1811
409.692	1251
409.769	488
409.846	2029
409.924	4137
410.001	921
410.079	1048
410.156	1886
410.233	1713
410.311	451
410.388	-106
410.465	-78
410.543	-413
410.620	-223
410.697	-524
410.775	-32
410.852	-1304
410.929	377
411.006	1182
411.083	-255
411.161	1178
411.238	1863
411.315	940
411.392	-1170
411.469	-482
411.547	776
411.624	-1122
411.701	-355
411.778	279
411.855	509
411.932	-276
412.009	-679
412.086	108
412.163	105
412.240	-128
412.317	381
412.394	-50
412.471	377
412.548	-1135
412.625	-1605
412.702	994
412.779	1063
412.856	2115
412.933	-677
413.010	-197
413.087	-386
413.164	2207
413.241	6310
413.318	-162
413.395	933
413.471	145
413.548	-321
413.625	-327
413.702	-1182
413.779	-395
413.855	-1003
413.932	-1125
414.009	-1107
414.086	-615
414.162	-605
414.239	480
414.316	3293
414.393	9585
414.469	2854
414.546	-644
414.623	-997
414.699	-1262
414.776	-1497
414.853	-1068
414.929	-361
415.006	-830
415.082	-622
415.159	-113
415.236	-523
415.312	-1012
415.389	-287
415.465	86
415.542	-196
415.618	-1595
415.695	80
415.771	-892
415.848	-1044
415.924	-63
416.000	-626
416.077	-506
416.153	-2212
416.230	-1543
416.306	-1670
416.383	-1282
416.459	-587
416.535	-1359
416.612	-1255
416.688	-709
416.764	-790
416.841	-2428
416.917	-1125
416.993	-904
417.069	108
417.146	-1587
417.222	-556
417.298	-466
417.374	-1094
417.451	-74
417.527	-995
417.603	-1219
417.679	-966
417.755	-374
417.831	-1609
417.908	-505
417.984	-1524
418.060	-1816
418.136	-420
418.212	35
418.288	-1011
418.364	768
418.440	-1523
418.516	-417
418.592	678
418.668	1466
418.744	1052
418.820	2080
418.896	-532
418.972	-1220
419.048	-1677
419.124	1202
419.200	-563
419.276	-613
419.352	-1948
419.428	-341
419.504	-1020
419.579	-1093
419.655	-1146
419.731	-723
419.807	-335
419.883	1815
419.959	1227
420.034	-582
420.110	-530
420.186	5150
420.262	4248
420.337	-159
420.413	-177
420.489	-146
420.565	330
420.640	-720
420.716	39
420.792	-1490
420.867	641
420.943	-1236
421.019	-14
421.094	-1108
421.170	47
421.245	-309
421.321	1039
421.397	-543
421.472	2048
421.548	7309
421.623	5276
421.699	1969
421.774	877
421.850	225
421.925	1900
422.001	2113
422.076	1813
422.152	3298
422.227	4919
422.302	8193
422.378	12429
422.453	21434
422.529	44023
422.604	84515
422.679	97014
422.755	85911
422.830	53467
422.905	26845
422.981	14807
423.056	9232
423.131	7069
423.207	4380
423.282	3207
423.357	3319
423.432	2598
423.508	2425
423.583	2961
423.658	3548
423.733	948
423.808	800
423.883	972
423.959	1354
424.034	985
424.109	959
424.184	-706
424.259	-342
424.334	-434
424.409	-844
424.484	-238
424.559	-267
424.634	-1108
424.709	-701
424.784	-60
424.859	-1133
424.934	553
425.009	2934
425.084	6640
425.159	1500
425.234	50
425.309	-1006
425.384	397
425.459	1469
425.534	398
425.609	-1152
425.683	-675
425.758	-441
425.833	-744
425.908	565
425.983	825
426.058	6170
426.132	2504
426.207	-379
426.282	1456
426.357	155
426.431	-251
426.506	-279
426.581	-1218
426.655	-424
426.730	-805
426.805	-1355
426.879	-550
426.954	-1352
427.029	-351
427.103	4745
427.178	14860
427.253	6939
427.327	258
427.402	-845
427.476	3104
427.551	1540
427.625	-232
427.700	-402
427.774	-841
427.849	-38
427.923	-1100
427.998	-665
428.072	-1210
428.147	1967
428.221	7465
428.296	28603
428.370	15682
428.444	869
428.519	966
428.593	3215
428.667	3438
428.742	4913
428.816	3786
428.890	17804
428.965	30875
429.039	9945
429.113	4269
429.188	1566
429.262	-825
429.336	40
429.410	2175
429.485	1108
429.559	2912
429.633	2898
429.707	-286
429.781	2213
429.855	17998
429.930	31643
430.004	14265
430.078	20146
430.152	20493
430.226	35903
430.300	38381
430.374	7349
430.448	1095
430.522	4728
430.596	17904
430.670	12317
430.744	24523
430.818	35361
430.892	6502
430.966	275
431.040	-371
431.114	-1415
431.188	-1662
431.262	-961
431.336	-874
431.410	1195
431.484	4064
431.557	2773
431.631	-570
431.705	-566
431.779	3212
431.853	23786
431.927	19505
432.000	1986
432.074	-1002
432.148	-269
432.222	61
432.295	-1072
432.369	-1393
432.443	-309
432.516	4983
432.590	14814
432.664	6642
432.737	-371
432.811	-1483
432.885	-1208
432.958	-701
433.032	-1243
433.106	-911
433.179	-1457
433.253	-1025
433.326	-1458
433.400	-1477
433.473	-1354
433.547	-2265
433.620	-896
433.694	-1130
433.767	-380
433.841	-1391
433.914	-1948
433.988	-906
434.061	-896
434.134	-1447
434.208	-965
434.281	-1963
434.355	-1086
434.428	-911
434.501	-1732
434.575	-1224
434.648	-644
434.721	-1789
434.795	-1038
434.868	-1612
434.941	-1913
435.014	-1524
435.088	-1085
435.161	-691
435.234	-595
435.307	-838
435.381	-337
435.454	-863
435.527	436
435.600	-850
435.673	501
435.746	-611
435.819	-971
435.892	-611
435.966	-441
436.039	-2042
436.112	-331
436.185	-2204
436.258	-1171
436.331	-1567
436.404	-1098
436.477	-1490
436.550	-1596
436.623	-748
436.696	-1497
436.769	-1212
436.842	-617
436.915	-1269
436.987	-1032
437.060	-1034
437.133	-1204
437.206	-1747
437.279	-1232
437.352	-2031
437.425	-1183
437.498	-1030
437.570	224
437.643	-403
437.716	-1278
437.789	-1887
437.861	-565
437.934	2162
438.007	318
438.080	-1503
438.152	-1499
438.225	-60
438.298	6255
438.370	21560
438.443	8979
438.516	1378
438.588	-1214
438.661	-1611
438.734	-1579
438.806	-1491
438.879	-940
438.951	-541
439.024	140
439.096	-1642
439.169	-461
439.241	-1706
439.314	-974
439.386	-1077
439.459	74
439.531	-8
439.604	-483
439.676	-554
439.749	-1491
439.821	-848
439.893	-1142
439.966	-1695
440.038	-1035
440.110	-1063
440.183	-1350
440.255	-1842
440.327	-341
440.400	1609
440.472	12949
440.544	9722
440.617	-191
440.689	256
440.761	66
440.833	926
440.905	300
440.978	-1406
441.050	-2112
441.122	-622
441.194	-1442
441.266	-1236
441.338	-1033
441.411	-1
441.483	2842
441.555	6490
441.627	615
441.699	-851
441.771	-167
441.843	-1693
441.915	-1446
441.987	-1187
442.059	-579
442.131	-375
442.203	-476
442.275	-903
442.347	1124
442.419	1127
442.491	13770
442.563	39430
442.635	20792
442.706	6446
442.778	4950
442.850	32
442.922	-595
442.994	459
443.066	504
443.137	-295
443.209	-14
443.281	915
443.353	3203
443.425	16848
443.496	60291
443.568	69502
443.640	29634
443.711	5327
443.783	695
443.855	-44
443.926	-439
443.998	-909
444.070	383
444.141	-700
444.213	-7
444.285	-440
444.356	-1162
444.428	-84
444.499	-107
444.571	-847
444.642	-404
444.714	-1618
444.785	-891
444.857	577
444.928	3734
445.000	1958
445.071	1954
445.143	2999
445.214	1256
445.285	4028
445.357	12267
445.428	38252
445.500	86646
445.571	67652
445.642	40045
445.714	14787
445.785	8962
445.856	1805
445.928	680
445.999	107
446.070	147
446.141	887
446.213	832
446.284	-281
446.355	-240
446.426	-127
446.497	-390
446.569	-183
446.640	79
446.711	295
446.782	-432
446.853	-508
446.924	-734
446.995	-1598
447.066	-794
447.138	299
447.209	-657
447.280	-1309
447.351	-1320
447.422	-1244
447.493	3
447.564	-721
447.635	-776
447.706	-1223
447.777	-1569
447.847	-1562
447.918	-1361
447.989	-747
448.060	-333
448.131	1051
448.202	1678
448.273	-297
448.344	-697
448.414	-1033
448.485	-1819
448.556	-1170
448.627	-1250
448.698	-145
448.768	-1629
448.839	-1229
448.910	33
448.981	29
449.051	-246
449.122	-1621
449.193	-1080
449.263	-754
449.334	-1260
449.405	-648
449.475	-606
449.546	-228
449.616	651
449.687	458
449.758	-845
449.828	-920
449.899	-1222
449.969	-1217
450.040	-1402
450.110	-841
450.181	-1003
450.251	-1948
450.322	-435
450.392	-855
450.463	-962
450.533	-1712
450.604	-1259
450.674	-1452
450.744	-561
450.815	-1200
450.885	-855
450.955	-1186
451.026	-704
451.096	-1454
451.166	-1215
451.237	212
451.307	3831
451.377	997
451.447	-642
451.518	-576
451.588	-1100
451.658	-839
451.728	396
451.799	3656
451.869	5034
451.939	6
452.009	-910
452.079	-589
452.149	-464
452.219	-214
452.289	4903
452.360	3369
452.430	-563
452.500	-1041
452.570	-412
452.640	609
452.710	4455
452.780	7296
452.850	4569
452.920	1926
452.990	118
453.060	99
453.129	-449
453.199	137
453.269	3992
453.339	11594
453.409	19233
453.479	18240
453.549	28286
453.619	31579
453.688	13162
453.758	1356
453.828	120
453.898	-1099
453.968	-419
454.037	-790
454.087	-1202
454.107	-1383
454.168	-1504
454.177	-1536
454.247	-543
454.249	-565
454.316	-1434
454.330	-1160
454.386	-103
454.411	733
454.456	1932
454.492	2511
454.525	3004
454.574	668
454.595	-332
454.655	-865
454.665	-952
454.734	-310
454.736	-268
454.804	408
454.817	1177
454.873	3964
454.898	4438
454.943	5046
454.979	2623
455.013	507
455.060	20
455.082	-55
455.141	132
455.152	119
455.221	3286
455.222	3393
455.291	8259
455.303	7868
455.360	5775
455.384	8313
455.430	12154
455.465	9902
455.499	7859
455.546	5699
455.569	4496
455.627	2560
455.638	2275
455.707	-438
455.708	-426
455.777	-493
455.789	-582
455.846	-885
455.869	-571
455.916	-1
455.950	-330
455.985	-729
456.031	-307
456.054	-154
456.112	-513
456.124	-560
456.193	-768
456.193	-780
456.262	-302
456.274	-160
456.332	337
456.355	258
456.401	13
456.436	-302
456.470	-579
456.516	-340
456.540	-260
456.597	-775
456.609	-883
456.678	-532
456.678	-541
456.747	-637
456.759	-696
456.817	-752
456.840	-901
456.886	-1243
456.920	-871
456.955	-545
457.001	-406
457.024	-331
457.082	-142
457.093	-86
457.162	47
457.163	62
457.232	315
457.243	292
457.301	317
457.324	-20
457.370	-717
457.405	-107
457.439	417
457.485	120
457.508	36
457.566	44
457.577	66
457.646	134
457.647	151
457.715	1472
457.727	1710
457.784	3733
457.808	5384
457.853	7484
457.889	9216
457.922	9327
457.969	6106
457.991	6002
458.050	6849
458.060	7099
458.129	12700
458.130	12882
458.198	14227
458.211	13269
458.267	7936
458.292	5082
458.336	2539
458.372	1895
458.405	2416
458.453	4251
458.474	5745
458.533	11235
458.543	11908
458.611	22249
458.614	22498
458.680	16233
458.694	13217
458.749	6334
458.775	4293
458.818	1951
458.855	1135
458.887	815
458.936	494
458.955	318
459.016	795
459.024	892
459.093	1390
459.097	1393
459.162	645
459.177	657
459.230	1007
459.257	986
459.299	1018
459.338	1267
459.368	1477
459.418	1750
459.437	1630
459.499	742
459.505	669
459.574	377
459.579	383
459.643	608
459.659	606
459.711	863
459.740	1108
459.780	1050
459.820	890
459.849	1116
459.900	1306
459.917	1194
459.981	1615
459.986	1634
460.054	1209
460.061	1191
460.123	1101
460.141	1043
460.191	1246
460.222	1455
460.260	1482
460.302	1485
460.328	1552
460.382	1868
460.397	1908
460.462	2068
460.465	2123
460.534	3161
460.543	3376
460.602	10788
460.623	13475
460.671	22684
460.703	31526
460.739	30697
460.783	27519
460.808	23517
460.864	6403
460.876	5042
460.944	2147
460.945	2116
461.013	1451
461.024	1416
461.081	1410
461.104	1532
461.150	1679
461.184	1421
461.218	1253
461.264	1500
461.286	1634
461.345	1594
461.355	1581
461.423	1517
461.425	1519
461.491	1426
461.505	1465
461.559	2834
461.585	3384
461.628	5835
461.665	8403
461.696	9600
461.745	12305
461.764	10825
461.825	3844
461.832	3738
461.901	2059
461.905	2040
461.969	1457
461.985	1311
462.037	2107
462.065	2582
462.105	2557
462.145	2330
462.173	2999
462.225	4496
462.241	5039
462.305	7461
462.310	7253
462.378	4688
462.385	4151
462.446	2143
462.465	1795
462.514	1649
462.545	1693
462.582	1829
462.625	2014
462.650	1999
462.705	1670
462.718	1725
462.785	2268
462.786	2277
462.854	2311
462.865	2451
462.922	4142
462.945	4724
462.990	3469
463.025	2256
463.058	2198
463.104	2104
463.126	1804
463.184	1255
463.194	1369
463.262	1982
463.264	2014
463.330	1686
463.344	1563
463.398	2494
463.424	2880
463.466	2192
463.504	1687
463.533	2263
463.583	3190
463.601	3020
463.663	2439
463.669	2513
463.737	3346
463.743	3401
463.805	5047
463.823	5566
463.873	8620
463.903	10681
463.940	11867
463.982	13264
464.008	11017
464.062	5401
464.076	4924
464.142	2265
464.144	2257
464.211	2477
464.221	2538
464.279	2456
464.301	2360
464.347	2922
464.381	3459
464.414	3685
464.461	3877
464.482	4022
464.540	4411
464.550	4164
464.617	2118
464.620	2053
464.685	3519
464.699	3786
464.753	3439
464.779	3425
464.820	4171
464.859	4778
464.888	4736
464.938	4456
464.956	4621
465.018	5323
465.023	5244
465.091	3912
465.098	3780
465.158	3818
465.177	3887
465.226	4137
465.257	4090
465.293	3925
465.336	3975
465.361	4151
465.416	4238
465.428	4617
465.495	7010
465.496	7050
465.563	11321
465.575	12101
465.631	15985
465.654	17709
465.698	11401
465.734	5761
465.765	4826
465.813	3356
465.833	3355
465.893	3696
465.900	3733
465.968	3972
465.972	3979
466.035	3406
466.052	3242
466.102	3350
466.131	3443
466.170	3614
466.210	3711
466.237	4020
466.290	4646
466.304	4645
466.369	4632
466.372	4642
466.439	4590
466.449	4581
466.506	5157
466.528	5373
466.573	7419
466.607	8911
466.641	12089
466.687	16519
466.708	18752
466.766	24915
466.775	23029
466.842	8427
466.845	7717
466.909	5865
466.925	5445
466.977	5124
467.004	4955
467.044	5394
467.083	5841
467.111	6217
467.163	6870
467.178	7070
467.242	7853
467.245	7797
467.312	6358
467.321	6158
467.379	6616
467.400	6765
467.446	7785
467.480	8501
467.559	6287
467.638	4988
467.717	5702
467.796	5944
467.875	6258
467.955	6902
468.034	9047
468.113	20228
468.192	30941
468.271	10303
468.350	6480
468.429	6603
468.508	8079
468.588	6095
468.667	5775
468.746	6277
468.825	5679
468.904	5215
468.983	5931
469.062	8180
469.141	11017
469.220	5844
469.299	5925
469.378	5348
469.456	6419
469.535	5267
469.614	5466
469.693	6000
469.772	7757
469.851	9802
469.930	7691
470.009	5766
470.088	4686
470.166	5166
470.245	5190
470.324	5445
470.403	5320
470.482	3704
470.560	5108
470.639	4686
470.718	6092
470.797	4527
470.875	5388
470.954	6495
471.033	9635
471.111	4459
471.190	4563
471.269	3412
471.347	3968
471.426	4917
471.505	5388
471.583	5524
471.662	5479
471.740	4051
471.819	4622
471.898	4707
471.976	4218
472.055	4639
472.133	5124
472.212	7750
472.290	7837
472.369	4812
472.447	4626
472.526	3945
472.604	4560
472.683	4393
472.761	4668
472.839	3821
472.918	4714
472.996	3831
473.075	5969
473.153	5056
473.231	5328
473.310	4330
473.388	4702
473.466	3885
473.545	5474
473.623	5946
473.701	5667
473.780	4751
473.858	4831
473.936	6104
474.014	4340
474.093	5040
474.171	6760
474.249	9960
474.327	6948
474.405	4393
474.484	5067
474.562	4095
474.640	4491
474.718	3995
474.796	4976
474.874	3654
474.952	3873
475.030	3897
475.108	4682
475.187	5003
475.265	4764
475.343	7126
475.421	8466
475.499	4415
475.577	4463
475.655	5535
475.733	10959
475.811	18031
475.889	16702
475.966	13320
476.044	4734
476.122	5569
476.200	6167
476.278	4863
476.356	4268
476.434	5102
476.512	5269
476.590	6981
476.667	6896
476.745	3679
476.823	4942
476.901	4770
476.979	5123
477.056	4718
477.134	4695
477.212	4403
477.290	5359
477.367	3991
477.445	4352
477.523	4324
477.601	4377
477.678	4073
477.756	5249
477.834	5765
477.911	4431
477.989	4497
478.066	4615
478.144	4807
478.222	5024
478.299	6559
478.377	7666
478.454	3816
478.532	3969
478.609	3760
478.687	4550
478.764	2898
478.842	3459
478.919	4596
478.997	4791
479.074	3312
479.152	4539
479.229	5473
479.307	4892
479.384	3531
479.461	4283
479.539	3860
479.616	5132
479.694	4232
479.771	4724
479.848	4656
479.926	5341
480.003	7304
480.080	4613
480.157	3390
480.235	3718
480.312	3790
480.389	4770
480.467	5917
480.544	8347
480.621	4566
480.698	3923
480.775	4163
480.853	5387
480.930	4192
481.007	4462
481.084	5076
481.161	7010
481.238	7180
481.315	3983
481.392	4045
481.470	4178
481.547	4164
481.624	4483
481.701	4124
481.778	3911
481.855	4519
481.932	6772
482.009	11365
482.086	7578
482.163	4487
482.240	5973
482.317	9094
482.393	8118
482.470	3946
482.547	4901
482.624	4071
482.701	3797
482.778	3807
482.855	3296
482.932	4068
483.009	2683
483.085	4215
483.162	6026
483.239	6111
483.316	3460
483.393	3572
483.469	4097
483.546	4882
483.623	5634
483.699	4324
483.776	3745
483.853	5205
483.930	6158
484.006	14644
484.083	28109
484.160	15161
484.236	17409
484.313	14753
484.389	9529
484.466	9510
484.543	9591
484.619	9507
484.696	9652
484.772	9327
484.849	12282
484.925	8156
485.002	7987
485.078	9482
485.155	9008
485.231	9012
485.308	8508
485.384	7979
485.461	10149
485.537	14569
485.614	19728
485.690	8535
485.766	7494
485.843	7935
485.919	9693
485.995	10184
486.072	7910
486.148	6985
486.224	6884
486.301	7550
486.377	9900
486.453	7390
486.530	8139
486.606	10562
486.682	11506
486.758	12394
486.835	17098
486.911	12399
486.987	18856
487.063	17959
487.139	16993
487.215	15021
487.292	10469
487.368	8484
487.444	9293
487.520	11977
487.596	12706
487.672	17980
487.748	44167
487.824	74750
487.900	33200
487.976	11724
488.052	9761
488.128	11270
488.204	8625
488.280	8002
488.356	10602
488.432	17701
488.508	28196
488.584	11431
488.660	7506
488.736	6971
488.812	6398
488.888	8777
488.964	9554
489.039	13567
489.115	21216
489.191	15458
489.267	8560
489.343	7759
489.418	6342
489.494	5024
489.570	5604
489.646	6299
489.722	7509
489.797	6384
489.873	9693
489.949	19911
490.024	20872
490.100	5694
490.176	7100
490.251	6407
490.327	7087
490.403	5487
490.478	5769
490.554	3897
490.629	5161
490.705	4843
490.781	5829
490.856	4706
490.932	6045
491.007	5745
491.083	6530
491.158	5528
491.234	7043
491.309	14877
491.385	18119
491.460	5648
491.536	5610
491.611	5660
491.686	5612
491.762	6257
491.837	9807
491.913	15355
491.988	20741
492.063	25273
492.139	12346
492.214	8876
492.289	5062
492.365	4390
492.440	5256
492.515	5567
492.590	6368
492.666	4462
492.741	5098
492.816	7459
492.891	6370
492.967	4305
493.042	3705
493.117	4035
493.192	5643
493.267	7815
493.342	25162
493.418	40031
493.493	9241
493.568	3813
493.643	5004
493.718	5348
493.793	7901
493.868	6951
493.943	5295
494.018	4402
494.093	3858
494.168	4271
494.243	3506
494.318	4058
494.393	4661
494.468	3637
494.543	3656
494.618	3191
494.693	3590
494.768	3657
494.842	3444
494.917	3504
494.992	3281
495.067	3654
495.142	3534
495.217	3509
495.292	3899
495.366	4075
495.441	5338
495.516	6317
495.591	7061
495.665	15305
495.740	37547
495.815	21738
495.890	5704
495.964	4004
496.039	6872
496.114	5245
496.188	7452
496.263	6522
496.338	5285
496.412	6579
496.487	6605
496.561	6114
496.636	5896
496.710	5304
496.785	5930
496.860	7300
496.934	5571
497.009	5363
497.083	4817
497.158	5340
497.232	6548
497.307	7553
497.381	6620
497.455	7089
497.530	10533
497.604	7787
497.679	6728
497.753	11689
497.827	15436
497.902	12062
497.976	14614
498.050	27119
498.125	109229
498.199	135793
498.273	23167
498.348	12167
498.422	10652
498.496	9270
498.570	9505
498.645	7255
498.719	7787
498.793	9351
498.867	12861
498.941	16956
499.016	40856
499.090	128941
499.164	62754
499.238	7149
499.312	6597
499.386	6540
499.460	6071
499.534	6458
499.609	6801
499.683	11471
499.757	12193
499.831	18133
499.905	79248
499.979	96106
500.053	15749
500.127	13225
500.201	7858
500.275	5611
500.349	6451
500.422	6616
500.496	9144
500.570	14281
500.644	40657
500.718	96094
500.792	30760
500.866	6557
500.940	8752
501.013	8010
501.087	6738
501.161	9491
501.235	12759
501.309	28104
501.382	81349
501.456	87640
501.530	17607
501.603	28855
501.677	14898
501.751	4817
501.825	6966
501.898	10130
501.972	33518
502.046	27242
502.119	6569
502.193	13230
502.266	37229
502.340	23690
502.413	16537
502.487	33836
502.561	21262
502.634	7248
502.708	4399
502.781	3325
502.855	4147
502.928	3324
503.002	4764
503.075	3011
503.149	4435
503.222	4318
503.295	4914
503.369	6818
503.442	7327
503.516	20864
503.589	64361
503.662	49532
503.736	14679
503.809	30296
503.882	28747
503.956	34801
504.029	41677
504.102	26035
504.175	39688
504.249	17167
504.322	9335
504.395	7289
504.468	5493
504.542	4335
504.615	3759
504.688	2964
504.761	2201
504.834	4498
504.907	4423
504.980	5435
505.053	4133
505.127	3166
505.200	6943
505.273	5349
505.346	4623
505.419	2607
505.492	3495
505.565	1870
505.638	3751
505.711	2586
505.784	2831
505.857	2374
505.930	4058
506.003	2027
506.076	4968
506.149	4008
506.221	6030
506.294	6239
506.367	10864
506.440	45089
506.513	32591
506.586	6088
506.659	3777
506.731	2667
506.804	3128
506.877	3436
506.950	5269
507.022	3164
507.095	2244
507.168	5449
507.241	3366
507.313	1743
507.386	1635
507.459	4335
507.531	2728
507.604	1154
507.677	3574
507.749	1760
507.822	3723
507.894	4943
507.967	7988
508.040	4153
508.112	4100
508.185	4326
508.257	3202
508.330	5246
508.402	3646
508.475	3953
508.547	4946
508.620	4086
508.692	6964
508.765	4362
508.837	2330
508.909	2651
508.982	3312
509.054	3217
509.127	3513
509.199	2839
509.271	2711
509.344	1764
509.416	2585
509.488	2959
509.560	2828
509.633	2198
509.705	3613
509.777	3066
509.849	5395
509.922	2204
509.994	3464
510.066	3739
510.138	2860
510.210	6924
510.283	5851
510.355	4994
510.427	5146
510.499	3939
510.571	4748
510.643	3203
510.715	5280
510.787	3147
510.859	5228
510.931	4955
511.003	5600
511.076	5462
511.148	3748
511.219	2247
511.291	7302
511.363	8438
511.435	5081
511.507	2225
511.579	3768
511.651	3560
511.723	3120
511.795	2988
511.867	2850
511.939	4138
512.010	8542
512.082	7442
512.154	3390
512.226	3161
512.298	5445
512.369	7245
512.441	6451
512.513	5237
512.585	3793
512.656	4748
512.728	4389
512.800	3283
512.871	4312
512.943	3722
513.015	3200
513.086	3941
513.158	4068
513.230	3137
513.301	4137
513.373	5406
513.444	3702
513.516	3062
513.588	4042
513.659	3376
513.731	3614
513.802	2727
513.874	6789
513.945	8419
514.016	4264
514.088	4442
514.159	2872
514.231	4457
514.302	5794
514.374	4720
514.445	4776
514.516	11339
514.588	9391
514.659	4521
514.730	8406
514.802	8123
514.873	4626
514.944	5656
515.016	5605
515.087	3993
515.158	6386
515.229	10554
515.301	5030
515.372	6221
515.443	4013
515.514	3535
515.585	2857
515.656	3785
515.728	4137
515.799	2759
515.870	3916
515.941	3674
516.012	3427
516.083	4507
516.154	4173
516.225	5553
516.296	5541
516.367	3810
516.438	3573
516.509	5470
516.580	6968
516.651	14333
516.722	47906
516.793	33651
516.864	8711
516.935	7901
517.006	9247
517.077	9941
517.148	18266
517.219	44068
517.289	86042
517.360	54704
517.431	26493
517.502	5921
517.573	6224
517.643	4853
517.714	6303
517.785	5978
517.856	5246
517.926	6927
517.997	7974
518.068	6745
518.138	10388
518.209	10898
518.280	27720
518.350	114669
518.421	62418
518.492	11001
518.562	7648
518.633	8572
518.703	8481
518.774	18047
518.845	40767
518.915	49548
518.986	18303
519.056	10361
519.127	11180
519.197	16580
519.268	45084
519.338	42864
519.408	8199
519.479	7104
519.549	6438
519.620	5813
519.690	4623
519.760	4364
519.831	3945
519.901	5469
519.971	4742
520.042	4323
520.112	4871
520.182	5438
520.253	5910
520.323	4753
520.393	5131
520.463	8193
520.534	4030
520.604	12270
520.674	7756
520.744	5245
520.814	10233
520.885	11746
520.955	13463
521.025	57856
521.095	32114
521.165	5686
521.235	3927
521.305	2884
521.375	3696
521.445	5084
521.515	3158
521.585	4540
521.655	3802
521.725	4674
521.795	5027
521.865	1894
521.935	6533
522.005	5701
522.075	3281
522.145	4163
522.215	4369
522.285	6295
522.355	7987
522.424	14346
522.494	15108
522.564	6207
522.634	6886
522.704	19313
522.774	10277
522.843	4628
522.913	3270
522.983	3061
523.053	3074
523.122	3080
523.192	3252
523.262	8238
523.331	10739
523.401	4238
523.471	2663
523.540	3248
523.610	1951
523.680	3196
523.749	3280
523.819	3766
523.888	4490
523.958	2753
524.027	3131
524.097	3234
524.166	3316
524.236	1955
524.305	4864
524.375	2044
524.444	2371
524.514	4508
524.583	4070
524.653	3338
524.722	5513
524.791	3270
524.861	3971
524.930	2644
524.999	3129
525.069	4409
525.138	4847
525.207	5255
525.277	4028
525.346	3163
525.415	4064
525.484	3537
525.554	4453
525.623	4844
525.692	6479
525.761	4856
525.830	6384
525.900	6516
525.969	10100
526.038	16642
526.107	27028
526.176	88789
526.245	89759
526.314	27612
526.383	43131
526.452	68203
526.522	93629
526.591	122418
526.660	27717
526.729	14636
526.797	15443
526.867	20796
526.935	74269
527.004	189169
527.073	150156
527.142	17842
527.211	7566
527.280	5755
527.349	5176
527.418	3197
527.487	4392
527.555	2472
527.624	3186
527.693	1771
527.762	3705
527.831	2864
527.899	3508
527.968	2802
528.037	1763
528.106	3501
528.174	4088
528.243	5505
528.312	4663
528.380	6535
528.449	3055
528.518	3906
528.586	1406
528.655	2437
528.723	2659
528.792	1759
528.861	2464
528.929	1555
528.998	3687
529.066	2570
529.135	4621
529.203	3185
529.272	2853
529.340	6272
529.409	5911
529.477	4031
529.545	5037
529.614	6933
529.682	6094
529.751	8190
529.819	8786
529.887	7803
529.956	6296
530.024	7095
530.092	5041
530.161	7054
530.229	6929
530.297	6317
530.365	7305
530.434	7034
530.502	6702
530.570	6646
530.638	4968
530.707	6116
530.775	6409
530.843	5155
530.911	6176
530.979	6052
531.047	6631
531.115	6618
531.183	5833
531.252	5551
531.320	5985
531.388	4743
531.456	5638
531.524	5255
531.592	7254
531.660	8874
531.728	6678
531.796	5814
531.864	6705
531.932	6685
532.000	6385
532.067	6603
532.135	7388
532.203	7648
532.271	7733
532.339	9233
532.407	12756
532.475	11249
532.542	8524
532.610	8346
532.678	8027
532.746	17932
532.814	47389
532.881	18364
532.949	8953
533.017	7852
533.084	6959
533.152	7000
533.220	6925
533.287	5606
533.355	7331
533.423	7211
533.490	7307
533.558	6144
533.625	6703
533.693	5947
533.761	7106
533.828	7905
533.896	4654
533.963	8624
534.031	9755
534.098	11870
534.166	9314
534.233	6290
534.300	7795
534.368	6645
534.435	5839
534.503	7099
534.570	7423
534.637	7165
534.705	8539
534.772	9015
534.840	11073
534.907	37272
534.974	65071
535.041	12873
535.109	7202
535.176	5488
535.243	6466
535.310	5300
535.378	5321
535.445	5776
535.512	5126
535.579	6032
535.646	4678
535.714	4395
535.781	5563
535.848	5845
535.915	7027
535.982	5198
536.049	6072
536.116	6208
536.183	5220
536.250	5178
536.317	4660
536.384	5181
536.451	6306
536.518	5754
536.585	4526
536.652	7789
536.719	7307
536.786	4596
536.853	5625
536.920	6558
536.987	8086
537.053	5823
537.120	20426
537.187	23419
537.254	5981
537.321	4541
537.388	6492
537.454	3781
537.521	4307
537.588	4221
537.654	5090
537.721	4934
537.788	5714
537.855	3855
537.921	4308
537.988	2956
538.055	5079
538.121	3299
538.188	5013
538.254	4076
538.321	6662
538.388	5241
538.454	4084
538.521	3904
538.587	3890
538.654	4069
538.720	4762
538.787	3541
538.853	4567
538.920	4246
538.986	4636
539.053	4385
539.119	4437
539.185	3749
539.252	5191
539.318	4543
539.385	6104
539.451	4214
539.517	4766
539.583	5119
539.650	7369
539.716	17435
539.782	7743
539.849	2636
539.915	4254
539.981	3618
540.047	3275
540.114	3881
540.180	5760
540.246	3445
540.312	4312
540.378	5924
540.444	7639
540.510	6620
540.576	18029
540.643	8829
540.709	3358
540.775	4296
540.841	3441
540.907	5181
540.973	7247
541.039	5011
541.105	5043
541.171	4087
541.237	3448
541.303	5083
541.369	4771
541.435	4097
541.500	5657
541.566	4307
541.632	3170
541.698	3004
541.764	4357
541.830	3374
541.896	2794
541.961	3018
542.027	3727
542.093	3128
542.159	3260
542.224	2957
542.290	5128
542.356	5141
542.421	7085
542.487	4986
542.553	4448
542.618	4128
542.684	3343
542.750	3620
542.815	4780
542.881	5665
542.947	14818
543.012	15142
543.078	4245
543.143	2303
543.209	3702
543.274	3892
543.340	4242
543.405	6093
543.471	10731
543.536	4524
543.602	5158
543.667	3098
543.732	5272
543.798	3349
543.863	3822
543.928	2774
543.994	3399
544.059	3859
544.124	4207
544.190	2168
544.255	3856
544.320	4230
544.386	2758
544.451	4606
544.516	4264
544.581	4625
544.646	9896
544.712	18203
544.777	7063
544.842	4675
544.907	5825
544.972	4484
545.037	5061
545.102	5353
545.168	4878
545.233	4925
545.298	6476
545.363	6094
545.428	5588
545.493	7619
545.558	13445
545.623	8075
545.688	5383
545.753	5137
545.818	5052
545.883	5906
545.947	4704
546.012	6145
546.077	6348
546.142	5815
546.207	5440
546.272	6881
546.337	6656
546.401	6529
546.466	6592
546.531	4572
546.596	7262
546.661	6422
546.725	8061
546.790	5866
546.855	7071
546.919	6345
546.984	8529
547.049	8827
547.113	10694
547.178	10020
547.243	11453
547.307	13117
547.372	14161
547.436	14625
547.501	14728
547.565	15329
547.630	14867
547.695	14725
547.759	15355
547.823	14113
547.888	14187
547.952	13764
548.017	15255
548.081	17082
548.146	17727
548.210	17488
548.274	16161
548.339	16162
548.403	15201
548.468	13596
548.532	12923
548.596	14301
548.660	14910
548.725	15809
548.789	16821
548.853	18194
548.917	16939
548.982	17454
549.046	17006
549.110	12885
549.174	13336
549.238	14590
549.303	15924
549.367	16641
549.431	16042
549.495	16057
549.559	14331
549.623	17417
549.687	19345
549.751	20859
549.815	22081
549.879	23237
549.943	20883
550.007	22230
550.071	22282
550.135	21778
550.199	19956
550.263	20224
550.327	19972
550.391	21031
550.455	22076
550.519	21424
550.582	23822
550.646	26098
550.710	27543
550.774	26019
550.838	26252
550.901	26577
550.965	28198
551.029	28895
551.093	33178
551.156	34670
551.220	45840
551.284	53188
551.347	38232
551.411	39651
551.475	45141
551.538	31699
551.602	27572
551.666	24604
551.729	24098
551.793	24171
551.856	23964
551.920	24070
551.983	24041
552.047	23724
552.110	24255
552.174	23365
552.237	23982
552.301	22622
552.364	22899
552.428	21087
552.491	21807
552.554	22912
552.618	22561
552.681	23380
552.745	21596
552.808	23015
552.871	25779
552.934	23461
552.998	22535
553.061	23633
553.124	23421
553.187	22263
553.251	23984
553.314	23888
553.377	24686
553.440	28624
553.503	46213
553.567	74016
553.630	35354
553.693	25805
553.756	26414
553.819	24935
553.882	24425
553.945	24695
554.008	24972
554.071	23209
554.134	26518
554.197	23604
554.260	24169
554.323	24543
554.386	24426
554.449	24472
554.512	25494
554.575	23918
554.638	24785
554.701	24749
554.764	24543
554.827	22482
554.889	22891
554.952	21990
555.015	19538
555.078	20500
555.141	21956
555.203	21009
555.266	21382
555.329	21157
555.391	20449
555.454	19720
555.517	19537
555.580	18998
555.642	18442
555.705	16787
555.768	17862
555.830	18099
555.893	16587
555.955	16072
556.018	15991
556.080	15327
556.143	16175
556.206	15165
556.268	16492
556.330	15681
556.393	15836
556.455	14771
556.518	15906
556.580	16197
556.643	14346
556.705	13873
556.767	12246
556.830	13252
556.892	13246
556.955	13689
557.017	13418
557.079	12986
557.142	12378
557.204	11709
557.266	14330
557.328	13606
557.391	11198
557.453	9176
557.515	11175
557.577	11012
557.639	11669
557.701	11358
557.764	10235
557.826	10463
557.888	12225
557.950	12097
558.012	12171
558.074	15249
558.136	26023
558.198	72448
558.260	38155
558.322	13451
558.384	13484
558.446	14322
558.508	16465
558.570	18535
558.632	23036
558.694	28248
558.756	37567
558.818	93404
558.880	269605
558.942	122962
559.003	76675
559.065	51249
559.127	18955
559.189	17410
559.251	19485
559.312	23396
559.374	47980
559.436	172772
559.498	123720
559.559	22577
559.621	17922
559.683	19220
559.744	27962
559.806	76365
559.868	149390
559.929	40537
559.991	19100
560.052	23733
560.114	65020
560.176	56822
560.237	36405
560.299	70089
560.360	22517
560.422	9998
560.483	8517
560.545	7897
560.606	7686
560.667	6481
560.729	6480
560.790	6637
560.852	7146
560.913	5931
560.974	6608
561.036	5562
561.097	6733
561.158	6627
561.220	6570
561.281	6621
561.342	6835
561.403	6665
561.465	7059
561.526	9530
561.587	13098
561.648	6479
561.709	6513
561.771	5743
561.832	6240
561.893	5640
561.954	6794
562.015	6176
562.076	6095
562.137	5605
562.198	5843
562.259	6049
562.320	5575
562.381	4810
562.442	7170
562.503	6505
562.564	6018
562.625	5412
562.686	6620
562.747	5153
562.808	5930
562.869	5105
562.930	6639
562.991	7480
563.051	7325
563.112	5943
563.173	6755
563.234	5825
563.294	6379
563.355	5312
563.416	6031
563.477	5227
563.537	6175
563.598	6016
563.659	5854
563.720	4477
563.780	5393
563.841	5000
563.901	5806
563.962	4912
564.023	5471
564.083	5743
564.144	5352
564.204	5031
564.265	5816
564.325	5500
564.386	9570
564.446	11128
564.507	6069
564.567	4996
564.628	5210
564.688	5915
564.749	5870
564.809	5658
564.869	6465
564.930	5563
564.990	7129
565.050	4288
565.111	5885
565.171	5564
565.231	4783
565.292	5779
565.352	5069
565.412	6413
565.472	5586
565.532	5644
565.593	5159
565.653	3928
565.713	5537
565.773	5322
565.833	5761
565.893	6704
565.953	5630
566.013	5124
566.074	5724
566.134	6846
566.194	9808
566.254	10673
566.314	7735
566.374	6485
566.434	7226
566.494	5905
566.554	5931
566.614	4742
566.673	7117
566.733	6678
566.793	6727
566.853	7751
566.913	6088
566.973	7044
567.033	7681
567.092	6975
567.152	6435
567.212	6563
567.272	8098
567.331	7219
567.391	7996
567.451	7428
567.511	9316
567.570	9599
567.630	8099
567.690	6881
567.749	7389
567.809	7536
567.868	8762
567.928	8416
567.988	9264
568.047	10311
568.107	11517
568.166	15690
568.226	19732
568.285	27851
568.345	26628
568.404	20617
568.464	18737
568.523	16992
568.582	17357
568.642	17656
568.701	21799
568.761	28116
568.820	43111
568.879	47649
568.939	38185
568.998	28245
569.057	21838
569.116	17339
569.176	14385
569.235	12833
569.294	11224
569.353	9947
569.413	9089
569.472	7930
569.531	7967
569.590	7114
569.649	8170
569.708	6621
569.767	6758
569.827	7078
569.886	8008
569.945	5875
570.004	6823
570.063	6487
570.122	6189
570.181	6298
570.240	6695
570.299	6720
570.358	7689
570.417	5926
570.475	5110
570.534	6745
570.593	6559
570.652	5052
570.711	6482
570.770	5098
570.829	6974
570.887	5757
570.946	6478
571.005	5448
571.064	6066
571.122	6568
571.181	6505
571.240	5485
571.299	5675
571.357	5793
571.416	5582
571.475	6371
571.533	7582
571.592	5297
571.650	6685
571.709	5233
571.768	5894
571.826	5218
571.885	6469
571.943	5150
572.002	5181
572.060	5981
572.119	5504
572.177	5339
572.236	4434
572.294	5256
572.352	5967
572.411	5154
572.469	5583
572.528	6311
572.586	5189
572.644	4872
572.703	7227
572.761	5660
572.819	4805
572.877	4781
572.936	5528
572.994	5339
573.052	5287
573.110	4569
573.169	5962
573.227	5126
573.285	4987
573.343	5012
573.401	4766
573.459	5750
573.517	4785
573.576	4892
573.634	6304
573.692	5596
573.750	4755
573.808	5010
573.866	5641
573.924	6359
573.982	6732
574.040	4753
574.098	5295
574.155	4882
574.213	5266
574.271	4828
574.329	4976
574.387	4735
574.445	4719
574.503	4395
574.560	4894
574.618	5918
574.676	5240
574.734	4319
574.792	4955
574.849	4974
574.907	4642
574.965	3497
575.022	4257
575.080	3920
575.138	4515
575.195	4556
575.253	4162
575.311	4596
575.368	4968
575.426	4004
575.483	4653
575.541	4375
575.598	5106
575.656	4675
575.713	4995
575.771	4983
575.828	4789
575.886	4781
575.943	4799
576.001	5095
576.058	4475
576.115	4900
576.173	5825
576.230	5796
576.287	5973
576.345	5874
576.402	5232
576.459	5117
576.517	5060
576.574	5287
576.631	5304
576.688	4916
576.746	4481
576.803	5331
576.860	4730
576.917	5566
576.974	5986
577.031	4567
577.089	5392
577.146	4880
577.203	4630
577.260	4852
577.317	5908
577.374	5371
577.431	5068
577.488	5813
577.545	4539
577.602	5471
577.659	4748
577.716	5052
577.773	6546
577.830	5607
577.886	5917
577.943	4888
578.000	5306
578.057	4879
578.114	5866
578.171	6343
578.227	7151
578.284	6963
578.341	6046
578.398	5406
578.454	6051
578.511	5582
578.568	6226
578.625	5473
578.681	5656
578.738	4003
578.794	5596
578.851	4679
578.908	5291
578.964	4291
579.021	5011
579.077	4979
579.134	5525
579.190	4758
579.247	5273
579.303	5254
579.360	5666
579.416	5577
579.473	5510
579.529	4223
579.586	5573
579.642	5921
579.698	5034
579.755	5888
579.811	6366
579.867	6022
579.924	5968
579.980	4889
580.036	6287
580.093	6809
580.149	8756
580.205	9677
580.261	8120
580.317	6636
580.374	6378
580.430	5631
580.486	6978
580.542	5609
580.598	7162
580.619	6749
580.654	6034
580.692	6772
580.710	7140
580.765	6481
580.767	6460
580.823	6457
580.838	6424
580.879	6336
580.911	6877
580.935	7267
580.984	6157
580.991	6007
581.047	7296
581.057	7248
581.103	7051
581.130	7049
581.159	7051
581.203	7055
581.215	7052
581.270	7112
581.276	7162
581.326	7586
581.349	7428
581.382	7193
581.422	7378
581.438	7453
581.494	7892
581.494	7890
581.550	7600
581.567	7665
581.606	7797
581.640	7414
581.661	7157
581.713	7798
581.717	7848
581.773	7707
581.786	7606
581.829	7295
581.859	7796
581.885	8203
581.932	8019
581.940	7994
581.996	8001
582.004	8069
582.052	8342
582.077	8204
582.107	8052
582.150	8112
582.163	8128
582.219	8343
582.223	8350
582.274	8451
582.296	8342
582.330	8167
582.368	9196
582.386	9655
582.441	9123
582.441	9119
582.497	8881
582.514	8998
582.552	9399
582.587	9753
582.608	9876
582.659	10262
582.663	10306
582.719	10418
582.732	10327
582.774	9895
582.805	9990
582.830	10154
582.877	10797
582.885	10915
582.941	10940
582.950	11216
582.996	12647
583.023	13018
583.052	13454
583.095	13570
583.107	13554
583.162	14713
583.168	14734
583.218	14510
583.240	13844
583.273	12888
583.313	12592
583.328	12568
583.384	12073
583.385	12037
583.439	10725
583.458	11121
583.494	11890
583.531	11216
583.549	10963
583.603	11455
583.605	11473
583.660	11478
583.676	11543
583.715	11687
583.748	11963
583.770	12180
583.820	12302
583.825	12289
583.881	12142
583.893	12118
583.936	12370
583.965	12174
583.991	11951
584.038	12375
584.046	12465
584.101	12084
584.110	12339
584.156	13505
584.183	13163
584.211	12846
584.255	13018
584.266	13038
584.321	13311
584.328	13357
584.376	14136
584.400	13840
584.431	13301
584.472	14079
584.486	14383
584.541	14523
584.545	14533
584.596	14907
584.617	14880
584.651	14956
584.689	15927
584.706	16328
584.761	16348
584.762	16338
584.816	16402
584.834	16526
584.871	16791
584.906	16988
584.926	17170
584.978	16960
584.980	16970
585.035	17023
585.051	17304
585.090	18353
585.123	18970
585.145	19186
585.195	19481
585.200	19569
585.254	20574
585.267	20822
585.309	21518
585.340	22951
585.364	24427
585.412	25329
585.419	25379
585.473	27073
585.484	27294
585.528	29953
585.556	33259
585.583	39245
585.628	52898
585.637	59007
585.692	107950
585.700	118088
585.747	169071
585.772	165274
585.801	123726
585.845	59012
585.856	49810
585.910	31604
585.917	29831
585.965	27411
585.989	26353
586.019	25636
586.061	24706
586.074	24679
586.128	25624
586.133	25569
586.183	24837
586.205	25068
586.237	25705
586.277	24950
586.292	24783
586.346	25996
586.349	25934
586.401	24931
586.421	25068
586.455	25907
586.493	26463
586.509	27112
586.564	29144
586.565	29198
586.618	35784
586.637	37289
586.672	36038
586.709	32240
586.727	31043
586.781	30690
586.781	30742
586.835	30103
586.853	30090
586.889	29947
586.925	29476
586.944	29645
586.996	30696
586.998	30772
587.052	30885
587.068	31080
587.106	32259
587.140	32748
587.161	32960
587.212	33809
587.215	33974
587.269	36076
587.284	36489
587.323	36703
587.356	37134
587.377	38127
587.427	40215
587.431	40424
587.485	41595
587.499	41978
587.539	43695
587.571	45019
587.593	46153
587.643	48616
587.648	48966
587.702	51210
587.715	51796
587.755	54642
587.786	56621
587.810	58027
587.858	60595
587.864	61189
587.917	66339
587.930	67379
587.971	72217
588.001	75694
588.025	78427
588.073	83434
588.079	84461
588.133	92488
588.145	94158
588.187	102329
588.217	108107
588.241	114183
588.288	125905
588.295	128072
588.348	144558
588.360	147968
588.402	163969
588.431	175166
588.456	188708
588.503	214785
588.510	220067
588.564	260125
588.575	268395
588.617	315117
588.646	347053
588.671	386026
588.718	461654
588.725	477465
588.778	594404
588.789	617614
588.832	694358
588.861	740766
588.886	715290
588.932	645235
588.939	633581
588.993	516551
589.004	501034
589.047	648471
589.075	737633
589.100	751088
589.147	749276
589.154	736238
589.207	619885
589.218	595483
589.261	543574
589.290	509275
589.314	513121
589.361	522031
589.368	532441
589.421	613911
589.433	630359
589.475	688558
589.504	724445
589.528	690573
589.576	597198
589.582	603006
589.635	661632
589.647	671220
589.689	675329
589.718	665722
589.742	596049
589.790	453315
589.795	443773
589.849	346318
589.861	323625
589.902	281346
589.932	249270
589.955	232266
590.004	194863
590.009	192942
590.062	167602
590.075	161011
590.115	146789
590.146	135287
590.168	130822
590.218	120256
590.222	119943
590.275	111166
590.289	108602
590.328	103053
590.360	98138
590.381	95894
590.431	89910
590.435	89909
590.488	85184
590.503	83658
590.541	81509
590.574	79213
590.594	77725
590.645	73174
590.647	73303
590.700	70783
590.716	69824
590.753	68526
590.787	66852
590.806	66119
590.859	63674
590.859	63844
590.912	61883
590.930	61144
590.965	60410
591.001	59204
591.018	59010
591.071	57807
591.072	57609
591.124	56908
591.143	56405
591.177	56038
591.214	55118
591.230	54857
591.283	53778
591.285	53549
591.336	53583
591.356	53466
591.389	52929
591.427	51728
591.442	51430
591.495	49759
591.498	49476
591.547	49095
591.569	48714
591.600	48958
591.640	48729
591.653	48842
591.706	48824
591.711	48647
591.759	48832
591.782	48730
591.811	49347
591.853	49835
591.864	49815
591.917	48727
591.924	48413
591.969	48189
591.995	47798
592.022	47566
592.066	46739
592.075	46982
592.127	47551
592.137	47484
592.180	49772
592.208	51033
592.233	49970
592.279	47358
592.285	47456
592.338	46961
592.350	46689
592.390	46299
592.421	45741
592.443	46040
592.491	46188
592.495	46306
592.548	45757
592.562	45449
592.600	45704
592.633	45644
592.653	45696
592.704	45174
592.705	45445
592.775	45986
592.846	45247
592.916	44764
592.987	45478
593.058	45419
593.128	44310
593.199	44713
593.270	42474
593.341	43474
593.411	44002
593.482	44494
593.553	45159
593.623	44886
593.694	44889
593.764	45028
593.835	45600
593.906	45630
593.976	44525
594.047	45189
594.117	47943
594.188	48620
594.258	46566
594.329	45945
594.399	47445
594.470	45793
594.540	46546
594.611	48134
594.681	47798
594.751	47103
594.822	48647
594.892	50248
594.963	50557
595.033	51018
595.103	52117
595.174	51978
595.244	57335
595.314	62991
595.384	54800
595.455	54821
595.525	57177
595.595	56357
595.665	57839
595.736	56757
595.806	56917
595.876	57404
595.946	56947
596.016	58667
596.087	59887
596.157	62499
596.227	61061
596.297	61715
596.367	66209
596.437	67384
596.507	70400
596.577	74537
596.647	70863
596.717	69583
596.787	71797
596.857	71190
596.927	72612
596.997	73348
597.067	74170
597.137	76733
597.207	79560
597.277	78146
597.347	76096
597.417	74333
597.487	73772
597.557	75824
597.626	76511
597.696	78618
597.766	78662
597.836	82616
597.906	75458
597.975	71457
598.045	72715
598.115	75204
598.185	77437
598.254	83633
598.324	89408
598.394	91507
598.464	89037
598.533	89889
598.603	85972
598.672	84855
598.742	86742
598.812	87832
598.881	89297
598.951	89013
599.020	89828
599.090	92350
599.159	95366
599.229	91454
599.299	91464
599.368	93385
599.437	94286
599.507	90847
599.576	90507
599.646	91504
599.715	93456
599.785	88804
599.854	91842
599.924	92098
599.993	92018
600.062	92569
600.132	93797
600.201	99090
600.270	107401
600.340	112556
600.409	111982
600.478	111969
600.547	114560
600.617	113373
600.686	102663
600.755	98838
600.824	97312
600.894	98225
600.963	98454
601.032	100167
601.101	101822
601.170	100190
601.239	101065
601.308	102891
601.378	105844
601.447	106194
601.516	109160
601.585	110163
601.654	114269
601.723	115350
601.792	117466
601.861	121821
601.930	128218
601.999	133096
602.068	130576
602.137	131947
602.206	133112
602.275	132898
602.343	133761
602.412	136400
602.481	134846
602.550	137277
602.619	139369
602.688	138706
602.756	141172
602.825	140347
602.894	142366
602.963	142413
603.032	145081
603.100	146947
603.169	140947
603.238	147804
603.307	142367
603.375	141366
603.444	149316
603.513	141920
603.581	141067
603.650	150979
603.719	132406
603.787	121870
603.856	123084
603.924	124630
603.993	128054
604.061	131386
604.130	135783
604.198	137812
604.267	138719
604.335	144058
604.404	142468
604.472	145683
604.541	147532
604.609	151391
604.678	157520
604.746	156857
604.815	164342
604.883	161427
604.951	155722
605.020	159277
605.088	153009
605.156	144255
605.225	142622
605.293	142595
605.361	142061
605.429	144042
605.498	143582
605.566	144038
605.634	148297
605.702	150900
605.771	151571
605.839	157115
605.907	148088
605.975	152220
606.043	147178
606.111	138231
606.180	150531
606.248	146851
606.316	138027
606.384	146861
606.452	130965
606.520	106281
606.588	106350
606.656	106303
606.724	104491
606.792	100608
606.860	93974
606.928	87204
606.996	83515
607.064	81283
607.132	82753
607.200	87146
607.267	88889
607.335	91406
607.403	93896
607.471	91593
607.539	88007
607.607	90935
607.674	81501
607.742	80361
607.810	80126
607.878	79192
607.946	80618
608.013	82676
608.081	84619
608.149	84980
608.216	85358
608.284	88972
608.352	88419
608.419	88771
608.487	89021
608.555	85415
608.622	84971
608.690	89453
608.757	94094
608.825	98937
608.893	96322
608.960	93010
609.028	90927
609.095	90715
609.163	88940
609.230	82236
609.298	74967
609.365	76909
609.432	83447
609.500	87104
609.567	98033
609.635	110560
609.702	117798
609.769	114667
609.837	97481
609.904	81243
609.971	83543
610.039	87360
610.106	102180
610.173	158332
610.241	331733
610.308	302782
610.375	138479
610.442	95444
610.509	85294
610.577	84305
610.644	85604
610.711	86349
610.778	89516
610.845	91757
610.912	97427
610.980	100537
611.047	104976
611.114	102479
611.181	97242
611.248	95106
611.315	99935
611.382	101515
611.449	103384
611.516	106439
611.583	104451
611.650	105889
611.717	107221
611.784	109336
611.851	110187
611.918	116113
611.984	128232
612.051	158404
612.118	253588
612.185	535531
612.252	510993
612.319	179445
612.386	137116
612.452	126821
612.519	122011
612.586	122890
612.653	121879
612.719	123078
612.786	122356
612.853	113025
612.919	110282
612.986	112422
613.053	107702
613.120	102567
613.186	99268
613.253	101055
613.319	100144
613.386	100114
613.453	101948
613.519	103313
613.586	101337
613.652	106089
613.719	103095
613.785	103729
613.852	103893
613.918	102252
613.985	104534
614.051	109628
614.118	115248
614.184	116839
614.250	102398
614.317	106102
614.383	102454
614.449	103962
614.516	105193
614.582	106065
614.648	105364
614.715	103555
614.781	102817
614.847	104308
614.914	104557
614.980	100365
615.046	101183
615.112	101953
615.179	103404
615.245	103928
615.311	107332
615.377	115463
615.443	123475
615.509	112123
615.575	111854
615.642	109703
615.708	110802
615.774	115028
615.840	120831
615.906	128216
615.972	146019
616.038	198727
616.104	322500
616.170	599364
616.236	684050
616.302	252028
616.368	172422
616.434	140742
616.500	129219
616.565	131536
616.631	151757
616.697	141211
616.763	135501
616.829	163645
616.895	257871
616.961	289611
617.026	167927
617.092	120532
617.158	113867
617.224	113212
617.289	105782
617.355	103640
617.421	102133
617.487	103694
617.552	98450
617.618	96073
617.684	96877
617.749	100242
617.815	95248
617.880	95374
617.946	94597
618.012	95044
618.077	98297
618.143	96296
618.208	97505
618.274	98842
618.339	104056
618.405	91592
618.470	89626
618.536	90767
618.601	91116
618.667	86803
618.732	85174
618.798	84195
618.863	83981
618.928	82752
618.994	84300
619.059	84340
619.124	86385
619.190	85094
619.255	83701
619.320	83439
619.386	84393
619.451	82930
619.516	82331
619.581	82443
619.647	85187
619.712	86139
619.777	83304
619.842	85007
619.907	86092
619.972	86113
620.038	86524
620.103	84039
620.168	84151
620.233	84847
620.298	86350
620.363	85190
620.428	86959
620.493	89165
620.558	89761
620.623	90188
620.688	90647
620.753	89046
620.818	90147
620.883	91421
620.948	91852
621.013	91018
621.078	91899
621.143	90970
621.207	94093
621.272	92210
621.337	91607
621.402	91045
621.467	93053
621.532	94615
621.596	92790
621.661	90825
621.726	88735
621.791	90753
621.855	90968
621.920	90489
621.985	90923
622.049	92471
622.114	94576
622.179	94507
622.243	94817
622.308	95334
622.373	99970
622.437	98349
622.502	93178
622.566	93748
622.631	92437
622.695	95493
622.760	95735
622.824	92864
622.889	93747
622.953	95162
623.018	100477
623.082	102012
623.147	96106
623.211	96449
623.276	94127
623.340	93542
623.404	91244
623.469	91271
623.533	91305
623.597	91520
623.662	90082
623.726	88618
623.790	83799
623.854	82922
623.919	83514
623.983	83090
624.047	84632
624.111	83103
624.176	85363
624.240	86563
624.304	88814
624.368	84569
624.432	83847
624.496	84799
624.560	85778
624.625	87750
624.689	86731
624.753	87250
624.817	86333
624.881	83854
624.945	80987
625.009	78802
625.073	78523
625.137	78141
625.201	82345
625.265	83204
625.329	78524
625.393	79769
625.456	77862
625.520	78737
625.584	80857
625.648	82209
625.712	89219
625.776	106528
625.839	115458
625.903	85863
625.967	68549
626.031	76691
626.095	92572
626.158	78708
626.222	63389
626.286	60989
626.349	60325
626.413	55487
626.477	56523
626.540	54940
626.604	54441
626.668	53909
626.731	54149
626.795	54484
626.858	54220
626.922	51729
626.986	51154
627.049	50145
627.113	52076
627.176	52377
627.240	50091
627.303	49184
627.366	48127
627.430	49751
627.493	49147
627.557	48399
627.620	49544
627.684	48973
627.747	49167
627.810	46492
627.874	44364
627.937	41291
628.000	45124
628.064	43014
628.127	38925
628.190	39763
628.253	39465
628.317	37618
628.380	36632
628.443	36451
628.506	36573
628.569	35121
628.632	33584
628.696	32684
628.759	32912
628.822	32710
628.885	31905
628.948	32106
629.011	30497
629.074	29846
629.137	29632
629.200	30480
629.263	30391
629.326	27630
629.389	29006
629.452	28630
629.515	28858
629.578	28255
629.641	27745
629.704	27771
629.767	27817
629.830	27984
629.892	26665
629.955	26073
630.018	28095
630.081	24893
630.144	28167
630.207	26328
630.269	27057
630.332	26544
630.395	25717
630.458	25457
630.520	23354
630.583	24713
630.646	23573
630.708	25448
630.771	24054
630.834	24251
630.896	23884
630.959	24431
631.021	22969
631.084	23735
631.146	24672
631.209	24897
631.272	23660
631.334	23426
631.397	23983
631.459	22672
631.522	23552
631.584	23655
631.646	24526
631.709	25387
631.771	25707
631.834	24876
631.896	24380
631.958	23712
632.021	23346
632.083	21712
632.145	22931
632.208	22482
632.270	22448
632.332	21377
632.395	21198
632.457	23515
632.519	22097
632.581	21590
632.643	20593
632.706	21030
632.768	20606
632.830	22048
632.892	22020
632.954	21902
633.016	22030
633.078	21489
633.141	21712
633.203	21996
633.265	21925
633.327	21327
633.389	20514
633.451	22392
633.513	22249
633.575	22612
633.637	22010
633.698	21442
633.760	22978
633.822	23173
633.884	22256
633.946	22152
634.008	22848
634.070	22427
634.132	23962
634.193	24155
634.255	24184
634.317	24240
634.379	24676
634.441	22671
634.502	22172
634.564	21338
634.626	20114
634.687	20287
634.749	20744
634.811	21055
634.873	19430
634.934	19902
634.996	20124
635.057	19695
635.119	19880
635.181	19997
635.242	19936
635.304	19676
635.365	22541
635.427	20227
635.488	20766
635.550	19085
635.611	20229
635.673	18064
635.734	21287
635.796	21057
635.857	21976
635.918	21266
635.980	23277
636.041	23009
636.102	23866
636.164	24117
636.225	23513
636.286	22036
636.348	22719
636.409	20633
636.470	20130
636.531	19219
636.593	19343
636.654	20942
636.715	19648
636.776	20009
636.838	18624
636.899	19296
636.960	17880
637.021	18894
637.082	18094
637.143	18342
637.204	17994
637.265	17621
637.326	18110
637.387	17955
637.448	17534
637.509	18106
637.570	17658
637.631	18624
637.692	18110
637.753	17190
637.814	17862
637.875	17876
637.936	18056
637.997	17364
638.058	17551
638.119	19184
638.179	17704
638.240	17560
638.301	16755
638.362	16732
638.423	17588
638.483	17684
638.544	16010
638.605	17371
638.666	17030
638.726	17991
638.787	17723
638.848	17078
638.908	17639
638.969	17482
639.030	17032
639.090	16200
639.151	16268
639.211	17270
639.272	17756
639.332	19370
639.393	19435
639.453	16872
639.514	16858
639.574	16873
639.635	15907
639.695	16510
639.756	15974
639.816	15903
639.877	15934
639.937	18343
639.997	19148
640.058	15917
640.118	15904
640.178	15840
640.239	15478
640.299	15345
640.359	15388
640.420	15563
640.480	16096
640.540	17684
640.600	17332
640.661	16820
640.721	16305
640.781	20164
640.841	18204
640.901	17680
640.961	15387
641.021	15422
641.082	16913
641.142	17006
641.202	15296
641.262	14307
641.322	17005
641.382	14389
641.442	14691
641.502	15044
641.562	15389
641.622	14235
641.682	15766
641.742	15667
641.802	15721
641.861	14808
641.921	14903
641.981	15038
642.041	15299
642.101	14694
642.161	14328
642.221	13757
642.280	14479
642.340	13552
642.400	14059
642.460	14285
642.519	14572
642.579	14548
642.639	15115
642.698	13217
642.758	16540
642.818	15555
642.877	14476
642.937	15022
642.997	14766
643.056	16476
643.116	14892
643.175	15462
643.235	14400
643.294	14699
643.354	15303
643.414	15805
643.473	17844
643.532	17948
643.592	21325
643.651	27230
643.711	40070
643.770	68924
643.830	140732
643.889	337095
643.948	151266
644.008	30557
644.067	22048
644.126	17130
644.186	15715
644.245	15086
644.304	13961
644.363	15658
644.423	12780
644.482	12984
644.541	13932
644.600	12845
644.659	16199
644.719	16755
644.778	21377
644.837	28303
644.896	50424
644.955	118964
645.014	68386
645.073	20679
645.132	15394
645.191	14545
645.250	14546
645.309	14819
645.368	15441
645.427	17018
645.486	20110
645.545	34950
645.604	19483
645.663	14355
645.722	13440
645.781	14245
645.840	14700
645.898	15115
645.957	19451
646.016	24031
646.075	37756
646.134	65572
646.192	144461
646.251	287071
646.310	79317
646.369	21899
646.427	18526
646.486	16189
646.545	14913
646.603	13389
646.662	12672
646.721	12706
646.779	11851
646.838	12369
646.896	13867
646.955	15647
647.014	20518
647.072	30838
647.131	75423
647.189	62363
647.248	14366
647.306	12481
647.365	12341
647.423	10171
647.481	12770
647.540	8783
647.598	11025
647.657	10704
647.715	11257
647.773	10458
647.832	10700
647.890	9345
647.948	9849
648.007	11469
648.065	9954
648.123	9929
648.181	11279
648.240	10456
648.298	10475
648.356	9329
648.414	10660
648.472	9625
648.531	9474
648.589	9080
648.647	9708
648.705	9105
648.763	9437
648.821	9138
648.879	8658
648.937	9508
648.995	10320
649.053	11479
649.111	14240
649.169	20386
649.227	30793
649.285	55077
649.343	157513
649.401	129448
649.459	25410
649.516	17324
649.574	11832
649.632	15124
649.690	19570
649.748	16212
649.806	17503
649.863	29118
649.921	52537
649.979	55669
650.037	13381
650.094	8030
650.152	9015
650.210	8481
650.268	8884
650.325	8363
650.383	9304
650.440	7204
650.498	7356
650.556	7481
650.613	7247
650.671	7561
650.728	6941
650.786	8153
650.843	8032
650.901	7126
650.958	7054
651.016	7056
651.073	7367
651.131	6430
651.188	6379
651.246	6986
651.303	5723
651.360	5889
651.418	5846
651.475	6618
651.532	5602
651.590	6934
651.647	5289
651.704	6288
651.762	6487
651.819	6577
651.876	5945
651.933	6313
651.990	5448
652.048	5480
652.105	5877
652.162	6161
652.219	6081
652.276	6458
652.333	5237
652.390	5426
652.448	5949
652.505	6421
652.562	6073
652.619	6216
652.676	7170
652.733	10161
652.790	6441
652.847	4178
652.904	5951
652.961	5628
653.017	4729
653.074	5918
653.131	6561
653.188	4598
653.245	4831
653.302	5331
653.359	5614
653.415	5355
653.472	4839
653.529	5577
653.586	4972
653.642	4701
653.699	5323
653.756	4108
653.813	4707
653.869	5221
653.926	4697
653.983	4226
654.039	5137
654.096	4318
654.152	6066
654.209	3695
654.266	5947
654.322	4029
654.379	5431
654.435	5915
654.492	5995
654.548	6436
654.605	8206
654.661	8720
654.717	5596
654.774	4831
654.830	5077
654.887	5352
654.943	6398
655.000	6006
655.056	5956
655.112	5454
655.168	4275
655.225	5001
655.281	6530
655.337	6375
655.394	7746
655.450	6640
655.506	6597
655.562	6791
655.618	7324
655.675	4004
655.731	5264
655.787	4667
655.843	5357
655.899	4167
655.955	4832
656.011	5423
656.067	3953
656.123	5296
656.179	5467
656.235	5643
656.291	3620
656.347	5264
656.403	4611
656.459	4673
656.515	5312
656.571	4818
656.627	5557
656.683	5058
656.739	5748
656.795	4581
656.850	5116
656.906	4729
656.962	5933
657.018	4243
657.074	5231
657.129	5765
657.185	7369
657.241	11810
657.297	10720
657.352	5580
657.408	3950
657.464	5874
657.519	5040
657.575	4989
657.630	4994
657.686	4397
657.742	4158
657.797	5747
657.853	4600
657.908	5240
657.964	3196
658.019	4818
658.075	5308
658.130	4481
658.186	4264
658.241	4767
658.297	4330
658.352	4798
658.407	4442
658.463	4689
658.518	4411
658.573	5307
658.629	3984
658.684	4286
658.739	5358
658.795	3867
658.850	5082
658.905	3627
658.960	5169
659.016	3965
659.071	3769
659.126	4462
659.181	4031
659.236	5676
659.291	7476
659.346	5089
659.401	5336
659.457	5945
659.512	5611
659.567	6110
659.622	4567
659.677	3043
659.732	3881
659.787	4941
659.842	4783
659.897	5595
659.952	4773
660.007	4459
660.061	4010
660.116	4463
660.171	4372
660.226	4509
660.281	4906
660.336	4201
660.391	4876
660.445	4453
660.500	4052
660.555	4962
660.610	4620
660.664	4973
660.719	3414
660.774	4548
660.828	4202
660.883	5002
660.938	4245
660.992	4066
661.047	4262
661.101	3636
661.156	3540
661.211	3716
661.265	4823
661.320	4148
661.374	3787
661.429	4481
661.483	4365
661.538	3803
661.592	4331
661.647	4229
661.701	5603
661.755	4790
661.810	5503
661.864	3369
661.919	4000
661.973	5342
662.027	3917
662.081	4254
662.136	3775
662.190	4028
662.244	4430
662.299	3463
662.353	4582
662.407	3974
662.461	3559
662.515	4974
662.569	3279
662.624	4690
662.678	4025
662.732	3666
662.786	3806
662.840	4754
662.894	4190
662.948	2921
663.002	4102
663.056	4258
663.110	3302
663.164	4247
663.218	4468
663.272	3606
663.326	4085
663.380	3831
663.434	4288
663.488	3622
663.542	4628
663.595	4266
663.649	3018
663.703	4052
663.757	4043
663.811	3085
663.864	4101
663.918	4037
663.972	3630
664.026	4697
664.079	4118
664.133	4355
664.187	3842
664.240	4026
664.294	4045
664.348	4891
664.401	4246
664.455	4058
664.508	4178
664.562	3805
664.615	4150
664.669	3285
664.722	3451
664.776	3354
664.829	4070
664.883	3726
664.936	3505
664.990	3085
665.043	3917
665.097	3924
665.150	4781
665.203	3506
665.257	4465
665.310	3567
665.363	4425
665.417	3676
665.470	5298
665.523	3919
665.576	4132
665.630	4529
665.683	4079
665.736	4075
665.789	4604
665.842	3431
665.895	4382
665.949	5114
666.002	3517
666.055	4139
666.108	4667
666.161	4019
666.214	4633
666.267	3937
666.320	4102
666.373	4477
666.426	3885
666.479	4294
666.532	4449
666.585	4133
666.638	3697
666.691	4554
666.744	5126
666.796	2915
666.849	3846
666.902	3937
666.955	4047
667.008	3754
667.060	4355
667.113	3140
667.166	3812
667.219	3469
667.271	4797
667.324	4768
667.377	3470
667.430	4250
667.482	5039
667.535	4746
667.587	4660
667.640	3974
667.693	4250
667.745	4692
667.798	5621
667.850	4999
667.903	4683
667.955	3616
668.008	3608
668.060	4031
668.113	3700
668.165	4548
668.218	4994
668.270	4555
668.322	4594
668.375	4294
668.427	4201
668.479	4130
668.532	3933
668.584	4675
668.636	3417
668.689	4308
668.741	4196
668.793	3983
668.845	3974
668.898	3696
668.950	4051
669.002	4259
669.054	4139
669.106	3379
669.158	4109
669.211	3590
669.263	4106
669.315	4732
669.367	5129
669.419	4633
669.471	4010
669.523	4402
669.575	4340
669.627	3372
669.679	3913
669.731	4018
669.783	5293
669.835	4449
669.886	3501
669.938	4058
669.990	4234
670.042	4446
670.094	4020
670.146	3957
670.197	4683
670.249	4826
670.301	5034
670.353	6019
670.404	9129
670.456	10681
670.508	15995
670.560	26211
670.611	44244
670.663	73349
670.715	149501
670.766	277628
670.818	142529
670.869	29482
670.921	13497
670.972	9788
671.024	7719
671.075	5571
671.127	5553
671.178	5273
671.230	5682
671.281	5105
671.333	4481
671.384	4422
671.436	5207
671.487	6548
671.538	6993
671.590	7495
671.641	12336
671.692	18342
671.744	33523
671.795	34744
671.846	14680
671.897	7420
671.949	5692
672.000	5501
672.051	4541
672.102	4995
672.153	3613
672.204	4048
672.256	4965
672.307	3406
672.358	4437
672.409	4162
672.460	3242
672.511	3008
672.562	3398
672.613	3759
672.664	3449
672.715	4094
672.766	3658
672.817	3585
672.868	3354
672.919	2204
672.970	2728
673.021	3217
673.071	2964
673.122	3699
673.173	2949
673.224	2965
673.275	3004
673.326	2575
673.376	3740
673.427	2509
673.478	2841
673.528	2895
673.579	2814
673.630	3465
673.680	3938
673.731	2791
673.782	2939
673.832	3170
673.883	3105
673.934	2742
673.984	2736
674.035	2406
674.085	3189
674.136	3191
674.186	3270
674.237	3133
674.287	3756
674.338	3445
674.388	2453
674.438	3470
674.489	3159
674.539	3591
674.589	3100
674.640	4003
674.690	3409
674.740	2450
674.791	2921
674.841	3437
674.891	3400
674.942	3042
674.992	2316
675.042	1641
675.092	2508
675.142	3035
675.193	2453
675.243	2937
675.293	3360
675.343	3270
675.393	3337
675.443	3579
675.493	2510
675.543	2660
675.593	1950
675.643	3038
675.693	2358
675.743	2908
675.793	3084
675.843	2684
675.893	2678
675.943	2534
675.993	2354
676.043	2757
676.093	2877
676.142	2395
676.192	2434
676.242	3621
676.292	1202
676.341	2487
676.391	2535
676.441	2793
676.491	2844
676.540	2391
676.590	2100
676.640	3199
676.689	3269
676.739	2360
676.789	2836
676.838	1806
676.888	2950
676.937	2016
676.987	2138
677.037	1644
677.086	1930
677.136	1745
677.185	2929
677.235	2055
677.284	2633
677.333	1986
677.383	1435
677.432	1947
677.482	2176
677.531	1945
677.580	2407
677.630	2214
677.679	2651
677.728	1609
677.778	2694
677.827	1930
677.876	1719
677.925	1819
677.975	1936
678.024	2466
678.073	1866
678.122	2220
678.171	2190
678.220	2389
678.269	2971
678.319	2293
678.368	2282
678.417	2399
678.466	2584
678.515	2184
678.564	1778
678.613	1674
678.662	1640
678.711	1464
678.760	2392
678.809	1730
678.857	1854
678.906	2555
678.955	1942
679.004	2493
679.053	2374
679.102	1577
679.151	1769
679.199	1834
679.248	1410
679.297	2449
679.346	1875
679.394	2417
679.443	2317
679.492	2426
679.540	2553
679.589	1332
679.638	2167
679.686	2276
679.735	2370
679.784	1788
679.832	2896
679.881	1524
679.929	1322
679.978	1941
680.026	1172
680.075	1587
680.123	1461
680.172	1253
680.220	1824
680.268	1474
680.317	1233
680.365	838
680.414	1571
680.462	945
680.510	1404
680.559	1635
680.607	2130
680.655	1577
680.703	1503
680.752	2193
680.800	1818
680.848	975
680.896	1770
680.945	1934
680.993	1510
681.041	921
681.089	1424
681.137	1419
681.185	1964
681.233	1183
681.258	1188
681.281	1158
681.329	1461
681.377	1503
681.380	1553
681.425	1844
681.473	2079
681.502	2391
681.521	2544
681.569	2102
681.617	1693
681.624	1832
681.665	2468
681.713	1736
681.745	2451
681.761	2747
681.809	2210
681.857	2949
681.867	3050
681.904	3254
681.952	3089
681.989	3018
682.000	2954
682.048	2461
682.096	1861
682.111	2196
682.143	2820
682.191	3098
682.233	3151
682.239	3124
682.286	2865
682.334	2608
682.354	2642
682.382	2613
682.430	3466
682.476	3772
682.477	3750
682.525	3632
682.572	2734
682.598	2547
682.620	2335
682.667	3318
682.715	3593
682.720	3606
682.763	3381
682.810	4226
682.841	4008
682.857	3885
682.905	3742
682.952	3741
682.963	3844
683.000	4078
683.047	4122
683.085	4773
683.095	4905
683.142	3893
683.190	4377
683.206	4429
683.237	4417
683.284	4443
683.328	4554
683.332	4542
683.379	4091
683.426	4498
683.449	4547
683.473	4502
683.521	4761
683.568	4307
683.571	4328
683.615	4367
683.662	4426
683.693	4419
683.709	4370
683.757	4983
683.804	5032
683.814	5057
683.851	5029
683.898	4876
683.936	5116
683.945	5151
683.992	5094
684.039	5256
684.057	5321
684.086	5352
684.133	5563
684.179	5301
684.180	5274
684.227	5141
684.274	5080
684.300	5602
684.321	5985
684.368	5277
684.415	6750
684.422	6637
684.462	5771
684.509	5690
684.543	5969
684.556	6084
684.603	6104
684.649	6847
684.665	6699
684.696	6234
684.743	5428
684.786	6633
684.790	6722
684.837	6886
684.883	7038
684.908	6964
684.930	6869
684.977	6868
685.023	6625
685.029	6702
685.070	7098
685.117	6879
685.150	7411
685.164	7613
685.210	7421
685.257	7756
685.272	7819
685.303	7871
685.350	7465
685.393	7810
685.396	7822
685.443	7674
685.490	7249
685.514	7360
685.536	7497
685.583	8373
685.629	8201
685.636	8200
685.675	7925
685.722	8202
685.757	7509
685.768	7330
685.815	7491
685.861	7480
685.878	7857
685.908	8439
685.954	7940
686.000	8221
686.000	8218
686.047	8681
686.093	8846
686.121	8568
686.139	8335
686.185	9024
686.232	8974
686.242	8889
686.278	8603
686.324	9072
686.363	8941
686.370	8881
686.416	9085
686.463	9228
686.484	9037
686.509	8968
686.555	8464
686.601	9297
686.606	9327
686.647	9353
686.693	9279
686.727	8856
686.739	8736
686.785	8821
686.831	9381
686.848	9415
686.877	9484
686.923	9392
686.969	9135
686.969	9132
687.015	9929
687.061	9761
687.090	10166
687.107	10265
687.153	10196
687.199	9883
687.211	9785
687.245	9700
687.291	9712
687.332	9792
687.336	9809
687.382	10579
687.428	10519
687.453	10516
687.474	10368
687.520	10228
687.565	10120
687.574	10025
687.611	10001
687.657	10633
687.695	10406
687.702	10406
687.748	11310
687.794	12754
687.816	12658
687.839	12054
687.885	11201
687.931	11221
687.937	11056
687.976	10563
688.022	10724
688.058	10783
688.067	10831
688.113	10814
688.158	10661
688.179	10843
688.204	11022
688.249	11156
688.295	11194
688.300	11149
688.340	10863
688.386	10951
688.421	10996
688.431	11075
688.477	11484
688.522	11647
688.542	11966
688.567	12248
688.613	11641
688.658	11844
688.663	11846
688.703	11734
688.749	12133
688.784	11896
688.794	11915
688.839	11521
688.884	11667
688.905	11794
688.930	11877
688.975	11768
689.020	12116
689.026	12075
689.065	12019
689.110	12219
689.146	11905
689.155	11843
689.201	12369
689.246	12445
689.267	12541
689.291	12562
689.336	12542
689.381	12210
689.388	12233
689.426	12577
689.471	12440
689.509	12624
689.516	12667
689.561	12074
689.606	12811
689.630	12640
689.651	12487
689.696	12254
689.741	12511
689.750	12484
689.785	12562
689.830	12875
689.871	12626
689.875	12601
689.920	12575
689.965	12722
689.992	12613
690.010	12655
690.054	12661
690.099	12737
690.112	12797
690.144	12904
690.189	12602
690.233	12839
690.233	12857
690.278	12618
690.323	12908
690.354	12826
690.367	12935
690.412	12925
690.457	13378
690.474	13440
690.501	13417
690.546	13760
690.590	13805
690.595	13758
690.635	13631
690.680	13919
690.716	14039
690.724	14178
690.769	14794
690.813	15632
690.836	15765
690.857	16327
690.902	17845
690.946	19585
690.957	20004
690.991	24375
691.035	30629
691.077	36450
691.080	36539
691.124	35560
691.168	34461
691.198	33940
691.213	31980
691.257	26070
691.301	20311
691.318	18048
691.346	17425
691.390	16699
691.434	15686
691.439	15516
691.478	14909
691.522	15184
691.559	14723
691.567	14750
691.611	14808
691.655	15089
691.680	15080
691.699	15112
691.743	15447
691.787	15349
691.800	15351
691.831	15320
691.875	15468
691.919	15412
691.921	15378
691.964	15338
692.008	15495
692.041	15464
692.052	15482
692.096	15518
692.139	15543
692.162	15536
692.183	15429
692.227	15197
692.271	14853
692.282	14796
692.315	15030
692.359	15131
692.402	15208
692.403	15237
692.447	14914
692.490	15152
692.523	14859
692.534	14881
692.578	15270
692.622	15491
692.643	15598
692.666	15633
692.709	15446
692.753	15289
692.763	15386
692.797	15851
692.840	15617
692.884	15405
692.884	15435
692.928	15341
692.971	15481
693.004	15253
693.015	15297
693.059	15632
693.102	15534
693.124	15774
693.146	16018
693.189	16162
693.233	16283
693.245	16266
693.276	16438
693.320	17015
693.363	17345
693.365	17307
693.407	17511
693.450	18164
693.485	18467
693.493	18690
693.537	20076
693.580	20844
693.605	21605
693.624	23347
693.667	27224
693.710	31096
693.725	32407
693.753	40945
693.797	54702
693.840	68988
693.845	70412
693.883	68775
693.926	65800
693.966	63887
693.970	62688
694.013	48869
694.056	35447
694.086	25900
694.099	25131
694.142	22699
694.185	20594
694.206	19304
694.229	18991
694.272	18670
694.315	18189
694.326	17992
694.358	17882
694.401	17923
694.444	17786
694.446	17746
694.487	17784
694.530	17595
694.566	17582
694.573	17589
694.616	17067
694.659	16665
694.686	16492
694.702	16573
694.745	16598
694.787	16611
694.806	16593
694.830	16770
694.873	17062
694.916	17121
694.926	17138
694.959	17082
695.002	16788
695.044	16539
695.046	16496
695.087	16969
695.130	17197
695.166	17356
695.172	17424
695.215	17899
695.258	17991
695.286	18076
695.301	17970
695.343	17766
695.386	17361
695.406	17047
695.428	17297
695.471	17837
695.514	18472
695.526	18609
695.556	18745
695.599	18841
695.641	18786
695.646	18759
695.684	18947
695.726	18849
695.766	18874
695.769	18912
695.811	18708
695.854	18594
695.886	18429
695.896	18444
695.938	18269
695.981	18154
696.005	17994
696.023	18097
696.065	18336
696.108	18508
696.125	18560
696.150	18726
696.192	18956
696.235	19014
696.245	18988
696.277	19243
696.319	19626
696.361	20042
696.365	20015
696.404	20137
696.446	20282
696.485	20391
696.488	20427
696.530	20060
696.572	19867
696.604	19683
696.614	19768
696.656	19805
696.698	19905
696.724	19920
696.740	19947
696.783	19792
696.825	19821
696.844	19700
696.867	19692
696.909	19569
696.951	19531
696.964	19484
696.992	19674
697.034	19807
697.076	19953
697.083	19921
697.118	20090
697.160	20271
697.202	20377
697.203	20327
697.244	20344
697.286	20326
697.323	20213
697.327	20285
697.369	20540
697.411	20641
697.442	20698
697.453	20752
697.494	20767
697.536	20846
697.562	20833
697.578	20850
697.620	20626
697.661	20507
697.682	20373
697.703	20473
697.744	20576
697.786	20729
697.801	20702
697.828	20810
697.869	20858
697.911	20940
697.921	20926
697.952	20973
697.994	20816
698.035	20767
698.040	20701
698.077	20703
698.118	20585
698.160	20522
698.160	20465
698.201	20834
698.243	21133
698.279	21355
698.284	21425
698.325	21538
698.367	21631
698.399	21658
698.408	21674
698.449	21459
698.491	21259
698.518	21075
698.532	21151
698.573	21163
698.614	21200
698.638	21163
698.656	21223
698.697	21247
698.738	21252
698.757	21194
698.779	21499
698.820	21966
698.862	22447
698.877	22565
698.903	22555
698.944	22431
698.985	22321
698.996	22230
699.026	22222
699.067	22129
699.116	21960
699.235	22006
699.354	21800
699.474	21414
699.593	21025
699.713	21113
699.832	21039
699.951	21598
700.070	21611
700.190	20536
700.309	21006
700.428	20036
700.547	19748
700.667	20042
700.786	20324
700.905	21206
701.024	20941
701.143	20034
701.262	19876
701.381	20253
701.500	21292
701.619	20394
701.738	19710
701.857	20078
701.976	19961
702.095	19003
702.214	19797
702.333	19276
702.452	19193
702.571	19148
702.690	19922
702.809	19600
702.928	19062
703.047	18848
703.165	19596
703.284	18297
703.403	18222
703.522	18271
703.640	18049
703.759	19653
703.878	20122
703.997	18271
704.115	18614
704.234	18341
704.353	17773
704.471	17171
704.590	18551
704.708	17876
704.827	17949
704.946	17448
705.064	17534
705.183	18026
705.301	18250
705.420	21404
705.538	21960
705.656	19747
705.775	19790
705.893	23176
706.012	29926
706.130	19852
706.249	19764
706.367	19230
706.485	19547
706.604	18921
706.722	18889
706.840	19668
706.958	21984
707.077	21338
707.195	18904
707.313	18800
707.431	18286
707.549	17704
707.668	18538
707.786	18430
707.904	18398
708.022	17337
708.140	17444
708.258	17096
708.376	17710
708.494	17267
708.612	19269
708.730	21195
708.848	21456
708.966	19233
709.084	18599
709.202	19220
709.320	19995
709.438	19324
709.556	20435
709.674	18976
709.791	20186
709.909	18569
710.027	18488
710.145	18771
710.263	18382
710.380	18445
710.498	17602
710.616	18326
710.733	17538
710.851	17775
710.969	18015
711.086	17844
711.204	17949
711.322	17734
711.439	18275
711.557	17091
711.674	17282
711.792	18231
711.909	18060
712.027	17758
712.144	17417
712.262	16752
712.379	17720
712.497	20289
712.614	21830
712.732	20406
712.849	18921
712.966	17292
713.084	20779
713.201	19111
713.318	19405
713.436	19288
713.553	19805
713.670	18817
713.787	20128
713.905	19148
714.022	19205
714.139	18615
714.256	20272
714.373	21327
714.490	24189
714.608	37795
714.725	114700
714.842	173903
714.959	28912
715.076	18413
715.193	18642
715.310	18465
715.427	17622
715.544	16503
715.661	17221
715.778	17159
715.895	18061
716.011	18000
716.128	16894
716.245	16479
716.362	16680
716.479	16788
716.596	16570
716.713	16194
716.829	15868
716.946	16169
717.063	15314
717.180	16176
717.296	15509
717.413	15573
717.530	16209
717.646	14756
717.763	15113
717.880	15578
717.996	15555
718.113	14772
718.229	15196
718.346	14348
718.462	15114
718.579	15128
718.695	15275
718.812	15455
718.928	16072
719.045	14867
719.161	14897
719.277	13579
719.394	14630
719.510	14894
719.626	14696
719.743	15923
719.859	16956
719.975	19094
720.092	41543
720.208	104950
720.324	30070
720.440	15306
720.557	15131
720.673	15252
720.789	16596
720.905	21150
721.021	17952
721.137	13843
721.253	14481
721.369	13458
721.486	13540
721.602	14183
721.718	13694
721.834	12442
721.950	12535
722.066	12378
722.181	13047
722.297	14064
722.413	13042
722.529	13221
722.645	13160
722.761	12385
722.877	12866
722.993	13084
723.108	13495
723.224	12429
723.340	12532
723.456	11340
723.571	12218
723.687	11942
723.803	12563
723.918	11867
724.034	11611
724.150	11891
724.265	11762
724.381	12925
724.497	15908
724.612	11941
724.728	12125
724.843	10664
724.959	12104
725.074	14231
725.190	14744
725.305	12208
725.421	11359
725.536	11085
725.651	11890
725.767	10928
725.882	12004
725.997	10674
726.113	11551
726.228	10297
726.343	10445
726.459	10222
726.574	11055
726.689	10073
726.804	11521
726.920	10335
727.035	11151
727.150	10176
727.265	10120
727.380	10371
727.495	11229
727.610	9077
727.725	10966
727.841	10589
727.956	13198
728.071	13750
728.186	10354
728.301	9100
728.416	10689
728.531	10473
728.645	10095
728.760	10170
728.875	10059
728.990	10090
729.105	10664
729.220	9167
729.335	9977
729.449	9701
729.564	9304
729.679	9118
729.794	10241
729.908	9613
730.023	10067
730.138	10268
730.253	10555
730.367	8855
730.482	9905
730.596	9315
730.711	9997
730.826	10679
730.940	9795
731.055	9622
731.169	9927
731.284	9672
731.398	10054
731.513	10364
731.627	9838
731.742	10537
731.856	11241
731.970	10602
732.085	11619
732.199	11372
732.313	14088
732.428	21686
732.542	53451
732.656	48126
732.771	13910
732.885	12045
732.999	12165
733.113	11815
733.227	11626
733.342	11073
733.456	10596
733.570	10734
733.684	10698
733.798	10066
733.912	10112
734.026	10882
734.140	10058
734.254	10700
734.368	11839
734.482	12877
734.596	11280
734.710	10414
734.824	11130
734.938	10328
735.052	10093
735.166	10543
735.280	10952
735.393	9711
735.507	10513
735.621	10580
735.735	12111
735.849	10477
735.962	10615
736.076	9787
736.190	9513
736.303	9345
736.417	11416
736.531	9513
736.644	10104
736.758	9583
736.872	8861
736.985	8288
737.099	8720
737.212	8880
737.326	9785
737.439	9033
737.553	9451
737.666	8996
737.780	8516
737.893	9051
738.007	9376
738.120	9155
738.233	9576
738.347	8815
738.460	9327
738.573	9487
738.687	9226
738.800	8701
738.913	9417
739.026	9479
739.140	9097
739.253	9098
739.366	8654
739.479	8629
739.592	8807
739.705	8484
739.818	8255
739.932	8496
740.045	9103
740.158	8240
740.271	9295
740.384	9091
740.497	8926
740.610	8546
740.723	8977
740.836	8504
740.949	9024
741.062	8330
741.174	8473
741.287	8495
741.400	9112
741.513	7482
741.626	8292
741.739	8106
741.851	8289
741.964	8177
742.077	7213
742.189	7937
742.302	8544
742.415	7178
742.527	7287
742.640	8092
742.753	8137
742.865	8675
742.978	8320
743.090	7760
743.203	7582
743.316	8181
743.428	8418
743.541	8056
743.653	8443
743.766	8022
743.878	8138
743.990	8174
744.103	8143
744.215	7757
744.327	7633
744.440	7940
744.552	8573
744.664	6643
744.777	7921
744.889	6872
745.001	8172
745.113	7733
745.226	8173
745.338	7903
745.450	7596
745.562	6868
745.674	7517
745.786	7958
745.898	7502
746.010	7939
746.122	7526
746.234	7837
746.347	8074
746.459	7090
746.570	7173
746.682	7308
746.794	7935
746.906	7116
747.018	8322
747.130	6863
747.242	7545
747.354	7164
747.466	7059
747.577	7551
747.689	8019
747.801	7668
747.913	7411
748.024	7140
748.136	7388
748.248	7085
748.359	7096
748.471	7829
748.583	7016
748.694	7296
748.806	8259
748.918	6895
749.029	6796
749.141	7891
749.252	8191
749.364	6696
749.475	7760
749.587	6651
749.698	7195
749.809	7469
749.921	6840
750.032	6337
750.144	7161
750.255	6998
750.366	7144
750.478	7214
750.589	7176
750.700	5939
750.811	7156
750.923	6956
751.034	7399
751.145	7517
751.256	6838
751.367	6610
751.479	7216
751.590	6259
751.701	6742
751.812	5681
751.923	7295
752.034	7095
752.145	6931
752.256	7016
752.367	6619
752.478	6199
752.589	6894
752.700	6607
752.811	6743
752.922	6438
753.032	6876
753.143	6920
753.254	6752
753.365	6681
753.476	7446
753.586	6992
753.697	6446
753.808	6496
753.919	6703
754.029	6502
754.140	6328
754.251	6332
754.361	6308
754.472	7544
754.582	6188
754.693	6538
754.804	6356
754.914	6949
755.025	5898
755.135	6267
755.246	6566
755.356	7045
755.466	7545
755.577	6252
755.687	7142
755.798	5894
755.908	6708
756.018	6529
756.129	7417
756.239	6785
756.349	7215
756.460	7285
756.570	7226
756.680	6960
756.790	6956
756.900	6863
757.011	7528
757.121	7307
757.231	6600
757.341	7096
757.451	6490
757.561	7354
757.671	6845
757.781	6332
757.891	7634
758.001	7355
758.111	6889
758.221	7316
758.331	7012
758.441	6352
758.551	7723
758.661	7028
758.771	7004
758.880	7911
758.990	7473
759.100	7270
759.210	7611
759.320	7810
759.429	7916
759.539	7792
759.649	7383
759.758	8459
759.868	8503
759.978	7129
760.087	8491
760.197	7843
760.307	7840
760.416	8301
760.526	8087
760.635	8763
760.745	8409
760.854	8408
760.964	9447
761.073	8689
761.182	8890
761.292	8391
761.401	9087
761.511	9383
761.620	9360
761.729	8958
761.839	9164
761.948	9322
762.057	9437
762.166	9284
762.276	9225
762.385	11107
762.494	10596
762.603	10197
762.712	10563
762.822	10689
762.931	11174
763.040	11346
763.149	11694
763.258	11518
763.367	13102
763.476	12449
763.585	12194
763.694	13241
763.803	14480
763.912	14602
764.021	16223
764.130	15786
764.238	16721
764.347	17401
764.456	18453
764.565	20973
764.674	21305
764.783	22697
764.891	24728
765.000	27897
765.109	30238
765.217	34658
765.326	39523
765.435	45594
765.543	54575
765.652	66093
765.761	83880
765.869	110356
765.978	149628
766.086	212418
766.195	300559
766.303	400221
766.412	388654
766.520	307357
766.629	392177
766.737	326933
766.846	233939
766.954	165097
767.062	122270
767.171	95359
767.279	74941
767.387	59541
767.496	51611
767.604	44633
767.712	39374
767.820	35813
767.928	33583
768.037	30541
768.145	29004
768.253	27644
768.361	26901
768.469	25561
768.577	26321
768.685	27502
768.793	28880
768.901	30961
769.009	35958
769.117	40734
769.225	49848
769.333	66771
769.441	94677
769.549	143931
769.657	240278
769.765	360360
769.873	335872
769.981	334393
770.088	280243
770.196	174673
770.304	117312
770.412	84478
770.519	62895
770.627	50428
770.735	42834
770.842	36322
770.950	31225
771.058	28776
771.165	25395
771.273	23173
771.380	21718
771.488	20567
771.595	18457
771.703	16432
771.810	17305
771.918	15390
772.025	15713
772.133	15412
772.240	14575
772.348	13624
772.455	14321
772.562	12328
772.670	13015
772.777	12282
772.884	12116
772.991	12277
773.099	11912
773.206	10988
773.313	10453
773.420	10771
773.528	10395
773.635	10075
773.742	9920
773.849	10167
773.956	9646
774.063	9441
774.170	9086
774.277	9878
774.384	9247
774.491	9068
774.598	8971
774.705	9112
774.812	9611
774.919	9304
775.026	8881
775.133	7960
775.239	7954
775.346	7995
775.453	8218
775.560	8143
775.667	8460
775.773	8468
775.880	8587
775.987	7983
776.093	7777
776.200	8725
776.307	7973
776.413	7754
776.520	7111
776.627	7579
776.733	6934
776.840	6511
776.946	8407
777.053	7130
777.159	7391
777.266	5750
777.372	6863
777.478	6546
777.585	7690
777.691	6231
777.798	6814
777.904	7662
778.010	7383
778.117	6839
778.223	7162
778.329	6636
778.435	6425
778.542	6023
778.648	6998
778.754	5448
778.860	5736
778.966	6191
779.072	6004
779.178	6331
779.284	6178
779.391	5737
779.497	6382
779.603	8188
779.708	9699
779.815	16558
779.920	43506
780.026	115831
780.132	34844
780.238	9229
780.344	6868
780.450	6938
780.556	6430
780.661	5630
780.767	5554
780.873	4870
780.979	6026
781.085	5792
781.190	5177
781.296	5018
781.402	4998
781.507	5136
781.613	5515
781.719	4468
781.824	5479
781.930	5009
782.035	5538
782.141	5277
782.246	5140
782.352	4685
782.457	4830
782.563	5368
782.668	4417
782.773	4617
782.879	5043
782.984	4605
783.090	4970
783.195	5543
783.300	4350
783.405	3477
783.511	4537
783.616	4855
783.721	5086
783.826	5236
783.932	4725
784.037	4113
784.142	4927
784.247	4303
784.352	4516
784.457	4583
784.562	4765
784.667	4972
784.772	4577
784.877	4381
784.982	4890
785.087	4650
785.192	5351
785.297	4203
785.402	3891
785.507	4743
785.611	4013
785.716	3714
785.821	4344
785.926	4170
786.031	4455
786.135	3554
786.240	4190
786.345	3844
786.450	4533
786.554	3931
786.659	3897
786.763	2451
786.868	4982
786.973	4307
787.077	3372
787.182	3467
787.286	4244
787.391	3866
787.495	4204
787.600	4114
787.704	2939
787.809	4437
787.913	4046
788.017	3996
788.122	4167
788.226	4758
788.330	4041
788.435	2963
788.539	3644
788.643	3580
788.747	3283
788.852	3804
788.956	3431
789.060	4019
789.164	3491
789.268	3399
789.372	4593
789.476	3220
789.580	4063
789.684	2977
789.788	3005
789.892	3869
789.996	4747
790.100	3392
790.204	3908
790.308	3456
790.412	3994
790.516	3279
790.620	4037
790.724	3335
790.828	4352
790.931	3198
791.035	4480
791.139	3463
791.242	3317
791.346	4447
791.450	3663
791.554	3665
791.657	2616
791.761	3834
791.864	4130
791.968	2873
792.072	3921
792.175	2639
792.279	3570
792.382	3700
792.486	3803
792.589	3896
792.693	4222
792.796	2908
792.899	3757
793.003	3060
793.106	2753
793.209	2882
793.313	4251
793.416	1714
793.519	4389
793.623	4650
793.726	3804
793.829	4123
793.932	3531
794.035	2630
794.138	4491
794.242	3882
794.345	4399
794.448	5834
794.551	8533
794.654	24994
794.757	72204
794.860	23473
794.963	5366
795.066	3094
795.169	4535
795.272	3583
795.375	3749
795.477	2884
795.580	3495
795.683	2208
795.786	3339
795.889	2296
795.991	4574
796.094	3943
796.197	2713
796.300	3667
796.402	2884
796.505	3416
796.608	2923
796.710	2994
796.813	3313
796.915	3584
797.018	3500
797.120	2757
797.223	2416
797.326	3647
797.428	2932
797.530	2982
797.633	3329
797.735	3634
797.838	2736
797.940	2918
798.042	2581
798.145	2412
798.247	3036
798.349	1461
798.452	3257
798.554	3198
798.656	2653
798.758	3596
798.860	3352
798.962	3225
799.065	3335
799.167	2080
799.269	2756
799.371	3015
799.473	3366
799.575	2882
799.677	2767
799.779	2995
799.881	1462
799.983	2785
800.085	2572
800.187	2848
800.289	2713
800.390	2935
800.492	3204
800.594	2953
800.696	2395
800.798	2665
800.899	2300
801.001	2672
801.103	3034
801.205	2749
801.306	2043
801.408	1943
801.509	2945
801.611	2503
801.713	3280
801.814	2081
801.916	2832
802.017	1930
802.119	2792
802.220	1821
802.322	1489
802.423	3337
802.525	2176
802.626	2310
802.727	2250
802.829	2585
802.930	1448
803.031	2734
803.133	2455
803.234	2500
803.335	2481
803.436	1776
803.538	2695
803.639	1362
803.740	2848
803.841	1669
803.942	2863
804.043	2939
804.144	2779
804.245	1777
804.346	2451
804.447	2160
804.548	2895
804.649	2696
804.750	2155
804.851	1892
804.952	1985
805.053	2270
805.154	2010
805.255	2551
805.355	2130
805.456	1455
805.557	1843
805.658	2106
805.758	2593
805.859	2154
805.960	2568
806.061	1513
806.161	1853
806.262	1984
806.362	2436
806.463	2357
806.564	2672
806.664	2530
806.765	2366
806.865	2256
806.966	2473
807.066	2190
807.166	2613
807.267	3358
807.367	2592
807.468	3063
807.568	1472
807.668	2652
807.769	2826
807.869	2639
807.969	2074
808.069	2328
808.170	1878
808.270	2291
808.370	2817
808.470	2039
808.570	1991
808.670	2297
808.770	2114
808.870	2033
808.970	2735
809.070	2053
809.170	1481
809.271	2523
809.370	2061
809.470	1972
809.570	1336
809.670	1723
809.770	2198
809.870	2243
809.970	2121
810.070	1730
810.169	2930
810.269	1059
810.369	3059
810.469	1788
810.568	2773
810.668	2008
810.768	1412
810.867	1479
810.967	2431
811.066	2243
811.166	2246
811.265	2466
811.365	1858
811.464	1589
811.564	2542
811.663	1958
811.763	1827
811.862	2795
811.962	3096
812.061	2178
812.160	2010
812.260	2187
812.359	1797
812.458	2487
812.557	3565
812.657	4187
812.756	3356
812.855	2092
812.954	1468
813.053	1987
813.153	2249
813.252	1240
813.351	1283
813.450	1830
813.549	2099
813.648	2250
813.747	1990
813.846	2569
813.945	1694
814.044	2332
814.143	2284
814.242	1966
814.341	1261
814.439	1718
814.538	2947
814.637	1696
814.736	2492
814.835	2611
814.933	1703
815.032	2420
815.131	2285
815.229	3224
815.328	3233
815.427	2399
815.525	3896
815.624	3648
815.722	2523
815.821	3746
815.919	2816
816.018	2409
816.116	2884
816.215	3361
816.313	3755
816.412	3459
816.510	3305
816.609	4005
816.707	4145
816.805	3732
816.904	2830
817.002	4027
817.100	4523
817.198	4677
817.296	4080
817.395	3322
817.493	4637
817.591	5529
817.689	5864
817.787	7214
817.885	9252
817.983	14853
818.081	25658
818.179	53775
818.277	120300
818.375	129956
818.473	52794
818.571	21620
818.669	14544
818.767	12605
818.865	11018
818.963	12690
819.061	16015
819.158	25841
819.256	45499
819.354	89172
819.452	167521
819.549	140842
819.647	64006
819.745	29882
819.842	17998
819.940	12308
820.038	9419
820.135	6982
820.233	6790
820.330	5844
820.428	5357
820.525	5027
820.623	4497
820.720	3927
820.818	4312
820.915	4282
821.012	4522
821.110	2275
821.207	3970
821.304	3090
821.402	4159
821.499	3106
821.596	4180
821.693	3276
821.791	4080
821.888	3324
821.985	2998
822.082	2895
822.179	3961
822.276	2261
822.373	3130
822.470	3434
822.567	3015
822.664	2174
822.761	2745
822.858	2475
822.955	3149
823.052	2960
823.149	2617
823.246	2058
823.343	2994
823.440	3067
823.536	2366
823.633	3361
823.730	2314
823.827	2668
823.923	2894
824.020	3081
824.117	2076
824.213	1776
824.310	3579
824.407	2128
824.503	2595
824.600	2914
824.696	2480
824.793	3101
824.889	2173
824.986	2667
825.082	1993
825.179	2544
825.275	2840
825.371	1970
825.468	1888
825.564	1449
825.660	2164
825.757	2834
825.853	2911
825.949	2045
826.045	2579
826.142	1682
826.238	3062
826.334	2273
826.430	1862
826.526	2671
826.622	885
826.718	2088
826.814	2258
826.910	2655
827.006	1519
827.102	1204
827.198	2744
827.294	2180
827.390	1429
827.486	2650
827.582	1634
827.678	990
827.774	2902
827.869	1191
827.965	2454
828.061	1116
828.157	1933
828.252	2526
828.348	2001
828.444	2717
828.539	1534
828.635	1396
828.731	2232
828.826	1107
828.922	2593
829.017	2023
829.113	2889
829.208	1165
829.304	655
829.399	2428
829.495	2257
829.590	2525
829.685	1392
829.781	1808
829.876	2104
829.971	2054
830.066	1504
830.162	1175
830.257	2716
830.352	1287
830.447	2833
830.543	1923
830.638	1070
830.733	2770
830.828	1527
830.923	2122
831.018	1793
831.113	2168
831.208	2152
831.303	1135
831.398	1228
831.493	2194
831.588	1866
831.683	1603
831.778	2178
831.873	982
831.967	2057
832.062	877
832.157	1250
832.252	2496
832.346	1676
832.441	2780
832.536	2252
832.631	3086
832.725	2089
832.820	1710
832.914	1776
833.009	2135
833.104	1633
833.198	1872
833.293	778
833.387	1647
833.482	1704
833.576	1107
833.670	2907
833.765	932
833.859	1512
833.954	2307
834.048	1860
834.142	1406
834.237	1562
834.331	2060
834.425	1667
834.519	763
834.613	1756
834.708	863
834.802	1525
834.896	1617
834.990	1470
835.084	1859
835.178	1199
835.272	1123
835.366	1869
835.460	1079
835.554	1900
835.648	1414
835.742	1212
835.836	1461
835.930	487
836.024	1509
836.117	2500
836.211	2021
836.305	1879
836.399	2129
836.493	1389
836.586	1668
836.680	1002
836.774	1399
836.867	2266
836.961	550
837.055	1689
837.148	959
837.242	1926
837.335	1638
837.429	1874
837.522	1269
837.616	1979
837.709	1898
837.803	1097
837.896	1970
837.989	1999
838.083	1746
838.176	1969
838.269	2465
838.363	1084
838.456	966
838.549	2582
838.642	2368
838.735	2455
838.829	2835
838.922	2134
839.015	1343
839.108	1290
839.201	824
839.294	1544
839.387	1866
839.480	1597
839.573	456
839.666	1179
839.759	1095
839.852	1320
839.945	1420
840.038	2127
840.131	470
840.223	1493
840.316	1617
840.409	1430
840.502	1328
840.594	2121
840.687	583
840.780	2249
840.873	1000
840.965	1224
841.058	1521
841.150	2255
841.243	799
841.336	1087
841.428	737
841.521	977
841.613	837
841.706	1669
841.798	939
841.890	1540
841.983	856
842.075	1954
842.167	1015
842.260	2001
842.352	1673
842.444	1170
842.537	962
842.629	2622
842.721	1586
842.813	1153
842.905	484
842.997	1505
843.090	1311
843.182	1597
843.274	1070
843.366	3100
843.458	4905
843.550	4234
843.642	1251
843.734	1278
843.826	685
843.918	2439
844.009	2132
844.101	1111
844.193	1294
844.285	1003
844.377	1820
844.469	1897
844.560	840
844.652	1513
844.744	1653
844.835	999
844.927	59
845.019	937
845.110	1483
845.202	1547
845.293	2232
845.385	643
845.476	1475
845.568	1634
845.659	1052
845.751	1771
845.842	254
845.934	1218
846.025	889
846.116	1364
846.208	1406
846.299	1013
846.390	1388
846.482	1573
846.573	1836
846.664	2001
846.755	291
846.846	1495
846.937	1125
847.029	2568
847.120	639
847.211	994
847.302	1496
847.393	436
847.484	1223
847.575	1298
847.666	1088
847.757	1034
847.847	753
847.938	2002
848.029	801
848.120	1044
848.211	815
848.302	1146
848.392	1143
848.483	1705
848.574	1552
848.664	1079
848.755	953
848.846	1219
848.936	839
849.027	1275
849.118	1489
849.208	1435
849.299	1117
849.389	1121
849.480	1572
849.570	2320
849.661	3451
849.751	6263
849.841	3644
849.932	1998
850.022	1064
850.112	1671
850.203	1022
850.293	1485
850.383	1254
850.474	1056
850.564	815
850.654	1134
850.744	425
850.834	1607
850.924	1373
851.014	1086
851.104	733
851.194	516
851.284	703
851.374	1434
851.464	736
851.554	1273
851.644	1169
851.734	2459
851.824	1983
851.914	3425
852.004	6470
852.094	8233
852.183	3257
852.273	1515
852.363	1040
852.452	1180
852.542	893
852.632	1150
852.721	760
852.811	1426
852.901	352
852.990	1097
853.080	965
853.169	1165
853.259	1470
853.348	1289
853.438	1095
853.527	1798
853.617	1830
853.706	2221
853.795	2473
853.885	5246
853.974	9106
854.063	15788
854.152	27983
854.242	15415
854.331	3464
854.420	1081
854.509	1085
854.598	1542
854.687	1659
854.777	1855
854.866	659
854.955	1535
855.044	598
855.133	521
855.222	1052
855.311	906
855.400	809
855.488	1144
855.577	664
855.666	1362
855.755	1856
855.844	1380
855.933	1378
856.021	2151
856.110	610
856.199	679
856.288	485
856.376	900
856.465	471
856.554	632
856.642	359
856.731	1210
856.819	670
856.908	448
856.996	1214
857.085	962
857.173	554
857.262	456
857.350	1223
857.438	874
857.527	1429
857.615	1039
857.703	255
857.792	772
857.880	1275
857.968	669
858.056	1457
858.145	1901
858.233	531
858.321	820
858.409	469
858.497	307
858.585	274
858.673	1029
858.761	501
858.849	1057
858.937	439
859.025	790
859.113	1665
859.201	730
859.289	894
859.377	710
859.465	708
859.552	1304
859.640	482
859.728	1819
859.816	1039
859.903	1300
859.991	534
860.079	1878
860.166	711
860.254	1595
860.342	1283
860.429	646
860.517	389
860.604	1138
860.692	71
860.779	621
860.867	885
860.954	1253
861.042	785
861.129	1397
861.216	1203
861.304	637
861.391	365
861.478	1390
861.565	449
861.653	1409
861.740	-356
861.827	794
861.914	822
862.001	1303
862.089	948
862.176	551
862.263	850
862.350	1131
862.437	857
862.524	95
862.611	262
862.698	648
862.785	310
862.871	946
862.958	1139
863.045	968
863.132	1297
863.219	1538
863.306	-255
863.392	1397
863.479	217
863.566	1090
863.652	1133
863.739	1095
863.826	1154
863.912	1307
863.999	43
864.086	1439
864.172	12
864.259	423
864.345	743
864.432	1293
864.518	1288
864.604	461
864.691	832
864.777	1414
864.863	670
864.950	2524
865.036	610
865.122	2487
865.209	2608
865.295	2862
865.381	1626
865.467	2153
865.553	2571
865.639	1852
865.726	2255
865.812	4174
865.898	5849
865.984	7587
866.070	11752
866.156	17512
866.242	7327
866.328	2921
866.414	1496
866.499	2142
866.585	1776
866.671	1814
866.757	1908
866.843	2238
866.928	1225
867.014	1715
867.100	1741
867.186	1812
867.271	2490
867.357	1907
867.442	1894
867.528	1468
867.614	2681
867.699	1769
867.785	2304
867.870	1790
867.956	1409
868.041	1589
868.127	2077
868.212	1503
868.297	2105
868.383	1439
868.468	2054
868.553	2084
868.639	1525
868.724	2160
868.809	3126
868.894	2275
868.979	1676
869.065	1421
869.150	1078
869.235	1626
869.320	1691
869.405	2224
869.490	1217
869.575	715
869.660	1423
869.745	1531
869.830	1967
869.915	1677
870.000	1090
870.085	1634
870.169	1521
870.254	2182
870.339	1264
870.424	805
870.509	2131
870.593	2010
870.678	1923
870.763	762
870.847	255
870.932	1741
871.016	798
871.101	1180
871.186	1483
871.270	1662
871.355	1118
871.439	1108
871.523	1122
871.608	1078
871.692	879
871.777	1382
871.861	2164
871.945	1807
872.030	1333
872.114	1140
872.198	497
872.282	2124
872.367	668
872.451	1570
872.535	839
872.619	897
872.703	1006
872.787	1934
872.871	1285
872.955	721
873.039	529
873.123	1618
873.207	1129
873.291	1177
873.375	1191
873.459	1026
873.543	902
873.627	1464
873.711	1435
873.794	1600
873.878	604
873.962	1228
874.045	949
874.129	2107
874.137	1976
874.213	674
874.245	771
874.296	928
874.352	598
874.380	436
874.460	1352
874.464	1389
874.547	1334
874.568	1312
874.631	1254
874.676	1207
874.714	1174
874.784	1319
874.798	1339
874.881	1813
874.892	1679
874.965	789
874.999	664
875.048	514
875.107	1178
875.131	1422
875.215	779
875.215	779
875.298	668
875.323	668
875.381	646
875.430	945
875.465	1186
875.538	1214
875.548	1205
875.631	1060
875.646	936
875.714	425
875.753	463
875.798	483
875.861	1391
875.881	1682
875.964	1067
875.968	1037
876.047	443
876.076	567
876.130	848
876.183	551
876.213	373
876.291	836
876.296	866
876.379	487
876.398	610
876.462	1035
876.506	779
876.545	579
876.613	901
876.628	951
876.711	866
876.721	884
876.794	1199
876.828	1048
876.877	694
876.935	787
876.960	844
877.043	765
877.043	765
877.125	772
877.150	613
877.208	470
877.258	801
877.291	885
877.365	690
877.374	675
877.456	515
877.472	505
877.539	491
877.579	764
877.622	1052
877.687	1002
877.704	991
877.787	1248
877.794	1243
877.869	1020
877.901	940
877.952	940
878.008	798
878.034	717
878.115	561
878.117	558
878.199	33
878.222	228
878.282	750
878.329	805
878.364	838
878.437	907
878.447	911
878.529	-8
878.544	101
878.611	790
878.651	731
878.694	519
878.758	374
878.776	357
878.858	964
878.865	961
878.941	895
878.972	719
879.023	469
879.078	377
879.105	333
879.185	386
879.187	386
879.269	351
879.292	354
879.351	526
879.399	666
879.433	657
879.506	880
879.516	920
879.598	777
879.613	755
879.680	660
879.720	882
879.762	1128
879.827	596
879.844	397
879.926	234
879.933	229
880.007	427
880.040	442
880.089	522
880.147	270
880.171	144
880.253	522
880.254	523
880.335	739
880.360	794
880.417	878
880.467	1199
880.499	1432
880.574	1034
880.580	1012
880.662	1183
880.680	1152
880.744	561
880.787	290
880.825	244
880.893	645
880.907	737
880.989	447
881.000	495
881.070	567
881.106	317
881.152	129
881.213	402
881.233	490
881.315	572
881.319	573
881.396	957
881.426	937
881.478	429
881.532	546
881.559	697
881.639	322
881.641	317
881.722	669
881.745	759
881.803	845
881.852	420
881.885	286
881.958	548
881.966	519
882.047	599
882.064	493
882.129	394
882.171	402
882.210	413
882.277	435
882.291	387
882.372	385
882.383	320
882.454	343
882.489	501
882.535	364
882.596	186
882.616	304
882.697	1036
882.702	1040
882.778	562
882.808	492
882.859	494
882.914	519
882.940	596
883.020	364
883.021	359
883.102	288
883.127	157
883.183	384
883.233	732
883.264	665
883.339	309
883.345	342
883.426	490
883.445	680
883.507	1065
883.551	1015
883.587	697
883.657	488
883.668	553
883.749	695
883.763	703
883.830	626
883.869	614
883.910	442
883.975	517
883.991	637
884.072	791
884.081	813
884.152	690
884.187	716
884.233	755
884.292	754
884.314	759
884.394	308
884.398	325
884.475	673
884.504	568
884.555	610
884.610	856
884.636	771
884.716	611
884.716	611
884.797	502
884.821	425
884.877	608
884.927	847
884.958	702
885.033	326
885.038	336
885.118	534
885.139	580
885.199	671
885.244	811
885.279	816
885.350	880
885.359	878
885.439	618
885.456	564
885.520	504
885.561	440
885.600	419
885.667	609
885.680	654
885.760	813
885.773	814
885.840	556
885.878	396
885.920	452
885.984	944
886.000	961
886.080	682
886.089	641
886.160	331
886.195	308
886.240	467
886.300	347
886.320	428
886.400	1276
886.406	1300
886.480	615
886.511	510
886.560	745
886.616	752
886.640	782
886.720	967
886.722	969
886.800	264
886.827	115
886.879	562
886.932	841
886.959	810
887.038	772
887.039	769
887.119	528
887.143	465
887.198	989
887.248	1466
887.278	1267
887.354	467
887.358	477
887.437	968
887.459	1098
887.517	995
887.564	885
887.596	951
887.669	1009
887.676	953
887.755	384
887.774	201
887.835	495
887.880	853
887.914	593
887.985	-150
887.994	-113
888.073	415
888.090	499
888.153	536
888.195	568
888.232	434
888.300	307
888.311	347
888.391	534
888.405	562
888.470	732
888.510	835
888.549	658
888.615	446
888.628	518
888.708	898
888.720	970
888.787	374
888.825	-59
888.866	40
888.930	318
888.945	280
889.024	79
889.035	53
889.103	470
889.140	687
889.182	448
889.245	123
889.261	244
889.340	837
889.349	903
889.419	957
889.454	1009
889.498	449
889.559	-337
889.577	-131
889.656	803
889.664	900
889.735	1036
889.768	1100
889.814	1010
889.873	891
889.978	923
890.083	743
890.187	1371
890.292	693
890.397	421
890.501	498
890.606	972
890.710	539
890.815	454
890.919	1260
891.024	776
891.128	596
891.233	69
891.337	-172
891.442	480
891.546	787
891.650	1195
891.755	629
891.859	1471
891.963	922
892.068	719
892.172	219
892.276	598
892.380	-54
892.484	614
892.589	388
892.693	58
892.797	-23
892.901	455
893.005	316
893.109	272
893.213	482
893.317	257
893.421	232
893.525	-103
893.629	492
893.733	1512
893.837	220
893.941	399
894.045	75
894.148	1346
894.252	1465
894.356	1450
894.460	180
894.564	296
894.667	-153
894.771	457
894.875	244
894.978	-414
895.082	71
895.186	983
895.289	514
895.393	747
895.496	1317
895.600	275
895.703	442
895.807	683
895.910	479
896.014	616
896.117	301
896.221	1247
896.324	149
896.427	650
896.531	546
896.634	87
896.737	410
896.840	47
896.944	965
897.047	1511
897.150	-128
897.253	319
897.356	1020
897.460	617
897.563	646
897.666	178
897.769	1156
897.872	255
897.975	471
898.078	734
898.181	196
898.284	-218
898.387	420
898.490	1320
898.593	-145
898.695	1
898.798	611
898.901	958
899.004	760
899.107	1033
899.209	824
899.312	757
899.415	819
899.518	636
899.620	613
899.723	243
899.826	449
899.928	806
900.031	397
900.133	809
900.236	-105
900.338	-386
900.441	443
900.543	-77
900.646	-422
900.748	2
900.851	113
900.953	1055
901.055	353
901.158	1415
901.260	289
901.362	1158
901.465	180
901.567	-413
901.669	1062
901.771	222
901.873	902
901.976	188
902.078	-53
902.180	-71
902.282	-476
902.384	-126
902.486	81
902.588	785
902.690	356
902.792	1076
902.894	264
902.996	359
903.098	-236
903.200	543
903.302	811
903.404	540
903.505	-418
903.607	587
903.709	-155
903.811	754
903.913	540
904.014	88
904.116	427
904.218	1022
904.319	237
904.421	285
904.523	162
904.624	73
904.726	42
904.827	847
904.929	358
905.030	605
905.132	37
905.233	417
905.335	244
905.436	1297
905.537	718
905.639	-46
905.740	855
905.841	386
905.943	461
906.044	304
906.145	329
906.247	-161
906.348	791
906.449	-12
906.550	843
906.651	766
906.752	294
906.854	-2
906.955	245
907.056	571
907.157	75
907.258	399
907.359	-304
907.460	-319
907.561	259
907.662	-148
907.762	349
907.863	-92
907.964	148
908.065	572
908.166	-369
908.267	-311
908.367	-291
908.468	624
908.569	-335
908.670	447
908.770	442
908.871	195
908.971	-430
909.072	803
909.173	-769
909.273	463
909.374	-409
909.474	418
909.575	-257
909.675	348
909.776	-216
909.876	1056
909.977	-210
910.077	159
910.177	566
910.278	-99
910.378	-597
910.478	957
910.579	-21
910.679	39
910.779	520
910.879	688
910.980	368
911.080	590
911.180	123
911.280	13
911.380	346
911.480	835
911.580	-236
911.680	541
911.780	440
911.880	525
911.980	-16
912.080	-79
912.180	262
912.280	647
912.380	356
912.480	7
912.580	592
912.679	-113
912.779	264
912.879	760
912.979	-33
913.078	-221
913.178	65
913.278	-528
913.377	71
913.477	-181
913.577	-14
913.676	122
913.776	27
913.875	-25
913.975	-191
914.074	383
914.174	-199
914.273	-129
914.373	671
914.472	-35
914.572	-431
914.671	-137
914.770	91
914.870	-13
914.969	-17
915.068	16
915.167	158
915.267	-341
915.366	-745
915.465	-571
915.564	260
915.663	-398
915.763	446
915.862	403
915.961	-332
916.060	69
916.159	-21
916.258	1058
916.357	-1284
916.456	602
916.555	810
916.654	234
916.752	62
916.851	870
916.950	-114
917.049	816
917.148	-70
917.247	437
917.345	517
917.444	-316
917.543	-657
917.642	243
917.740	283
917.839	145
917.937	155
918.036	273
918.135	-394
918.233	213
918.332	-308
918.430	22
918.529	673
918.627	-37
918.726	252
918.824	810
918.923	-784
919.021	98
919.119	146
919.218	-254
919.316	74
919.414	-397
919.512	337
919.611	112
919.709	294
919.807	-316
919.905	-331
920.003	-182
920.102	164
920.200	332
920.298	197
920.396	2
920.494	159
920.592	500
920.690	-24
920.788	225
920.886	-204
920.984	661
921.082	117
921.180	300
921.277	82
921.375	-288
921.473	-412
921.571	297
921.669	357
921.766	432
921.864	205
921.962	733
922.060	-607
922.157	-116
922.255	490
922.352	595
922.450	627
922.548	206
922.645	749
922.743	-153
922.840	720
922.938	366
923.035	1048
923.133	1791
923.230	790
923.327	1474
923.425	905
923.522	839
923.619	598
923.717	757
923.814	809
923.911	420
924.008	674
924.106	732
924.203	251
924.300	1065
924.397	193
924.494	1326
924.591	393
924.688	1066
924.786	716
924.883	1270
924.979	668
925.077	1037
925.173	423
925.270	617
925.367	976
925.464	1218
925.561	1206
925.658	905
925.755	360
925.852	778
925.948	690
926.045	600
926.142	751
926.239	273
926.335	1113
926.432	295
926.529	727
926.625	621
926.722	258
926.818	1069
926.915	1168
927.011	1607
927.108	296
927.204	103
927.301	703
927.397	783
927.494	451
927.590	597
927.687	-163
927.783	769
927.879	1012
927.976	-276
928.072	99
928.168	636
928.264	349
928.361	771
928.457	59
928.553	208
928.649	764
928.745	776
928.841	443
928.937	512
929.033	499
929.129	175
929.225	43
929.321	1473
929.417	164
929.513	225
929.609	26
929.705	312
929.801	878
929.897	92
929.993	705
930.089	217
930.184	-24
930.280	612
930.376	341
930.471	286
930.567	1273
930.663	331
930.758	425
930.854	303
930.950	-255
931.045	-452
931.141	375
931.236	2018
931.332	645
931.427	568
931.523	621
931.618	106
931.714	-355
931.809	542
931.905	-211
932.000	-198
932.095	-205
932.191	729
932.286	324
932.381	799
932.476	474
932.572	266
932.667	901
932.762	54
932.857	131
932.952	512
933.047	872
933.142	257
933.237	870
933.332	569
933.427	413
933.522	171
933.617	637
933.712	671
933.807	-529
933.902	377
933.997	-151
934.092	1127
934.187	-299
934.282	750
934.376	860
934.471	536
934.566	723
934.661	1028
934.755	1058
934.850	46
934.945	-87
935.039	499
935.134	136
935.228	232
935.323	708
935.417	43
935.512	308
935.606	-669
935.701	-50
935.795	144
935.890	-404
935.984	502
936.079	402
936.173	516
936.267	-528
936.362	1277
936.456	235
936.550	1295
936.644	-73
936.738	710
936.833	-232
936.927	-115
937.021	395
937.115	389
937.209	-354
937.303	543
937.397	-243
937.491	515
937.585	314
937.679	-107
937.773	-219
937.867	240
937.961	55
938.055	1030
938.149	134
938.243	-248
938.337	-160
938.430	475
938.524	-399
938.618	249
938.712	480
938.805	303
938.899	285
938.993	178
939.086	-695
939.180	193
939.274	-501
939.367	282
939.461	512
939.554	657
939.648	-9
939.741	312
939.835	-828
939.928	1002
940.022	318
940.115	283
940.208	-204
940.302	399
940.395	814
940.488	309
940.582	-83
940.675	467
940.768	-979
940.861	600
940.954	146
941.048	176
941.141	-874
941.234	310
941.327	-485
941.420	897
941.513	327
941.606	1322
941.699	877
941.792	74
941.885	61
941.978	655
942.071	680
942.164	-177
942.257	278
942.349	9
942.442	-149
942.535	231
942.628	-12
942.721	-285
942.813	-292
942.906	855
942.999	283
943.091	-1295
943.184	192
943.277	2
943.369	-571
943.462	-159
943.554	-157
943.647	-231
943.739	-168
943.832	1141
943.924	-261
944.017	38
944.109	-1262
944.201	188
944.294	9
944.386	-533
944.478	-220
944.571	93
944.663	45
944.755	-14
944.847	-463
944.940	331
945.032	-940
945.124	-49
945.216	31
945.308	433
945.400	-142
945.492	395
945.584	-463
945.676	160
945.768	107
945.860	344
945.952	-572
946.044	-208
946.136	-915
946.228	-5
946.320	-529
946.412	111
946.503	-518
946.595	1060
946.687	-400
946.779	-94
946.870	-316
946.962	-66
947.054	340
947.145	138
947.237	-202
947.329	135
947.420	115
947.512	668
947.603	-344
947.695	-292
947.786	-306
947.878	-345
947.969	-86
948.061	257
948.152	-213
948.243	433
948.335	-241
948.426	-510
948.517	189
948.609	-139
948.700	-1079
948.791	-736
948.882	-322
948.973	-222
949.065	-1404
949.156	372
949.247	-486
949.338	-71
949.429	-689
949.520	432
949.611	-511
949.702	421
949.793	-162
949.884	-681
949.975	-108
950.066	-1021
950.157	-54
950.247	-419
950.338	-116
950.429	-77
950.520	-182
950.611	-1670
950.701	221
950.792	345
950.883	-175
950.973	-513
951.064	-834
951.155	-6
951.245	-72
951.336	3
951.427	-299
951.517	-120
951.608	-440
951.698	34
951.788	-124
951.879	-324
951.969	-333
952.060	-111
952.150	47
952.240	465
952.331	-1751
952.421	-257
952.511	-457
952.602	-788
952.692	-1008
952.782	-3
952.872	-563
952.962	-702
953.052	-687
953.143	-909
953.233	-303
953.323	503
953.413	-619
953.503	-538
953.593	119
953.683	121
953.773	-576
953.863	-228
953.953	-705
954.042	-643
954.132	-243
954.222	-70
954.312	-256
954.402	194
954.492	-714
954.581	-611
954.671	-643
954.761	-636
954.850	-99
954.940	-416
955.030	220
955.119	-854
955.209	179
955.298	40
955.388	-842
955.477	345
955.567	-108
955.656	-344
955.746	-836
955.835	-1065
955.925	-1186
956.014	-1423
956.103	-621
956.193	-69
956.282	-335
956.371	-151
956.461	-816
956.550	481
956.639	-471
956.728	-730
956.817	-210
956.906	159
956.995	164
957.085	-575
957.174	-1095
957.263	-682
957.352	-366
957.441	-1124
957.530	-452
957.619	-546
957.708	-573
957.796	-589
957.885	156
957.974	-525
958.063	-392
958.152	-509
958.241	-94
958.329	-832
958.418	-507
958.507	-944
958.596	-472
958.684	-752
958.773	105
958.861	-326
958.950	-1160
959.039	-101
959.127	-928
959.216	48
959.304	-1011
959.393	-643
959.481	-380
959.570	-124
959.658	-647
959.746	-139
959.835	-482
959.923	122
960.011	-723
960.100	331
960.188	-565
960.276	38
960.365	-592
960.453	-342
960.541	-1036
960.629	-99
960.717	-627
960.805	336
960.893	86
960.981	-1234
961.069	-158
961.158	-676
961.245	308
961.333	9
961.421	-1094
961.509	75
961.597	-388
961.685	217
961.773	-584
961.861	-443
961.949	-512
962.036	-1117
962.124	-79
962.212	-41
962.299	-853
962.387	-117
962.475	-1098
962.562	-1573
962.650	115
962.738	-172
962.825	-1039
962.913	-15
963.000	-698
963.088	-326
963.175	-784
963.263	-555
963.350	-578
963.438	-149
963.525	-187
963.612	-311
963.700	391
963.787	2943
963.874	1183
963.962	-199
964.049	214
964.136	-817
964.223	-960
964.310	-338
964.398	-991
964.485	-354
964.572	-1052
964.659	8
964.746	-234
964.833	-186
964.920	-706
965.007	-1139
965.094	-747
965.181	-453
965.268	-316
965.355	-687
965.441	-984
965.528	-795
965.615	-944
965.702	-666
965.789	-910
965.875	228
965.962	-393
966.049	-784
966.136	-147
966.222	-534
966.309	-960
966.395	-216
966.482	-898
966.569	-257
966.655	-726
966.742	-1348
966.828	-798
966.915	-795
967.001	-817
967.087	-121
967.174	-957
967.260	-170
967.347	-767
967.433	335
967.519	685
967.605	452
967.692	-459
967.778	-738
967.864	-795
967.950	-1538
968.036	-551
968.123	-861
968.209	-1378
968.295	-1307
968.381	432
968.467	-863
968.553	-1550
968.639	-216
968.725	-983
968.811	-73
968.897	-327
968.983	-543
969.069	-1276
969.154	423
969.240	-442
969.326	-1158
969.412	-227
969.497	-1157
969.583	-1578
969.669	-601
969.755	463
969.840	99
969.926	-901
970.012	-284
970.097	-566
970.183	-328
970.268	-967
970.354	-91
970.439	-531
970.525	114
970.610	-864
970.696	63
970.781	-685
970.866	-970
970.952	493
971.037	-1210
971.122	-493
971.208	-42
971.293	-926
971.378	-1013
971.463	-728
971.549	-994
971.634	-1252
971.719	-69
971.804	-1238
971.889	-113
971.974	-703
972.059	-61
972.144	-403
972.229	-827
972.314	-2079
972.399	-247
972.484	-249
972.569	-318
972.654	-1305
972.739	-150
972.824	-232
972.908	211
972.993	-991
973.078	519
973.163	-662
973.247	-792
973.332	-1550
973.417	314
973.501	-593
973.586	-571
973.671	-732
973.755	-725
973.840	-922
973.924	-919
974.009	-464
974.093	-782
974.178	-236
974.262	-312
974.346	-194
974.431	-491
974.515	-428
974.600	-807
974.684	222
974.768	-948
974.852	203
974.937	-735
975.021	405
975.105	-723
975.189	-547
975.273	-490
975.358	-681
975.442	-991
975.526	-588
975.610	-898
975.694	-1217
975.778	199
975.862	-1267
975.946	-1168
976.030	319
976.114	-1344
976.198	-430
976.281	-393
976.365	-624
976.449	-515
976.533	-391
976.617	-696
976.700	-1140
976.784	151
976.868	-871
976.951	-1170
977.035	-790
977.119	23
977.202	-710
977.286	-648
977.369	-692
977.453	-133
977.536	-710
977.620	-1609
977.703	-475
977.787	-1361
977.870	-170
977.953	-653
978.037	-786
978.120	454
978.203	-750
978.287	269
978.370	-490
978.453	-262
978.536	-1057
978.620	-594
978.703	-143
978.786	-752
978.869	-1037
978.952	-1462
979.035	-14
979.118	-320
979.201	-1763
979.284	-15
979.367	-1236
979.450	-481
979.533	-1346
979.616	-881
979.699	-797
979.782	-780
979.865	-227
979.948	-956
980.030	-1475
980.113	-525
980.196	-1266
980.279	370
980.361	-714
980.444	-1316
980.526	-1039
980.609	-599
980.692	-1337
980.774	-925
980.857	-1194
980.939	-1057
981.022	-1077
981.104	-1061
981.187	-764
981.269	-456
981.352	-939
981.434	-1481
981.516	-650
981.599	318
981.681	-1046
981.763	-993
981.846	-913
981.928	-888
982.010	-1032
982.092	-1123
982.174	-229
982.256	-550
982.339	-1397
982.421	-677
982.503	-1133
982.585	-1218
982.667	-487
982.749	-1406
982.831	-998
982.913	-1067
982.995	-281
983.077	-1127
983.158	100
983.240	-1349
983.322	-1186
983.404	-333
983.486	-1335
983.568	-141
983.649	-1085
983.731	-110
983.813	-1853
983.894	-1068
983.976	-1203
984.058	-912
984.139	-336
984.221	-1266
984.302	143
984.384	-723
984.465	-1696
984.547	25
984.628	-1408
984.710	-28
984.791	-763
984.872	-729
984.954	-583
985.035	-214
985.116	-1407
985.198	-27
985.279	-12
985.360	-429
985.441	-864
985.522	199
985.604	-576
985.685	-1867
985.766	115
985.847	249
985.928	-1246
986.009	-795
986.090	-1249
986.171	-429
986.252	-844
986.333	-1456
986.414	-1219
986.495	-804
986.576	-1252
986.656	-629
986.737	-729
986.818	-995
986.899	-998
986.980	-1068
987.060	-1410
987.141	-934
987.222	-1151
987.302	-547
987.383	-887
987.464	-1095
987.544	-620
987.625	-1237
987.705	-635
987.786	-454
987.866	-1188
987.947	-707
988.027	-1313
988.108	-1903
988.188	-874
988.268	-640
988.349	-1098
988.429	-646
988.509	-707
988.589	-729
988.670	-2169
988.750	487
988.830	-1169
988.910	-1336
988.990	-855
989.070	-753
989.151	-789
989.231	-1594
989.311	-751
989.391	-606
989.471	-778
989.551	-754
989.631	-1757
989.711	-242
989.791	-2037
989.870	-1391
989.950	-717
990.030	-823
990.110	-1485
990.190	-648
990.269	-279
990.349	-645
990.429	-1023
990.509	-1158
990.588	-2038
990.668	-155
990.747	-1106
990.827	-954
990.907	-1043
990.986	-1131
991.066	-1034
991.145	-925
991.225	-882
991.304	-761
991.383	-1273
991.463	-1456
991.542	-1253
991.622	-1162
991.701	-1317
991.780	-1218
991.859	-2080
991.939	-535
992.018	-1294
992.097	-914
992.176	-1003
992.256	-1543
992.335	-1765
992.414	-692
992.493	-1052
992.572	-1162
992.651	-1090
992.730	-311
992.809	-1244
992.888	-1180
992.967	-1597
993.046	-1651
993.125	-2440
993.203	-892
993.282	-1094
993.361	-1343
993.440	-1347
993.519	-2499
993.597	-890
993.676	-1332
993.755	-1108
993.834	-772
993.912	-2002
993.991	-1367
994.069	-1795
994.148	-1419
994.226	-2109
994.305	-1113
994.384	-1280
994.462	-1165
994.540	-1972
994.619	-1768
994.697	-1138
994.776	-1141
994.854	-1186
994.932	-1573
995.011	-949
995.089	-1621
995.167	-953
995.245	-795
995.324	-1395
995.402	-1135
995.480	-1401
995.558	-1000
995.636	-1748
995.714	-1785
995.792	-1043
995.870	-1727
995.948	-1210
996.026	-810
996.104	-2535
996.182	-516
996.260	-1793
996.338	-1402
996.416	-2315
996.494	-1043
996.572	-848
996.649	-711
996.727	-1952
996.805	-1437
996.883	-1470
996.960	-1600
997.038	-1350
997.116	-1290
997.193	-2002
997.271	-1211
997.348	-1799
997.426	-1114
997.504	-1779
997.581	-837
997.658	-1353
997.736	-1041
997.813	-1950
997.891	-1138
997.968	-1833
998.046	-1219
998.123	-1779
998.200	-506
998.277	-1984
998.355	-914
998.432	-2129
998.509	-1583
998.586	-1171
998.663	-1194
998.741	-597
998.818	-2544
998.895	-1948
998.972	-1399
999.049	-2349
999.126	-1982
999.203	-1444
999.280	-1588
999.357	-1733
999.434	-1642
999.511	-1933
999.587	-1457
999.664	-2060
999.741	-1383
999.818	-1425
999.895	-2471
999.971	-2499
1000.048	-1459
1000.125	-1301
1000.202	-1835
1000.278	-2225
1000.355	-977
1000.431	-1446
1000.508	-1159
1000.584	-1274
1000.661	-1776
1000.738	-2011
1000.814	-1654
1000.890	-1995
1000.967	-1425
1001.043	-1425
1001.120	-2076
1001.196	-1501
1001.272	-918
1001.349	-2286
1001.425	-996
1001.501	-1462
1001.577	-1717
1001.654	-1300
1001.730	-930
1001.806	-2752
1001.882	-2074
1001.958	-1416
1002.034	-1806
1002.110	-1323
1002.186	-1720
1002.262	-2035
1002.338	-1506
1002.414	-1608
1002.490	-1234
1002.566	-1705
1002.642	-2050
1002.718	-1933
1002.794	-1315
1002.870	-1798
1002.945	-2151
1003.021	-1512
1003.097	-2517
1003.173	-494
1003.248	-2459
1003.324	-2070
1003.400	-1542
1003.475	-1777
1003.551	-1858
1003.626	-2246
1003.702	-1902
1003.777	-1317
1003.853	-2392
1003.928	-2253
1004.004	-1187
1004.079	-2772
1004.155	-2071
1004.230	-2653
1004.305	-808
1004.381	-2311
1004.456	-1386
1004.531	-1750
1004.607	-1746
1004.682	-1463
1004.757	-1403
1004.832	-2441
1004.907	-1841
1004.982	-1687
1005.057	-2250
1005.133	-2122
1005.208	-950
1005.283	-2046
1005.358	-145
1005.433	-2001
1005.508	-1412
1005.583	-1799
1005.657	-1660
1005.732	-1286
1005.807	-1440
1005.882	-1426
1005.957	-1538
1006.032	-1714
1006.106	-1669
1006.181	-1308
1006.256	-1807
1006.331	-2873
1006.405	-1459
1006.480	-1757
1006.554	-1586
1006.629	-1724
1006.704	-1825
1006.778	-1027
1006.853	-1497
1006.927	-1910
1007.002	-1747
1007.076	-2147
1007.150	-1524
1007.225	-2164
1007.299	-1361
1007.373	-2464
1007.448	-1497
1007.522	-1516
1007.596	-1786
1007.671	-2468
1007.745	-1393
1007.819	-2710
1007.893	-1899
1007.967	-2234
1008.041	-2103
1008.115	-1808
1008.190	-2677
1008.264	-1235
1008.338	-3064
1008.412	-2625
1008.486	-1607
1008.560	-1241
1008.633	-2632
1008.707	-2490
1008.781	-1252
1008.855	-1723
1008.929	-1440
1009.003	-2462
1009.076	-2181
1009.150	-1727
1009.224	-1856
1009.298	-1845
1009.371	-1915
1009.445	-1230
1009.519	-1229
1009.592	-2401
1009.666	-1353
1009.739	-1687
1009.813	-2135
1009.886	-1170
1009.960	-1930
1010.033	-2256
1010.107	-1424
1010.180	-2157
1010.253	-1275
1010.327	-1655
1010.400	-2003
1010.473	-1939
1010.547	-1292
1010.620	-1706
1010.693	-1872
1010.766	-1669
1010.840	-992
1010.913	-1834
1010.986	-2878
1011.059	-1334
1011.132	-1758
1011.205	-1900
1011.278	-1391
1011.351	-2618
1011.424	-1498
1011.497	-2175
1011.570	-1693
1011.643	-2295
1011.716	-2554
1011.789	-2401
1011.862	-801
1011.934	-1463
1012.007	-2264
1012.080	-1514
1012.153	-1047
1012.225	-1133
1012.298	-2001
1012.371	-1703
1012.443	-1164
1012.516	-3040
1012.588	-2115
1012.661	-1560
1012.733	-1826
1012.806	-1586
1012.879	-2157
1012.951	-2138
1013.023	-2082
1013.096	-1460
1013.168	-2345
1013.241	-1097
1013.313	-2047
1013.385	-1980
1013.458	-1362
1013.530	-1569
1013.602	-2309
1013.674	-1587
1013.746	-1742
1013.819	-1997
1013.891	-2335
1013.963	-1564
1014.035	-1631
1014.107	-1727
1014.179	-1824
1014.251	-1758
1014.323	-1606
1014.395	-2179
1014.467	-1421
1014.539	-1358
1014.611	-2082
1014.683	-1425
1014.754	-1775
1014.826	-2291
1014.898	-1999
1014.970	-2589
1015.042	-687
1015.113	-1636
1015.185	-2465
1015.257	-2237
1015.328	-1489
1015.400	-2468
1015.471	-1810
1015.543	-2382
1015.615	-1712
1015.686	-2574
1015.757	-1958
1015.829	-1931
1015.901	-1395
1015.972	-2475
1016.043	-2343
1016.115	-1754
1016.186	-1523
1016.257	-2650
1016.328	-1989
1016.400	-1357
1016.471	-2214
1016.542	-2310
1016.613	-2004
1016.685	-2089
1016.756	-1546
1016.827	-2356
1016.898	-2031
1016.969	-1355
1017.040	-2225
1017.111	-1765
1017.182	-2044
1017.253	-2520
1017.324	-1764
1017.395	-2395
1017.466	-2487
1017.537	-1171
1017.608	-1590
1017.678	-2257
1017.749	-1624
1017.820	-2049
1017.891	-2287
1017.961	-2720
1018.032	-2200
1018.103	-2009
1018.173	-1419
1018.244	-2637
1018.315	-1474
1018.385	-2256
1018.456	-1578
1018.526	-2681
1018.597	-1979
1018.667	-1532
1018.738	-2025
1018.808	-1397
1018.878	-1785
1018.949	-1895
1019.019	-1637
1019.089	-2133
1019.160	-1859
1019.230	-2120
1019.300	-919
1019.371	-1975
1019.441	-1450
1019.511	-1704
1019.581	-1311
1019.651	-2010
1019.721	-1433
1019.791	-2653
1019.861	-2115
1019.931	-1699
1020.001	-1493
1020.071	-1857
1020.141	-2057
1020.211	-2142
1020.281	-1262
1020.351	-2798
1020.421	-2099
1020.491	-1792
1020.560	-2186
1020.630	-1652
1020.700	-2152
1020.770	-2379
1020.839	-1796
1020.909	-2310
1020.979	-1980
1021.048	-1621
1021.118	-1754
1021.187	-2414
1021.257	-1921
1021.326	-1690
1021.396	-1819
1021.465	-1938
1021.535	-1426
1021.604	-2866
1021.674	-1916
1021.743	-1851
1021.812	-1641
1021.882	-1577
1021.951	-1761
1022.020	-2280
1022.089	-2188
1022.159	-2607
1022.228	-1858
1022.297	-1925
1022.366	-1636
1022.435	-1914
1022.504	-2393
1022.573	-2135
1022.642	-1026
1022.711	-2064
1022.781	-1270
1022.849	-1920
1022.918	-1973
1022.987	-1029
1023.056	-1798
1023.125	-1777
1023.194	-2364
1023.263	-1695
1023.331	-2653
1023.400	-2261
1023.469	-2352
1023.538	-2297
1023.606	-1481
1023.675	-1946
1023.744	-1670
1023.812	-2313
1023.881	-2009
1023.949	-1872
1024.018	-1624
1024.086	-1737
1024.155	-2358
1024.223	-2455
1024.292	-1529
1024.360	-2312
1024.429	-1657
1024.497	-1771
1024.565	-2544
1024.634	-2200
1024.702	-1611
1024.770	-1771
1024.838	-2234
1024.907	-2095
1024.975	-1951
1025.043	-1676
1025.111	-1920
1025.179	-1870
1025.247	-1937
1025.315	-2256
1025.383	-2015
1025.451	-1784
1025.519	-1849
1025.587	-2004
1025.655	-2050
1025.723	-1841
1025.791	-1890
1025.859	-1588
1025.927	-1982
1025.995	-1922
1026.062	-1640
1026.130	-1845
1026.198	-1308
1026.266	-2233
1026.333	-1518
1026.401	-2262
1026.469	-1320
1026.536	-2612
1026.604	-2033
1026.671	-2197
1026.739	-2389
1026.806	-2108
1026.874	-1713
1026.941	-1701
1027.009	-1599
1027.076	-2161
1027.144	-1224
1027.211	-2168
1027.278	-2052
1027.345	-2446
1027.413	-1541
1027.480	-2810
1027.547	-1856
1027.614	-3049
1027.682	-1882
1027.749	-2583
1027.816	-1293
1027.883	-1810
1027.950	-1321
1028.017	-2440
1028.084	-1947
1028.151	-2151
1028.218	-1225
1028.285	-2383
1028.352	-2290
1028.419	-2518
1028.486	-1733
1028.553	-1570
1028.619	-2043
1028.686	-1899
1028.753	-1843
1028.820	-2314
1028.886	-2409
1028.953	-2014
1029.020	-2692
1029.086	-2722
1029.153	-2000
1029.220	-2583
1029.286	-2166
1029.353	-2384
1029.419	-1626
1029.486	-2459
1029.552	-2999
1029.619	-1858
1029.685	-2287
1029.751	-2116
1029.818	-939
1029.884	-2161
1029.951	-892
1030.017	-1304
1030.083	-1277
1030.149	-1534
1030.216	-1811
1030.282	-1477
1030.348	-1812
1030.414	-2497
1030.480	-2054
1030.546	-2579
1030.612	-1868
1030.678	-3143
1030.744	-2092
1030.810	-2080
1030.876	-1999
1030.942	-3049
1031.008	-2109
1031.074	-1850
1031.140	-1450
1031.206	-1897
1031.272	-2115
1031.337	-2522
1031.403	-1832
1031.469	-2133
1031.534	-1762
1031.600	-1208
1031.666	-2569
1031.731	-2360
1031.797	-1448
1031.863	-2060
1031.928	-2151
1031.994	-2171
1032.059	-2561
1032.125	-1841
1032.190	-1187
1032.256	-2406
1032.321	-2056
1032.386	-1853
1032.452	-2325
1032.517	-2285
1032.582	-2281
1032.647	-2506
1032.713	-1693
1032.778	-2572
1032.843	-2481
1032.908	-2580
1032.974	-2094
1033.039	-2970
1033.104	-1116
1033.169	-2676
1033.234	-2034
1033.299	-1537
1033.364	-2491
1033.429	-2491
1033.494	-1023
1033.559	-2868
1033.624	-1408
1033.688	-1729
1033.753	-1771
1033.818	-2234
1033.883	-2357
1033.948	-1825
1034.013	-1962
1034.077	-2237
1034.142	-2286
1034.207	-2269
1034.271	-1937
1034.336	-2015
1034.400	-1364
1034.465	-2249
1034.530	-2514
1034.594	-1914
1034.658	-2220
1034.723	-2003
1034.787	-2515
1034.852	-1809
1034.916	-2194
1034.981	-2725
1035.045	-2015
1035.109	-2258
1035.173	-1193
1035.238	-2286
1035.302	-2018
1035.366	-3114
1035.430	-2330
1035.495	-2514
1035.559	-1009
1035.623	-1403
1035.687	-1966
1035.751	-2293
1035.815	-2203
1035.879	-2352
1035.943	-2173
1036.007	-2418
1036.071	-1715
1036.135	-2203
1036.198	-2221
1036.262	-2315
1036.326	-1935
1036.390	-2452
1036.454	-2614
1036.517	-2570
1036.581	-1724
1036.645	-1803
1036.709	-1484
1036.772	-2895
1036.836	-2170
1036.900	-2074
1036.963	-2749
1037.026	-2661
1037.090	-2414
1037.154	-2282
1037.217	-2874
1037.280	-3098
1037.344	-2776
1037.407	-2699
1037.471	-2257
1037.534	-2278
1037.597	-1745
1037.661	-2722
1037.724	-1940
1037.787	-2771
1037.850	-1633
1037.913	-3011
1037.977	-1098
1038.040	-2949
1038.103	-1660
1038.166	-2959
1038.229	-2233
1038.292	-2070
1038.355	-1654
1038.418	-2213
1038.481	-2072
1038.544	-1919
1038.607	-2029
1038.670	-3226
1038.732	-2610
1038.795	-2555
1038.858	-1871
1038.921	-2076
1038.984	-1634
1039.046	-2109
1039.109	-1828
1039.172	-1782
1039.234	-2231
1039.297	-2433
1039.360	-2031
1039.422	-1918
1039.485	-1803
1039.547	-2473
1039.610	-1380
1039.672	-2488
1039.734	-1887
1039.797	-2070
1039.859	-1850
1039.922	-2761
1039.984	-2586
1040.046	-2432
1040.109	-2369
1040.171	-3224
1040.233	-1329
1040.295	-2342
1040.358	-1859
1040.420	-2398
1040.482	-2344
1040.544	-2274
1040.606	-2356
1040.668	-2223
1040.730	-3001
1040.792	-2139
1040.854	-1754
1040.916	-2128
1040.978	-2212
1041.040	-1225
1041.102	-2260
1041.164	-2582
1041.225	-1892
1041.287	-2354
1041.349	-2226
1041.411	-2562
1041.472	-2044
1041.534	-2218
1041.596	-2567
1041.657	-2667
1041.719	-1983
1041.781	-2489
1041.842	-2806
1041.904	-1633
1041.965	-1908
1042.027	-1657
1042.088	-1743
1042.150	-1923
1042.211	-1549
1042.272	-1807
1042.334	-2145
1042.395	-1891
1042.456	-2942
1042.518	-2182
1042.579	-1321
1042.640	-2556
1042.701	-1694
1042.763	-2612
1042.824	-1920
1042.885	-1932
1042.946	-2227
1043.007	-2973
1043.068	-2387
1043.129	-2172
1043.190	-2117
1043.251	-1932
1043.312	-2467
1043.373	-1921
1043.434	-2228
1043.495	-2355
1043.556	-1796
1043.616	-2798
1043.677	-1980
1043.738	-2494
1043.799	-2843
1043.859	-2455
1043.920	-2060
1043.981	-2516
1044.041	-1282
1044.102	-2127
1044.162	-2396
1044.223	-3186
1044.284	-2701
1044.344	-1643
1044.405	-2003
1044.465	-2109
1044.525	-1518
1044.586	-1847
1044.646	-2757
1044.707	-1726
1044.767	-1962
1044.827	-2096
1044.887	-1867
1044.948	-2188
1045.008	-2195
1045.068	-2576
1045.128	-1507
1045.188	-2277
1045.249	-2090
1045.309	-2209
1045.369	-1915
1045.429	-2517
1045.489	-2064
1045.549	-1838
1045.609	-2332
1045.669	-2957
1045.729	-1709
1045.789	-1680
1045.848	-1711
1045.908	-2080
1045.968	-1786
1046.028	-1540
1046.088	-1807
1046.147	-1445
1046.207	-1391
1046.267	-2808
1046.326	-1485
1046.386	-1969
1046.446	-1209
1046.505	-1794
1046.565	-1162
1046.624	-2384
1046.684	-986
1046.743	-1089
1046.803	-441
1046.862	-443
1046.922	0
