'Start Wavelength	183.907
'End Wavelength	1046.922
'Gate Delay	5.000
'Gate Width (ms)	1.050
'Laser Output Level	0.000
'X Position	0.000
'Y Position	0.000
'Z Position	0.000
'Grid Point Number	1.000
'Shot Number	100.000
183.907	263.000
183.977	-555.000
184.047	273
184.116	-186
184.186	447
184.256	-451
184.325	71
184.395	-227
184.465	910
184.534	-115
184.604	-91
184.674	-72
184.743	623
184.813	223
184.883	230
184.952	-903
185.022	859
185.092	45
185.161	546
185.231	494
185.301	639
185.370	50
185.440	331
185.509	178
185.579	221
185.649	37
185.718	-601
185.788	-194
185.857	744
185.927	-286
185.996	446
186.066	-98
186.136	39
186.205	802
186.275	413
186.344	208
186.414	583
186.483	-238
186.553	569
186.622	625
186.692	-16
186.761	-33
186.831	451
186.900	-274
186.970	162
187.039	267
187.109	800
187.178	322
187.248	1258
187.317	247
187.387	714
187.456	155
187.526	389
187.595	58
187.664	488
187.734	632
187.803	322
187.873	571
187.942	788
188.012	469
188.081	522
188.150	480
188.220	1291
188.289	682
188.358	911
188.428	422
188.497	-580
188.567	688
188.636	369
188.705	-132
188.775	514
188.844	-443
188.913	1127
188.983	-243
189.052	639
189.121	220
189.191	492
189.260	811
189.329	1429
189.399	837
189.468	17
189.537	591
189.606	1026
189.676	1146
189.745	751
189.814	226
189.883	896
189.953	689
190.022	2087
190.091	4571
190.161	6634
190.230	1638
190.299	985
190.368	816
190.437	22
190.507	411
190.576	1501
190.645	225
190.714	638
190.783	58
190.853	1016
190.922	987
190.991	677
191.060	1284
191.129	788
191.198	165
191.268	577
191.337	478
191.406	1471
191.475	408
191.544	1040
191.613	131
191.682	316
191.752	-61
191.821	589
191.890	178
191.959	823
192.028	246
192.097	1034
192.166	-19
192.235	504
192.304	685
192.373	204
192.442	219
192.511	334
192.580	282
192.650	1372
192.719	262
192.788	514
192.857	258
192.926	1471
192.995	485
193.064	3855
193.133	2154
193.202	2345
193.271	1909
193.340	1833
193.409	1540
193.478	2161
193.547	2139
193.615	3863
193.684	2630
193.753	1819
193.822	1207
193.891	836
193.960	743
194.029	1348
194.098	276
194.167	848
194.236	1064
194.305	669
194.374	756
194.443	1032
194.512	517
194.580	1140
194.649	1277
194.718	513
194.787	592
194.856	1224
194.925	991
194.994	1317
195.062	440
195.131	996
195.200	855
195.269	2265
195.338	490
195.407	687
195.475	986
195.544	716
195.613	828
195.682	1054
195.751	1730
195.819	1554
195.888	1568
195.957	2137
196.026	1564
196.094	1967
196.163	1503
196.232	2081
196.301	1104
196.369	1652
196.438	1450
196.507	1766
196.576	794
196.644	1040
196.713	194
196.782	992
196.850	672
196.919	1501
196.988	839
197.056	1007
197.125	1179
197.194	1543
197.262	994
197.331	1351
197.400	836
197.468	1166
197.537	876
197.606	1750
197.674	3882
197.743	7600
197.812	2329
197.880	7436
197.949	3269
198.017	6005
198.086	3648
198.155	2193
198.223	2796
198.292	8351
198.360	2906
198.429	2668
198.497	2387
198.566	5570
198.635	6370
198.703	2183
198.772	2771
198.840	11373
198.909	8911
198.977	2897
199.046	2025
199.114	2431
199.183	2030
199.251	1039
199.320	583
199.388	1589
199.457	769
199.525	1331
199.594	392
199.662	1565
199.731	873
199.799	2032
199.867	909
199.936	1459
200.004	928
200.073	1605
200.141	1174
200.210	1553
200.278	965
200.346	1646
200.415	598
200.483	1797
200.552	1130
200.620	1619
200.688	1199
200.757	641
200.825	1614
200.893	2052
200.962	1248
201.030	1709
201.098	717
201.167	1975
201.235	1150
201.303	1317
201.372	1064
201.440	1553
201.508	2400
201.577	1499
201.645	1425
201.713	1554
201.781	810
201.850	1965
201.918	1315
201.986	1709
202.055	1170
202.123	926
202.191	754
202.259	1198
202.327	791
202.396	1324
202.464	1903
202.532	2590
202.600	7027
202.669	3138
202.737	1451
202.805	1663
202.873	689
202.941	1978
203.009	899
203.078	1108
203.146	1612
203.214	963
203.282	1807
203.350	1807
203.418	1031
203.487	1780
203.555	1227
203.623	1914
203.691	1377
203.759	1365
203.827	1055
203.895	1955
203.963	1439
204.031	1222
204.099	1001
204.168	1890
204.236	549
204.304	2001
204.372	1671
204.440	2018
204.508	892
204.576	2134
204.644	1578
204.712	2005
204.780	1171
204.848	1568
204.916	1436
204.984	1568
205.052	1032
205.120	1890
205.188	1471
205.256	1489
205.324	1571
205.392	1621
205.460	1816
205.528	2430
205.596	1682
205.664	2036
205.732	2577
205.799	9917
205.867	12509
205.935	2516
206.003	2731
206.071	2448
206.139	1810
206.207	2584
206.275	1193
206.343	2171
206.411	1045
206.478	1752
206.546	1630
206.614	1897
206.682	859
206.750	2060
206.818	2125
206.885	2183
206.953	1141
207.021	1940
207.089	1383
207.157	1475
207.225	1819
207.292	1578
207.360	2195
207.428	2198
207.496	1960
207.563	1752
207.631	1806
207.699	1618
207.767	1319
207.834	1708
207.902	1717
207.970	2452
208.038	1379
208.105	1787
208.173	1939
208.241	3199
208.309	3092
208.376	2947
208.444	5311
208.512	2808
208.579	1610
208.647	2447
208.715	1833
208.782	2268
208.850	1806
208.918	2000
208.985	2650
209.053	1942
209.120	2248
209.188	1387
209.256	1647
209.323	2643
209.391	3847
209.459	3118
209.526	2275
209.594	2397
209.661	1497
209.729	1987
209.796	1519
209.864	2629
209.932	1506
209.999	3135
210.067	2089
210.134	2519
210.202	3275
210.269	2925
210.337	2541
210.404	2038
210.472	1728
210.539	2731
210.607	2612
210.674	3172
210.742	1753
210.809	2554
210.877	3070
210.944	4052
211.012	2426
211.079	3563
211.146	2011
211.214	2677
211.281	2372
211.349	3377
211.416	2163
211.484	3835
211.551	2822
211.618	2942
211.686	2646
211.753	2859
211.821	2698
211.888	2268
211.955	2191
212.023	3623
212.090	2776
212.157	2847
212.225	3526
212.292	9239
212.359	21128
212.427	54476
212.494	17868
212.561	7330
212.629	3925
212.696	3890
212.763	3311
212.831	2959
212.898	2788
212.965	2324
213.032	2953
213.100	3306
213.167	2731
213.234	3238
213.301	3338
213.369	3737
213.436	3402
213.503	3116
213.570	2794
213.638	2773
213.705	2445
213.772	2474
213.839	4719
213.906	4439
213.973	3831
214.041	3427
214.108	2729
214.175	3363
214.242	2877
214.309	2761
214.376	2954
214.444	3060
214.511	3188
214.578	3259
214.645	2723
214.712	3196
214.779	2704
214.846	3063
214.913	3402
214.980	3277
215.048	4009
215.115	4218
215.182	2891
215.249	3995
215.316	2508
215.383	3319
215.450	3155
215.517	2663
215.584	2214
215.651	2907
215.718	1896
215.785	4071
215.852	3255
215.919	3832
215.986	3693
216.053	3332
216.120	1763
216.187	3161
216.254	3643
216.321	3115
216.388	2410
216.455	4234
216.522	3590
216.589	4113
216.656	8782
216.722	8595
216.789	4544
216.856	4561
216.923	3976
216.990	4574
217.057	3531
217.124	5099
217.191	4729
217.258	5548
217.324	5994
217.391	6503
217.458	4860
217.525	3952
217.592	3703
217.659	4033
217.725	4155
217.792	8155
217.859	5925
217.926	4052
217.993	2813
218.059	2942
218.126	2848
218.193	2198
218.260	2535
218.327	2688
218.393	2329
218.460	2433
218.527	2096
218.594	3608
218.660	7217
218.727	7884
218.794	2485
218.860	3113
218.927	1868
218.994	3005
219.061	2450
219.127	3786
219.194	6993
219.261	3209
219.327	1726
219.394	3030
219.461	1772
219.527	1888
219.594	5898
219.661	3542
219.727	2433
219.794	3543
219.860	2809
219.927	4039
219.994	4970
220.060	8222
220.127	4490
220.193	4643
220.260	4275
220.326	6705
220.393	8150
220.460	10111
220.526	6321
220.593	5543
220.659	5588
220.726	8092
220.792	22340
220.859	13690
220.925	14243
220.992	18087
221.058	27860
221.125	28819
221.191	21773
221.258	8028
221.324	5269
221.391	5703
221.457	4013
221.524	4238
221.590	7507
221.657	33102
221.723	17091
221.789	18776
221.856	12779
221.922	6571
221.989	4500
222.055	4482
222.121	3011
222.188	4266
222.254	3173
222.321	3601
222.387	2309
222.453	2342
222.520	2718
222.586	2455
222.652	2328
222.719	3105
222.785	2842
222.851	2941
222.918	2311
222.984	2434
223.050	2380
223.116	2410
223.183	2315
223.249	2536
223.315	1851
223.382	2455
223.448	2324
223.514	2420
223.580	902
223.647	1717
223.713	1353
223.779	1471
223.845	2301
223.911	2632
223.978	2033
224.044	2335
224.110	1444
224.176	2130
224.242	1979
224.309	1898
224.375	1904
224.441	2791
224.507	1239
224.573	2370
224.639	2359
224.705	1809
224.772	1717
224.838	1731
224.904	1850
224.970	2164
225.036	2633
225.102	2584
225.168	2407
225.234	2242
225.300	2094
225.366	2762
225.432	2004
225.499	3111
225.565	1996
225.631	2954
225.697	2402
225.763	3659
225.829	2918
225.895	4781
225.961	6773
226.027	6811
226.093	5536
226.159	7035
226.225	9563
226.291	20065
226.357	26809
226.423	14718
226.489	8672
226.554	6335
226.620	5161
226.686	8010
226.752	11662
226.818	20168
226.884	43320
226.950	31440
227.016	13252
227.082	8685
227.148	6083
227.214	7144
227.279	5152
227.345	3832
227.411	3596
227.477	3904
227.543	4579
227.609	6939
227.674	4266
227.740	3210
227.806	3448
227.872	3322
227.938	3743
228.003	6661
228.069	2839
228.135	3529
228.201	2627
228.267	3124
228.332	3482
228.398	5881
228.464	3536
228.530	1858
228.595	1993
228.661	2947
228.727	4987
228.792	3950
228.858	3146
228.924	2243
228.990	4255
229.055	3620
229.121	3440
229.187	2750
229.252	4225
229.318	2225
229.384	2453
229.449	3528
229.515	1189
229.581	1273
229.646	3652
229.712	3804
229.777	10007
229.843	9933
229.909	5796
229.974	6267
230.040	4742
230.105	4708
230.171	5133
230.236	7032
230.302	9447
230.368	6699
230.433	4597
230.499	4727
230.564	4323
230.630	3386
230.695	2879
230.761	3416
230.826	2257
230.892	6082
230.957	2362
231.023	2079
231.088	2670
231.154	3118
231.219	3584
231.284	5672
231.350	4606
231.415	2857
231.481	2459
231.546	2811
231.612	2840
231.677	2457
231.742	1671
231.808	2805
231.873	2371
231.939	2585
232.004	6598
232.069	5180
232.135	3554
232.200	2752
232.265	2535
232.331	1842
232.396	2008
232.461	2217
232.527	1404
232.592	2955
232.657	3001
232.723	9777
232.788	5102
232.853	2824
232.918	2413
232.984	2386
233.049	3213
233.114	9199
233.179	5572
233.245	15172
233.310	15062
233.375	4169
233.440	3111
233.506	3514
233.571	3089
233.636	3225
233.701	3139
233.766	10649
233.832	10984
233.897	5311
233.962	3814
234.027	4446
234.092	3700
234.157	4230
234.222	3871
234.288	11242
234.353	37254
234.418	26863
234.483	11377
234.548	7667
234.613	6074
234.678	5982
234.743	9077
234.808	35970
234.873	17225
234.938	7321
235.004	4494
235.069	5649
235.134	4215
235.199	5145
235.264	4131
235.329	3041
235.394	3735
235.459	7535
235.524	6467
235.589	4349
235.654	3539
235.719	3569
235.784	3934
235.849	7157
235.913	16857
235.978	20268
236.043	18957
236.108	6908
236.173	6946
236.238	7229
236.303	3899
236.368	5769
236.433	11172
236.498	20143
236.563	9946
236.627	20156
236.692	63830
236.757	41443
236.822	19612
236.887	17209
236.952	10914
237.017	10749
237.081	10336
237.146	12823
237.211	26873
237.276	70721
237.341	103228
237.405	46215
237.470	19456
237.535	16954
237.600	9036
237.664	8173
237.729	5139
237.794	8780
237.859	14453
237.923	14495
237.988	7627
238.053	14297
238.118	14929
238.182	55626
238.247	36782
238.312	18234
238.376	10779
238.441	9454
238.506	7095
238.570	4724
238.635	5220
238.700	5668
238.764	4875
238.829	22507
238.893	23029
238.958	8135
239.023	6625
239.087	5552
239.152	6653
239.216	4463
239.281	4268
239.346	3979
239.410	4865
239.475	9193
239.539	52574
239.604	31868
239.668	8959
239.733	5784
239.797	5259
239.862	12567
239.926	31699
239.991	10876
240.055	5162
240.120	5030
240.184	4805
240.249	4374
240.313	3573
240.378	6105
240.442	29136
240.507	42520
240.571	10788
240.635	23481
240.700	21420
240.764	6057
240.829	5130
240.893	3830
240.957	5563
241.022	28910
241.086	41970
241.151	16025
241.215	6027
241.279	11775
241.344	20945
241.408	7436
241.472	4675
241.537	5618
241.601	4905
241.665	4435
241.730	4207
241.794	6537
241.858	4396
241.922	4700
241.987	3905
242.051	4332
242.115	3780
242.179	4610
242.244	3847
242.308	6071
242.372	7840
242.436	8887
242.501	4608
242.565	4353
242.629	3545
242.693	4162
242.757	3128
242.822	5552
242.886	4938
242.950	6348
243.014	6537
243.078	6681
243.142	5269
243.206	5893
243.271	8075
243.335	8320
243.399	11942
243.463	59415
243.527	115846
243.591	31038
243.655	12739
243.719	8262
243.783	8464
243.847	14207
243.911	17899
243.975	18628
244.040	9958
244.104	6985
244.168	5319
244.232	8652
244.296	11732
244.360	13659
244.424	9033
244.488	8422
244.552	8125
244.615	5535
244.679	5050
244.743	7276
244.807	5707
244.871	5155
244.935	3820
244.999	4021
245.063	3992
245.127	5905
245.191	10074
245.255	8923
245.319	6913
245.383	5909
245.446	5721
245.510	4153
245.574	4197
245.638	5215
245.702	6055
245.766	14265
245.829	7759
245.893	8789
245.957	6388
246.021	6467
246.085	5914
246.149	9724
246.212	24440
246.276	32280
246.340	12674
246.404	9449
246.467	10639
246.531	14268
246.595	9203
246.659	9788
246.722	8072
246.786	8066
246.850	9890
246.913	12211
246.977	6476
247.041	7879
247.104	6898
247.168	7913
247.232	21550
247.295	47653
247.359	17159
247.423	9573
247.486	15763
247.550	9131
247.614	7999
247.677	9585
247.741	6854
247.804	7396
247.868	10853
247.932	22471
247.995	41682
248.059	13096
248.122	6906
248.186	11370
248.249	21648
248.313	85442
248.376	67596
248.440	42962
248.503	14155
248.567	12630
248.630	18209
248.694	21130
248.757	32748
248.821	82950
248.884	35230
248.948	42955
249.011	57970
249.075	100203
249.138	68743
249.202	23166
249.265	19126
249.328	33242
249.392	17186
249.455	11922
249.519	9391
249.582	12577
249.645	18902
249.709	15173
249.772	15482
249.835	13195
249.899	16415
249.962	11245
250.025	10389
250.089	33130
250.152	31876
250.215	15616
250.279	12272
250.342	14042
250.405	13418
250.468	11756
250.532	15804
250.595	30389
250.658	147099
250.721	181860
250.785	50980
250.848	27965
250.911	18017
250.974	17782
251.038	26978
251.101	46925
251.164	25145
251.227	23270
251.290	21152
251.354	41544
251.417	190822
251.480	141310
251.543	113299
251.606	347570
251.669	193770
251.732	71109
251.795	72814
251.859	81141
251.922	203148
251.985	85964
252.048	33635
252.111	25415
252.174	24357
252.237	48131
252.300	97733
252.363	122639
252.426	240969
252.489	79101
252.552	45673
252.615	33835
252.678	33407
252.741	81096
252.804	122716
252.867	251671
252.930	117865
252.993	59399
253.056	32488
253.119	25415
253.182	20774
253.245	36156
253.308	23989
253.371	26115
253.434	22754
253.497	21688
253.559	40523
253.622	25037
253.685	33770
253.748	25301
253.811	15544
253.874	29235
253.937	22890
254.000	15395
254.062	30108
254.125	40686
254.188	33417
254.251	24685
254.314	15431
254.376	27666
254.439	22989
254.502	20973
254.565	31561
254.628	44717
254.690	22442
254.753	13388
254.816	11880
254.878	17300
254.941	36588
255.004	30688
255.067	13512
255.129	11367
255.192	7775
255.255	7282
255.317	7489
255.380	6126
255.443	4865
255.505	5715
255.568	5538
255.631	5992
255.693	5697
255.756	4808
255.819	5958
255.881	5115
255.944	4447
256.006	6691
256.069	6193
256.132	4948
256.194	11237
256.257	37761
256.319	24258
256.382	20071
256.444	9226
256.507	6942
256.569	6047
256.632	8443
256.694	16560
256.757	37574
256.819	82785
256.882	29801
256.944	12954
257.007	11478
257.069	13028
257.132	9191
257.194	7352
257.257	7163
257.319	6807
257.381	10038
257.444	28830
257.506	117680
257.569	96356
257.631	51489
257.693	25992
257.756	16059
257.818	15853
257.880	9189
257.943	7618
258.005	6192
258.067	5450
258.130	5720
258.192	8198
258.254	20616
258.317	11248
258.379	8434
258.441	23967
258.503	20472
258.566	50004
258.628	46930
258.690	10610
258.753	10601
258.815	14821
258.877	8598
258.939	6492
259.001	6568
259.064	6060
259.126	11878
259.188	14282
259.250	9888
259.312	12885
259.375	29244
259.437	13335
259.499	6747
259.561	6802
259.623	6949
259.685	6596
259.747	9609
259.809	49065
259.872	74383
259.934	128852
259.996	74148
260.058	18114
260.120	11010
260.182	8815
260.244	7063
260.306	5763
260.368	6528
260.430	5868
260.492	13299
260.554	25684
260.616	19673
260.678	54761
260.740	65121
260.802	14231
260.864	11755
260.926	7762
260.988	8277
261.050	8847
261.112	22806
261.174	79462
261.236	51210
261.298	14995
261.359	38296
261.421	41003
261.483	11585
261.545	8591
261.607	6900
261.669	7949
261.731	23468
261.793	40597
261.854	12643
261.916	8960
261.978	8248
262.040	9912
262.102	8752
262.164	17976
262.225	11099
262.287	7327
262.349	18273
262.411	10520
262.472	8357
262.534	26821
262.596	44288
262.658	11571
262.719	6999
262.781	15293
262.843	44959
262.904	15187
262.966	12960
263.028	17868
263.090	108076
263.151	186713
263.213	47747
263.275	21954
263.336	11726
263.398	9495
263.459	6849
263.521	6262
263.583	15300
263.644	8025
263.706	5470
263.767	3481
263.829	5181
263.891	3664
263.952	4123
264.014	3832
264.075	8557
264.137	14505
264.198	7397
264.260	3426
264.321	4734
264.383	13411
264.444	24126
264.506	7113
264.567	5394
264.629	12776
264.690	20346
264.752	7872
264.813	6158
264.875	3438
264.936	5200
264.998	3764
265.059	4383
265.120	3721
265.182	9823
265.243	41242
265.305	30669
265.366	8597
265.427	5840
265.489	5038
265.550	3654
265.611	5255
265.673	4056
265.734	4478
265.795	4593
265.857	3603
265.918	4574
265.979	13862
266.040	74234
266.102	44974
266.163	14013
266.224	10868
266.286	6747
266.347	3990
266.408	5438
266.469	7923
266.530	5768
266.592	3509
266.653	11437
266.714	13948
266.775	5205
266.836	3437
266.898	3324
266.959	6705
267.020	4601
267.081	4100
267.142	2711
267.203	2841
267.264	2021
267.326	4529
267.387	3162
267.448	1748
267.509	3406
267.570	2936
267.631	2138
267.692	2307
267.753	4603
267.814	3290
267.875	10489
267.936	17453
267.997	9697
268.058	7756
268.119	5111
268.180	4774
268.241	3309
268.302	3468
268.363	3241
268.424	4214
268.485	5811
268.546	2892
268.607	2404
268.668	2476
268.729	2240
268.790	2969
268.851	4508
268.912	13188
268.972	11707
269.033	5715
269.094	3668
269.155	4414
269.216	3281
269.277	5512
269.338	4268
269.398	3603
269.459	4105
269.520	5549
269.581	7448
269.642	8253
269.702	5672
269.763	4745
269.824	4298
269.885	6073
269.945	7743
270.006	3601
270.067	2603
270.128	3133
270.188	3159
270.249	3394
270.310	3229
270.370	4891
270.431	5579
270.492	3467
270.553	4783
270.613	10274
270.674	17273
270.734	6858
270.795	5044
270.856	6653
270.916	5232
270.977	4116
271.038	6082
271.098	4859
271.159	9702
271.219	8705
271.280	5507
271.340	3845
271.401	8859
271.462	23144
271.522	8967
271.583	4973
271.643	6985
271.704	4820
271.764	7650
271.825	17656
271.885	70697
271.946	75983
272.006	21347
272.066	44659
272.127	62481
272.187	14904
272.248	10391
272.308	13568
272.369	47310
272.429	19377
272.489	16701
272.550	13667
272.610	14447
272.671	10635
272.731	18143
272.791	25533
272.852	10415
272.912	7942
272.972	5646
273.033	6463
273.093	12788
273.153	8113
273.214	7256
273.274	7941
273.334	35454
273.394	51908
273.455	17529
273.515	22345
273.575	43127
273.635	16953
273.696	37411
273.756	60430
273.816	18350
273.876	14599
273.936	55147
273.997	71054
274.057	16007
274.117	12482
274.177	19715
274.237	79483
274.297	64114
274.358	52716
274.418	48627
274.478	27041
274.538	14090
274.598	17959
274.658	75690
274.718	78018
274.778	24077
274.838	15943
274.898	51756
274.958	118862
275.018	78193
275.078	36273
275.138	16056
275.198	10346
275.258	9750
275.318	14180
275.378	18647
275.438	14439
275.498	15018
275.558	64534
275.618	93777
275.678	38161
275.738	22087
275.798	15863
275.858	9829
275.918	6806
275.978	7432
276.038	5708
276.098	6593
276.157	13687
276.217	31623
276.277	13037
276.337	9177
276.397	6139
276.457	8495
276.517	5557
276.576	5346
276.636	5556
276.696	9716
276.756	25429
276.815	15239
276.875	8027
276.935	10163
276.995	6737
277.055	5150
277.114	5476
277.174	10587
277.234	24985
277.293	10780
277.353	6893
277.413	5526
277.472	6469
277.532	6352
277.592	7190
277.651	22919
277.711	30164
277.771	12885
277.830	45040
277.890	30140
277.950	37343
278.009	83392
278.069	23847
278.128	27594
278.188	30305
278.248	16863
278.307	37644
278.367	22210
278.426	11003
278.486	7667
278.545	6281
278.605	6677
278.664	5530
278.724	8752
278.783	30525
278.843	58272
278.902	14454
278.962	10787
279.021	12638
279.081	26042
279.140	20309
279.199	12127
279.259	11960
279.318	12417
279.378	18391
279.437	39858
279.496	139511
279.556	423639
279.615	251656
279.675	65746
279.734	43784
279.793	76592
279.853	94091
279.912	31505
279.971	19403
280.031	16776
280.090	36254
280.149	51761
280.208	59534
280.268	300603
280.327	222622
280.386	51969
280.445	37960
280.505	29410
280.564	16844
280.623	14877
280.682	20404
280.742	22765
280.801	9954
280.860	7895
280.919	6656
280.978	6384
281.037	6495
281.097	6161
281.156	6443
281.215	6378
281.274	9491
281.333	40332
281.392	22243
281.451	7467
281.510	6102
281.569	5844
281.628	5719
281.688	5894
281.747	6275
281.806	6149
281.865	4843
281.924	5082
281.983	4596
282.042	3818
282.101	3495
282.160	4786
282.219	3481
282.278	6145
282.337	17890
282.396	10170
282.454	4729
282.513	8932
282.572	25096
282.631	12290
282.690	5677
282.749	5475
282.808	6698
282.867	7216
282.926	5658
282.985	3921
283.043	3401
283.102	4791
283.161	7413
283.220	18600
283.279	29269
283.338	9194
283.396	5705
283.455	5783
283.514	5713
283.573	10593
283.631	7308
283.690	5768
283.749	5340
283.808	11923
283.866	10886
283.925	5328
283.984	5181
284.043	8560
284.101	7346
284.160	6666
284.219	8603
284.277	8326
284.336	12671
284.395	36882
284.453	24468
284.512	11112
284.570	12904
284.629	11050
284.688	8125
284.746	8825
284.805	10603
284.863	12955
284.922	14543
284.981	18416
285.039	27785
285.098	54356
285.156	152486
285.215	422361
285.273	324950
285.332	131143
285.390	68698
285.449	44196
285.507	30133
285.566	23155
285.624	17821
285.683	14290
285.741	11238
285.799	11346
285.858	9972
285.916	8587
285.975	5849
286.033	5982
286.091	5205
286.150	5345
286.208	5782
286.267	8280
286.325	6870
286.383	10978
286.442	7950
286.500	5419
286.558	5480
286.616	4908
286.675	7027
286.733	6637
286.791	5208
286.850	7390
286.908	10007
286.966	13710
287.024	6507
287.083	5558
287.141	5028
287.199	6078
287.257	7655
287.315	6475
287.374	8042
287.432	17019
287.490	10414
287.548	8118
287.606	5763
287.664	7783
287.723	9700
287.781	12420
287.839	8218
287.897	10609
287.955	14668
288.013	26906
288.071	70686
288.129	276108
288.187	579538
288.245	224185
288.303	79565
288.361	48984
288.419	36236
288.477	25272
288.535	19021
288.593	13808
288.651	9664
288.709	8023
288.767	7431
288.825	6431
288.883	6232
288.941	6138
288.999	5658
289.057	5536
289.115	5375
289.173	5760
289.231	5162
289.289	4831
289.346	5187
289.404	6687
289.462	9784
289.520	9714
289.578	5207
289.636	4333
289.694	3907
289.751	3874
289.809	4631
289.867	4585
289.925	5362
289.983	5903
290.040	4263
290.098	4040
290.156	4807
290.214	5562
290.271	3243
290.329	3911
290.387	2783
290.444	3745
290.502	2406
290.560	3937
290.617	2773
290.675	3614
290.733	2923
290.790	5082
290.848	3244
290.906	5192
290.963	3393
291.021	3832
291.078	3576
291.136	5341
291.194	17338
291.251	29303
291.309	9352
291.366	4647
291.424	3630
291.481	4016
291.539	3781
291.596	3885
291.654	1903
291.711	3001
291.769	3921
291.826	8993
291.884	6326
291.941	3251
291.999	3454
292.056	4684
292.114	4132
292.171	3610
292.228	3609
292.286	5251
292.343	9224
292.401	12369
292.458	6960
292.515	5132
292.573	5763
292.630	6220
292.687	8151
292.745	6445
292.802	8654
292.859	22890
292.917	34367
292.974	16841
293.031	7060
293.089	5975
293.146	4479
293.203	4433
293.260	4169
293.318	6987
293.375	8069
293.432	4877
293.489	4467
293.546	4528
293.604	10754
293.661	34341
293.718	66273
293.775	27911
293.832	13030
293.889	10393
293.947	11149
294.004	8751
294.061	8310
294.118	17152
294.175	32454
294.232	36724
294.289	15572
294.346	9797
294.403	10226
294.460	9456
294.517	7176
294.574	6407
294.631	5916
294.688	9719
294.745	25630
294.802	78928
294.859	65521
294.916	28283
294.973	16037
295.030	12312
295.087	9889
295.144	7533
295.201	6770
295.258	7048
295.315	10147
295.372	33646
295.429	50389
295.486	21721
295.542	14158
295.599	33734
295.656	46872
295.713	37677
295.770	43303
295.827	16882
295.883	10432
295.940	9488
295.997	14337
296.054	12711
296.111	6956
296.167	5918
296.224	4825
296.281	4838
296.338	3996
296.394	5397
296.451	8560
296.508	23872
296.564	37576
296.621	30389
296.678	71019
296.734	82469
296.791	28056
296.848	16454
296.904	17303
296.961	32520
297.018	54169
297.074	36675
297.131	15521
297.187	13268
297.244	21147
297.301	71234
297.357	99770
297.414	33218
297.470	14828
297.527	11079
297.583	9158
297.640	8805
297.696	7044
297.753	5743
297.809	4689
297.866	4136
297.922	5171
297.979	5540
298.035	6761
298.092	12460
298.148	31198
298.204	27495
298.261	16613
298.317	33637
298.374	76823
298.430	40010
298.486	22072
298.543	16852
298.599	14568
298.656	17094
298.712	26236
298.768	60060
298.824	41690
298.881	15294
298.937	9035
298.993	8794
299.050	10762
299.106	9447
299.162	7430
299.218	8436
299.275	6497
299.331	10024
299.387	21472
299.443	69715
299.500	55525
299.556	19802
299.612	10952
299.668	9178
299.724	8761
299.780	8178
299.837	9030
299.893	15813
299.949	48072
300.005	50003
300.061	50506
300.117	83423
300.173	37645
300.229	19337
300.285	21000
300.341	21025
300.397	11924
300.453	8277
300.510	7132
300.566	7959
300.622	7206
300.678	15331
300.734	33525
300.790	45963
300.845	58263
300.901	32148
300.957	39817
301.013	30509
301.069	14440
301.125	10543
301.181	10862
301.237	8700
301.293	6469
301.349	6204
301.405	5890
301.461	7454
301.516	8221
301.572	9635
301.628	14289
301.684	14386
301.740	22255
301.796	30770
301.851	22927
301.907	36866
301.963	42542
302.019	83226
302.074	200406
302.130	173160
302.186	74770
302.242	32627
302.297	22462
302.353	22503
302.409	35421
302.464	31313
302.520	27974
302.576	64623
302.631	63916
302.687	34276
302.743	16697
302.798	10858
302.854	9425
302.910	9876
302.965	12004
303.021	20050
303.076	18013
303.132	22912
303.187	22626
303.243	13594
303.299	7920
303.354	7541
303.410	6388
303.465	6636
303.521	6528
303.576	7426
303.632	10924
303.687	23250
303.743	60779
303.798	46229
303.853	19215
303.909	11779
303.964	9066
304.020	14473
304.075	19621
304.130	18398
304.186	29352
304.241	29886
304.297	23849
304.352	14129
304.358	13604
304.407	9351
304.449	8751
304.463	8559
304.518	9404
304.539	9328
304.573	9215
304.629	10833
304.630	11006
304.684	19217
304.720	38978
304.739	49067
304.794	65886
304.811	55685
304.850	30794
304.902	15604
304.905	14663
304.960	10237
304.992	11060
305.015	11666
305.071	9737
305.083	9581
305.126	8946
305.173	6521
305.181	6137
305.236	6166
305.264	6501
305.292	6912
305.347	7755
305.354	7942
305.402	8983
305.445	10162
305.457	10521
305.512	12160
305.535	12315
305.567	12427
305.622	13622
305.626	14195
305.678	26056
305.716	51077
305.733	60792
305.788	63604
305.807	56895
305.843	44660
305.897	59963
305.898	60137
305.953	56126
305.988	38657
306.008	28579
306.063	15993
306.078	14538
306.118	12028
306.168	8175
306.173	7849
306.228	7445
306.259	6536
306.283	5784
306.338	6813
306.349	6982
306.393	7905
306.440	8840
306.448	8952
306.503	8918
306.530	10162
306.558	13292
306.613	28393
306.620	30198
306.668	40231
306.711	50241
306.723	51661
306.778	38697
306.801	30506
306.833	20416
306.888	11675
306.892	11270
306.943	8314
306.982	8093
306.997	8054
307.052	7873
307.072	8078
307.107	9027
307.162	11850
307.163	11913
307.217	18797
307.253	22432
307.272	23257
307.327	25496
307.343	23582
307.381	18078
307.434	16045
307.436	16412
307.491	31643
307.524	45279
307.546	49338
307.600	44294
307.614	39946
307.655	25900
307.704	14786
307.710	14325
307.765	17288
307.795	21430
307.819	27285
307.874	46923
307.885	47295
307.929	35413
307.975	24881
307.984	24735
308.038	32417
308.065	41851
308.093	66848
308.148	139213
308.156	157295
308.202	270877
308.246	328191
308.257	318198
308.312	171116
308.336	118549
308.366	88448
308.421	54557
308.426	51989
308.475	33959
308.517	25251
308.530	23521
308.585	19195
308.607	18762
308.639	19074
308.694	20053
308.697	20408
308.748	38491
308.787	57937
308.803	58992
308.857	45962
308.877	39919
308.912	31013
308.967	24400
308.967	24374
309.021	28998
309.058	35628
309.076	43732
309.130	79263
309.148	95640
309.185	187843
309.238	355869
309.239	357515
309.293	427162
309.328	401060
309.348	337254
309.402	154109
309.418	109486
309.457	75481
309.508	44753
309.511	43544
309.566	34640
309.598	31217
309.620	31177
309.674	34386
309.688	35620
309.729	34168
309.778	29880
309.783	29240
309.837	23012
309.868	20267
309.892	22751
309.946	32444
309.959	36107
310.001	49531
310.049	60014
310.055	58396
310.109	36918
310.139	24868
310.163	19788
310.218	12624
310.229	11631
310.272	9902
310.319	8544
310.326	8513
310.381	9323
310.409	9481
310.435	8755
310.489	7405
310.499	7249
310.543	8050
310.589	9081
310.598	9048
310.652	8928
310.679	8537
310.706	7281
310.760	4975
310.769	4675
310.814	3735
310.859	2880
310.868	2953
310.923	3536
310.948	3852
310.977	4331
311.031	5373
311.038	5531
311.085	5582
311.128	5493
311.139	5324
311.193	4541
311.218	4192
311.247	3966
311.301	3623
311.308	3594
311.356	3279
311.398	3069
311.410	3101
311.464	3370
311.488	3443
311.518	3280
311.572	3109
311.578	3112
311.626	4491
311.668	5831
311.680	5905
311.734	6100
311.758	6236
311.788	6059
311.842	5759
311.847	5750
311.896	6828
311.937	7847
311.950	7864
312.004	8036
312.027	8093
312.058	6909
312.112	4873
312.117	4688
312.165	3949
312.207	3358
312.297	3838
312.386	4352
312.476	4778
312.566	8630
312.656	5101
312.745	2661
312.835	3400
312.925	3830
313.015	4528
313.104	6485
313.194	3958
313.284	3002
313.374	3422
313.463	3997
313.553	2803
313.643	2610
313.732	2556
313.822	2347
313.912	3145
314.001	3281
314.091	3488
314.180	4509
314.270	4506
314.360	6631
314.449	5344
314.539	3297
314.628	2675
314.718	3570
314.808	5806
314.897	3176
314.987	2203
315.076	4148
315.166	6372
315.255	7065
315.345	5165
315.434	8108
315.524	5225
315.613	6869
315.703	6509
315.792	7767
315.881	16529
315.971	9778
316.060	12189
316.150	25797
316.239	29789
316.328	12540
316.418	2705
316.507	3758
316.597	4646
316.686	5555
316.775	10821
316.865	32148
316.954	7587
317.043	2749
317.133	3678
317.222	2779
317.311	2223
317.400	2315
317.490	4732
317.579	4867
317.668	4011
317.757	6449
317.847	10622
317.936	32200
318.025	20358
318.114	9603
318.203	7373
318.293	8108
318.382	14262
318.471	11850
318.560	16292
318.649	34321
318.738	10835
318.828	6535
318.917	8428
319.006	10693
319.095	34140
319.184	46765
319.273	28816
319.362	15948
319.451	6479
319.540	5757
319.629	10032
319.718	18460
319.807	9473
319.896	16632
319.985	57053
320.074	26630
320.163	7675
320.252	19627
320.341	11109
320.430	6014
320.519	8724
320.608	6012
320.697	3749
320.786	4282
320.875	5269
320.964	8141
321.053	12123
321.142	17544
321.230	20695
321.319	14843
321.408	31210
321.497	15054
321.586	13868
321.675	22936
321.764	24042
321.852	14649
321.941	16603
322.030	13982
322.119	12097
322.207	34945
322.296	38327
322.385	16402
322.474	17525
322.562	37284
322.651	23977
322.740	17763
322.829	28595
322.917	39597
323.006	20411
323.095	12250
323.183	12790
323.272	21765
323.361	36614
323.449	141970
323.538	55867
323.626	85465
323.715	69236
323.804	20758
323.892	75483
323.981	49073
324.069	13888
324.158	38785
324.246	47337
324.335	9612
324.424	12774
324.512	5896
324.601	6971
324.689	16089
324.778	36439
324.866	35187
324.954	10074
325.043	6938
325.131	13657
325.220	30939
325.308	40006
325.397	23759
325.485	16056
325.574	3896
325.662	3728
325.750	3472
325.839	3324
325.927	4182
326.015	6018
326.104	14369
326.192	29056
326.280	4903
326.369	3695
326.457	5040
326.545	8617
326.634	5110
326.722	2709
326.810	3147
326.898	2771
326.987	3550
327.075	8424
327.163	16882
327.251	9718
327.340	9607
327.428	15759
327.516	4381
327.604	4081
327.692	5203
327.781	7576
327.869	16163
327.957	9504
328.045	5960
328.133	3590
328.221	7236
328.309	5554
328.397	3569
328.485	4308
328.574	5778
328.662	19269
328.750	21065
328.838	10921
328.926	4764
329.014	2665
329.102	4432
329.190	10626
329.278	8304
329.366	2847
329.454	2272
329.542	2372
329.630	3141
329.718	2591
329.806	4189
329.893	4081
329.981	5043
330.069	11453
330.157	42765
330.245	121520
330.333	69512
330.421	12204
330.509	8229
330.597	24390
330.684	18680
330.772	6239
330.860	8810
330.948	9118
331.036	4692
331.123	2446
331.211	2910
331.299	3685
331.387	6731
331.475	14060
331.562	6585
331.650	2983
331.738	4338
331.825	6832
331.913	3319
332.001	1970
332.089	4973
332.176	14237
332.264	36664
332.352	34293
332.439	6650
332.527	3942
332.614	2839
332.702	7064
332.790	4279
332.877	14034
332.965	36394
333.052	7100
333.140	6435
333.228	15703
333.315	4918
333.403	5214
333.490	19447
333.578	17894
333.665	10073
333.753	7035
333.840	3989
333.928	5776
334.015	22082
334.103	33084
334.190	98317
334.278	28184
334.365	8452
334.452	5960
334.540	4395
334.627	6200
334.715	12818
334.802	25989
334.889	152689
334.977	193917
335.064	17810
335.151	5933
335.239	5167
335.326	7515
335.413	28401
335.501	42764
335.588	6946
335.675	4142
335.762	4598
335.850	8741
335.937	8478
336.024	27915
336.111	142532
336.199	64732
336.286	7141
336.373	3421
336.460	2722
336.547	2718
336.635	4727
336.722	4228
336.809	4132
336.896	5749
336.983	17852
337.070	43454
337.157	73579
337.245	90875
337.332	86479
337.419	9295
337.506	3950
337.593	4091
337.680	12011
337.767	34857
337.854	12613
337.941	13797
338.028	27800
338.115	11522
338.202	7955
338.289	21975
338.376	96555
338.463	33975
338.550	21609
338.637	24928
338.724	13761
338.811	28886
338.898	6527
338.984	2496
339.071	3015
339.158	4561
339.245	13102
339.332	8792
339.419	14680
339.506	18124
339.593	2583
339.679	2165
339.766	1807
339.853	3102
339.940	8374
340.027	3147
340.113	2561
340.200	4389
340.287	3368
340.374	3528
340.460	7079
340.547	3051
340.634	6087
340.720	22645
340.807	16578
340.894	2877
340.980	3404
341.067	2234
341.154	3489
341.240	4273
341.327	11326
341.414	4402
341.500	2988
341.587	2493
341.674	3152
341.760	6627
341.847	9164
341.933	3350
342.020	1794
342.106	1363
342.193	2634
342.279	6121
342.366	3771
342.452	7125
342.539	4770
342.625	8466
342.712	26386
342.798	11770
342.885	4004
342.971	1086
343.058	1967
343.144	2349
343.230	2149
343.317	1891
343.403	1694
343.490	1663
343.576	1801
343.662	1941
343.749	3574
343.835	6006
343.921	12250
344.008	70485
344.094	182751
344.180	44371
344.267	12161
344.353	32957
344.439	43416
344.525	14559
344.612	6522
344.698	4658
344.784	3393
344.870	2406
344.957	2578
345.043	4521
345.129	2262
345.215	6588
345.301	4186
345.387	2214
345.474	1829
345.560	2233
345.646	4428
345.732	2771
345.818	2628
345.904	2347
345.990	3608
346.076	5389
346.162	10781
346.249	4254
346.335	1752
346.421	3546
346.507	14186
346.593	53774
346.679	16017
346.765	2876
346.851	1967
346.937	2158
347.023	2085
347.108	3320
347.194	2334
347.280	1910
347.366	4616
347.452	14109
347.538	68427
347.624	47236
347.710	37260
347.796	7991
347.882	2980
347.967	1899
348.053	3495
348.139	2114
348.225	1744
348.311	2159
348.397	1773
348.482	2970
348.568	3550
348.654	1728
348.740	1514
348.825	1425
348.911	6710
348.997	28955
349.083	68385
349.168	13037
349.254	3581
349.340	3289
349.425	2218
349.511	2642
349.597	5176
349.682	8574
349.768	28527
349.854	16447
349.939	3219
350.025	1882
350.110	2234
350.196	1780
350.282	1886
350.367	1656
350.453	8502
350.538	11173
350.624	4045
350.709	2861
350.795	2251
350.880	2681
350.966	2977
351.051	8025
351.137	8443
351.222	2940
351.308	7936
351.393	23561
351.479	6626
351.564	2240
351.649	2198
351.735	1823
351.820	824
351.906	2107
351.991	4804
352.076	15173
352.162	24931
352.247	5756
352.332	2929
352.418	5303
352.503	8968
352.588	31493
352.673	30495
352.759	7284
352.844	3433
352.929	3628
353.014	4181
353.100	3709
353.185	6036
353.270	9186
353.355	9253
353.441	3770
353.526	6326
353.611	9297
353.696	10695
353.781	5915
353.866	2702
353.952	2881
354.037	6895
354.122	18458
354.207	16869
354.292	7238
354.377	2219
354.462	1998
354.547	3943
354.632	3736
354.717	4519
354.802	6381
354.887	2690
354.972	1920
355.057	1561
355.142	1727
355.227	3023
355.312	5320
355.397	11915
355.482	27906
355.567	16956
355.652	9167
355.737	12446
355.822	34372
355.907	34033
355.991	5954
356.076	2641
356.161	2503
356.246	2168
356.331	3431
356.416	10566
356.501	72779
356.585	91632
356.670	12392
356.755	6359
356.840	9789
356.924	47625
357.009	203675
357.094	87802
357.179	14039
357.263	8517
357.348	7615
357.433	8031
357.517	6732
357.602	6099
357.687	4618
357.771	8121
357.856	22438
357.941	17248
358.025	42846
358.110	214811
358.195	115788
358.279	12750
358.364	7453
358.448	22964
358.533	64134
358.617	48675
358.702	47797
358.787	21004
358.871	8936
358.956	8046
359.040	3040
359.125	2863
359.209	2823
359.294	10345
359.378	17071
359.462	8539
359.547	4401
359.631	4334
359.716	2091
359.800	2457
359.885	3865
359.969	3232
360.053	2768
360.138	2529
360.222	3952
360.306	8941
360.391	7032
360.475	11569
360.559	29035
360.644	25809
360.728	21701
360.812	37624
360.896	124010
360.981	46478
361.065	18885
361.149	5000
361.233	3412
361.318	3773
361.402	4498
361.486	4254
361.570	3012
361.654	4199
361.739	13817
361.823	70342
361.907	134513
361.991	23533
362.075	8340
362.159	17174
362.243	11979
362.327	6224
362.411	6248
362.495	5934
362.580	3646
362.664	1652
362.748	787
362.832	2342
362.916	2181
363.000	10047
363.084	59534
363.168	145661
363.252	35142
363.336	7567
363.420	11185
363.503	40296
363.587	50103
363.671	8921
363.755	4584
363.839	8349
363.923	3784
364.007	8662
364.091	11370
364.175	17331
364.258	64982
364.342	34236
364.426	9916
364.510	7243
364.594	8531
364.677	17099
364.761	98475
364.845	82979
364.929	16652
365.013	12853
365.096	10015
365.180	14168
365.264	17726
365.347	71291
365.431	31508
365.515	6271
365.598	3714
365.682	3525
365.766	4623
365.849	6637
365.933	4559
366.017	6132
366.100	3300
366.184	2259
366.267	3329
366.351	1806
366.435	961
366.518	492
366.602	1598
366.685	2483
366.769	2421
366.852	5379
366.936	8352
367.019	6257
367.103	3651
367.186	6647
367.270	2622
367.353	702
367.436	1733
367.520	1778
367.603	2478
367.687	4488
367.770	10352
367.853	5942
367.937	20523
368.020	40623
368.104	9709
368.187	7045
368.270	9718
368.353	9024
368.437	18060
368.520	64157
368.603	34305
368.687	25388
368.770	51807
368.853	13899
368.936	9098
369.020	9596
369.103	3529
369.186	2596
369.269	2324
369.352	5923
369.436	9508
369.519	6312
369.602	1960
369.685	2695
369.768	3397
369.851	2932
369.934	1475
370.018	2893
370.101	8329
370.184	6532
370.267	3905
370.350	7090
370.433	12551
370.516	41393
370.599	57590
370.682	14899
370.765	22092
370.848	29098
370.931	65854
371.014	26975
371.097	4692
371.180	3917
371.263	1370
371.346	1021
371.429	1967
371.511	1210
371.594	4741
371.677	8965
371.760	8972
371.843	10071
371.926	62387
372.009	182074
372.091	53740
372.174	25600
372.257	67169
372.340	28537
372.423	12264
372.505	14685
372.588	7533
372.671	17087
372.754	63151
372.836	36248
372.919	18070
373.002	34214
373.085	12057
373.167	8202
373.250	24458
373.332	61991
373.415	95466
373.498	244047
373.580	89276
373.663	90589
373.746	153586
373.828	32629
373.911	10125
373.993	10006
374.076	34973
374.159	38184
374.241	17434
374.324	48803
374.406	37888
374.489	53510
374.571	172890
374.654	73718
374.736	29127
374.819	100516
374.901	150943
374.983	183221
375.066	32428
375.148	8775
375.231	28762
375.313	57242
375.395	20813
375.478	5226
375.560	3851
375.643	5884
375.725	27258
375.807	136167
375.890	127318
375.972	63258
376.054	24260
376.136	52221
376.219	24712
376.301	30105
376.383	110627
376.465	45851
376.548	19037
376.630	24825
376.712	82499
376.794	43671
376.877	4852
376.959	2329
377.041	3689
377.123	5503
377.205	7286
377.287	2347
377.369	1797
377.452	2032
377.534	1948
377.616	2535
377.698	1498
377.780	1351
377.862	2519
377.944	3504
378.026	1686
378.108	1576
378.190	1536
378.272	1330
378.354	1200
378.436	1385
378.518	3482
378.600	13569
378.682	13137
378.764	31097
378.846	27700
378.928	6954
379.010	8507
379.091	5171
379.173	2062
379.255	2077
379.337	3903
379.419	13053
379.501	49994
379.583	22000
379.664	4238
379.746	10891
379.828	29861
379.910	42854
379.991	41582
380.073	8193
380.155	4040
380.237	3722
380.318	2270
380.400	2960
380.482	6330
380.564	11558
380.645	10571
380.727	10008
380.809	5382
380.890	3838
380.972	2820
381.053	3139
381.135	3592
381.217	9550
381.298	31505
381.380	17840
381.461	15207
381.543	80732
381.624	117741
381.706	21469
381.787	7965
381.869	8517
381.951	36858
382.032	175581
382.113	117485
382.195	18341
382.276	9684
382.358	22239
382.439	71697
382.521	88231
382.602	162140
382.684	66172
382.765	91828
382.846	85074
382.928	75048
383.009	43913
383.090	27572
383.172	102731
383.253	183135
383.334	75128
383.416	113601
383.497	64413
383.578	16931
383.659	25363
383.741	89137
383.822	277145
383.903	160056
383.984	61914
384.066	123817
384.147	83009
384.228	15988
384.309	9378
384.390	6969
384.471	4940
384.553	5025
384.634	8213
384.715	9298
384.796	4180
384.877	6362
384.958	27470
385.039	38512
385.120	12579
385.201	5546
385.282	6361
385.363	6775
385.444	5823
385.525	12486
385.606	55951
385.687	55811
385.768	11748
385.849	12342
385.930	67026
386.011	145822
386.092	40604
386.173	7766
386.254	4911
386.335	5805
386.416	5257
386.496	16574
386.577	32346
386.658	11973
386.739	6455
386.820	5844
386.901	3782
386.981	4356
387.062	4234
387.143	7962
387.224	29326
387.304	29793
387.385	9255
387.466	4740
387.547	6211
387.627	3759
387.708	10770
387.789	54614
387.869	81875
387.950	24752
388.031	4280
388.111	2885
388.192	8772
388.273	14357
388.353	10170
388.434	4936
388.514	11938
388.595	68172
388.676	92478
388.756	35825
388.837	28229
388.917	18800
388.998	3963
389.078	2975
389.159	3666
389.239	2742
389.320	6419
389.400	4070
389.480	10887
389.561	34173
389.641	19299
389.722	4352
389.802	8487
389.883	13796
389.963	44541
390.043	33595
390.124	10088
390.204	9702
390.284	35548
390.365	26406
390.445	29101
390.525	110587
390.605	122488
390.686	26686
390.766	7309
390.846	3876
390.927	1993
391.007	2185
391.087	3433
391.167	2616
391.247	2208
391.328	8724
391.408	11652
391.488	5441
391.568	1835
391.648	3563
391.728	4700
391.808	5462
391.888	5859
391.969	15571
392.049	28860
392.129	11884
392.209	12836
392.289	38907
392.369	22177
392.449	13695
392.529	8411
392.609	7238
392.689	10222
392.769	37248
392.849	34268
392.929	18301
393.009	48994
393.089	38517
393.169	16923
393.248	53427
393.328	358230
393.408	485909
393.488	89274
393.568	15533
393.648	7863
393.728	5637
393.807	4053
393.887	5637
393.967	5122
394.047	6313
394.127	8786
394.206	16239
394.286	65757
394.366	360173
394.446	448938
394.525	93915
394.605	17985
394.685	12091
394.764	20923
394.844	34221
394.924	25963
395.003	8791
395.083	6692
395.163	5654
395.242	5952
395.322	5543
395.402	2917
395.481	6839
395.561	14061
395.640	38278
395.720	29356
395.799	46148
395.879	39438
395.958	25979
396.038	96601
396.117	483091
396.197	609306
396.276	148270
396.356	34001
396.435	20465
396.515	12591
396.594	11284
396.673	18205
396.753	70394
396.832	345672
396.912	288023
396.991	56284
397.070	11767
397.150	4850
397.229	4557
397.308	3001
397.388	3971
397.467	3108
397.546	2177
397.625	1577
397.705	4957
397.784	4428
397.863	2063
397.942	1318
398.022	2033
398.101	11187
398.180	37409
398.259	20652
398.338	4245
398.417	4151
398.497	2101
398.576	2399
398.655	888
398.734	1211
398.813	1929
398.892	10514
398.971	42839
399.050	21789
399.129	2651
399.208	1766
399.287	2046
399.366	857
399.445	1071
399.524	854
399.603	1026
399.682	4034
399.761	12797
399.840	47363
399.919	39289
399.998	5368
400.077	1030
400.156	645
400.235	2291
400.313	1611
400.392	1505
400.471	13699
400.550	26614
400.629	7653
400.708	3298
400.786	2511
400.865	6901
400.944	7766
401.023	4359
401.102	635
401.180	775
401.259	861
401.338	1767
401.416	2966
401.495	2315
401.574	1600
401.652	1161
401.731	2440
401.810	2759
401.888	1689
401.967	-177
402.046	640
402.124	2202
402.203	3457
402.281	2297
402.360	1697
402.438	8945
402.517	7050
402.596	1820
402.674	1605
402.753	1256
402.831	1173
402.910	1779
402.988	8671
403.066	35294
403.145	22080
403.223	10444
403.302	27502
403.380	20949
403.459	19658
403.537	8227
403.615	3127
403.694	-239
403.772	866
403.850	561
403.929	973
404.007	209
404.085	4342
404.164	4040
404.242	1848
404.320	6609
404.398	22259
404.477	29216
404.555	106738
404.633	113182
404.711	26442
404.789	9865
404.868	2690
404.946	1475
405.024	1147
405.102	133
405.180	689
405.258	-313
405.336	1463
405.415	919
405.493	3564
405.571	3780
405.649	669
405.727	47
405.805	2460
405.883	2115
405.961	2602
406.039	2465
406.117	242
406.195	4488
406.273	16410
406.351	83463
406.429	55947
406.507	7289
406.585	1871
406.663	2291
406.740	2833
406.818	1621
406.896	841
406.974	2342
407.052	5451
407.130	41076
407.208	71626
407.285	14707
407.363	2119
407.441	2281
407.519	1341
407.596	1720
407.674	4874
407.752	12353
407.830	15894
407.907	6060
407.985	2092
408.063	1579
408.141	802
408.218	2751
408.296	2431
408.373	1628
408.451	2461
408.529	2208
408.606	25
408.684	-93
408.762	-9
408.839	-785
408.917	361
408.994	594
409.072	-328
409.149	-307
409.227	1223
409.304	525
409.382	428
409.459	434
409.537	747
409.614	1080
409.692	298
409.769	-375
409.846	943
409.924	1823
410.001	337
410.079	180
410.156	1561
410.233	933
410.311	1122
410.388	936
410.465	580
410.543	164
410.620	1039
410.697	1229
410.775	1288
410.852	-124
410.929	1978
411.006	2453
411.083	566
411.161	2757
411.238	3939
411.315	1768
411.392	311
411.469	2154
411.547	1410
411.624	-189
411.701	1387
411.778	967
411.855	4795
411.932	2920
412.009	793
412.086	769
412.163	652
412.240	736
412.317	2510
412.394	2129
412.471	571
412.548	229
412.625	496
412.702	1073
412.779	3369
412.856	2705
412.933	383
413.010	1120
413.087	3099
413.164	12611
413.241	21685
413.318	5464
413.395	2830
413.471	3219
413.548	2079
413.625	827
413.702	1149
413.779	1390
413.855	577
413.932	-505
414.009	-468
414.086	493
414.162	1062
414.239	1563
414.316	11130
414.393	33058
414.469	14169
414.546	463
414.623	71
414.699	585
414.776	739
414.853	522
414.929	1194
415.006	979
415.082	1532
415.159	1096
415.236	1540
415.312	1141
415.389	2493
415.465	3855
415.542	2087
415.618	298
415.695	3003
415.771	1714
415.848	1534
415.924	833
416.000	1126
416.077	884
416.153	-935
416.230	-463
416.306	82
416.383	1196
416.459	1473
416.535	-245
416.612	-62
416.688	56
416.764	993
416.841	-216
416.917	130
416.993	209
417.069	992
417.146	2461
417.222	5005
417.298	2001
417.374	-73
417.451	921
417.527	1183
417.603	1686
417.679	1693
417.755	1088
417.831	11
417.908	509
417.984	-143
418.060	-99
418.136	3143
418.212	4913
418.288	2115
418.364	793
418.440	659
418.516	1804
418.592	2299
418.668	5166
418.744	8507
418.820	6963
418.896	1355
418.972	-285
419.048	297
419.124	3722
419.200	2825
419.276	1345
419.352	27
419.428	-227
419.504	492
419.579	2086
419.655	1616
419.731	1324
419.807	5645
419.883	11562
419.959	9419
420.034	2328
420.110	3079
420.186	18499
420.262	18121
420.337	2557
420.413	1602
420.489	152
420.565	1034
420.640	296
420.716	899
420.792	-679
420.867	803
420.943	120
421.019	2254
421.094	1614
421.170	554
421.245	-103
421.321	574
421.397	-362
421.472	2050
421.548	6218
421.623	4472
421.699	1565
421.774	1886
421.850	666
421.925	3116
422.001	2798
422.076	292
422.152	11
422.227	2864
422.302	1800
422.378	2608
422.453	4497
422.529	12394
422.604	67533
422.679	191932
422.755	97531
422.830	17535
422.905	4549
422.981	2003
423.056	1470
423.131	1204
423.207	474
423.282	1441
423.357	4961
423.432	3613
423.508	2756
423.583	7458
423.658	7280
423.733	1979
423.808	1813
423.883	2429
423.959	1510
424.034	464
424.109	51
424.184	317
424.259	133
424.334	332
424.409	295
424.484	287
424.559	343
424.634	895
424.709	1925
424.784	2348
424.859	1491
424.934	2188
425.009	11749
425.084	23574
425.159	9963
425.234	1022
425.309	93
425.384	4738
425.459	7841
425.534	3094
425.609	809
425.683	716
425.758	50
425.833	960
425.908	1307
425.983	5202
426.058	23836
426.132	12879
426.207	1675
426.282	3249
426.357	2100
426.431	676
426.506	1542
426.581	1004
426.655	919
426.730	-210
426.805	241
426.879	98
426.954	779
427.029	3616
427.103	21337
427.178	66802
427.253	37133
427.327	3936
427.402	2690
427.476	10724
427.551	5605
427.625	1287
427.700	1408
427.774	229
427.849	1205
427.923	748
427.998	-71
428.072	658
428.147	3065
428.221	6059
428.296	14817
428.370	6305
428.444	1265
428.519	2962
428.593	6247
428.667	6818
428.742	6961
428.816	6048
428.890	11747
428.965	18466
429.039	11032
429.113	8240
429.188	3433
429.262	1280
429.336	1720
429.410	10061
429.485	7332
429.559	6117
429.633	5220
429.707	778
429.781	2789
429.855	15919
429.930	26121
430.004	23333
430.078	37614
430.152	29890
430.226	21256
430.300	21584
430.374	4243
430.448	1980
430.522	10155
430.596	37936
430.670	24992
430.744	35102
430.818	76397
430.892	22307
430.966	2280
431.040	1461
431.114	-408
431.188	-262
431.262	663
431.336	1093
431.410	2870
431.484	9468
431.557	8263
431.631	709
431.705	355
431.779	1464
431.853	9147
431.927	7825
432.000	1227
432.074	353
432.148	1181
432.222	796
432.295	504
432.369	368
432.443	2369
432.516	21304
432.590	71570
432.664	32669
432.737	3653
432.811	947
432.885	-26
432.958	356
433.032	-724
433.106	-494
433.179	-498
433.253	94
433.326	-211
433.400	-590
433.473	-486
433.547	-969
433.620	283
433.694	1807
433.767	2532
433.841	422
433.914	-79
433.988	794
434.061	485
434.134	267
434.208	66
434.281	-605
434.355	-411
434.428	-134
434.501	175
434.575	-270
434.648	183
434.721	679
434.795	-520
434.868	-105
434.941	-593
435.014	-167
435.088	-182
435.161	907
435.234	1247
435.307	2266
435.381	665
435.454	-302
435.527	616
435.600	-221
435.673	-139
435.746	103
435.819	60
435.892	75
435.966	-484
436.039	-295
436.112	760
436.185	-652
436.258	-255
436.331	-513
436.404	-330
436.477	-547
436.550	-440
436.623	-148
436.696	-211
436.769	763
436.842	568
436.915	405
436.987	574
437.060	564
437.133	-106
437.206	-803
437.279	177
437.352	-314
437.425	-475
437.498	307
437.570	1869
437.643	2428
437.716	419
437.789	107
437.861	980
437.934	5280
438.007	3346
438.080	855
438.152	1413
438.225	4747
438.298	30732
438.370	117394
438.443	59608
438.516	10323
438.588	2741
438.661	1021
438.734	577
438.806	868
438.879	1267
438.951	645
439.024	3042
439.096	1589
439.169	209
439.241	-378
439.314	56
439.386	775
439.459	3432
439.531	5674
439.604	2873
439.676	384
439.749	153
439.821	44
439.893	-355
439.966	-178
440.038	733
440.110	1240
440.183	-49
440.255	672
440.327	1500
440.400	10244
440.472	55818
440.544	50693
440.617	7552
440.689	3159
440.761	2088
440.833	4925
440.905	3465
440.978	703
441.050	-128
441.122	713
441.194	-120
441.266	-565
441.338	-187
441.411	1004
441.483	12875
441.555	26010
441.627	8251
441.699	2102
441.771	2671
441.843	1296
441.915	-576
441.987	-254
442.059	-620
442.131	1376
442.203	1804
442.275	2302
442.347	1827
442.419	378
442.491	1976
442.563	8232
442.635	7019
442.706	8845
442.778	9805
442.850	2112
442.922	114
442.994	875
443.066	1382
443.137	1250
443.209	-409
443.281	872
443.353	1709
443.425	5658
443.496	14600
443.568	16402
443.640	6820
443.711	2321
443.783	280
443.855	401
443.926	-275
443.998	647
444.070	726
444.141	468
444.213	2021
444.285	2822
444.356	2209
444.428	3626
444.499	675
444.571	167
444.642	240
444.714	557
444.785	1486
444.857	2861
444.928	6417
445.000	5296
445.071	4868
445.143	6192
445.214	3184
445.285	3252
445.357	10442
445.428	16730
445.500	32686
445.571	29796
445.642	12923
445.714	7564
445.785	13862
445.856	5801
445.928	2811
445.999	2654
446.070	1723
446.141	1593
446.213	2906
446.284	1845
446.355	2009
446.426	860
446.497	440
446.569	2007
446.640	3783
446.711	3646
446.782	632
446.853	2487
446.924	2110
446.995	1297
447.066	450
447.138	2679
447.209	1557
447.280	-91
447.351	-448
447.422	-773
447.493	157
447.564	1705
447.635	3380
447.706	907
447.777	316
447.847	599
447.918	-224
447.989	989
448.060	2265
448.131	5413
448.202	5263
448.273	4295
448.344	1349
448.414	1453
448.485	444
448.556	144
448.627	-55
448.698	460
448.768	-528
448.839	222
448.910	1783
448.981	2061
449.051	1744
449.122	614
449.193	7
449.263	-89
449.334	-15
449.405	1126
449.475	4079
449.546	3138
449.616	3036
449.687	3414
449.758	2092
449.828	257
449.899	526
449.969	865
450.040	209
450.110	1844
450.181	2686
450.251	1153
450.322	188
450.392	1292
450.463	603
450.533	406
450.604	664
450.674	594
450.744	518
450.815	626
450.885	453
450.955	232
451.026	-212
451.096	850
451.166	818
451.237	2902
451.307	9022
451.377	6180
451.447	844
451.518	590
451.588	-206
451.658	1137
451.728	929
451.799	8279
451.869	13280
451.939	4857
452.009	776
452.079	1049
452.149	1068
452.219	2200
452.289	10164
452.360	11955
452.430	4115
452.500	2089
452.570	1794
452.640	2856
452.710	4560
452.780	10733
452.850	9584
452.920	8883
452.990	3944
453.060	2155
453.129	2062
453.199	3796
453.269	11101
453.339	36004
453.409	60965
453.479	48459
453.549	69055
453.619	76958
453.688	43605
453.758	9587
453.828	2129
453.898	1934
453.968	1427
454.037	804
454.087	910
454.107	913
454.168	298
454.177	167
454.247	792
454.249	841
454.316	1065
454.330	1264
454.386	1973
454.411	3910
454.456	6169
454.492	8233
454.525	9825
454.574	6931
454.595	5758
454.655	1880
454.665	1294
454.734	2945
454.736	3093
454.804	5636
454.817	7714
454.873	13456
454.898	15494
454.943	17707
454.979	14144
455.013	11400
455.060	6058
455.082	4347
455.141	5791
455.152	5988
455.221	12752
455.222	13159
455.291	24959
455.303	26166
455.360	29828
455.384	37449
455.430	44960
455.465	38092
455.499	31927
455.546	22758
455.569	17932
455.627	12646
455.638	11976
455.707	4046
455.708	4075
455.777	2459
455.789	2565
455.846	2721
455.869	2483
455.916	2145
455.950	2185
455.985	1984
456.031	2464
456.054	2564
456.112	2686
456.124	2787
456.193	2592
456.193	2557
456.262	3393
456.274	3681
456.332	4569
456.355	5116
456.401	5254
456.436	4460
456.470	3712
456.516	2717
456.540	2358
456.597	1877
456.609	1765
456.678	2490
456.678	2462
456.747	2261
456.759	2201
456.817	2297
456.840	2218
456.886	1847
456.920	2355
456.955	2938
457.001	2866
457.024	3059
457.082	4743
457.093	5112
457.162	7205
457.163	7269
457.232	8629
457.243	8374
457.301	5164
457.324	3878
457.370	2886
457.405	3087
457.439	3324
457.485	3092
457.508	2967
457.566	3748
457.577	3915
457.646	4452
457.647	4487
457.715	4994
457.727	5089
457.784	5305
457.808	5496
457.853	6009
457.889	6635
457.922	6709
457.969	6779
457.991	6981
458.050	7795
458.060	7882
458.129	8399
458.130	8458
458.198	8100
458.211	7894
458.267	5862
458.292	5139
458.336	4834
458.372	4468
458.405	4775
458.453	5862
458.474	6778
458.533	9511
458.543	9850
458.611	13392
458.614	13555
458.680	10486
458.694	9613
458.749	7461
458.775	6241
458.818	5090
458.855	4852
458.887	5093
458.936	5144
458.955	4897
459.016	4717
459.024	4817
459.093	5719
459.097	5772
459.162	5695
459.177	5715
459.230	6545
459.257	7233
459.299	7671
459.338	7941
459.368	8444
459.418	9549
459.437	9097
459.499	6924
459.505	6835
459.574	6946
459.579	6901
459.643	6204
459.659	6122
459.711	6233
459.740	6349
459.780	6822
459.820	7892
459.849	8524
459.900	8576
459.917	8325
459.981	8397
459.986	8388
460.054	7763
460.061	7762
460.123	8118
460.141	8198
460.191	9623
460.222	10724
460.260	11774
460.302	12817
460.328	11795
460.382	9690
460.397	9564
460.462	8434
460.465	8500
460.534	10925
460.543	11236
460.602	22785
460.623	27131
460.671	43911
460.703	56572
460.739	52039
460.783	46292
460.808	37696
460.864	12275
460.876	11457
460.944	8079
460.945	8051
461.013	8942
461.024	9044
461.081	8900
461.104	9071
461.150	9117
461.184	9120
461.218	9060
461.264	8443
461.286	8346
461.345	8566
461.355	8588
461.423	8960
461.425	8960
461.491	9187
461.505	9399
461.559	15436
461.585	18219
461.628	32360
461.665	45151
461.696	51718
461.745	64356
461.764	54529
461.825	19045
461.832	18568
461.901	11640
461.905	11322
461.969	10449
461.985	10538
462.037	10225
462.065	9671
462.105	10151
462.145	11194
462.173	16327
462.225	25574
462.241	28543
462.305	41868
462.310	40779
462.378	23349
462.385	21148
462.446	14244
462.465	11974
462.514	11197
462.545	11389
462.582	11480
462.625	11445
462.650	11174
462.705	10646
462.718	10925
462.785	12015
462.786	12093
462.854	16765
462.865	17558
462.922	22557
462.945	24687
462.990	18618
463.025	13302
463.058	12322
463.104	10857
463.126	10467
463.184	9818
463.194	10051
463.262	11314
463.264	11366
463.330	11602
463.344	11658
463.398	12747
463.424	13141
463.466	13385
463.504	13756
463.533	13713
463.583	13366
463.601	13526
463.663	14117
463.669	14593
463.737	19927
463.743	20433
463.805	27877
463.823	29983
463.873	46796
463.903	57095
463.940	62682
463.982	69418
464.008	55964
464.062	26208
464.076	24280
464.142	13185
464.144	13150
464.211	12470
464.221	12476
464.279	12638
464.301	12709
464.347	13973
464.381	14877
464.414	16993
464.461	19816
464.482	20913
464.540	23928
464.550	23310
464.617	18660
464.620	18466
464.685	19340
464.699	19549
464.753	22442
464.779	23802
464.820	25938
464.859	28025
464.888	27604
464.938	26521
464.956	26924
465.018	28398
465.023	28018
465.091	22379
465.098	21754
465.158	23454
465.177	24005
465.226	23296
465.257	22739
465.293	23386
465.336	23982
465.361	25036
465.416	27575
465.428	29129
465.495	37062
465.496	37262
465.563	59154
465.575	62880
465.631	79809
465.654	87062
465.698	58182
465.734	33626
465.765	30285
465.813	24752
465.833	24705
465.893	25075
465.900	25128
465.968	25252
465.972	25218
466.035	25430
466.052	25442
466.102	26496
466.131	26982
466.170	27049
466.210	27064
466.237	28409
466.290	30941
466.304	31350
466.369	32900
466.372	33044
466.439	35346
466.449	35635
466.506	37667
466.528	38311
466.573	44759
466.607	49497
466.641	67784
466.687	92975
466.708	104512
466.766	136077
466.775	127855
466.842	63952
466.845	60788
466.909	47019
466.925	43633
466.977	42057
467.004	41191
467.044	42512
467.083	43685
467.111	45111
467.163	47538
467.178	48876
467.242	53928
467.245	53742
467.312	47541
467.321	46617
467.379	45686
467.400	45209
467.446	47223
467.480	48506
467.559	44353
467.638	38143
467.717	38083
467.796	39837
467.875	41830
467.955	40556
468.034	48385
468.113	96510
468.192	153362
468.271	55014
468.350	30699
468.429	29722
468.508	30040
468.588	28346
468.667	29756
468.746	31848
468.825	32188
468.904	27185
468.983	30966
469.062	44257
469.141	56184
469.220	30156
469.299	25236
469.378	29072
469.456	33328
469.535	31654
469.614	29424
469.693	30823
469.772	36351
469.851	48024
469.930	38995
470.009	26725
470.088	27056
470.166	27370
470.245	30783
470.324	35111
470.403	32277
470.482	30020
470.560	26347
470.639	26693
470.718	31495
470.797	27789
470.875	29370
470.954	40782
471.033	47104
471.111	23800
471.190	21767
471.269	20334
471.347	21029
471.426	21323
471.505	27190
471.583	28008
471.662	27035
471.740	23756
471.819	23931
471.898	22825
471.976	22853
472.055	22085
472.133	24664
472.212	31637
472.290	35059
472.369	25388
472.447	21700
472.526	19478
472.604	21670
472.683	22649
472.761	24096
472.839	23752
472.918	22310
472.996	21652
473.075	25986
473.153	24262
473.231	21941
473.310	23941
473.388	26393
473.466	22512
473.545	25872
473.623	32568
473.701	34180
473.780	22858
473.858	22352
473.936	24200
474.014	22629
474.093	23784
474.171	33120
474.249	48287
474.327	36729
474.405	21099
474.484	20443
474.562	21754
474.640	22444
474.718	24782
474.796	28283
474.874	26516
474.952	23806
475.030	24021
475.108	26862
475.187	30775
475.265	32960
475.343	37195
475.421	42331
475.499	27218
475.577	26459
475.655	29036
475.733	53618
475.811	94426
475.889	91049
475.966	68418
476.044	23198
476.122	24535
476.200	30029
476.278	26845
476.356	20826
476.434	20695
476.512	24504
476.590	29172
476.667	29669
476.745	18518
476.823	20747
476.901	19213
476.979	21210
477.056	18783
477.134	21901
477.212	22096
477.290	19909
477.367	17095
477.445	17187
477.523	17877
477.601	17710
477.678	18476
477.756	21841
477.834	26092
477.911	19198
477.989	20231
478.066	17866
478.144	20580
478.222	21838
478.299	29716
478.377	32961
478.454	17690
478.532	17082
478.609	17768
478.687	19987
478.764	17232
478.842	18943
478.919	21132
478.997	20689
479.074	16612
479.152	20146
479.229	26332
479.307	21066
479.384	14715
479.461	15945
479.539	16806
479.616	21795
479.694	18506
479.771	19015
479.848	19338
479.926	28464
480.003	31986
480.080	17792
480.157	15616
480.235	15875
480.312	16619
480.389	18706
480.467	29264
480.544	41466
480.621	22691
480.698	17994
480.775	20751
480.853	22579
480.930	17911
481.007	18923
481.084	21237
481.161	22900
481.238	20598
481.315	15715
481.392	15711
481.470	17192
481.547	17393
481.624	17297
481.701	16359
481.778	16811
481.855	18942
481.932	26092
482.009	48801
482.086	42053
482.163	16109
482.240	20444
482.317	34419
482.393	34113
482.470	17439
482.547	16951
482.624	15659
482.701	17721
482.778	16568
482.855	14720
482.932	13959
483.009	14673
483.085	15305
483.162	19031
483.239	18188
483.316	15837
483.393	14731
483.469	14647
483.546	17127
483.623	20858
483.699	15854
483.776	17762
483.853	21173
483.930	27516
484.006	66476
484.083	133071
484.160	70755
484.236	90105
484.313	74292
484.389	55511
484.466	47229
484.543	44708
484.619	45524
484.696	45896
484.772	48733
484.849	53935
484.925	45019
485.002	43139
485.078	43996
485.155	47120
485.231	41880
485.308	41688
485.384	42479
485.461	50374
485.537	78747
485.614	107165
485.690	47892
485.766	39935
485.843	41253
485.919	53850
485.995	61517
486.072	39845
486.148	37638
486.224	36957
486.301	38045
486.377	44554
486.453	46757
486.530	43964
486.606	52631
486.682	63505
486.758	71963
486.835	90936
486.911	65673
486.987	102723
487.063	110237
487.139	127475
487.215	98569
487.292	53033
487.368	41306
487.444	43123
487.520	49026
487.596	46291
487.672	43458
487.748	57089
487.824	80810
487.900	54931
487.976	40280
488.052	43411
488.128	52750
488.204	48410
488.280	38881
488.356	45701
488.432	82083
488.508	147848
488.584	62350
488.660	38907
488.736	37509
488.812	38317
488.888	47456
488.964	56525
489.039	105285
489.115	181727
489.191	132665
489.267	43012
489.343	37457
489.418	32928
489.494	31033
489.570	30106
489.646	32161
489.722	33100
489.797	32845
489.873	45379
489.949	99440
490.024	105850
490.100	34149
490.176	31774
490.251	34547
490.327	47373
490.403	32557
490.478	28978
490.554	24927
490.629	26435
490.705	25724
490.781	29920
490.856	28316
490.932	33072
491.007	33000
491.083	35104
491.158	31069
491.234	36422
491.309	74687
491.385	94342
491.460	35199
491.536	32623
491.611	31252
491.686	31394
491.762	40002
491.837	69545
491.913	129099
491.988	160463
492.063	240023
492.139	86534
492.214	49468
492.289	26305
492.365	23708
492.440	29438
492.515	29001
492.590	28861
492.666	23854
492.741	30169
492.816	50437
492.891	32395
492.967	24609
493.042	22424
493.117	26441
493.192	28133
493.267	41848
493.342	130528
493.418	233131
493.493	54936
493.568	22207
493.643	22156
493.718	27776
493.793	39874
493.868	46751
493.943	30815
494.018	23186
494.093	21569
494.168	22896
494.243	20644
494.318	19760
494.393	19933
494.468	19312
494.543	19018
494.618	22954
494.693	21866
494.768	20312
494.842	23491
494.917	18800
494.992	21958
495.067	21046
495.142	19237
495.217	21613
495.292	22230
495.366	25240
495.441	32808
495.516	39905
495.591	49062
495.665	121698
495.740	360049
495.815	212349
495.890	41671
495.964	30219
496.039	31678
496.114	29358
496.188	31267
496.263	32775
496.338	31155
496.412	34538
496.487	39616
496.561	40314
496.636	45761
496.710	37295
496.785	40548
496.860	46951
496.934	41867
497.009	41447
497.083	42230
497.158	44389
497.232	50877
497.307	60592
497.381	59711
497.455	65269
497.530	84464
497.604	72704
497.679	74770
497.753	97837
497.827	130083
497.902	133309
497.976	143894
498.050	198851
498.125	613760
498.199	830085
498.273	201178
498.348	150455
498.422	135735
498.496	124362
498.570	114991
498.645	98139
498.719	92448
498.793	92378
498.867	110225
498.941	129684
499.016	228743
499.090	714128
499.164	361569
499.238	62839
499.312	48554
499.386	52869
499.460	50538
499.534	45331
499.609	48230
499.683	69102
499.757	69204
499.831	98769
499.905	405404
499.979	525279
500.053	87901
500.127	76822
500.201	58785
500.275	39608
500.349	37055
500.422	40517
500.496	53331
500.570	95688
500.644	214210
500.718	508043
500.792	154646
500.866	35178
500.940	41409
501.013	38320
501.087	34900
501.161	54599
501.235	73806
501.309	124022
501.382	374618
501.456	431315
501.530	87737
501.603	139153
501.677	70917
501.751	26966
501.825	32761
501.898	47575
501.972	155626
502.046	131584
502.119	34540
502.193	60375
502.266	178056
502.340	109798
502.413	66419
502.487	158436
502.561	103205
502.634	38510
502.708	25385
502.781	23524
502.855	20373
502.928	16692
503.002	17442
503.075	16837
503.149	19992
503.222	19465
503.295	23391
503.369	29143
503.442	35723
503.516	93332
503.589	308413
503.662	242693
503.736	64796
503.809	131339
503.882	129543
503.956	141968
504.029	163331
504.102	50322
504.175	47172
504.249	24647
504.322	23658
504.395	25673
504.468	17226
504.542	18241
504.615	16187
504.688	13962
504.761	15109
504.834	17773
504.907	20843
504.980	37215
505.053	22191
505.127	22463
505.200	27597
505.273	28636
505.346	19599
505.419	14904
505.492	14603
505.565	11696
505.638	12175
505.711	11659
505.784	13559
505.857	12022
505.930	13613
506.003	12987
506.076	15668
506.149	19175
506.221	29429
506.294	23188
506.367	48473
506.440	199582
506.513	144780
506.586	30488
506.659	18997
506.731	15012
506.804	17351
506.877	27097
506.950	22269
507.022	13105
507.095	17438
507.168	24555
507.241	15674
507.313	12758
507.386	14860
507.459	20199
507.531	16153
507.604	13198
507.677	13081
507.749	10808
507.822	16205
507.894	29862
507.967	42291
508.040	24639
508.112	20593
508.185	19549
508.257	17542
508.330	26204
508.402	21132
508.475	18470
508.547	20170
508.620	18886
508.692	31682
508.765	22950
508.837	16814
508.909	14544
508.982	15976
509.054	17881
509.127	17850
509.199	15670
509.271	15209
509.344	12653
509.416	14496
509.488	14649
509.560	16234
509.633	17302
509.705	19090
509.777	19066
509.849	25966
509.922	21243
509.994	18408
510.066	16590
510.138	18007
510.210	32634
510.283	32069
510.355	26986
510.427	23081
510.499	21502
510.571	22691
510.643	20937
510.715	29109
510.787	30380
510.859	22425
510.931	24675
511.003	29777
511.076	29430
511.148	20422
511.219	20716
511.291	29298
511.363	38998
511.435	20679
511.507	18031
511.579	18277
511.651	17790
511.723	18131
511.795	17684
511.867	18620
511.939	20753
512.010	42102
512.082	41427
512.154	19500
512.226	20148
512.298	24956
512.369	39971
512.441	31439
512.513	29804
512.585	25454
512.656	22995
512.728	25652
512.800	21175
512.871	20089
512.943	20690
513.015	18078
513.086	19729
513.158	22290
513.230	21517
513.301	29187
513.373	34315
513.444	24437
513.516	19526
513.588	19659
513.659	20959
513.731	26090
513.802	23940
513.874	36332
513.945	75021
514.016	36894
514.088	18858
514.159	21830
514.231	26120
514.302	38225
514.374	28293
514.445	27361
514.516	46404
514.588	44874
514.659	27326
514.730	46149
514.802	42471
514.873	41111
514.944	48203
515.016	39091
515.087	36017
515.158	39171
515.229	56368
515.301	46061
515.372	68859
515.443	59032
515.514	40589
515.585	29951
515.656	24904
515.728	23520
515.799	20416
515.870	21366
515.941	21411
516.012	21296
516.083	25321
516.154	28994
516.225	32517
516.296	34884
516.367	29757
516.438	32102
516.509	38386
516.580	48357
516.651	96996
516.722	392487
516.793	288065
516.864	58225
516.935	54220
517.006	55729
517.077	69150
517.148	129397
517.219	344634
517.289	817208
517.360	318063
517.431	121195
517.502	32843
517.573	28129
517.643	27295
517.714	30400
517.785	31769
517.856	31478
517.926	36655
517.997	42410
518.068	51670
518.138	68719
518.209	87428
518.280	226398
518.350	1015904
518.421	653232
518.492	79355
518.562	39747
518.633	34635
518.703	29596
518.774	30429
518.845	40867
518.915	45232
518.986	33986
519.056	35725
519.127	58869
519.197	90696
519.268	208900
519.338	178234
519.408	41144
519.479	41269
519.549	35902
519.620	23446
519.690	18661
519.760	19374
519.831	18825
519.901	20621
519.971	16599
520.042	18009
520.112	23394
520.182	24007
520.253	29794
520.323	22062
520.393	28235
520.463	50500
520.534	31290
520.604	71308
520.674	38556
520.744	30626
520.814	70544
520.885	79093
520.955	58849
521.025	245483
521.095	139743
521.165	24420
521.235	21511
521.305	18170
521.375	17124
521.445	16392
521.515	24158
521.585	25140
521.655	27334
521.725	21950
521.795	21510
521.865	16008
521.935	24485
522.005	24142
522.075	15763
522.145	17097
522.215	20003
522.285	28792
522.355	35485
522.424	68307
522.494	71844
522.564	34951
522.634	44537
522.704	145999
522.774	84941
522.843	21055
522.913	18949
522.983	22683
523.053	20871
523.122	18788
523.192	22855
523.262	68670
523.331	106141
523.401	25820
523.471	14376
523.540	15780
523.610	13278
523.680	12020
523.749	13480
523.819	16969
523.888	19725
523.958	12600
524.027	12987
524.097	14904
524.166	14383
524.236	16663
524.305	16715
524.375	12604
524.444	12915
524.514	13858
524.583	14715
524.653	16981
524.722	22277
524.791	16275
524.861	13760
524.930	12567
524.999	13619
525.069	19383
525.138	17151
525.207	20382
525.277	15363
525.346	14579
525.415	14088
525.484	12540
525.554	15947
525.623	15953
525.692	13086
525.761	13164
525.830	12408
525.900	12023
525.969	17033
526.038	20219
526.107	21600
526.176	46668
526.245	50560
526.314	32236
526.383	41182
526.452	45724
526.522	60989
526.591	97861
526.660	83385
526.729	48709
526.797	38215
526.867	67500
526.935	318545
527.004	361745
527.073	164003
527.142	28975
527.211	18507
527.280	17555
527.349	21770
527.418	11727
527.487	12986
527.555	11583
527.624	10668
527.693	9001
527.762	11156
527.831	10692
527.899	11753
527.968	10930
528.037	11112
528.106	13779
528.174	26996
528.243	25564
528.312	28249
528.380	47237
528.449	17899
528.518	11868
528.586	7722
528.655	9780
528.723	10049
528.792	8784
528.861	11042
528.929	10088
528.998	10366
529.066	7781
529.135	9530
529.203	8145
529.272	8822
529.340	9834
529.409	10469
529.477	9144
529.545	14345
529.614	17162
529.682	15759
529.751	21532
529.819	20255
529.887	16353
529.956	9980
530.024	11833
530.092	9710
530.161	11349
530.229	20426
530.297	13368
530.365	10505
530.434	8755
530.502	8855
530.570	9457
530.638	7765
530.707	10303
530.775	10802
530.843	9104
530.911	8937
530.979	8568
531.047	9012
531.115	9911
531.183	9378
531.252	9309
531.320	10644
531.388	8388
531.456	8751
531.524	7786
531.592	10056
531.660	10355
531.728	10320
531.796	8302
531.864	9415
531.932	10757
532.000	10188
532.067	10472
532.135	12015
532.203	13718
532.271	15390
532.339	23247
532.407	61609
532.475	52688
532.542	23513
532.610	22338
532.678	26655
532.746	74817
532.814	290110
532.881	99010
532.949	17929
533.017	13596
533.084	12107
533.152	10660
533.220	10749
533.287	12908
533.355	11491
533.423	10597
533.490	9875
533.558	9559
533.625	10353
533.693	12940
533.761	12651
533.828	13740
533.896	13848
533.963	23870
534.031	33785
534.098	40623
534.166	26306
534.233	12782
534.300	14203
534.368	14805
534.435	13211
534.503	13484
534.570	15482
534.637	12507
534.705	11200
534.772	11491
534.840	14060
534.907	22326
534.974	35618
535.041	14454
535.109	15597
535.176	11923
535.243	10519
535.310	10565
535.378	11379
535.445	8725
535.512	9688
535.579	9971
535.646	10269
535.714	10243
535.781	13981
535.848	14191
535.915	14382
535.982	15657
536.049	16086
536.116	15412
536.183	14685
536.250	14375
536.317	14924
536.384	16016
536.451	22038
536.518	24448
536.585	18648
536.652	20715
536.719	28204
536.786	26424
536.853	20557
536.920	25066
536.987	41944
537.053	37460
537.120	112419
537.187	147689
537.254	19281
537.321	12128
537.388	13050
537.454	10668
537.521	10260
537.588	10462
537.654	12061
537.721	13887
537.788	14505
537.855	11299
537.921	11716
537.988	11964
538.055	13291
538.121	12077
538.188	14403
538.254	19382
538.321	40383
538.388	30582
538.454	14505
538.521	11665
538.587	10504
538.654	10145
538.720	10928
538.787	10807
538.853	11372
538.920	15583
538.986	17159
539.053	14776
539.119	13648
539.185	14103
539.252	13862
539.318	23060
539.385	21350
539.451	17047
539.517	17111
539.583	18169
539.650	30178
539.716	102763
539.782	42119
539.849	14511
539.915	13746
539.981	13604
540.047	17141
540.114	16688
540.180	16194
540.246	16193
540.312	20292
540.378	37631
540.444	46127
540.510	34462
540.576	111804
540.643	52246
540.709	14701
540.775	13480
540.841	14078
540.907	17543
540.973	31890
541.039	25861
541.105	27346
541.171	18302
541.237	13491
541.303	14641
541.369	17222
541.435	20227
541.500	33803
541.566	27146
541.632	14085
541.698	11720
541.764	11761
541.830	11155
541.896	10773
541.961	11670
542.027	13402
542.093	13183
542.159	13544
542.224	15804
542.290	22667
542.356	32720
542.421	43447
542.487	23389
542.553	15994
542.618	16992
542.684	15331
542.750	14243
542.815	16859
542.881	24352
542.947	84267
543.012	90436
543.078	16869
543.143	13485
543.209	14590
543.274	14724
543.340	16044
543.405	29475
543.471	65368
543.536	19680
543.602	12977
543.667	11662
543.732	12105
543.798	10810
543.863	13536
543.928	10304
543.994	10415
544.059	11099
544.124	11835
544.190	11181
544.255	12800
544.320	12601
544.386	13845
544.451	17989
544.516	23160
544.581	21276
544.646	47457
544.712	106263
544.777	27542
544.842	16185
544.907	16829
544.972	15016
545.037	13409
545.102	14810
545.168	15820
545.233	16327
545.298	17899
545.363	20655
545.428	22252
545.493	30769
545.558	77208
545.623	43694
545.688	17486
545.753	15624
545.818	15487
545.883	15081
545.947	14872
546.012	16193
546.077	17687
546.142	16249
546.207	15437
546.272	18432
546.337	22343
546.401	18184
546.466	16471
546.531	13623
546.596	16769
546.661	15698
546.725	15108
546.790	12517
546.855	14472
546.919	12384
546.984	14048
547.049	15040
547.113	18234
547.178	14248
547.243	17380
547.307	17891
547.372	20315
547.436	24924
547.501	17839
547.565	16645
547.630	20381
547.695	22189
547.759	23465
547.823	21949
547.888	16372
547.952	14722
548.017	15590
548.081	18693
548.146	25756
548.210	25444
548.274	16385
548.339	14604
548.403	15354
548.468	14018
548.532	14497
548.596	13704
548.660	14913
548.725	16369
548.789	19802
548.853	23046
548.917	17983
548.982	22042
549.046	27918
549.110	15862
549.174	15341
549.238	13578
549.303	13514
549.367	14965
549.431	15410
549.495	13629
549.559	14723
549.623	14506
549.687	17583
549.751	25882
549.815	20493
549.879	18167
549.943	14960
550.007	17562
550.071	17870
550.135	22696
550.199	20663
550.263	17253
550.327	19215
550.391	25496
550.455	21861
550.519	16897
550.582	19482
550.646	23090
550.710	27899
550.774	18124
550.838	18675
550.901	17789
550.965	19423
551.029	20204
551.093	23683
551.156	27609
551.220	51128
551.284	66896
551.347	31659
551.411	58425
551.475	89622
551.538	25754
551.602	18192
551.666	17241
551.729	15670
551.793	16987
551.856	17191
551.920	16664
551.983	17115
552.047	15945
552.110	16371
552.174	14834
552.237	15920
552.301	15512
552.364	15470
552.428	15103
552.491	15553
552.554	16586
552.618	17183
552.681	18075
552.745	18825
552.808	24373
552.871	35199
552.934	26991
552.998	20824
553.061	19837
553.124	19459
553.187	19491
553.251	21217
553.314	23548
553.377	23575
553.440	30938
553.503	77456
553.567	176185
553.630	41880
553.693	19159
553.756	17943
553.819	15721
553.882	15444
553.945	14058
554.008	15475
554.071	13460
554.134	15022
554.197	13756
554.260	14901
554.323	16320
554.386	16098
554.449	14582
554.512	15149
554.575	13783
554.638	15129
554.701	15183
554.764	14071
554.827	14179
554.889	13511
554.952	12622
555.015	12163
555.078	12525
555.141	13113
555.203	12811
555.266	13710
555.329	14299
555.391	13687
555.454	14176
555.517	15343
555.580	13225
555.642	12208
555.705	12532
555.768	14399
555.830	14175
555.893	12430
555.955	12253
556.018	13166
556.080	13364
556.143	12139
556.206	12818
556.268	14749
556.330	14917
556.393	14761
556.455	14388
556.518	21310
556.580	25574
556.643	14236
556.705	14220
556.767	12325
556.830	14194
556.892	14887
556.955	23150
557.017	21955
557.079	15103
557.142	14331
557.204	15083
557.266	31087
557.328	33490
557.391	14556
557.453	12390
557.515	12605
557.577	14126
557.639	18792
557.701	13178
557.764	11202
557.826	11457
557.888	14430
557.950	12349
558.012	11905
558.074	13100
558.136	17036
558.198	33660
558.260	24052
558.322	15111
558.384	15174
558.446	16436
558.508	18458
558.570	21936
558.632	34117
558.694	61795
558.756	38648
558.818	56733
558.880	170098
558.942	78948
559.003	37127
559.065	27317
559.127	16919
559.189	16065
559.251	17363
559.312	19585
559.374	29285
559.436	87592
559.498	71458
559.559	18587
559.621	17027
559.683	17317
559.744	23677
559.806	46214
559.868	79758
559.929	28940
559.991	19438
560.052	19739
560.114	34127
560.176	31704
560.237	23434
560.299	40298
560.360	21785
560.422	14063
560.483	14050
560.545	13980
560.606	13833
560.667	12618
560.729	12781
560.790	12917
560.852	12770
560.913	12752
560.974	12958
561.036	12271
561.097	14031
561.158	14353
561.220	14492
561.281	13883
561.342	16617
561.403	18091
561.465	20966
561.526	40670
561.587	72596
561.648	27409
561.709	15570
561.771	13969
561.832	14727
561.893	14013
561.954	14051
562.015	13240
562.076	13744
562.137	13536
562.198	13861
562.259	13741
562.320	14322
562.381	14979
562.442	21420
562.503	21429
562.564	14542
562.625	12992
562.686	13759
562.747	14235
562.808	16304
562.869	13775
562.930	17296
562.991	17195
563.051	16677
563.112	15157
563.173	14641
563.234	14151
563.294	15591
563.355	13781
563.416	15538
563.477	13947
563.537	14856
563.598	16109
563.659	15453
563.720	15018
563.780	15660
563.841	16491
563.901	16084
563.962	14988
564.023	14927
564.083	15745
564.144	17153
564.204	16598
564.265	17192
564.325	17621
564.386	31899
564.446	36121
564.507	17655
564.567	15860
564.628	17013
564.688	16610
564.749	16988
564.809	18548
564.869	22246
564.930	18849
564.990	17867
565.050	15846
565.111	18132
565.171	17142
565.231	17291
565.292	17846
565.352	17075
565.412	17739
565.472	19474
565.532	20185
565.593	19370
565.653	18486
565.713	19360
565.773	21373
565.833	23377
565.893	28725
565.953	24747
566.013	22061
566.074	24615
566.134	26499
566.194	37207
566.254	44033
566.314	34432
566.374	28636
566.434	29018
566.494	29233
566.554	31704
566.614	32334
566.673	34990
566.733	35830
566.793	38911
566.853	40004
566.913	40758
566.973	41578
567.033	43754
567.092	42505
567.152	41984
567.212	43319
567.272	44253
567.331	47188
567.391	48957
567.451	52330
567.511	57071
567.570	60692
567.630	47388
567.690	44657
567.749	47934
567.809	49867
567.868	56367
567.928	64920
567.988	76714
568.047	90532
568.107	108972
568.166	141912
568.226	199313
568.285	280079
568.345	288675
568.404	256593
568.464	227581
568.523	213025
568.582	211943
568.642	223208
568.701	255765
568.761	325147
568.820	456480
568.879	521501
568.939	451859
568.998	365516
569.057	291197
569.116	236283
569.176	191537
569.235	160876
569.294	136410
569.353	116869
569.413	100625
569.472	88716
569.531	80922
569.590	69251
569.649	63566
569.708	57372
569.767	55255
569.827	53750
569.886	48185
569.945	43255
570.004	40085
570.063	37566
570.122	36663
570.181	35668
570.240	35013
570.299	34390
570.358	32863
570.417	28428
570.475	25822
570.534	26875
570.593	26682
570.652	25238
570.711	25660
570.770	23976
570.829	26060
570.887	25654
570.946	25807
571.005	22640
571.064	20997
571.122	20504
571.181	22926
571.240	21100
571.299	19594
571.357	19111
571.416	20379
571.475	20783
571.533	23410
571.592	18201
571.650	18928
571.709	17227
571.768	17001
571.826	15766
571.885	15705
571.943	15116
572.002	16740
572.060	17404
572.119	14939
572.177	14038
572.236	14796
572.294	12746
572.352	14650
572.411	13847
572.469	13475
572.528	14045
572.586	14555
572.644	14835
572.703	18930
572.761	16751
572.819	14608
572.877	13868
572.936	13116
572.994	13429
573.052	13289
573.110	13484
573.169	14781
573.227	13179
573.285	13313
573.343	11361
573.401	12096
573.459	12952
573.517	12741
573.576	12133
573.634	12763
573.692	13743
573.750	13628
573.808	12475
573.866	13589
573.924	17256
573.982	17632
574.040	14144
574.098	12586
574.155	11994
574.213	13300
574.271	12243
574.329	12648
574.387	12430
574.445	12063
574.503	11670
574.560	12126
574.618	10594
574.676	11744
574.734	11729
574.792	11985
574.849	12335
574.907	10924
574.965	12426
575.022	10970
575.080	10976
575.138	12705
575.195	11898
575.253	12948
575.311	13675
575.368	13549
575.426	11218
575.483	12317
575.541	11925
575.598	11555
575.656	11874
575.713	12357
575.771	11572
575.828	11897
575.886	10339
575.943	12609
576.001	12789
576.058	12912
576.115	13745
576.173	14962
576.230	16519
576.287	17930
576.345	16460
576.402	13848
576.459	13040
576.517	13379
576.574	14408
576.631	15498
576.688	14524
576.746	13383
576.803	12710
576.860	12144
576.917	13199
576.974	13345
577.031	13055
577.089	12770
577.146	13622
577.203	13928
577.260	13746
577.317	14854
577.374	14734
577.431	15906
577.488	14241
577.545	14158
577.602	13960
577.659	14268
577.716	14140
577.773	15996
577.830	14578
577.886	15107
577.943	13341
578.000	14564
578.057	13718
578.114	15341
578.171	16066
578.227	20550
578.284	21095
578.341	19242
578.398	16683
578.454	16588
578.511	17362
578.568	18111
578.625	16712
578.681	15009
578.738	14077
578.794	14317
578.851	14114
578.908	14898
578.964	13964
579.021	15605
579.077	14196
579.134	14772
579.190	13667
579.247	13859
579.303	13601
579.360	14205
579.416	14808
579.473	13995
579.529	13602
579.586	14933
579.642	13747
579.698	15276
579.755	15634
579.811	15935
579.867	16168
579.924	15786
579.980	16768
580.036	17988
580.093	19937
580.149	25300
580.205	29295
580.261	25786
580.317	22884
580.374	20891
580.430	20550
580.486	19942
580.542	18407
580.598	18095
580.619	18261
580.654	18577
580.692	17310
580.710	16717
580.765	16206
580.767	16212
580.823	17181
580.838	16769
580.879	15771
580.911	16035
580.935	16254
580.984	15827
580.991	15795
581.047	16720
581.057	16814
581.103	17388
581.130	17819
581.159	18286
581.203	19074
581.215	19316
581.270	19354
581.276	19135
581.326	17188
581.349	17293
581.382	17550
581.422	17251
581.438	17135
581.494	16775
581.494	16749
581.550	15862
581.567	16332
581.606	17397
581.640	16534
581.661	16032
581.713	16847
581.717	16924
581.773	15155
581.786	15450
581.829	16526
581.859	16351
581.885	16234
581.932	16543
581.940	16611
581.996	16658
582.004	16703
582.052	16933
582.077	16684
582.107	16510
582.150	16997
582.163	17156
582.219	16124
582.223	16159
582.274	16709
582.296	17068
582.330	17595
582.368	17826
582.386	18021
582.441	16560
582.441	16566
582.497	16609
582.514	16979
582.552	17984
582.587	18526
582.608	18823
582.659	17243
582.663	17128
582.719	18175
582.732	18190
582.774	18197
582.805	17691
582.830	17378
582.877	18315
582.885	18453
582.941	19089
582.950	18941
582.996	18215
583.023	18754
583.052	19491
583.095	19832
583.107	19912
583.162	22363
583.168	22511
583.218	23699
583.240	23333
583.273	22819
583.313	21493
583.328	21014
583.384	20279
583.385	20277
583.439	19988
583.458	19640
583.494	19072
583.531	18724
583.549	18616
583.603	19328
583.605	19340
583.660	19044
583.676	19239
583.715	19764
583.748	19699
583.770	19678
583.820	20385
583.825	20447
583.881	19962
583.893	19889
583.936	19363
583.965	18967
583.991	18815
584.038	20359
584.046	20614
584.101	20315
584.110	20295
584.156	20058
584.183	20102
584.211	20123
584.255	20580
584.266	20643
584.321	20390
584.328	20409
584.376	20630
584.400	20743
584.431	21045
584.472	21571
584.486	21586
584.541	21604
584.545	21603
584.596	21695
584.617	21867
584.651	22165
584.689	22467
584.706	22490
584.761	22544
584.762	22566
584.816	22954
584.834	23185
584.871	23658
584.906	23354
584.926	23098
584.978	23266
584.980	23269
585.035	24240
585.051	24542
585.090	24926
585.123	24943
585.145	24979
585.195	25898
585.200	25958
585.254	26779
585.267	27032
585.309	28068
585.340	30480
585.364	32054
585.412	30319
585.419	29977
585.473	29652
585.484	29638
585.528	29727
585.556	30604
585.583	31656
585.628	33606
585.637	34167
585.692	40694
585.700	42869
585.747	54686
585.772	53377
585.801	48441
585.845	37491
585.856	35185
585.910	33321
585.917	33129
585.965	32321
585.989	32251
586.019	32357
586.061	33288
586.074	33376
586.128	33820
586.133	33988
586.183	35343
586.205	35631
586.237	35925
586.277	36778
586.292	36930
586.346	37516
586.349	37585
586.401	37447
586.421	38189
586.455	39510
586.493	40850
586.509	41585
586.564	45619
586.565	45921
586.618	56243
586.637	58050
586.672	58287
586.709	51310
586.727	47707
586.781	46363
586.781	46257
586.835	46759
586.853	47138
586.889	47621
586.925	48750
586.944	49239
586.996	51382
586.998	51318
587.052	53480
587.068	54343
587.106	55475
587.140	55927
587.161	56222
587.212	59407
587.215	59411
587.269	62771
587.284	63671
587.323	65255
587.356	67402
587.377	68289
587.427	71736
587.431	71821
587.485	74617
587.499	76160
587.539	79309
587.571	81603
587.593	83259
587.643	88870
587.648	89059
587.702	94519
587.715	96434
587.755	101550
587.786	105921
587.810	108703
587.858	116413
587.864	116905
587.917	127263
587.930	130462
587.971	140459
588.001	148394
588.025	153853
588.073	168257
588.079	169468
588.133	186912
588.145	192301
588.187	210025
588.217	224719
588.241	236239
588.288	264474
588.295	267405
588.348	303386
588.360	312837
588.402	346524
588.431	375450
588.456	398331
588.503	452333
588.510	458919
588.564	532280
588.575	551212
588.617	623100
588.646	680408
588.671	736786
588.718	860192
588.725	882807
588.778	1077974
588.789	1118001
588.832	1357087
588.861	1506881
588.886	1671062
588.932	1944704
588.939	1950486
588.993	1964177
589.004	1989822
589.047	1911766
589.075	1855723
589.100	1700570
589.147	1331807
589.154	1299854
589.207	1046548
589.218	999718
589.261	908492
589.290	866402
589.314	859402
589.361	876311
589.368	887300
589.421	1030983
589.433	1065352
589.475	1332810
589.504	1509359
589.528	1659187
589.576	1910973
589.582	1890543
589.635	1765168
589.647	1736951
589.689	1377637
589.718	1074038
589.742	936183
589.790	656604
589.795	635315
589.849	483501
589.861	454837
589.902	383914
589.932	340629
589.955	310969
590.004	261042
590.009	255365
590.062	217181
590.075	210278
590.115	188221
590.146	175028
590.168	164977
590.218	148437
590.222	146178
590.275	130830
590.289	127996
590.328	118573
590.360	112844
590.381	107520
590.431	98032
590.435	96836
590.488	88907
590.503	87518
590.541	81981
590.574	78558
590.594	75859
590.645	70946
590.647	70233
590.700	64999
590.716	64257
590.753	61330
590.787	59099
590.806	57248
590.859	54148
590.859	53704
590.912	50952
590.930	50658
590.965	48169
591.001	46275
591.018	45249
591.071	43403
591.072	43718
591.124	41278
591.143	40867
591.177	39261
591.214	38331
591.230	37776
591.283	36986
591.285	37237
591.336	35796
591.356	35679
591.389	34613
591.427	33801
591.442	33133
591.495	31684
591.498	31826
591.547	29826
591.569	29383
591.600	28848
591.640	28440
591.653	27884
591.706	26752
591.711	26854
591.759	26013
591.782	25924
591.811	25641
591.853	25811
591.864	25485
591.917	24667
591.924	24761
591.969	23633
591.995	23347
592.022	22702
592.066	22090
592.075	21870
592.127	21731
592.137	21916
592.180	23309
592.208	24498
592.233	22907
592.279	20169
592.285	19834
592.338	18725
592.350	18632
592.390	18175
592.421	18176
592.443	17950
592.491	17955
592.495	17744
592.548	17114
592.562	17098
592.600	16880
592.633	16997
592.653	16604
592.704	15896
592.705	15990
592.775	16400
592.846	15819
592.916	15528
592.987	15657
593.058	15988
593.128	14744
593.199	14302
593.270	14059
593.341	13276
593.411	13711
593.482	14674
593.553	13591
593.623	12369
593.694	12596
593.764	12858
593.835	12112
593.906	11586
593.976	11281
594.047	11695
594.117	12733
594.188	14624
594.258	11120
594.329	10702
594.399	11484
594.470	11117
594.540	10428
594.611	10662
594.681	10745
594.751	11452
594.822	11794
594.892	11913
594.963	12548
595.033	10902
595.103	10276
595.174	10783
595.244	14119
595.314	18364
595.384	12372
595.455	10659
595.525	10054
595.595	10212
595.665	9960
595.736	10034
595.806	10584
595.876	10266
595.946	9673
596.016	9888
596.087	8993
596.157	8989
596.227	9483
596.297	9675
596.367	10153
596.437	10579
596.507	11641
596.577	16133
596.647	11430
596.717	9940
596.787	8460
596.857	8923
596.927	8674
596.997	9357
597.067	9499
597.137	9683
597.207	9772
597.277	8825
597.347	8995
597.417	9127
597.487	9520
597.557	9173
597.626	8950
597.696	9227
597.766	11400
597.836	14287
597.906	12373
597.975	9219
598.045	8287
598.115	8737
598.185	8050
598.254	9254
598.324	9364
598.394	9852
598.464	10409
598.533	9480
598.603	7829
598.672	8986
598.742	8512
598.812	8631
598.881	8597
598.951	8612
599.020	8316
599.090	8037
599.159	8484
599.229	8470
599.299	7192
599.368	8744
599.437	8249
599.507	8780
599.576	8375
599.646	8555
599.715	9178
599.785	8496
599.854	8658
599.924	9671
599.993	9962
600.062	7547
600.132	7756
600.201	7816
600.270	8583
600.340	8493
600.409	8028
600.478	7951
600.547	7576
600.617	8793
600.686	7919
600.755	8419
600.824	8258
600.894	8095
600.963	7690
601.032	7663
601.101	7424
601.170	7639
601.239	6935
601.308	8286
601.378	8068
601.447	7194
601.516	6739
601.585	8238
601.654	8608
601.723	8193
601.792	7177
601.861	6954
601.930	9159
601.999	9927
602.068	7676
602.137	8268
602.206	9035
602.275	7592
602.343	8330
602.412	10609
602.481	7588
602.550	7188
602.619	7008
602.688	7324
602.756	7125
602.825	7483
602.894	6906
602.963	6974
603.032	7220
603.100	6415
603.169	6149
603.238	7265
603.307	6454
603.375	6761
603.444	6763
603.513	7091
603.581	7273
603.650	6328
603.719	6305
603.787	6359
603.856	5885
603.924	6653
603.993	7109
604.061	6905
604.130	7016
604.198	7753
604.267	7436
604.335	6884
604.404	6721
604.472	7298
604.541	7082
604.609	7146
604.678	6778
604.746	7962
604.815	7168
604.883	7473
604.951	6963
605.020	7300
605.088	6533
605.156	6410
605.225	7211
605.293	6641
605.361	7322
605.429	7235
605.498	7451
605.566	7901
605.634	7004
605.702	8065
605.771	6682
605.839	7753
605.907	7915
605.975	6743
606.043	6999
606.111	6704
606.180	6511
606.248	7315
606.316	9563
606.384	7402
606.452	9358
606.520	10745
606.588	9119
606.656	6078
606.724	5768
606.792	6991
606.860	5195
606.928	5903
606.996	6363
607.064	6060
607.132	5296
607.200	6161
607.267	6104
607.335	5454
607.403	5577
607.471	6208
607.539	5933
607.607	6344
607.674	5647
607.742	6369
607.810	6514
607.878	6688
607.946	5280
608.013	5419
608.081	5754
608.149	6269
608.216	5224
608.284	5069
608.352	6156
608.419	5478
608.487	8763
608.555	7424
608.622	5456
608.690	5885
608.757	6095
608.825	6713
608.893	6191
608.960	7517
609.028	8768
609.095	9870
609.163	7566
609.230	6599
609.298	6833
609.365	5080
609.432	6158
609.500	5964
609.567	6799
609.635	6824
609.702	6832
609.769	7092
609.837	7668
609.904	7567
609.971	6075
610.039	7843
610.106	9641
610.173	15287
610.241	33556
610.308	47772
610.375	37763
610.442	13285
610.509	7152
610.577	6894
610.644	6242
610.711	6680
610.778	5840
610.845	6077
610.912	6794
610.980	7024
611.047	8324
611.114	8949
611.181	5349
611.248	5282
611.315	6453
611.382	6498
611.449	6328
611.516	6564
611.583	6435
611.650	6589
611.717	5508
611.784	6140
611.851	6799
611.918	7796
611.984	8285
612.051	11232
612.118	19816
612.185	49649
612.252	54295
612.319	11928
612.386	8107
612.452	7261
612.519	6888
612.586	9050
612.653	9122
612.719	6737
612.786	6573
612.853	6470
612.919	5631
612.986	6640
613.053	5874
613.120	6154
613.186	5123
613.253	7406
613.319	6579
613.386	5935
613.453	6532
613.519	6612
613.586	9027
613.652	14191
613.719	11430
613.785	10649
613.852	6829
613.918	6633
613.985	7741
614.051	11690
614.118	25834
614.184	38286
614.250	11240
614.317	6371
614.383	6137
614.449	5908
614.516	5447
614.582	6726
614.648	6456
614.715	6213
614.781	6416
614.847	6593
614.914	5921
614.980	6512
615.046	6875
615.112	7504
615.179	7525
615.245	8735
615.311	13629
615.377	26028
615.443	41045
615.509	21644
615.575	13384
615.642	10660
615.708	10339
615.774	11540
615.840	13976
615.906	17803
615.972	28577
616.038	59102
616.104	91937
616.170	90511
616.236	101463
616.302	28078
616.368	14683
616.434	10475
616.500	10607
616.565	9580
616.631	11210
616.697	9459
616.763	9222
616.829	11046
616.895	15721
616.961	19012
617.026	11517
617.092	7840
617.158	7182
617.224	6849
617.289	6383
617.355	6713
617.421	6414
617.487	6613
617.552	6313
617.618	5759
617.684	5556
617.749	7282
617.815	5537
617.880	4451
617.946	5472
618.012	6012
618.077	5974
618.143	5915
618.208	5453
618.274	5881
618.339	5631
618.405	5955
618.470	5268
618.536	6230
618.601	6703
618.667	6167
618.732	5714
618.798	5978
618.863	5250
618.928	5285
618.994	6017
619.059	6784
619.124	9224
619.190	8684
619.255	5611
619.320	5396
619.386	5281
619.451	5332
619.516	5424
619.581	5220
619.647	4578
619.712	6028
619.777	5735
619.842	5197
619.907	5670
619.972	5496
620.038	5997
620.103	4944
620.168	4601
620.233	6208
620.298	5108
620.363	5326
620.428	4614
620.493	5551
620.558	5692
620.623	5480
620.688	4854
620.753	5131
620.818	5200
620.883	4734
620.948	5291
621.013	5238
621.078	6071
621.143	4101
621.207	5842
621.272	5784
621.337	6525
621.402	7002
621.467	6951
621.532	8821
621.596	6710
621.661	6988
621.726	5373
621.791	5698
621.855	5849
621.920	6920
621.985	6373
622.049	7631
622.114	7268
622.179	7748
622.243	6435
622.308	6057
622.373	7049
622.437	6849
622.502	6190
622.566	6131
622.631	5083
622.695	6594
622.760	6439
622.824	6403
622.889	6296
622.953	6705
623.018	10161
623.082	13334
623.147	7589
623.211	6439
623.276	6582
623.340	5486
623.404	5092
623.469	6071
623.533	5901
623.597	5568
623.662	5567
623.726	5430
623.790	5670
623.854	5087
623.919	5780
623.983	5745
624.047	6159
624.111	5339
624.176	4633
624.240	5519
624.304	6965
624.368	5695
624.432	6439
624.496	5833
624.560	6889
624.625	8253
624.689	6711
624.753	6076
624.817	5132
624.881	5506
624.945	5920
625.009	6025
625.073	5939
625.137	5856
625.201	7297
625.265	9331
625.329	5573
625.393	6654
625.456	6333
625.520	5848
625.584	6751
625.648	8225
625.712	11609
625.776	23781
625.839	35429
625.903	20511
625.967	7391
626.031	10285
626.095	19157
626.158	9698
626.222	4938
626.286	4678
626.349	4731
626.413	4328
626.477	6198
626.540	4465
626.604	4439
626.668	4975
626.731	4688
626.795	4306
626.858	5205
626.922	4536
626.986	3774
627.049	3699
627.113	4380
627.176	4627
627.240	4013
627.303	3597
627.366	3679
627.430	4889
627.493	4317
627.557	4690
627.620	4138
627.684	4168
627.747	4052
627.810	3607
627.874	4103
627.937	3741
628.000	4358
628.064	3976
628.127	4004
628.190	3866
628.253	4223
628.317	4291
628.380	3757
628.443	3823
628.506	3467
628.569	3828
628.632	3419
628.696	4112
628.759	2711
628.822	3515
628.885	3429
628.948	4038
629.011	3316
629.074	3454
629.137	3915
629.200	3534
629.263	4208
629.326	2280
629.389	3150
629.452	3584
629.515	3932
629.578	3623
629.641	3860
629.704	3344
629.767	3888
629.830	3747
629.892	3035
629.955	2714
630.018	4133
630.081	4206
630.144	6004
630.207	4345
630.269	4588
630.332	3516
630.395	3560
630.458	2964
630.520	2388
630.583	3197
630.646	2729
630.708	2854
630.771	2785
630.834	2925
630.896	2855
630.959	3166
631.021	2761
631.084	3041
631.146	3376
631.209	4556
631.272	2886
631.334	3385
631.397	2677
631.459	3086
631.522	3235
631.584	3589
631.646	3299
631.709	3379
631.771	5142
631.834	3925
631.896	2359
631.958	2752
632.021	2844
632.083	2345
632.145	2373
632.208	2515
632.270	2856
632.332	2172
632.395	2579
632.457	3625
632.519	2389
632.581	2962
632.643	2166
632.706	3434
632.768	2612
632.830	2405
632.892	2179
632.954	3073
633.016	2936
633.078	2387
633.141	2496
633.203	2007
633.265	2805
633.327	2565
633.389	1938
633.451	3179
633.513	4090
633.575	4534
633.637	3756
633.698	5126
633.760	3079
633.822	2898
633.884	3246
633.946	2306
634.008	2836
634.070	2536
634.132	3063
634.193	3380
634.255	3026
634.317	2684
634.379	2948
634.441	3065
634.502	3294
634.564	4536
634.626	7165
634.687	11162
634.749	7062
634.811	3817
634.873	2554
634.934	3351
634.996	2094
635.057	2489
635.119	2318
635.181	2543
635.242	2723
635.304	1386
635.365	3503
635.427	2729
635.488	2562
635.550	1473
635.611	2157
635.673	1544
635.734	2519
635.796	2760
635.857	2987
635.918	1891
635.980	2755
636.041	2759
636.102	2831
636.164	2329
636.225	2887
636.286	1880
636.348	2490
636.409	2018
636.470	2358
636.531	2032
636.593	2505
636.654	2731
636.715	1713
636.776	811
636.838	1591
636.899	2371
636.960	2663
637.021	3009
637.082	5333
637.143	5636
637.204	2946
637.265	1621
637.326	2712
637.387	1725
637.448	1797
637.509	2387
637.570	1897
637.631	2334
637.692	1144
637.753	1164
637.814	1417
637.875	2051
637.936	2002
637.997	1472
638.058	2130
638.119	2871
638.179	2037
638.240	1631
638.301	2509
638.362	1589
638.423	1549
638.483	2508
638.544	1794
638.605	2531
638.666	1217
638.726	1842
638.787	2021
638.848	1504
638.908	2219
638.969	2242
639.030	2236
639.090	1096
639.151	600
639.211	2390
639.272	2715
639.332	4848
639.393	3548
639.453	1904
639.514	1478
639.574	1522
639.635	1515
639.695	2331
639.756	1007
639.816	2818
639.877	1584
639.937	4817
639.997	8510
640.058	4135
640.118	1357
640.178	1932
640.239	1734
640.299	1770
640.359	1663
640.420	1846
640.480	1767
640.540	1219
640.600	1222
640.661	1917
640.721	893
640.781	4026
640.841	1767
640.901	2929
640.961	2378
641.021	1218
641.082	1678
641.142	4142
641.202	3460
641.262	705
641.322	1511
641.382	478
641.442	1305
641.502	1433
641.562	1988
641.622	852
641.682	1836
641.742	1579
641.802	2136
641.861	2293
641.921	2063
641.981	2917
642.041	2281
642.101	3397
642.161	2707
642.221	1145
642.280	1981
642.340	1424
642.400	1260
642.460	2217
642.519	1327
642.579	1496
642.639	1638
642.698	-293
642.758	2747
642.818	1833
642.877	1277
642.937	2046
642.997	2320
643.056	3140
643.116	2845
643.175	2090
643.235	1289
643.294	2106
643.354	1991
643.414	1177
643.473	1667
643.532	1381
643.592	2301
643.651	3118
643.711	6076
643.770	9091
643.830	18110
643.889	56611
643.948	30792
644.008	4329
644.067	1804
644.126	2340
644.186	2067
644.245	2280
644.304	760
644.363	2574
644.423	1172
644.482	1807
644.541	866
644.600	490
644.659	1980
644.719	1735
644.778	1486
644.837	2471
644.896	4035
644.955	8610
645.014	6882
645.073	3229
645.132	1535
645.191	1514
645.250	1450
645.309	2610
645.368	1330
645.427	2227
645.486	1175
645.545	3485
645.604	1949
645.663	1354
645.722	1709
645.781	2840
645.840	1789
645.898	2781
645.957	3750
646.016	1990
646.075	4755
646.134	7886
646.192	16331
646.251	41955
646.310	13846
646.369	2067
646.427	1794
646.486	1351
646.545	1742
646.603	1982
646.662	1973
646.721	1336
646.779	688
646.838	678
646.896	1823
646.955	1612
647.014	1665
647.072	2328
647.131	4986
647.189	5339
647.248	1513
647.306	1438
647.365	1097
647.423	173
647.481	2300
647.540	145
647.598	1785
647.657	703
647.715	1898
647.773	1202
647.832	1798
647.890	175
647.948	1553
648.007	2465
648.065	95
648.123	1208
648.181	2882
648.240	2175
648.298	2296
648.356	2114
648.414	2337
648.472	2309
648.531	2380
648.589	2271
648.647	1911
648.705	1737
648.763	1943
648.821	1933
648.879	1891
648.937	2334
648.995	1970
649.053	2872
649.111	2366
649.169	3342
649.227	4116
649.285	6258
649.343	15789
649.401	18268
649.459	8226
649.516	10035
649.574	4029
649.632	9183
649.690	17667
649.748	6386
649.806	1715
649.863	6035
649.921	5051
649.979	4532
650.037	2127
650.094	279
650.152	1461
650.210	1296
650.268	2370
650.325	1200
650.383	1973
650.440	-45
650.498	1777
650.556	1011
650.613	204
650.671	1673
650.728	1983
650.786	745
650.843	568
650.901	302
650.958	1019
651.016	1016
651.073	961
651.131	1475
651.188	112
651.246	1216
651.303	359
651.360	1597
651.418	520
651.475	1468
651.532	-410
651.590	1164
651.647	56
651.704	428
651.762	522
651.819	729
651.876	1036
651.933	1549
651.990	849
652.048	-134
652.105	274
652.162	1848
652.219	1259
652.276	895
652.333	732
652.390	-127
652.448	353
652.505	1272
652.562	757
652.619	672
652.676	841
652.733	2530
652.790	950
652.847	-603
652.904	1289
652.961	479
653.017	33
653.074	1490
653.131	333
653.188	480
653.245	-59
653.302	663
653.359	-352
653.415	774
653.472	-32
653.529	594
653.586	1025
653.642	453
653.699	1075
653.756	-257
653.813	777
653.869	1040
653.926	32
653.983	68
654.039	595
654.096	931
654.152	1442
654.209	-162
654.266	883
654.322	-718
654.379	329
654.435	1130
654.492	1144
654.548	1199
654.605	3505
654.661	3126
654.717	756
654.774	1587
654.830	1463
654.887	1352
654.943	786
655.000	1327
655.056	1203
655.112	1202
655.168	270
655.225	1552
655.281	1590
655.337	1406
655.394	2717
655.450	3862
655.506	1907
655.562	3385
655.618	5064
655.675	1910
655.731	2523
655.787	2883
655.843	3682
655.899	2913
655.955	5426
656.011	5293
656.067	5233
656.123	8119
656.179	8250
656.235	9240
656.291	8424
656.347	9489
656.403	7336
656.459	5742
656.515	4991
656.571	4767
656.627	4336
656.683	2829
656.739	3194
656.795	2521
656.850	1619
656.906	2280
656.962	3077
657.018	1366
657.074	899
657.129	1537
657.185	1214
657.241	1536
657.297	865
657.352	1736
657.408	184
657.464	1978
657.519	782
657.575	770
657.630	609
657.686	1175
657.742	579
657.797	364
657.853	59
657.908	1535
657.964	218
658.019	924
658.075	945
658.130	1427
658.186	-185
658.241	416
658.297	126
658.352	1031
658.407	1321
658.463	304
658.518	799
658.573	867
658.629	83
658.684	256
658.739	683
658.795	43
658.850	732
658.905	-640
658.960	190
659.016	284
659.071	781
659.126	1089
659.181	655
659.236	1856
659.291	2773
659.346	1154
659.401	850
659.457	1074
659.512	1436
659.567	1667
659.622	742
659.677	381
659.732	-179
659.787	921
659.842	334
659.897	1136
659.952	463
660.007	927
660.061	233
660.116	486
660.171	-306
660.226	1523
660.281	1138
660.336	14
660.391	856
660.445	-206
660.500	61
660.555	750
660.610	285
660.664	710
660.719	47
660.774	734
660.828	973
660.883	300
660.938	1477
660.992	-444
661.047	904
661.101	402
661.156	-27
661.211	366
661.265	-80
661.320	580
661.374	-6
661.429	-161
661.483	499
661.538	337
661.592	-480
661.647	15
661.701	608
661.755	-369
661.810	602
661.864	-60
661.919	466
661.973	742
662.027	106
662.081	-818
662.136	-102
662.190	820
662.244	637
662.299	928
662.353	726
662.407	169
662.461	-237
662.515	1092
662.569	303
662.624	892
662.678	-284
662.732	192
662.786	196
662.840	1265
662.894	-230
662.948	498
663.002	158
663.056	763
663.110	-426
663.164	5
663.218	389
663.272	999
663.326	721
663.380	723
663.434	924
663.488	-255
663.542	361
663.595	541
663.649	350
663.703	517
663.757	493
663.811	560
663.864	491
663.918	800
663.972	-335
664.026	784
664.079	595
664.133	1003
664.187	456
664.240	636
664.294	711
664.348	298
664.401	423
664.455	1168
664.508	-197
664.562	663
664.615	1044
664.669	967
664.722	81
664.776	1218
664.829	464
664.883	1211
664.936	-279
664.990	715
665.043	781
665.097	-8
665.150	1536
665.203	860
665.257	1536
665.310	759
665.363	879
665.417	726
665.470	665
665.523	861
665.576	212
665.630	260
665.683	798
665.736	699
665.789	525
665.842	367
665.895	737
665.949	245
666.002	104
666.055	817
666.108	442
666.161	524
666.214	525
666.267	618
666.320	434
666.373	1064
666.426	791
666.479	754
666.532	580
666.585	743
666.638	1159
666.691	1203
666.744	821
666.796	920
666.849	-24
666.902	408
666.955	240
667.008	258
667.060	583
667.113	-23
667.166	610
667.219	267
667.271	1060
667.324	191
667.377	31
667.430	1189
667.482	805
667.535	266
667.587	526
667.640	965
667.693	979
667.745	1553
667.798	2458
667.850	1036
667.903	335
667.955	834
668.008	736
668.060	904
668.113	13
668.165	147
668.218	1090
668.270	290
668.322	199
668.375	627
668.427	972
668.479	438
668.532	325
668.584	540
668.636	635
668.689	498
668.741	374
668.793	277
668.845	102
668.898	366
668.950	386
669.002	494
669.054	41
669.106	151
669.158	107
669.211	566
669.263	716
669.315	742
669.367	1405
669.419	936
669.471	2165
669.523	1924
669.575	1567
669.627	1874
669.679	1289
669.731	739
669.783	1364
669.835	950
669.886	679
669.938	1235
669.990	693
670.042	913
670.094	1068
670.146	1559
670.197	1100
670.249	2378
670.301	2586
670.353	4406
670.404	6642
670.456	8830
670.508	15752
670.560	25053
670.611	40928
670.663	69000
670.715	139382
670.766	342498
670.818	239382
670.869	38771
670.921	11547
670.972	7370
671.024	4601
671.075	4106
671.127	2914
671.178	1677
671.230	2020
671.281	2177
671.333	388
671.384	1573
671.436	852
671.487	1095
671.538	1805
671.590	1735
671.641	1523
671.692	1028
671.744	2779
671.795	3771
671.846	1190
671.897	1299
671.949	1095
672.000	1058
672.051	1480
672.102	631
672.153	175
672.204	1258
672.256	873
672.307	1187
672.358	983
672.409	882
672.460	1428
672.511	1420
672.562	980
672.613	956
672.664	257
672.715	570
672.766	1127
672.817	226
672.868	523
672.919	669
672.970	1313
673.021	731
673.071	319
673.122	1727
673.173	550
673.224	929
673.275	1136
673.326	1025
673.376	675
673.427	205
673.478	156
673.528	1378
673.579	534
673.630	380
673.680	513
673.731	439
673.782	232
673.832	465
673.883	802
673.934	618
673.984	664
674.035	867
674.085	540
674.136	787
674.186	935
674.237	163
674.287	1430
674.338	2107
674.388	190
674.438	352
674.489	255
674.539	214
674.589	1550
674.640	302
674.690	112
674.740	495
674.791	456
674.841	1002
674.891	345
674.942	559
674.992	1064
675.042	531
675.092	506
675.142	680
675.193	581
675.243	272
675.293	-5
675.343	-120
675.393	368
675.443	967
675.493	54
675.543	173
675.593	13
675.643	561
675.693	311
675.743	836
675.793	457
675.843	156
675.893	995
675.943	1471
675.993	505
676.043	188
676.093	829
676.142	-169
676.192	630
676.242	269
676.292	159
676.341	-93
676.391	66
676.441	624
676.491	171
676.540	645
676.590	229
676.640	-346
676.689	441
676.739	98
676.789	745
676.838	578
676.888	975
676.937	-194
676.987	392
677.037	543
677.086	470
677.136	122
677.185	-9
677.235	685
677.284	-443
677.333	697
677.383	167
677.432	52
677.482	194
677.531	326
677.580	253
677.630	190
677.679	-128
677.728	170
677.778	801
677.827	166
677.876	-116
677.925	-212
677.975	-256
678.024	332
678.073	-409
678.122	1471
678.171	291
678.220	-335
678.269	67
678.319	596
678.368	-238
678.417	-63
678.466	-339
678.515	490
678.564	434
678.613	256
678.662	228
678.711	-43
678.760	9
678.809	94
678.857	10
678.906	-387
678.955	-417
679.004	568
679.053	309
679.102	35
679.151	672
679.199	912
679.248	6
679.297	-145
679.346	-399
679.394	142
679.443	-124
679.492	-297
679.540	156
679.589	653
679.638	190
679.686	486
679.735	377
679.784	-520
679.832	252
679.881	225
679.929	-422
679.978	139
680.026	482
680.075	67
680.123	-843
680.172	675
680.220	29
680.268	-284
680.317	-196
680.365	-74
680.414	-334
680.462	-329
680.510	568
680.559	367
680.607	197
680.655	-678
680.703	174
680.752	-587
680.800	81
680.848	-29
680.896	-117
680.945	173
680.993	-373
681.041	100
681.089	-86
681.137	856
681.185	-777
681.233	296
681.258	-147
681.281	-584
681.329	11
681.377	-130
681.380	-96
681.425	204
681.473	745
681.502	285
681.521	-64
681.569	612
681.617	609
681.624	533
681.665	-81
681.713	-161
681.745	-629
681.761	-878
681.809	552
681.857	614
681.867	490
681.904	-26
681.952	910
681.989	733
682.000	663
682.048	345
682.096	1091
682.111	763
682.143	-25
682.191	561
682.233	753
682.239	774
682.286	796
682.334	763
682.354	703
682.382	558
682.430	622
682.476	660
682.477	645
682.525	675
682.572	690
682.598	454
682.620	213
682.667	956
682.715	1023
682.720	996
682.763	639
682.810	1825
682.841	1153
682.857	761
682.905	969
682.952	824
682.963	979
683.000	1502
683.047	985
683.085	1719
683.095	1890
683.142	1624
683.190	912
683.206	1296
683.237	1995
683.284	1298
683.328	1067
683.332	1032
683.379	1330
683.426	1182
683.449	1430
683.473	1681
683.521	1500
683.568	1299
683.571	1350
683.615	1744
683.662	1710
683.693	1479
683.709	1386
683.757	1482
683.804	1866
683.814	1806
683.851	1477
683.898	2038
683.936	2059
683.945	2052
683.992	2049
684.039	2198
684.057	2333
684.086	2563
684.133	2826
684.179	2745
684.180	2727
684.227	2681
684.274	2451
684.300	2114
684.321	1833
684.368	2179
684.415	2660
684.422	2589
684.462	2136
684.509	1874
684.543	1771
684.556	1697
684.603	2372
684.649	1958
684.665	2127
684.696	2590
684.743	2710
684.786	2873
684.790	2871
684.837	2621
684.883	3116
684.908	2880
684.930	2666
684.977	3199
685.023	2653
685.029	2705
685.070	2842
685.117	2995
685.150	2933
685.164	2955
685.210	3340
685.257	3689
685.272	3598
685.303	3275
685.350	2250
685.393	2881
685.396	2948
685.443	3195
685.490	3909
685.514	3828
685.536	3622
685.583	4133
685.629	3675
685.636	3636
685.675	3227
685.722	3552
685.757	3610
685.768	3686
685.815	3528
685.861	3878
685.878	3702
685.908	3368
685.954	3901
686.000	3865
686.000	3860
686.047	4291
686.093	4673
686.121	4932
686.139	5068
686.185	3769
686.232	4904
686.242	4919
686.278	4669
686.324	4508
686.363	3554
686.370	3440
686.416	3667
686.463	4189
686.484	4207
686.509	4145
686.555	3723
686.601	3691
686.606	3709
686.647	3885
686.693	4049
686.727	3542
686.739	3389
686.785	3718
686.831	3581
686.848	3988
686.877	4668
686.923	4128
686.969	3848
686.969	3845
687.015	3696
687.061	4425
687.090	4063
687.107	3893
687.153	4271
687.199	4061
687.211	4045
687.245	4010
687.291	4732
687.332	4530
687.336	4535
687.382	4278
687.428	4776
687.453	4961
687.474	4856
687.520	4631
687.565	4389
687.574	4370
687.611	4600
687.657	4291
687.695	4270
687.702	4275
687.748	5036
687.794	5054
687.816	4981
687.839	4747
687.885	5026
687.931	4365
687.937	4368
687.976	4548
688.022	4675
688.058	4384
688.067	4350
688.113	4811
688.158	4621
688.179	4830
688.204	4966
688.249	5403
688.295	5276
688.300	5203
688.340	4844
688.386	5108
688.421	5242
688.431	5246
688.477	5120
688.522	5493
688.542	5386
688.567	5295
688.613	4966
688.658	4996
688.663	5067
688.703	5550
688.749	5412
688.784	5192
688.794	5215
688.839	4739
688.884	5440
688.905	5645
688.930	5653
688.975	5264
689.020	5183
689.026	5176
689.065	5425
689.110	4974
689.146	5104
689.155	5144
689.201	5304
689.246	5019
689.267	5033
689.291	5016
689.336	5516
689.381	5273
689.388	5266
689.426	5191
689.471	5334
689.509	5118
689.516	5111
689.561	5231
689.606	4961
689.630	5145
689.651	5325
689.696	5515
689.741	5297
689.750	5390
689.785	5772
689.830	5731
689.871	5708
689.875	5696
689.920	5696
689.965	5606
689.992	5341
690.010	5295
690.054	5644
690.099	5852
690.112	5856
690.144	5722
690.189	5640
690.233	5860
690.233	5871
690.278	5607
690.323	5951
690.354	5980
690.367	6054
690.412	5851
690.457	6352
690.474	6382
690.501	6311
690.546	6785
690.590	6585
690.595	6570
690.635	6633
690.680	6669
690.716	6840
690.724	6989
690.769	7746
690.813	8286
690.836	8629
690.857	9312
690.902	10822
690.946	11931
690.957	12249
690.991	15535
691.035	20368
691.077	25308
691.080	25585
691.124	28773
691.168	31862
691.198	33854
691.213	31847
691.257	26334
691.301	20454
691.318	18121
691.346	16477
691.390	14176
691.434	11340
691.439	11072
691.478	10629
691.522	9686
691.559	8982
691.567	8956
691.611	8578
691.655	8419
691.680	8210
691.699	8191
691.743	8245
691.787	8020
691.800	8015
691.831	7763
691.875	7310
691.919	7009
691.921	6971
691.964	7123
692.008	7870
692.041	8276
692.052	8196
692.096	7826
692.139	7067
692.162	6915
692.183	7073
692.227	7218
692.271	7334
692.282	7341
692.315	7464
692.359	7914
692.402	7704
692.403	7718
692.447	8035
692.490	7848
692.523	7774
692.534	7750
692.578	7523
692.622	7741
692.643	7605
692.666	7482
692.709	7305
692.753	7264
692.763	7247
692.797	7455
692.840	7373
692.884	7626
692.884	7645
692.928	7492
692.971	7955
693.004	7927
693.015	7889
693.059	7870
693.102	7754
693.124	7794
693.146	8048
693.189	8361
693.233	8882
693.245	8852
693.276	8959
693.320	9664
693.363	10096
693.365	10090
693.407	10268
693.450	10750
693.485	10858
693.493	11168
693.537	12663
693.580	14315
693.605	15087
693.624	16352
693.667	19724
693.710	23032
693.725	24081
693.753	30752
693.797	41066
693.840	52412
693.845	53629
693.883	61284
693.926	68946
693.966	75802
693.970	74495
694.013	60106
694.056	44880
694.086	34789
694.099	33139
694.142	27372
694.185	21790
694.206	18924
694.229	17830
694.272	16017
694.315	13949
694.326	13401
694.358	13120
694.401	12713
694.444	12579
694.446	12528
694.487	11674
694.530	10746
694.566	9749
694.573	9664
694.616	9613
694.659	9275
694.686	8938
694.702	8796
694.745	8450
694.787	8118
694.806	7945
694.830	8024
694.873	8058
694.916	8109
694.926	8123
694.959	8104
695.002	8035
695.044	7751
695.046	7728
695.087	7907
695.130	8059
695.166	8173
695.172	8219
695.215	8137
695.258	8451
695.286	8505
695.301	8582
695.343	8499
695.386	8867
695.406	8948
695.428	8811
695.471	8421
695.514	8232
695.526	8093
695.556	7962
695.599	7715
695.641	7488
695.646	7460
695.684	7702
695.726	7814
695.766	7814
695.769	7844
695.811	8229
695.854	8517
695.886	8724
695.896	8709
695.938	8315
695.981	8225
696.005	8032
696.023	8134
696.065	8420
696.108	8714
696.125	8803
696.150	8610
696.192	8266
696.235	7709
696.245	7605
696.277	7976
696.319	8439
696.361	8899
696.365	8913
696.404	9126
696.446	9277
696.485	9425
696.488	9432
696.530	9196
696.572	8929
696.604	8597
696.614	8536
696.656	8373
696.698	8198
696.724	8090
696.740	8204
696.783	8213
696.825	8419
696.844	8447
696.867	8348
696.909	8204
696.951	7921
696.964	7828
696.992	7981
697.034	8198
697.076	8474
697.083	8485
697.118	8523
697.160	8558
697.202	8584
697.203	8560
697.244	8433
697.286	8302
697.323	8231
697.327	8275
697.369	8364
697.411	8508
697.442	8556
697.453	8606
697.494	8722
697.536	8874
697.562	8924
697.578	8952
697.620	8906
697.661	8970
697.682	8926
697.703	8863
697.744	8772
697.786	8661
697.801	8604
697.828	9000
697.869	9509
697.911	10033
697.921	10141
697.952	9986
697.994	9765
698.035	9476
698.040	9422
698.077	9273
698.118	8997
698.160	8818
698.160	8792
698.201	8842
698.243	8957
698.279	8970
698.284	8978
698.325	8876
698.367	8691
698.399	8588
698.408	8606
698.449	8528
698.491	8464
698.518	8403
698.532	8436
698.573	8446
698.614	8477
698.638	8472
698.656	8532
698.697	8599
698.738	8694
698.757	8699
698.779	8674
698.820	8597
698.862	8508
698.877	8462
698.903	8773
698.944	9207
698.985	9649
698.996	9747
699.026	9654
699.067	9487
699.116	9263
699.235	8815
699.354	8847
699.474	9102
699.593	9448
699.713	11864
699.832	9143
699.951	9599
700.070	9632
700.190	9471
700.309	9556
700.428	8929
700.547	9240
700.667	9199
700.786	9426
700.905	9338
701.024	8571
701.143	9573
701.262	8734
701.381	7792
701.500	7787
701.619	9433
701.738	8103
701.857	8958
701.976	8413
702.095	7845
702.214	8264
702.333	9343
702.452	9154
702.571	8111
702.690	7531
702.809	7492
702.928	6956
703.047	8227
703.165	7484
703.284	7735
703.403	7438
703.522	7956
703.640	8731
703.759	9339
703.878	12129
703.997	9537
704.115	7809
704.234	8401
704.353	6816
704.471	7537
704.590	7105
704.708	7804
704.827	6887
704.946	7174
705.064	7352
705.183	7711
705.301	7731
705.420	10542
705.538	10326
705.656	9626
705.775	9211
705.893	14119
706.012	23926
706.130	11214
706.249	9431
706.367	9869
706.485	9518
706.604	9524
706.722	9361
706.840	10234
706.958	10506
707.077	9586
707.195	8351
707.313	8432
707.431	7945
707.549	8137
707.668	8097
707.786	9210
707.904	7884
708.022	8038
708.140	8156
708.258	8119
708.376	8172
708.494	7327
708.612	8177
708.730	10097
708.848	10915
708.966	9723
709.084	9399
709.202	9677
709.320	9261
709.438	9208
709.556	9235
709.674	9043
709.791	8666
709.909	8680
710.027	9112
710.145	8628
710.263	9598
710.380	8771
710.498	8172
710.616	9173
710.733	8381
710.851	9639
710.969	9697
711.086	8737
711.204	8339
711.322	9341
711.439	8593
711.557	9008
711.674	8409
711.792	8788
711.909	8975
712.027	10099
712.144	8519
712.262	9232
712.379	8015
712.497	10637
712.614	12078
712.732	10500
712.849	10625
712.966	10569
713.084	11665
713.201	11781
713.318	10721
713.436	9997
713.553	9395
713.670	10762
713.787	9541
713.905	11440
714.022	10231
714.139	9949
714.256	9851
714.373	10033
714.490	10514
714.608	14294
714.725	32418
714.842	65345
714.959	13415
715.076	9512
715.193	8815
715.310	9191
715.427	8321
715.544	8173
715.661	9702
715.778	9000
715.895	8903
716.011	9794
716.128	8155
716.245	8763
716.362	8949
716.479	11215
716.596	9412
716.713	8930
716.829	8218
716.946	8574
717.063	7578
717.180	8121
717.296	8052
717.413	8171
717.530	8514
717.646	7800
717.763	6917
717.880	8134
717.996	7220
718.113	8054
718.229	7532
718.346	8119
718.462	7413
718.579	8626
718.695	12138
718.812	13646
718.928	9650
719.045	9962
719.161	6798
719.277	7585
719.394	6898
719.510	7510
719.626	7467
719.743	8585
719.859	8165
719.975	7991
720.092	11244
720.208	27306
720.324	13197
720.440	8336
720.557	7235
720.673	10711
720.789	14761
720.905	26821
721.021	19366
721.137	7574
721.253	7564
721.369	6709
721.486	7431
721.602	10594
721.718	7407
721.834	6571
721.950	6493
722.066	6720
722.181	6141
722.297	6917
722.413	5756
722.529	5790
722.645	6586
722.761	7091
722.877	6025
722.993	6014
723.108	6294
723.224	5994
723.340	5206
723.456	6296
723.571	6254
723.687	6431
723.803	6000
723.918	5963
724.034	6410
724.150	6054
724.265	6593
724.381	9788
724.497	17880
724.612	6873
724.728	5679
724.843	5866
724.959	6507
725.074	9231
725.190	15912
725.305	7759
725.421	5870
725.536	5432
725.651	4944
725.767	5675
725.882	5563
725.997	5276
726.113	5027
726.228	5641
726.343	4973
726.459	5475
726.574	4952
726.689	5280
726.804	5031
726.920	4722
727.035	4773
727.150	5046
727.265	4626
727.380	6002
727.495	4719
727.610	5740
727.725	4083
727.841	5274
727.956	7938
728.071	11114
728.186	5948
728.301	4527
728.416	4372
728.531	5730
728.645	4955
728.760	4776
728.875	5546
728.990	5856
729.105	5426
729.220	6277
729.335	4239
729.449	5190
729.564	4676
729.679	4273
729.794	4301
729.908	5017
730.023	5042
730.138	4574
730.253	4028
730.367	4555
730.482	3885
730.596	3575
730.711	4635
730.826	5061
730.940	4599
731.055	4526
731.169	4269
731.284	3934
731.398	3777
731.513	3807
731.627	4321
731.742	5531
731.856	5426
731.970	3890
732.085	4454
732.199	4766
732.313	4566
732.428	6069
732.542	10694
732.656	12095
732.771	4224
732.885	4079
732.999	3714
733.113	4273
733.227	4489
733.342	4620
733.456	3813
733.570	3865
733.684	2823
733.798	3809
733.912	3748
734.026	3316
734.140	3250
734.254	4086
734.368	4758
734.482	10039
734.596	4108
734.710	3468
734.824	3547
734.938	4645
735.052	3523
735.166	5071
735.280	4312
735.393	3979
735.507	3994
735.621	4339
735.735	7741
735.849	5628
735.962	3657
736.076	4304
736.190	3246
736.303	4628
736.417	7226
736.531	4425
736.644	3536
736.758	3144
736.872	2973
736.985	4095
737.099	3533
737.212	2988
737.326	3383
737.439	3703
737.553	3466
737.666	3540
737.780	2772
737.893	3558
738.007	3592
738.120	3597
738.233	3129
738.347	3698
738.460	2847
738.573	4043
738.687	3757
738.800	3655
738.913	4143
739.026	4661
739.140	3901
739.253	4090
739.366	3235
739.479	3367
739.592	2766
739.705	3185
739.818	3083
739.932	2614
740.045	2701
740.158	3271
740.271	3092
740.384	3626
740.497	2827
740.610	4285
740.723	3984
740.836	4514
740.949	4107
741.062	4708
741.174	4752
741.287	4428
741.400	3453
741.513	3712
741.626	3891
741.739	4377
741.851	3791
741.964	3862
742.077	3097
742.189	4152
742.302	7067
742.415	8796
742.527	3721
742.640	3712
742.753	3093
742.865	3081
742.978	3265
743.090	3079
743.203	3075
743.316	3485
743.428	2919
743.541	2720
743.653	3495
743.766	2769
743.878	3426
743.990	3718
744.103	7682
744.215	12820
744.327	7514
744.440	4535
744.552	5405
744.664	4747
744.777	2922
744.889	3025
745.001	2558
745.113	3695
745.226	3458
745.338	3118
745.450	2900
745.562	3250
745.674	2623
745.786	2708
745.898	2471
746.010	3157
746.122	2421
746.234	4166
746.347	3445
746.459	3747
746.570	3814
746.682	7048
746.794	16979
746.906	13453
747.018	3830
747.130	3309
747.242	2630
747.354	3728
747.466	3478
747.577	1921
747.689	2470
747.801	3220
747.913	2312
748.024	2812
748.136	2906
748.248	2658
748.359	3190
748.471	2644
748.583	2590
748.694	2867
748.806	3547
748.918	3724
749.029	3513
749.141	3299
749.252	2787
749.364	2969
749.475	4943
749.587	5694
749.698	3280
749.809	2938
749.921	2156
750.032	2795
750.144	2563
750.255	2690
750.366	2270
750.478	2028
750.589	2443
750.700	2938
750.811	3375
750.923	3230
751.034	4827
751.145	7775
751.256	3458
751.367	2530
751.479	2047
751.590	2972
751.701	2182
751.812	2958
751.923	2017
752.034	2209
752.145	2406
752.256	2427
752.367	2051
752.478	2195
752.589	2194
752.700	1610
752.811	1356
752.922	2657
753.032	2384
753.143	4046
753.254	2484
753.365	2539
753.476	1790
753.586	3344
753.697	2219
753.808	2897
753.919	1839
754.029	2730
754.140	1831
754.251	2437
754.361	2594
754.472	2205
754.582	2565
754.693	3410
754.804	2003
754.914	2051
755.025	2478
755.135	1835
755.246	2928
755.356	3069
755.466	2471
755.577	3054
755.687	2106
755.798	3373
755.908	2681
756.018	2404
756.129	2465
756.239	2651
756.349	2586
756.460	3511
756.570	2425
756.680	3464
756.790	1533
756.900	3496
757.011	2291
757.121	2646
757.231	1981
757.341	2806
757.451	1639
757.561	3236
757.671	2144
757.781	2583
757.891	2615
758.001	2770
758.111	2804
758.221	2720
758.331	3550
758.441	3312
758.551	3631
758.661	5094
758.771	3609
758.880	2324
758.990	3225
759.100	3232
759.210	2559
759.320	3745
759.429	3750
759.539	3437
759.649	2918
759.758	3433
759.868	3228
759.978	3487
760.087	3075
760.197	3380
760.307	3694
760.416	3888
760.526	2862
760.635	3657
760.745	3581
760.854	3886
760.964	4024
761.073	4516
761.182	3864
761.292	4319
761.401	4318
761.511	4301
761.620	3954
761.729	4256
761.839	3497
761.948	4770
762.057	4170
762.166	5349
762.276	3834
762.385	5307
762.494	4519
762.603	4184
762.712	5212
762.822	6081
762.931	4613
763.040	6583
763.149	5170
763.258	6280
763.367	6604
763.476	6617
763.585	6427
763.694	6971
763.803	7759
763.912	7867
764.021	8752
764.130	9490
764.238	9119
764.347	10022
764.456	10303
764.565	11406
764.674	12515
764.783	14151
764.891	13917
765.000	17130
765.109	18326
765.217	21660
765.326	24750
765.435	28511
765.543	35128
765.652	43175
765.761	55332
765.869	74447
765.978	106012
766.086	163523
766.195	265027
766.303	463964
766.412	742786
766.520	718729
766.629	580557
766.737	342136
766.846	200786
766.954	129921
767.062	91742
767.171	66278
767.279	51586
767.387	40693
767.496	33620
767.604	27951
767.712	24071
767.820	21411
767.928	20033
768.037	18831
768.145	17686
768.253	17423
768.361	16156
768.469	16161
768.577	16757
768.685	16872
768.793	16800
768.901	18224
769.009	22158
769.117	26630
769.225	31948
769.333	45098
769.441	64423
769.549	106838
769.657	197086
769.765	408351
769.873	666061
769.981	543237
770.088	292951
770.196	143849
770.304	83125
770.412	57558
770.519	41860
770.627	33110
770.735	26932
770.842	22627
770.950	19353
771.058	16526
771.165	15196
771.273	14087
771.380	12531
771.488	10970
771.595	9561
771.703	9888
771.810	9040
771.918	8324
772.025	7551
772.133	6920
772.240	7002
772.348	7473
772.455	6193
772.562	6334
772.670	5759
772.777	6341
772.884	5540
772.991	5435
773.099	4385
773.206	4753
773.313	4232
773.420	4742
773.528	3882
773.635	4440
773.742	4678
773.849	4558
773.956	3283
774.063	4037
774.170	3847
774.277	4271
774.384	3478
774.491	3282
774.598	3627
774.705	3944
774.812	3406
774.919	4644
775.026	3587
775.133	4054
775.239	3579
775.346	2468
775.453	3351
775.560	3759
775.667	3472
775.773	3465
775.880	3392
775.987	2860
776.093	3411
776.200	2718
776.307	2984
776.413	2647
776.520	2200
776.627	3774
776.733	2368
776.840	3501
776.946	5773
777.053	9980
777.159	29047
777.266	26775
777.372	24190
777.478	28552
777.585	16290
777.691	6111
777.798	3534
777.904	3448
778.010	3611
778.117	4656
778.223	2244
778.329	2526
778.435	2195
778.542	2606
778.648	1727
778.754	2188
778.860	2923
778.966	2392
779.072	2410
779.178	2631
779.284	2356
779.391	3100
779.497	1623
779.603	4144
779.708	3375
779.815	8619
779.920	23210
780.026	78647
780.132	32047
780.238	4618
780.344	2699
780.450	2858
780.556	2565
780.661	3141
780.767	2148
780.873	2142
780.979	1666
781.085	1731
781.190	1576
781.296	2511
781.402	1765
781.507	2340
781.613	901
781.719	1396
781.824	1407
781.930	2116
782.035	1392
782.141	1516
782.246	1183
782.352	1542
782.457	1577
782.563	1488
782.668	1643
782.773	927
782.879	1302
782.984	1882
783.090	2233
783.195	2893
783.300	2804
783.405	1801
783.511	2219
783.616	2839
783.721	1725
783.826	1724
783.932	1537
784.037	1447
784.142	2156
784.247	1931
784.352	1013
784.457	1993
784.562	1396
784.667	2714
784.772	1798
784.877	1739
784.982	1372
785.087	1852
785.192	1117
785.297	1589
785.402	1105
785.507	1403
785.611	1139
785.716	1412
785.821	619
785.926	1001
786.031	1355
786.135	1211
786.240	1581
786.345	964
786.450	1413
786.554	2024
786.659	697
786.763	107
786.868	1462
786.973	1245
787.077	1110
787.182	869
787.286	657
787.391	2300
787.495	859
787.600	1555
787.704	862
787.809	1368
787.913	1043
788.017	1705
788.122	1149
788.226	1566
788.330	1436
788.435	1154
788.539	885
788.643	1273
788.747	843
788.852	621
788.956	970
789.060	1918
789.164	225
789.268	598
789.372	916
789.476	1939
789.580	1043
789.684	1540
789.788	909
789.892	1238
789.996	1091
790.100	991
790.204	223
790.308	1831
790.412	770
790.516	1409
790.620	1526
790.724	1469
790.828	276
790.931	739
791.035	1200
791.139	1850
791.242	216
791.346	1885
791.450	869
791.554	1822
791.657	927
791.761	1842
791.864	1366
791.968	696
792.072	985
792.175	747
792.279	1346
792.382	1304
792.486	1010
792.589	1290
792.693	1620
792.796	584
792.899	1046
793.003	1817
793.106	1106
793.209	1491
793.313	1396
793.416	98
793.519	1028
793.623	1955
793.726	2728
793.829	2592
793.932	1403
794.035	837
794.138	1617
794.242	1261
794.345	1640
794.448	3079
794.551	4671
794.654	14259
794.757	41190
794.860	20796
794.963	3681
795.066	2070
795.169	1827
795.272	749
795.375	1973
795.477	905
795.580	826
795.683	762
795.786	1228
795.889	-239
795.991	1271
796.094	1230
796.197	443
796.300	1665
796.402	416
796.505	694
796.608	684
796.710	1892
796.813	111
796.915	709
797.018	962
797.120	547
797.223	-73
797.326	1654
797.428	352
797.530	944
797.633	1116
797.735	1316
797.838	734
797.940	2517
798.042	110
798.145	445
798.247	592
798.349	530
798.452	923
798.554	984
798.656	-223
798.758	803
798.860	526
798.962	482
799.065	686
799.167	-337
799.269	1455
799.371	920
799.473	633
799.575	482
799.677	902
799.779	1419
799.881	629
799.983	2454
800.085	-155
800.187	319
800.289	119
800.390	269
800.492	612
800.594	1148
800.696	-355
800.798	174
800.899	28
801.001	1362
801.103	463
801.205	57
801.306	358
801.408	565
801.509	-422
801.611	1166
801.713	257
801.814	949
801.916	419
802.017	402
802.119	732
802.220	756
802.322	-637
802.423	800
802.525	848
802.626	440
802.727	470
802.829	881
802.930	-399
803.031	1742
803.133	103
803.234	469
803.335	-98
803.436	423
803.538	511
803.639	-664
803.740	302
803.841	-170
803.942	47
804.043	343
804.144	-414
804.245	557
804.346	-340
804.447	297
804.548	124
804.649	2166
804.750	817
804.851	399
804.952	667
805.053	881
805.154	-498
805.255	538
805.355	543
805.456	-24
805.557	435
805.658	-466
805.758	129
805.859	468
805.960	-314
806.061	21
806.161	-760
806.262	907
806.362	-305
806.463	244
806.564	742
806.664	557
806.765	218
806.865	830
806.966	511
807.066	991
807.166	902
807.267	1738
807.367	-10
807.468	103
807.568	115
807.668	1138
807.769	-422
807.869	1075
807.969	622
808.069	945
808.170	-509
808.270	808
808.370	743
808.470	631
808.570	283
808.670	928
808.770	262
808.870	-458
808.970	-15
809.070	28
809.170	397
809.271	735
809.370	371
809.470	473
809.570	-70
809.670	589
809.770	876
809.870	1412
809.970	-140
810.070	1174
810.169	-1
810.269	-471
810.369	1421
810.469	-118
810.568	29
810.668	174
810.768	-446
810.867	467
810.967	438
811.066	921
811.166	-260
811.265	518
811.365	-146
811.464	1174
811.564	538
811.663	670
811.763	-514
811.862	1012
811.962	672
812.061	610
812.160	-156
812.260	30
812.359	230
812.458	1233
812.557	1934
812.657	3623
812.756	2871
812.855	1501
812.954	-469
813.053	888
813.153	831
813.252	685
813.351	388
813.450	738
813.549	98
813.648	1416
813.747	719
813.846	410
813.945	81
814.044	398
814.143	837
814.242	1564
814.341	689
814.439	972
814.538	457
814.637	647
814.736	959
814.835	1543
814.933	1125
815.032	1609
815.131	841
815.229	1889
815.328	1123
815.427	1638
815.525	1711
815.624	1611
815.722	1102
815.821	2128
815.919	2468
816.018	2144
816.116	2080
816.215	2087
816.313	2172
816.412	2911
816.510	2286
816.609	4617
816.707	3852
816.805	3560
816.904	3986
817.002	4552
817.100	4669
817.198	6440
817.296	6109
817.395	8164
817.493	9901
817.591	11621
817.689	14857
817.787	20824
817.885	31013
817.983	50269
818.081	91140
818.179	187650
818.277	396315
818.375	531319
818.473	313731
818.571	137045
818.669	75386
818.767	58501
818.865	51782
818.963	53396
819.061	67194
819.158	100988
819.256	171964
819.354	323040
819.452	587404
819.549	619545
819.647	379594
819.745	184014
819.842	102108
819.940	65297
820.038	45345
820.135	34214
820.233	25821
820.330	20291
820.428	16425
820.525	15537
820.623	12360
820.720	9942
820.818	8786
820.915	8980
821.012	8694
821.110	7512
821.207	6490
821.304	5550
821.402	4925
821.499	7042
821.596	12277
821.693	11497
821.791	5387
821.888	4144
821.985	4598
822.082	6515
822.179	4864
822.276	6484
822.373	4927
822.470	3348
822.567	2140
822.664	1528
822.761	1498
822.858	1405
822.955	1828
823.052	2156
823.149	1419
823.246	948
823.343	625
823.440	2178
823.536	554
823.633	1326
823.730	296
823.827	1688
823.923	1178
824.020	2365
824.117	2174
824.213	3428
824.310	3727
824.407	1568
824.503	419
824.600	1172
824.696	99
824.793	187
824.889	215
824.986	1359
825.082	1235
825.179	998
825.275	-637
825.371	312
825.468	32
825.564	-175
825.660	253
825.757	1143
825.853	803
825.949	370
826.045	281
826.142	279
826.238	-63
826.334	736
826.430	-697
826.526	182
826.622	-166
826.718	-65
826.814	-830
826.910	538
827.006	532
827.102	492
827.198	363
827.294	-579
827.390	259
827.486	651
827.582	-977
827.678	-504
827.774	84
827.869	-497
827.965	467
828.061	461
828.157	-541
828.252	-138
828.348	-794
828.444	849
828.539	-979
828.635	443
828.731	41
828.826	-30
828.922	509
829.017	-168
829.113	-254
829.208	-482
829.304	-1126
829.399	351
829.495	-662
829.590	184
829.685	-969
829.781	-795
829.876	-544
829.971	-280
830.066	-638
830.162	351
830.257	-111
830.352	375
830.447	244
830.543	260
830.638	-794
830.733	233
830.828	147
830.923	467
831.018	-431
831.113	-231
831.208	-915
831.303	-199
831.398	-589
831.493	-233
831.588	333
831.683	-518
831.778	393
831.873	523
831.967	-271
832.062	179
832.157	-1202
832.252	445
832.346	-1010
832.441	221
832.536	286
832.631	1477
832.725	1538
832.820	1139
832.914	-786
833.009	-873
833.104	289
833.198	752
833.293	-685
833.387	224
833.482	-533
833.576	-894
833.670	155
833.765	-123
833.859	-1127
833.954	254
834.048	24
834.142	-324
834.237	124
834.331	-228
834.425	-588
834.519	-609
834.613	-752
834.708	-879
834.802	316
834.896	-375
834.990	-724
835.084	357
835.178	-559
835.272	-318
835.366	-1347
835.460	203
835.554	-838
835.648	-347
835.742	-1152
835.836	-404
835.930	-1400
836.024	365
836.117	-648
836.211	105
836.305	121
836.399	636
836.493	-965
836.586	-21
836.680	-1099
836.774	-51
836.867	-124
836.961	-593
837.055	-752
837.148	-45
837.242	-693
837.335	-368
837.429	-1093
837.522	-906
837.616	-1105
837.709	1028
837.803	434
837.896	340
837.989	-984
838.083	883
838.176	155
838.269	813
838.363	-179
838.456	-1138
838.549	-463
838.642	296
838.735	1274
838.829	874
838.922	-824
839.015	-272
839.108	-756
839.201	-269
839.294	-405
839.387	-350
839.480	-1139
839.573	-513
839.666	-258
839.759	739
839.852	-809
839.945	-225
840.038	-703
840.131	-115
840.223	-1022
840.316	-55
840.409	-783
840.502	-179
840.594	-195
840.687	-1391
840.780	-743
840.873	273
840.965	-279
841.058	-98
841.150	283
841.243	307
841.336	-296
841.428	14
841.521	-907
841.613	152
841.706	-507
841.798	-302
841.890	-917
841.983	-1125
842.075	-279
842.167	-718
842.260	-832
842.352	-10
842.444	-347
842.537	955
842.629	2353
842.721	1334
842.813	-435
842.905	-1128
842.997	-775
843.090	-775
843.182	-111
843.274	946
843.366	2727
843.458	7733
843.550	7975
843.642	1166
843.734	-448
843.826	-371
843.918	690
844.009	-268
844.101	-510
844.193	-97
844.285	-520
844.377	1043
844.469	2854
844.560	5753
844.652	7130
844.744	3285
844.835	541
844.927	117
845.019	-358
845.110	-192
845.202	-936
845.293	-351
845.385	-897
845.476	-72
845.568	-504
845.659	-389
845.751	-620
845.842	-578
845.934	-1005
846.025	-228
846.116	-190
846.208	-711
846.299	-495
846.390	-49
846.482	-94
846.573	-629
846.664	368
846.755	-145
846.846	633
846.937	-1057
847.029	-1124
847.120	-697
847.211	-738
847.302	-183
847.393	-1424
847.484	-474
847.575	-808
847.666	-410
847.757	-1221
847.847	-500
847.938	-475
848.029	-788
848.120	-557
848.211	-424
848.302	-778
848.392	-775
848.483	-912
848.574	-582
848.664	-1454
848.755	-1065
848.846	-747
848.936	-1095
849.027	-530
849.118	-306
849.208	-692
849.299	199
849.389	-316
849.480	-238
849.570	252
849.661	1360
849.751	1910
849.841	942
849.932	-308
850.022	-577
850.112	-398
850.203	-41
850.293	-1035
850.383	-1192
850.474	-829
850.564	-460
850.654	106
850.744	-721
850.834	-940
850.924	-341
851.014	-1184
851.104	-989
851.194	-952
851.284	-45
851.374	-311
851.464	228
851.554	-310
851.644	-198
851.734	-81
851.824	580
851.914	-189
852.004	711
852.094	179
852.183	-175
852.273	-41
852.363	-586
852.452	-943
852.542	-887
852.632	-1229
852.721	236
852.811	-371
852.901	-63
852.990	-1110
853.080	185
853.169	-1128
853.259	-545
853.348	-577
853.438	-404
853.527	-790
853.617	-141
853.706	618
853.795	670
853.885	1916
853.974	5524
854.063	9356
854.152	19578
854.242	12567
854.331	1531
854.420	363
854.509	-364
854.598	-264
854.687	-81
854.777	-201
854.866	-576
854.955	-261
855.044	-540
855.133	-954
855.222	-619
855.311	-1573
855.400	-216
855.488	-880
855.577	-862
855.666	-567
855.755	-354
855.844	-674
855.933	4
856.021	-393
856.110	-182
856.199	-670
856.288	-275
856.376	-1482
856.465	-1449
856.554	-280
856.642	-598
856.731	364
856.819	68
856.908	-671
856.996	-473
857.085	-837
857.173	-426
857.262	-1408
857.350	-462
857.438	-504
857.527	-283
857.615	-1096
857.703	-738
857.792	-1183
857.880	-381
857.968	-1728
858.056	-414
858.145	-853
858.233	-712
858.321	-849
858.409	341
858.497	-686
858.585	-1142
858.673	-574
858.761	-902
858.849	-674
858.937	-719
859.025	-372
859.113	121
859.201	-702
859.289	537
859.377	451
859.465	-461
859.552	-765
859.640	280
859.728	-693
859.816	-267
859.903	-537
859.991	-1227
860.079	-1493
860.166	-1070
860.254	-336
860.342	-346
860.429	-661
860.517	-931
860.604	-1548
860.692	-482
860.779	-973
860.867	-417
860.954	-1015
861.042	-369
861.129	-340
861.216	-861
861.304	-789
861.391	-693
861.478	-749
861.565	-641
861.653	-695
861.740	-1370
861.827	-1112
861.914	-976
862.001	-717
862.089	497
862.176	-506
862.263	-317
862.350	-786
862.437	-1055
862.524	-1077
862.611	965
862.698	195
862.785	1037
862.871	1884
862.958	734
863.045	218
863.132	-578
863.219	-571
863.306	-1115
863.392	-495
863.479	-856
863.566	-665
863.652	-279
863.739	-338
863.826	-377
863.912	-952
863.999	-1649
864.086	-1141
864.172	-1240
864.259	-920
864.345	-1185
864.432	-1047
864.518	-493
864.604	-651
864.691	-954
864.777	-1174
864.863	-507
864.950	-508
865.036	-724
865.122	-922
865.209	-329
865.295	-854
865.381	29
865.467	-741
865.553	448
865.639	-985
865.726	194
865.812	222
865.898	2195
865.984	4017
866.070	7222
866.156	10516
866.242	4452
866.328	-372
866.414	-393
866.499	67
866.585	-1431
866.671	-1382
866.757	-480
866.843	-861
866.928	-248
867.014	-1710
867.100	269
867.186	-887
867.271	-439
867.357	-493
867.442	728
867.528	145
867.614	729
867.699	1397
867.785	2646
867.870	3228
867.956	7998
868.041	5918
868.127	2297
868.212	3597
868.297	4737
868.383	2110
868.468	1355
868.553	2214
868.639	1903
868.724	1599
868.809	3514
868.894	451
868.979	-580
869.065	-754
869.150	-1137
869.235	333
869.320	-919
869.405	-1053
869.490	-182
869.575	-1344
869.660	-199
869.745	-912
869.830	-1035
869.915	-1417
870.000	-51
870.085	-386
870.169	971
870.254	612
870.339	-24
870.424	-608
870.509	-267
870.593	-1107
870.678	-228
870.763	-965
870.847	273
870.932	499
871.016	442
871.101	1096
871.186	17
871.270	-963
871.355	-1195
871.439	-1136
871.523	-668
871.608	-611
871.692	-139
871.777	-5
871.861	1167
871.945	-1066
872.030	-1102
872.114	-1344
872.198	-488
872.282	-1614
872.367	-1373
872.451	-1350
872.535	-636
872.619	-1041
872.703	-396
872.787	-628
872.871	-949
872.955	-646
873.039	-554
873.123	-1192
873.207	-445
873.291	-1566
873.375	-635
873.459	-1205
873.543	-797
873.627	-1548
873.711	-744
873.794	-732
873.878	-415
873.962	-1956
874.045	-606
874.129	-1817
874.137	-1686
874.213	-378
874.245	-671
874.296	-1136
874.352	-761
874.380	-590
874.460	-1052
874.464	-1071
874.547	-1012
874.568	-951
874.631	-759
874.676	-495
874.714	-285
874.784	-815
874.798	-919
874.881	-185
874.892	-400
874.965	-1872
874.999	-1345
875.048	-625
875.107	-951
875.131	-1078
875.215	-570
875.215	-571
875.298	-1818
875.323	-1368
875.381	-238
875.430	-351
875.465	-456
875.538	-959
875.548	-1017
875.631	-818
875.646	-771
875.714	-616
875.753	-790
875.798	-970
875.861	-613
875.881	-508
875.964	-1171
875.968	-1144
876.047	-603
876.076	-590
876.130	-642
876.183	-657
876.213	-588
876.291	-601
876.296	-614
876.379	-1054
876.398	-1040
876.462	-906
876.506	-500
876.545	-143
876.613	-668
876.628	-795
876.711	-416
876.721	-431
876.794	-413
876.828	-281
876.877	-116
876.935	-169
876.960	-242
877.043	-236
877.043	-237
877.125	-6
877.150	42
877.208	-105
877.258	10
877.291	311
877.365	45
877.374	-18
877.456	-497
877.472	-326
877.539	376
877.579	-130
877.622	-679
877.687	-77
877.704	167
877.787	9
877.794	65
877.869	121
877.901	-183
877.952	-473
878.008	-391
878.034	-336
878.115	-449
878.117	-447
878.199	-466
878.222	-301
878.282	-97
878.329	91
878.364	301
878.437	114
878.447	56
878.529	-174
878.544	-261
878.611	-283
878.651	49
878.694	239
878.758	85
878.776	64
878.858	-22
878.865	-28
878.941	-297
878.972	-242
879.023	219
879.078	109
879.105	-91
879.185	25
879.187	34
879.269	-245
879.292	-181
879.351	-233
879.399	-778
879.433	-998
879.506	2
879.516	106
879.598	-703
879.613	-620
879.680	-207
879.720	-337
879.762	-379
879.827	-266
879.844	-287
879.926	-185
879.933	-175
880.007	11
880.040	-128
880.089	-76
880.147	441
880.171	507
880.253	225
880.254	224
880.335	881
880.360	1094
880.417	1759
880.467	2278
880.499	2814
880.574	4229
880.580	4212
880.662	2939
880.680	2299
880.744	272
880.787	152
880.825	246
880.893	-477
880.907	-570
880.989	63
881.000	38
881.070	-353
881.106	-336
881.152	12
881.213	-211
881.233	-357
881.315	85
881.319	85
881.396	141
881.426	305
881.478	544
881.532	191
881.559	97
881.639	194
881.641	189
881.722	-123
881.745	-215
881.803	11
881.852	118
881.885	196
881.958	574
881.966	574
882.047	220
882.064	220
882.129	296
882.171	242
882.210	576
882.277	1456
882.291	1463
882.372	382
882.383	299
882.454	15
882.489	2
882.535	179
882.596	434
882.616	441
882.697	-83
882.702	-83
882.778	209
882.808	153
882.859	272
882.914	613
882.940	641
883.020	248
883.021	251
883.102	363
883.127	274
883.183	-232
883.233	-396
883.264	-90
883.339	215
883.345	194
883.426	-80
883.445	-100
883.507	452
883.551	773
883.587	706
883.657	389
883.668	447
883.749	1060
883.763	1146
883.830	568
883.869	264
883.910	410
883.975	432
883.991	392
884.072	557
884.081	503
884.152	371
884.187	614
884.233	535
884.292	-23
884.314	3
884.394	281
884.398	289
884.475	355
884.504	433
884.555	436
884.610	210
884.636	219
884.716	513
884.716	520
884.797	508
884.821	525
884.877	530
884.927	327
884.958	244
885.033	368
885.038	372
885.118	66
885.139	84
885.199	595
885.244	689
885.279	587
885.350	655
885.359	719
885.439	1125
885.456	1240
885.520	1228
885.561	967
885.600	816
885.667	899
885.680	970
885.760	1051
885.773	1113
885.840	1023
885.878	716
885.920	621
885.984	784
886.000	773
886.080	535
886.089	506
886.160	411
886.195	304
886.240	325
886.300	595
886.320	767
886.400	1108
886.406	1132
886.480	1028
886.511	956
886.560	917
886.616	956
886.640	1037
886.720	1048
886.722	1042
886.800	1104
886.827	1175
886.879	1245
886.932	1309
886.959	1235
887.038	798
887.039	809
887.119	1291
887.143	1433
887.198	1283
887.248	1214
887.278	1251
887.354	1078
887.358	1094
887.437	1556
887.459	1583
887.517	1578
887.564	1784
887.596	1888
887.669	1720
887.676	1671
887.755	1160
887.774	1009
887.835	1026
887.880	1083
887.914	1204
887.985	1312
887.994	1292
888.073	1165
888.090	1089
888.153	940
888.195	907
888.232	1034
888.300	1241
888.311	1291
888.391	1602
888.405	1622
888.470	1245
888.510	1062
888.549	1271
888.615	1606
888.628	1605
888.708	1494
888.720	1468
888.787	1612
888.825	1698
888.866	1338
888.930	755
888.945	938
889.024	1897
889.035	2005
889.103	1518
889.140	1290
889.182	1467
889.245	1675
889.261	1685
889.340	1738
889.349	1733
889.419	1593
889.454	1517
889.498	1245
889.559	851
889.577	1036
889.656	1833
889.664	1906
889.735	1995
889.768	2026
889.814	2063
889.873	2095
889.978	1414
890.083	1453
890.187	939
890.292	2046
890.397	1806
890.501	1110
890.606	2006
890.710	1614
890.815	1400
890.919	1853
891.024	1330
891.128	1622
891.233	1408
891.337	1371
891.442	1710
891.546	2671
891.650	1095
891.755	1762
891.859	2117
891.963	1047
892.068	2303
892.172	1364
892.276	1122
892.380	998
892.484	1388
892.589	1421
892.693	1303
892.797	1628
892.901	1248
893.005	1367
893.109	1310
893.213	1878
893.317	1164
893.421	2089
893.525	605
893.629	1084
893.733	1238
893.837	1948
893.941	1454
894.045	2993
894.148	1364
894.252	3119
894.356	2249
894.460	2084
894.564	1271
894.667	1554
894.771	1248
894.875	1510
894.978	1043
895.082	1215
895.186	1075
895.289	1927
895.393	1306
895.496	2105
895.600	1323
895.703	1474
895.807	539
895.910	1671
896.014	1357
896.117	1150
896.221	1906
896.324	1790
896.427	1374
896.531	1364
896.634	1462
896.737	2711
896.840	1740
896.944	1394
897.047	952
897.150	1612
897.253	743
897.356	2110
897.460	1149
897.563	1785
897.666	475
897.769	1327
897.872	1224
897.975	2097
898.078	1176
898.181	1103
898.284	2145
898.387	1032
898.490	1833
898.593	1882
898.695	1650
898.798	1227
898.901	1446
899.004	1434
899.107	1384
899.209	953
899.312	1435
899.415	1781
899.518	977
899.620	1643
899.723	1623
899.826	1725
899.928	1949
900.031	2241
900.133	969
900.236	1577
900.338	941
900.441	880
900.543	630
900.646	1135
900.748	1176
900.851	1782
900.953	1322
901.055	1515
901.158	736
901.260	1379
901.362	1685
901.465	754
901.567	1411
901.669	2688
901.771	1378
901.873	1401
901.976	448
902.078	1117
902.180	1316
902.282	1359
902.384	1228
902.486	1685
902.588	1722
902.690	2864
902.792	751
902.894	2459
902.996	1432
903.098	2179
903.200	1365
903.302	2374
903.404	430
903.505	1212
903.607	1194
903.709	1555
903.811	1310
903.913	1264
904.014	1388
904.116	1417
904.218	1058
904.319	2138
904.421	2957
904.523	4114
904.624	2189
904.726	2308
904.827	2305
904.929	3013
905.030	2086
905.132	1266
905.233	900
905.335	1537
905.436	1076
905.537	1227
905.639	1201
905.740	2030
905.841	1384
905.943	3150
906.044	2436
906.145	2711
906.247	2527
906.348	2118
906.449	1112
906.550	2659
906.651	1014
906.752	1129
906.854	739
906.955	2098
907.056	1203
907.157	1797
907.258	1080
907.359	1094
907.460	789
907.561	1550
907.662	1332
907.762	1484
907.863	1088
907.964	1675
908.065	1173
908.166	1474
908.267	1074
908.367	1396
908.468	1025
908.569	1337
908.670	1113
908.770	2707
908.871	1836
908.971	1726
909.072	1508
909.173	1573
909.273	1174
909.374	1335
909.474	1644
909.575	1752
909.675	886
909.776	1367
909.876	1200
909.977	2244
910.077	1262
910.177	1280
910.278	1359
910.378	1413
910.478	885
910.579	1204
910.679	1239
910.779	1824
910.879	1705
910.980	1233
911.080	1317
911.180	1346
911.280	1383
911.380	1730
911.480	1318
911.580	2016
911.680	1489
911.780	1483
911.880	567
911.980	1630
912.080	1320
912.180	1967
912.280	813
912.380	1315
912.480	1185
912.580	1324
912.679	747
912.779	2402
912.879	1636
912.979	1274
913.078	1119
913.178	1451
913.278	921
913.377	1482
913.477	904
913.577	1642
913.676	1342
913.776	1628
913.875	1727
913.975	1576
914.074	827
914.174	1660
914.273	795
914.373	2097
914.472	717
914.572	1976
914.671	1784
914.770	1496
914.870	1328
914.969	1226
915.068	1292
915.167	1024
915.267	1107
915.366	1646
915.465	1103
915.564	1274
915.663	875
915.763	1892
915.862	1174
915.961	1533
916.060	1193
916.159	1235
916.258	1053
916.357	1804
916.456	1167
916.555	1511
916.654	1003
916.752	1592
916.851	963
916.950	2140
917.049	1234
917.148	1423
917.247	890
917.345	1991
917.444	1055
917.543	1693
917.642	1663
917.740	1144
917.839	1739
917.937	1878
918.036	1106
918.135	1503
918.233	1281
918.332	1248
918.430	640
918.529	1432
918.627	628
918.726	1481
918.824	1635
918.923	772
919.021	1718
919.119	1544
919.218	1374
919.316	1287
919.414	1180
919.512	1234
919.611	1116
919.709	1832
919.807	1876
919.905	1420
920.003	1456
920.102	1210
920.200	818
920.298	1939
920.396	725
920.494	1201
920.592	1209
920.690	1636
920.788	754
920.886	1922
920.984	1747
921.082	1371
921.180	1559
921.277	2224
921.375	824
921.473	1170
921.571	552
921.669	1719
921.766	1637
921.864	2079
921.962	1362
922.060	1551
922.157	1284
922.255	1751
922.352	1618
922.450	1900
922.548	913
922.645	1324
922.743	1228
922.840	1796
922.938	505
923.035	1512
923.133	775
923.230	1268
923.327	1335
923.425	1924
923.522	2507
923.619	994
923.717	1494
923.814	1282
923.911	1299
924.008	1980
924.106	673
924.203	2081
924.300	1337
924.397	1586
924.494	1119
924.591	2299
924.688	1112
924.786	2197
924.883	1698
924.979	1682
925.077	1773
925.173	2229
925.270	1569
925.367	2410
925.464	1703
925.561	1360
925.658	935
925.755	2154
925.852	1798
925.948	3526
926.045	3569
926.142	4331
926.239	5065
926.335	5127
926.432	4279
926.529	5464
926.625	5268
926.722	4423
926.818	2220
926.915	2955
927.011	1993
927.108	2759
927.204	1962
927.301	1984
927.397	1133
927.494	1300
927.590	1726
927.687	2434
927.783	1451
927.879	1362
927.976	1600
928.072	1276
928.168	1695
928.264	1968
928.361	821
928.457	2049
928.553	1478
928.649	1518
928.745	1271
928.841	1945
928.937	1112
929.033	1334
929.129	1406
929.225	1480
929.321	1339
929.417	1886
929.513	1018
929.609	1863
929.705	1096
929.801	1688
929.897	851
929.993	1719
930.089	1410
930.184	1696
930.280	1129
930.376	2307
930.471	1107
930.567	1071
930.663	1150
930.758	1294
930.854	1096
930.950	1364
931.045	770
931.141	1576
931.236	1633
931.332	1861
931.427	1195
931.523	1565
931.618	1680
931.714	1189
931.809	1450
931.905	1527
932.000	1874
932.095	638
932.191	1276
932.286	1500
932.381	1058
932.476	1254
932.572	1017
932.667	1243
932.762	1459
932.857	2506
932.952	283
933.047	639
933.142	1438
933.237	1499
933.332	827
933.427	2008
933.522	583
933.617	1799
933.712	1461
933.807	1151
933.902	1149
933.997	1814
934.092	1625
934.187	1713
934.282	563
934.376	1875
934.471	1118
934.566	1775
934.661	795
934.755	1334
934.850	905
934.945	1396
935.039	484
935.134	1783
935.228	860
935.323	1413
935.417	1200
935.512	1349
935.606	830
935.701	1187
935.795	575
935.890	1111
935.984	1080
936.079	690
936.173	1254
936.267	1319
936.362	905
936.456	1661
936.550	937
936.644	1841
936.738	650
936.833	1339
936.927	1050
937.021	2028
937.115	1118
937.209	811
937.303	2168
937.397	1246
937.491	759
937.585	1608
937.679	811
937.773	1568
937.867	818
937.961	808
938.055	1143
938.149	1432
938.243	1875
938.337	2258
938.430	1577
938.524	3414
938.618	6136
938.712	5913
938.805	1995
938.899	2501
938.993	2269
939.086	3507
939.180	6713
939.274	10552
939.367	5112
939.461	3261
939.554	1566
939.648	1355
939.741	1553
939.835	678
939.928	1228
940.022	1834
940.115	903
940.208	2173
940.302	1571
940.395	2456
940.488	579
940.582	1176
940.675	838
940.768	2199
940.861	1081
940.954	1290
941.048	1252
941.141	1997
941.234	2042
941.327	2478
941.420	3047
941.513	2261
941.606	730
941.699	1496
941.792	688
941.885	1201
941.978	1227
942.071	1614
942.164	1223
942.257	1880
942.349	1299
942.442	1294
942.535	998
942.628	1352
942.721	536
942.813	695
942.906	2063
942.999	1303
943.091	1149
943.184	449
943.277	824
943.369	1545
943.462	1032
943.554	1910
943.647	944
943.739	848
943.832	423
943.924	660
944.017	1289
944.109	1303
944.201	906
944.294	1024
944.386	1061
944.478	1132
944.571	1136
944.663	1476
944.755	1132
944.847	1020
944.940	1123
945.032	1126
945.124	270
945.216	2003
945.308	753
945.400	1023
945.492	1415
945.584	1467
945.676	1399
945.768	1707
945.860	359
945.952	1303
946.044	1751
946.136	1239
946.228	226
946.320	958
946.412	1218
946.503	717
946.595	416
946.687	926
946.779	618
946.870	2083
946.962	241
947.054	1049
947.145	644
947.237	1565
947.329	1167
947.420	1202
947.512	1382
947.603	1255
947.695	564
947.786	1439
947.878	314
947.969	627
948.061	634
948.152	1485
948.243	1083
948.335	984
948.426	877
948.517	280
948.609	494
948.700	895
948.791	-9
948.882	1030
948.973	-139
949.065	936
949.156	605
949.247	307
949.338	214
949.429	715
949.520	741
949.611	1347
949.702	810
949.793	1524
949.884	149
949.975	1588
950.066	615
950.157	852
950.247	466
950.338	1231
950.429	1058
950.520	868
950.611	416
950.701	1093
950.792	983
950.883	1243
950.973	1112
951.064	1130
951.155	1351
951.245	1129
951.336	618
951.427	871
951.517	1158
951.608	1446
951.698	417
951.788	974
951.879	432
951.969	405
952.060	411
952.150	626
952.240	890
952.331	391
952.421	1204
952.511	789
952.602	259
952.692	1284
952.782	1143
952.872	822
952.962	875
953.052	1130
953.143	540
953.233	1126
953.323	688
953.413	1465
953.503	219
953.593	1529
953.683	634
953.773	979
953.863	432
953.953	1489
954.042	1281
954.132	567
954.222	1173
954.312	1261
954.402	384
954.492	1980
954.581	1858
954.671	1181
954.761	634
954.850	1382
954.940	1005
955.030	270
955.119	-78
955.209	1272
955.298	640
955.388	1324
955.477	1617
955.567	1196
955.656	1559
955.746	1157
955.835	833
955.925	1112
956.014	170
956.103	1148
956.193	358
956.282	1107
956.371	1271
956.461	1368
956.550	1393
956.639	1440
956.728	360
956.817	891
956.906	392
956.995	1007
957.085	630
957.174	1846
957.263	826
957.352	727
957.441	-223
957.530	753
957.619	909
957.708	947
957.796	985
957.885	1210
957.974	1409
958.063	1142
958.152	302
958.241	1510
958.329	1051
958.418	1437
958.507	-4
958.596	2120
958.684	518
958.773	1615
958.861	1482
958.950	1454
959.039	1727
959.127	331
959.216	1649
959.304	1064
959.393	827
959.481	1482
959.570	2242
959.658	1009
959.746	1210
959.835	2594
959.923	2694
960.011	1960
960.100	1464
960.188	1164
960.276	571
960.365	1944
960.453	1062
960.541	1452
960.629	933
960.717	694
960.805	884
960.893	1571
960.981	1006
961.069	2000
961.158	813
961.245	1246
961.333	1258
961.421	2090
961.509	14
961.597	1105
961.685	748
961.773	1749
961.861	461
961.949	1925
962.036	1406
962.124	1007
962.212	339
962.299	1015
962.387	532
962.475	1394
962.562	7
962.650	1671
962.738	564
962.825	749
962.913	1046
963.000	1101
963.088	612
963.175	473
963.263	948
963.350	710
963.438	760
963.525	1420
963.612	1468
963.700	2976
963.787	8206
963.874	7008
963.962	1363
964.049	1399
964.136	826
964.223	1594
964.310	573
964.398	582
964.485	526
964.572	1098
964.659	1474
964.746	2797
964.833	571
964.920	686
965.007	597
965.094	440
965.181	715
965.268	1037
965.355	33
965.441	1235
965.528	570
965.615	1341
965.702	912
965.789	1715
965.875	513
965.962	1858
966.049	678
966.136	1384
966.222	1198
966.309	1189
966.395	614
966.482	1166
966.569	472
966.655	1210
966.742	1157
966.828	1443
966.915	970
967.001	1352
967.087	1361
967.174	795
967.260	1231
967.347	1445
967.433	2631
967.519	5925
967.605	3477
967.692	848
967.778	606
967.864	695
967.950	589
968.036	816
968.123	290
968.209	502
968.295	190
968.381	1613
968.467	393
968.553	85
968.639	867
968.725	638
968.811	1514
968.897	1828
968.983	1346
969.069	984
969.154	1111
969.240	1701
969.326	500
969.412	915
969.497	536
969.583	364
969.669	827
969.755	1735
969.840	1013
969.926	1451
970.012	151
970.097	2002
970.183	796
970.268	964
970.354	785
970.439	1494
970.525	3000
970.610	2524
970.696	1293
970.781	1856
970.866	394
970.952	531
971.037	357
971.122	1158
971.208	-80
971.293	1699
971.378	563
971.463	1069
971.549	562
971.634	930
971.719	677
971.804	575
971.889	1066
971.974	900
972.059	697
972.144	1302
972.229	551
972.314	933
972.399	720
972.484	1264
972.569	527
972.654	1501
972.739	1628
972.824	1815
972.908	2057
972.993	959
973.078	381
973.163	845
973.247	15
973.332	754
973.417	171
973.501	616
973.586	1030
973.671	940
973.755	342
973.840	1112
973.924	670
974.009	1851
974.093	721
974.178	2197
974.262	1764
974.346	2014
974.431	984
974.515	812
974.600	192
974.684	1541
974.768	382
974.852	1168
974.937	26
975.021	1175
975.105	268
975.189	766
975.273	300
975.358	-144
975.442	236
975.526	1202
975.610	832
975.694	755
975.778	462
975.862	-138
975.946	-463
976.030	1594
976.114	-151
976.198	1220
976.281	213
976.365	1491
976.449	894
976.533	1538
976.617	-90
976.700	747
976.784	-177
976.868	1326
976.951	1330
977.035	1799
977.119	503
977.202	737
977.286	920
977.369	1149
977.453	260
977.536	768
977.620	334
977.703	1551
977.787	278
977.870	1119
977.953	971
978.037	964
978.120	1193
978.203	257
978.287	1544
978.370	2002
978.453	279
978.536	236
978.620	815
978.703	939
978.786	1405
978.869	891
978.952	-445
979.035	1614
979.118	635
979.201	-11
979.284	1289
979.367	753
979.450	851
979.533	178
979.616	470
979.699	400
979.782	924
979.865	411
979.948	542
980.030	67
980.113	858
980.196	390
980.279	358
980.361	85
980.444	-305
980.526	1237
980.609	667
980.692	447
980.774	848
980.857	-698
980.939	328
981.022	953
981.104	-299
981.187	73
981.269	432
981.352	42
981.434	181
981.516	670
981.599	1058
981.681	1164
981.763	54
981.846	686
981.928	-411
982.010	123
982.092	55
982.174	222
982.256	629
982.339	738
982.421	310
982.503	717
982.585	-913
982.667	28
982.749	11
982.831	-6
982.913	-269
982.995	552
983.077	-773
983.158	1586
983.240	-396
983.322	791
983.404	462
983.486	-728
983.568	932
983.649	755
983.731	175
983.813	580
983.894	429
983.976	288
984.058	-374
984.139	748
984.221	-14
984.302	565
984.384	-543
984.465	-25
984.547	600
984.628	-362
984.710	1119
984.791	718
984.872	489
984.954	610
985.035	-98
985.116	-649
985.198	-686
985.279	641
985.360	-387
985.441	72
985.522	233
985.604	137
985.685	-416
985.766	1436
985.847	-380
985.928	74
986.009	242
986.090	288
986.171	341
986.252	490
986.333	237
986.414	242
986.495	-450
986.576	389
986.656	-29
986.737	686
986.818	190
986.899	-245
986.980	-744
987.060	428
987.141	-734
987.222	503
987.302	-904
987.383	285
987.464	596
987.544	-114
987.625	-465
987.705	1531
987.786	138
987.866	409
987.947	-293
988.027	841
988.108	-485
988.188	264
988.268	362
988.349	233
988.429	525
988.509	255
988.589	-97
988.670	-469
988.750	1118
988.830	81
988.910	-403
988.990	408
989.070	-586
989.151	140
989.231	-745
989.311	505
989.391	128
989.471	298
989.551	-544
989.631	-325
989.711	64
989.791	122
989.870	64
989.950	-52
990.030	-719
990.110	-285
990.190	59
990.269	-192
990.349	-322
990.429	25
990.509	635
990.588	413
990.668	-410
990.747	349
990.827	-63
990.907	-214
990.986	-183
991.066	340
991.145	-454
991.225	476
991.304	-501
991.383	236
991.463	-506
991.542	-333
991.622	561
991.701	-183
991.780	-277
991.859	518
991.939	39
992.018	34
992.097	99
992.176	193
992.256	-419
992.335	276
992.414	-621
992.493	179
992.572	-130
992.651	655
992.730	-446
992.809	180
992.888	-638
992.967	342
993.046	83
993.125	-405
993.203	-582
993.282	347
993.361	-419
993.440	944
993.519	-390
993.597	274
993.676	-712
993.755	172
993.834	-457
993.912	-191
993.991	505
994.069	240
994.148	-966
994.226	-895
994.305	-108
994.384	-1093
994.462	-99
994.540	-925
994.619	-461
994.697	375
994.776	-909
994.854	264
994.932	-760
995.011	-517
995.089	-64
995.167	-51
995.245	-393
995.324	-530
995.402	-304
995.480	-145
995.558	-733
995.636	-212
995.714	-879
995.792	604
995.870	-1443
995.948	259
996.026	82
996.104	-984
996.182	-326
996.260	-8
996.338	730
996.416	135
996.494	-646
996.572	628
996.649	-799
996.727	-673
996.805	-636
996.883	-472
996.960	-1106
997.038	-267
997.116	-625
997.193	-1017
997.271	-541
997.348	823
997.426	-262
997.504	8
997.581	-287
997.658	203
997.736	-1172
997.813	526
997.891	-33
997.968	-103
998.046	-230
998.123	-136
998.200	-1126
998.277	-1011
998.355	-222
998.432	-432
998.509	-310
998.586	684
998.663	47
998.741	-10
998.818	-637
998.895	-770
998.972	-520
999.049	-331
999.126	-1735
999.203	-558
999.280	-118
999.357	-606
999.434	-1036
999.511	352
999.587	-292
999.664	-508
999.741	-334
999.818	16
999.895	89
999.971	-408
1000.048	-688
1000.125	1151
1000.202	-679
1000.278	377
1000.355	11
1000.431	-785
1000.508	-437
1000.584	-418
1000.661	24
1000.738	-527
1000.814	-457
1000.890	263
1000.967	-327
1001.043	-430
1001.120	-1200
1001.196	-675
1001.272	-1048
1001.349	-383
1001.425	-602
1001.501	-203
1001.577	-887
1001.654	-529
1001.730	224
1001.806	405
1001.882	-1361
1001.958	-92
1002.034	-588
1002.110	-93
1002.186	-986
1002.262	-644
1002.338	-1089
1002.414	417
1002.490	-751
1002.566	-310
1002.642	-222
1002.718	526
1002.794	-1091
1002.870	181
1002.945	-1458
1003.021	-718
1003.097	-1389
1003.173	162
1003.248	-772
1003.324	-220
1003.400	-883
1003.475	-157
1003.551	-1024
1003.626	-829
1003.702	-1905
1003.777	61
1003.853	-332
1003.928	-1103
1004.004	-1140
1004.079	46
1004.155	-1225
1004.230	-474
1004.305	-507
1004.381	-972
1004.456	-381
1004.531	-100
1004.607	-312
1004.682	56
1004.757	-1052
1004.832	575
1004.907	-772
1004.982	-58
1005.057	-1161
1005.133	-648
1005.208	-74
1005.283	-349
1005.358	-598
1005.433	-452
1005.508	-251
1005.583	-1593
1005.657	-1427
1005.732	199
1005.807	-916
1005.882	-601
1005.957	-805
1006.032	-258
1006.106	-961
1006.181	-224
1006.256	-422
1006.331	-1076
1006.405	-718
1006.480	292
1006.554	-148
1006.629	-161
1006.704	-1390
1006.778	-141
1006.853	-362
1006.927	-375
1007.002	-1162
1007.076	-641
1007.150	-654
1007.225	-590
1007.299	-243
1007.373	-1011
1007.448	-941
1007.522	-813
1007.596	-790
1007.671	-569
1007.745	32
1007.819	-136
1007.893	-574
1007.967	280
1008.041	-1276
1008.115	-29
1008.190	-1356
1008.264	-230
1008.338	-1680
1008.412	-560
1008.486	-819
1008.560	-162
1008.633	-571
1008.707	-496
1008.781	-205
1008.855	-835
1008.929	-678
1009.003	-1450
1009.076	-1285
1009.150	99
1009.224	-773
1009.298	-611
1009.371	-1753
1009.445	-1025
1009.519	-1309
1009.592	-307
1009.666	-1292
1009.739	-814
1009.813	-2300
1009.886	-29
1009.960	-1071
1010.033	-487
1010.107	-233
1010.180	-1179
1010.253	-1201
1010.327	-1070
1010.400	-831
1010.473	-833
1010.547	338
1010.620	-526
1010.693	-910
1010.766	-298
1010.840	-197
1010.913	-461
1010.986	314
1011.059	-1231
1011.132	-658
1011.205	369
1011.278	-325
1011.351	700
1011.424	-441
1011.497	68
1011.570	-717
1011.643	-66
1011.716	-1108
1011.789	-829
1011.862	-212
1011.934	-30
1012.007	-796
1012.080	-247
1012.153	-802
1012.225	-14
1012.298	-1097
1012.371	-669
1012.443	-415
1012.516	-240
1012.588	-936
1012.661	-191
1012.733	-971
1012.806	-328
1012.879	-868
1012.951	-183
1013.023	-1142
1013.096	-576
1013.168	-933
1013.241	-288
1013.313	-738
1013.385	29
1013.458	-1044
1013.530	-873
1013.602	-1727
1013.674	-14
1013.746	-848
1013.819	-937
1013.891	-1026
1013.963	-604
1014.035	-653
1014.107	-598
1014.179	-593
1014.251	-1003
1014.323	-1233
1014.395	-695
1014.467	-1075
1014.539	-679
1014.611	-1886
1014.683	-593
1014.754	-1416
1014.826	-865
1014.898	-1048
1014.970	-543
1015.042	-394
1015.113	-554
1015.185	-1438
1015.257	-1497
1015.328	-571
1015.400	-1231
1015.471	-1382
1015.543	-1239
1015.615	-1242
1015.686	-521
1015.757	-1087
1015.829	-407
1015.901	-825
1015.972	-1179
1016.043	-1026
1016.115	-689
1016.186	-949
1016.257	-457
1016.328	-1025
1016.400	-388
1016.471	-1583
1016.542	-1044
1016.613	-595
1016.685	-117
1016.756	-853
1016.827	-666
1016.898	-1675
1016.969	-510
1017.040	-969
1017.111	-801
1017.182	-529
1017.253	-1046
1017.324	-1468
1017.395	-300
1017.466	-614
1017.537	-899
1017.608	-541
1017.678	-495
1017.749	30
1017.820	-1380
1017.891	-1228
1017.961	-1274
1018.032	-1464
1018.103	-380
1018.173	-1513
1018.244	-933
1018.315	-1739
1018.385	-378
1018.456	-1702
1018.526	-1358
1018.597	-637
1018.667	-563
1018.738	-1365
1018.808	-680
1018.878	-895
1018.949	-604
1019.019	-626
1019.089	342
1019.160	-1009
1019.230	-1544
1019.300	-757
1019.371	-1070
1019.441	-389
1019.511	-307
1019.581	-1188
1019.651	-669
1019.721	-1075
1019.791	-484
1019.861	-1639
1019.931	-582
1020.001	-557
1020.071	-840
1020.141	-649
1020.211	-674
1020.281	-425
1020.351	-1486
1020.421	-506
1020.491	-398
1020.560	-1222
1020.630	-214
1020.700	-1109
1020.770	-1005
1020.839	-1267
1020.909	-360
1020.979	-777
1021.048	-771
1021.118	-570
1021.187	-1213
1021.257	-958
1021.326	-955
1021.396	-1144
1021.465	-474
1021.535	-1155
1021.604	-1848
1021.674	-1237
1021.743	-732
1021.812	-1339
1021.882	-1168
1021.951	-386
1022.020	-700
1022.089	-1706
1022.159	-1141
1022.228	-1299
1022.297	-1106
1022.366	-1575
1022.435	-176
1022.504	-1608
1022.573	-1379
1022.642	-322
1022.711	-1703
1022.781	-483
1022.849	170
1022.918	-1915
1022.987	-771
1023.056	-1042
1023.125	-657
1023.194	-1009
1023.263	-730
1023.331	-667
1023.400	-1050
1023.469	-668
1023.538	-700
1023.606	-952
1023.675	-556
1023.744	-1385
1023.812	-1303
1023.881	-1786
1023.949	-258
1024.018	-1346
1024.086	-685
1024.155	-740
1024.223	-782
1024.292	-1074
1024.360	-559
1024.429	-1338
1024.497	-1559
1024.565	-1182
1024.634	-965
1024.702	-1744
1024.770	503
1024.838	-2350
1024.907	-364
1024.975	-1788
1025.043	-622
1025.111	-1342
1025.179	-191
1025.247	-1071
1025.315	220
1025.383	-1554
1025.451	-414
1025.519	-869
1025.587	-738
1025.655	-876
1025.723	-503
1025.791	-1673
1025.859	-1216
1025.927	-666
1025.995	-594
1026.062	-447
1026.130	-998
1026.198	-595
1026.266	-718
1026.333	-847
1026.401	-927
1026.469	-1215
1026.536	-153
1026.604	-1738
1026.671	-524
1026.739	-981
1026.806	-855
1026.874	-1603
1026.941	-504
1027.009	-923
1027.076	-1255
1027.144	-488
1027.211	-585
1027.278	-2079
1027.345	-847
1027.413	-1453
1027.480	-1014
1027.547	-1525
1027.614	-1053
1027.682	-633
1027.749	-808
1027.816	-1327
1027.883	-833
1027.950	-1205
1028.017	-695
1028.084	-1105
1028.151	-926
1028.218	-968
1028.285	-658
1028.352	-1203
1028.419	-1252
1028.486	-1998
1028.553	-643
1028.619	-2112
1028.686	-499
1028.753	-1672
1028.820	-630
1028.886	-1094
1028.953	-702
1029.020	-1882
1029.086	-1507
1029.153	-1555
1029.220	-960
1029.286	-1198
1029.353	-1237
1029.419	-1827
1029.486	-917
1029.552	-1202
1029.619	-952
1029.685	-1153
1029.751	-798
1029.818	-981
1029.884	-1651
1029.951	-702
1030.017	-947
1030.083	-1562
1030.149	-1198
1030.216	-1845
1030.282	-1247
1030.348	-2031
1030.414	-1689
1030.480	-1888
1030.546	-1304
1030.612	-1551
1030.678	-1471
1030.744	-1873
1030.810	-1525
1030.876	-1227
1030.942	-668
1031.008	-1537
1031.074	-1752
1031.140	-1322
1031.206	-153
1031.272	-1205
1031.337	-197
1031.403	-1774
1031.469	-1041
1031.534	-1193
1031.600	-1187
1031.666	-1736
1031.731	-1250
1031.797	-955
1031.863	-781
1031.928	-1297
1031.994	-1810
1032.059	-642
1032.125	-1482
1032.190	-1737
1032.256	-1319
1032.321	-1692
1032.386	-1578
1032.452	-946
1032.517	-694
1032.582	-1272
1032.647	-1549
1032.713	-2395
1032.778	-1390
1032.843	-855
1032.908	-1415
1032.974	-2292
1033.039	-1224
1033.104	-635
1033.169	-972
1033.234	-1510
1033.299	-874
1033.364	-1725
1033.429	-852
1033.494	-1673
1033.559	-1194
1033.624	-1655
1033.688	-1040
1033.753	-2686
1033.818	-1836
1033.883	-1551
1033.948	-1315
1034.013	-1514
1034.077	-818
1034.142	-1125
1034.207	-2027
1034.271	-1066
1034.336	-731
1034.400	-1342
1034.465	-856
1034.530	-1258
1034.594	-747
1034.658	-1704
1034.723	-1478
1034.787	-2093
1034.852	-1025
1034.916	-1997
1034.981	-1066
1035.045	-1713
1035.109	-1282
1035.173	-1606
1035.238	-2066
1035.302	-1797
1035.366	-968
1035.430	-1462
1035.495	-1310
1035.559	-1748
1035.623	-1206
1035.687	-2042
1035.751	-1273
1035.815	-1683
1035.879	-1629
1035.943	-1837
1036.007	-1336
1036.071	-1004
1036.135	-1771
1036.198	-1780
1036.262	-1320
1036.326	-1647
1036.390	-564
1036.454	-1422
1036.517	-1680
1036.581	-1248
1036.645	-862
1036.709	-1069
1036.772	-621
1036.836	-1248
1036.900	-1218
1036.963	-2396
1037.026	-511
1037.090	-1478
1037.154	-954
1037.217	-1369
1037.280	-1982
1037.344	-2138
1037.407	-1410
1037.471	-1659
1037.534	-2097
1037.597	-1870
1037.661	-1611
1037.724	-1038
1037.787	-1505
1037.850	-1568
1037.913	-2522
1037.977	-1316
1038.040	-1883
1038.103	-1249
1038.166	-1576
1038.229	-1494
1038.292	-1414
1038.355	-1815
1038.418	-1630
1038.481	-1328
1038.544	-2095
1038.607	-1236
1038.670	-1003
1038.732	-1816
1038.795	-1730
1038.858	-1617
1038.921	-654
1038.984	-678
1039.046	-1509
1039.109	-1931
1039.172	-1540
1039.234	-1723
1039.297	-2087
1039.360	-1693
1039.422	-2180
1039.485	-1699
1039.547	-2081
1039.610	-1231
1039.672	-1768
1039.734	-1771
1039.797	-1563
1039.859	-2096
1039.922	-2309
1039.984	-1584
1040.046	-2040
1040.109	-2159
1040.171	-1469
1040.233	-1594
1040.295	-2225
1040.358	-1756
1040.420	-1133
1040.482	-2187
1040.544	-1129
1040.606	-1498
1040.668	-1583
1040.730	-1897
1040.792	-1004
1040.854	-1786
1040.916	-1811
1040.978	-1661
1041.040	-1274
1041.102	-2460
1041.164	-1573
1041.225	-1910
1041.287	-1565
1041.349	-1779
1041.411	-1769
1041.472	-2088
1041.534	-958
1041.596	-2040
1041.657	-1275
1041.719	-1685
1041.781	-1716
1041.842	-2420
1041.904	-1344
1041.965	-1539
1042.027	-2247
1042.088	-1994
1042.150	-1545
1042.211	-2385
1042.272	-2159
1042.334	-2707
1042.395	-1945
1042.456	-2261
1042.518	-1521
1042.579	-790
1042.640	-2228
1042.701	-2356
1042.763	-2278
1042.824	-1551
1042.885	-1712
1042.946	-2013
1043.007	-1836
1043.068	-1687
1043.129	-1219
1043.190	-2619
1043.251	-1648
1043.312	-2063
1043.373	-1126
1043.434	-2174
1043.495	-1485
1043.556	-1972
1043.616	-1842
1043.677	-1638
1043.738	-1639
1043.799	-2764
1043.859	-1279
1043.920	-1933
1043.981	-1352
1044.041	-1781
1044.102	-1075
1044.162	-2181
1044.223	-1535
1044.284	-1817
1044.344	-1108
1044.405	-1865
1044.465	-889
1044.525	-1953
1044.586	-1764
1044.646	-2088
1044.707	-1024
1044.767	-1646
1044.827	-1473
1044.887	-1902
1044.948	-1345
1045.008	-1617
1045.068	-1676
1045.128	-1938
1045.188	-1334
1045.249	-1808
1045.309	-1647
1045.369	-1556
1045.429	-881
1045.489	-2177
1045.549	-1053
1045.609	-2380
1045.669	-1092
1045.729	-1730
1045.789	-2511
1045.848	-1873
1045.908	-1242
1045.968	-1505
1046.028	-1280
1046.088	-1674
1046.147	-1264
1046.207	-1918
1046.267	-836
1046.326	-1358
1046.386	-1235
1046.446	-1027
1046.505	-1050
1046.565	-584
1046.624	-640
1046.684	-348
1046.743	-306
1046.803	-498
1046.862	572
1046.922	0
