'Start Wavelength	183.907
'End Wavelength	1046.922
'Gate Delay	5.000
'Gate Width (ms)	1.050
'Laser Output Level	0.000
'X Position	0.000
'Y Position	0.000
'Z Position	0.000
'Grid Point Number	1.000
'Shot Number	100.000
183.907	150.000
183.977	229.000
184.047	-1072
184.116	635
184.186	467
184.256	594
184.325	-536
184.395	-442
184.465	639
184.534	-758
184.604	-361
184.674	-475
184.743	-501
184.813	1354
184.883	-46
184.952	-389
185.022	-555
185.092	-395
185.161	-483
185.231	-505
185.301	153
185.370	333
185.440	-1033
185.509	-326
185.579	47
185.649	281
185.718	-21
185.788	824
185.857	-426
185.927	-577
185.996	-108
186.066	396
186.136	44
186.205	60
186.275	-718
186.344	109
186.414	360
186.483	-668
186.553	558
186.622	629
186.692	-565
186.761	570
186.831	-145
186.900	-118
186.970	399
187.039	-369
187.109	483
187.178	84
187.248	82
187.317	91
187.387	-122
187.456	480
187.526	-315
187.595	670
187.664	-336
187.734	702
187.803	-483
187.873	-435
187.942	-505
188.012	348
188.081	-446
188.150	-341
188.220	60
188.289	-114
188.358	-713
188.428	617
188.497	-774
188.567	340
188.636	-486
188.705	-101
188.775	-174
188.844	-1332
188.913	173
188.983	112
189.052	-401
189.121	-462
189.191	191
189.260	587
189.329	-70
189.399	-509
189.468	-138
189.537	49
189.606	488
189.676	300
189.745	-1103
189.814	336
189.883	-375
189.953	469
190.022	-537
190.091	491
190.161	470
190.230	-245
190.299	-829
190.368	-180
190.437	-211
190.507	-118
190.576	-586
190.645	323
190.714	-1074
190.783	-150
190.853	347
190.922	408
190.991	178
191.060	961
191.129	-664
191.198	470
191.268	-575
191.337	506
191.406	136
191.475	-158
191.544	-776
191.613	-108
191.682	-314
191.752	-184
191.821	-419
191.890	-608
191.959	-223
192.028	-255
192.097	-81
192.166	-22
192.235	-443
192.304	568
192.373	153
192.442	-22
192.511	173
192.580	-452
192.650	-5
192.719	-28
192.788	-333
192.857	-2
192.926	-911
192.995	249
193.064	-199
193.133	848
193.202	151
193.271	288
193.340	504
193.409	582
193.478	-104
193.547	366
193.615	1122
193.684	911
193.753	675
193.822	635
193.891	78
193.960	711
194.029	-150
194.098	219
194.167	-772
194.236	465
194.305	-696
194.374	-181
194.443	-30
194.512	216
194.580	36
194.649	813
194.718	343
194.787	109
194.856	-617
194.925	337
194.994	-345
195.062	530
195.131	195
195.200	423
195.269	-64
195.338	1283
195.407	72
195.475	-660
195.544	502
195.613	769
195.682	-78
195.751	-497
195.819	-212
195.888	829
195.957	1078
196.026	454
196.094	888
196.163	721
196.232	968
196.301	127
196.369	127
196.438	614
196.507	205
196.576	-17
196.644	409
196.713	-2
196.782	-113
196.850	1032
196.919	-200
196.988	252
197.056	-140
197.125	797
197.194	115
197.262	737
197.331	-148
197.400	-507
197.468	-68
197.537	-186
197.606	228
197.674	263
197.743	841
197.812	-43
197.880	547
197.949	-542
198.017	59
198.086	242
198.155	978
198.223	-409
198.292	-357
198.360	167
198.429	-567
198.497	967
198.566	-201
198.635	1421
198.703	-166
198.772	645
198.840	406
198.909	734
198.977	270
199.046	398
199.114	-582
199.183	781
199.251	512
199.320	-371
199.388	453
199.457	-245
199.525	197
199.594	221
199.662	595
199.731	66
199.799	50
199.867	871
199.936	-799
200.004	404
200.073	797
200.141	-134
200.210	-230
200.278	396
200.346	-340
200.415	-350
200.483	174
200.552	430
200.620	-17
200.688	147
200.757	-583
200.825	111
200.893	101
200.962	511
201.030	225
201.098	48
201.167	-73
201.235	373
201.303	106
201.372	108
201.440	-410
201.508	288
201.577	27
201.645	99
201.713	-359
201.781	681
201.850	613
201.918	64
201.986	935
202.055	602
202.123	350
202.191	57
202.259	36
202.327	-122
202.396	39
202.464	-312
202.532	-139
202.600	1463
202.669	335
202.737	338
202.805	-153
202.873	7
202.941	162
203.009	-52
203.078	494
203.146	337
203.214	426
203.282	-248
203.350	179
203.418	599
203.487	215
203.555	163
203.623	759
203.691	94
203.759	-647
203.827	442
203.895	-133
203.963	224
204.031	-318
204.099	384
204.168	-782
204.236	575
204.304	213
204.372	-264
204.440	-327
204.508	207
204.576	-50
204.644	935
204.712	121
204.780	106
204.848	33
204.916	-385
204.984	-558
205.052	472
205.120	275
205.188	463
205.256	135
205.324	-279
205.392	-140
205.460	-7
205.528	-117
205.596	987
205.664	969
205.732	-289
205.799	676
205.867	1776
205.935	-851
206.003	1790
206.071	485
206.139	-216
206.207	-75
206.275	-174
206.343	297
206.411	636
206.478	-53
206.546	257
206.614	467
206.682	767
206.750	-404
206.818	892
206.885	608
206.953	-1032
207.021	939
207.089	11
207.157	-471
207.225	382
207.292	-150
207.360	817
207.428	283
207.496	52
207.563	476
207.631	677
207.699	-294
207.767	-259
207.834	-626
207.902	817
207.970	102
208.038	456
208.105	-178
208.173	564
208.241	386
208.309	767
208.376	128
208.444	1384
208.512	152
208.579	-485
208.647	762
208.715	1325
208.782	298
208.850	856
208.918	40
208.985	336
209.053	482
209.120	990
209.188	-907
209.256	341
209.323	-158
209.391	605
209.459	1018
209.526	616
209.594	-86
209.661	928
209.729	573
209.796	211
209.864	727
209.932	-46
209.999	858
210.067	699
210.134	163
210.202	1101
210.269	474
210.337	1580
210.404	66
210.472	932
210.539	1293
210.607	656
210.674	1150
210.742	1197
210.809	319
210.877	286
210.944	1194
211.012	38
211.079	2040
211.146	256
211.214	384
211.281	-257
211.349	410
211.416	859
211.484	760
211.551	436
211.618	558
211.686	815
211.753	-198
211.821	1033
211.888	288
211.955	952
212.023	-578
212.090	612
212.157	1151
212.225	620
212.292	902
212.359	2048
212.427	4212
212.494	2109
212.561	713
212.629	862
212.696	973
212.763	1493
212.831	1117
212.898	201
212.965	226
213.032	854
213.100	1124
213.167	639
213.234	1509
213.301	99
213.369	936
213.436	1010
213.503	224
213.570	1104
213.638	408
213.705	314
213.772	45
213.839	803
213.906	1577
213.973	937
214.041	-482
214.108	344
214.175	1219
214.242	1056
214.309	1018
214.376	964
214.444	366
214.511	537
214.578	726
214.645	573
214.712	728
214.779	1265
214.846	282
214.913	1105
214.980	700
215.048	622
215.115	1717
215.182	1492
215.249	840
215.316	267
215.383	692
215.450	792
215.517	356
215.584	1519
215.651	-481
215.718	736
215.785	485
215.852	365
215.919	1037
215.986	989
216.053	923
216.120	235
216.187	656
216.254	1303
216.321	878
216.388	1087
216.455	214
216.522	354
216.589	1003
216.656	2106
216.722	1697
216.789	1484
216.856	1405
216.923	1560
216.990	2118
217.057	555
217.124	994
217.191	1392
217.258	2707
217.324	1566
217.391	1768
217.458	1488
217.525	1145
217.592	1114
217.659	76
217.725	1718
217.792	784
217.859	1611
217.926	704
217.993	662
218.059	323
218.126	450
218.193	294
218.260	1163
218.327	4
218.393	565
218.460	-405
218.527	-304
218.594	325
218.660	906
218.727	1731
218.794	88
218.860	403
218.927	595
218.994	274
219.061	442
219.127	1429
219.194	527
219.261	587
219.327	203
219.394	599
219.461	26
219.527	703
219.594	610
219.661	627
219.727	22
219.794	809
219.860	409
219.927	235
219.994	1338
220.060	1969
220.127	1823
220.193	1398
220.260	871
220.326	1894
220.393	2584
220.460	3193
220.526	1857
220.593	793
220.659	3265
220.726	1370
220.792	3638
220.859	2451
220.925	4889
220.992	6155
221.058	5571
221.125	4104
221.191	2951
221.258	1424
221.324	1634
221.391	1336
221.457	713
221.524	831
221.590	1520
221.657	3123
221.723	990
221.789	1682
221.856	2352
221.922	393
221.989	1279
222.055	766
222.121	162
222.188	1782
222.254	669
222.321	545
222.387	741
222.453	314
222.520	600
222.586	-684
222.652	964
222.719	-170
222.785	880
222.851	-158
222.918	437
222.984	-472
223.050	190
223.116	-771
223.183	1535
223.249	-449
223.315	335
223.382	228
223.448	175
223.514	-509
223.580	955
223.647	258
223.713	-687
223.779	-82
223.845	517
223.911	108
223.978	-353
224.044	308
224.110	294
224.176	-491
224.242	132
224.309	-593
224.375	1141
224.441	-97
224.507	-202
224.573	-781
224.639	69
224.705	-568
224.772	154
224.838	-334
224.904	854
224.970	301
225.036	57
225.102	-382
225.168	1324
225.234	472
225.300	401
225.366	-240
225.432	163
225.499	724
225.565	38
225.631	429
225.697	518
225.763	634
225.829	1864
225.895	876
225.961	1405
226.027	1005
226.093	462
226.159	2203
226.225	2627
226.291	6328
226.357	10358
226.423	5582
226.489	3725
226.554	2267
226.620	1751
226.686	2198
226.752	4215
226.818	6193
226.884	11755
226.950	10374
227.016	4484
227.082	3057
227.148	1730
227.214	1939
227.279	1123
227.345	869
227.411	1621
227.477	1720
227.543	2632
227.609	3219
227.674	2484
227.740	693
227.806	781
227.872	726
227.938	295
228.003	1282
228.069	283
228.135	-56
228.201	1332
228.267	-63
228.332	269
228.398	-210
228.464	1519
228.530	-455
228.595	22
228.661	82
228.727	1116
228.792	1532
228.858	168
228.924	-2066
228.990	1843
229.055	-233
229.121	1470
229.187	352
229.252	538
229.318	-261
229.384	544
229.449	-10
229.515	-1243
229.581	-350
229.646	1824
229.712	-49
229.777	1663
229.843	1215
229.909	1670
229.974	853
230.040	952
230.105	1146
230.171	49
230.236	1701
230.302	2292
230.368	1279
230.433	521
230.499	1134
230.564	574
230.630	-334
230.695	201
230.761	470
230.826	-780
230.892	1579
230.957	280
231.023	195
231.088	150
231.154	-191
231.219	1081
231.284	232
231.350	1473
231.415	487
231.481	663
231.546	255
231.612	212
231.677	-646
231.742	-704
231.808	1833
231.873	536
231.939	-1343
232.004	1841
232.069	1190
232.135	229
232.200	655
232.265	290
232.331	-675
232.396	438
232.461	-138
232.527	-259
232.592	-1150
232.657	730
232.723	351
232.788	438
232.853	-125
232.918	327
232.984	-817
233.049	-367
233.114	-1042
233.179	251
233.245	1190
233.310	1636
233.375	-358
233.440	400
233.506	-113
233.571	-336
233.636	3
233.701	330
233.766	365
233.832	1373
233.897	-329
233.962	-144
234.027	1803
234.092	610
234.157	139
234.222	462
234.288	506
234.353	2666
234.418	3098
234.483	1768
234.548	1402
234.613	1140
234.678	200
234.743	416
234.808	3652
234.873	1186
234.938	2342
235.004	900
235.069	-398
235.134	529
235.199	-254
235.264	846
235.329	-1498
235.394	1265
235.459	911
235.524	471
235.589	-96
235.654	379
235.719	-475
235.784	1269
235.849	273
235.913	1526
235.978	1531
236.043	1996
236.108	875
236.173	502
236.238	1019
236.303	388
236.368	47
236.433	2110
236.498	1691
236.563	2085
236.627	4293
236.692	14462
236.757	13104
236.822	5751
236.887	2642
236.952	2873
237.017	1914
237.081	2856
237.146	2777
237.211	7605
237.276	15067
237.341	20825
237.405	11253
237.470	5245
237.535	2560
237.600	2221
237.664	1726
237.729	647
237.794	1270
237.859	5663
237.923	2524
237.988	826
238.053	2268
238.118	1383
238.182	4146
238.247	4114
238.312	1295
238.376	1609
238.441	-238
238.506	2470
238.570	-1059
238.635	1051
238.700	798
238.764	1084
238.829	2155
238.893	1430
238.958	1618
239.023	750
239.087	-94
239.152	417
239.216	320
239.281	915
239.346	924
239.410	1342
239.475	372
239.539	3903
239.604	2379
239.668	1952
239.733	339
239.797	1645
239.862	4949
239.926	4821
239.991	2223
240.055	1177
240.120	335
240.184	881
240.249	-177
240.313	284
240.378	853
240.442	2527
240.507	3725
240.571	749
240.635	761
240.700	2131
240.764	716
240.829	1086
240.893	-1230
240.957	1377
241.022	1822
241.086	3986
241.151	849
241.215	-350
241.279	1658
241.344	1360
241.408	1403
241.472	136
241.537	2415
241.601	1660
241.665	57
241.730	453
241.794	1115
241.858	524
241.922	138
241.987	1392
242.051	569
242.115	154
242.179	-44
242.244	511
242.308	1460
242.372	687
242.436	329
242.501	452
242.565	-239
242.629	212
242.693	923
242.757	-287
242.822	-52
242.886	1124
242.950	1144
243.014	145
243.078	588
243.142	1362
243.206	844
243.271	1177
243.335	-152
243.399	2275
243.463	4962
243.527	16332
243.591	4571
243.655	1550
243.719	101
243.783	2147
243.847	1715
243.911	3356
243.975	3587
244.040	2203
244.104	2214
244.168	1322
244.232	1575
244.296	3235
244.360	2558
244.424	889
244.488	1493
244.552	1242
244.615	-1048
244.679	1025
244.743	1481
244.807	307
244.871	442
244.935	1276
244.999	-537
245.063	1314
245.127	1416
245.191	1586
245.255	1516
245.319	1953
245.383	191
245.446	2282
245.510	467
245.574	1107
245.638	637
245.702	369
245.766	3189
245.829	2520
245.893	-777
245.957	698
246.021	1460
246.085	1050
246.149	1042
246.212	5185
246.276	6478
246.340	2575
246.404	1969
246.467	1984
246.531	871
246.595	2549
246.659	2091
246.722	157
246.786	2456
246.850	2630
246.913	2673
246.977	-550
247.041	1022
247.104	984
247.168	687
247.232	3833
247.295	8421
247.359	5095
247.423	719
247.486	3937
247.550	2049
247.614	1403
247.677	2785
247.741	809
247.804	1423
247.868	2294
247.932	2759
247.995	9302
248.059	2718
248.122	438
248.186	2830
248.249	3743
248.313	12641
248.376	15902
248.440	8563
248.503	2169
248.567	4252
248.630	3833
248.694	6170
248.757	8574
248.821	14569
248.884	10540
248.948	7119
249.011	12316
249.075	16233
249.138	15860
249.202	5551
249.265	3889
249.328	4673
249.392	2609
249.455	3153
249.519	1893
249.582	2295
249.645	4279
249.709	3890
249.772	2758
249.835	2699
249.899	2002
249.962	1437
250.025	1948
250.089	4346
250.152	9152
250.215	3851
250.279	2578
250.342	2278
250.405	1537
250.468	1666
250.532	3065
250.595	5554
250.658	14090
250.721	25462
250.785	10514
250.848	5653
250.911	3122
250.974	2933
251.038	3700
251.101	8284
251.164	4951
251.227	4877
251.290	4870
251.354	5976
251.417	20559
251.480	21933
251.543	15299
251.606	36632
251.669	30852
251.732	12313
251.795	13170
251.859	12295
251.922	25179
251.985	16174
252.048	7032
252.111	5064
252.174	3692
252.237	8274
252.300	18682
252.363	18486
252.426	33201
252.489	14045
252.552	8104
252.615	4772
252.678	5276
252.741	12526
252.804	14610
252.867	33276
252.930	21485
252.993	11494
253.056	6635
253.119	4561
253.182	3260
253.245	6148
253.308	5670
253.371	3935
253.434	4573
253.497	4108
253.559	8402
253.622	5457
253.685	7270
253.748	8517
253.811	3543
253.874	4694
253.937	3030
254.000	3390
254.062	5659
254.125	8725
254.188	9362
254.251	7709
254.314	3385
254.376	5753
254.439	7261
254.502	5885
254.565	5848
254.628	11978
254.690	5619
254.753	2994
254.816	2885
254.878	2373
254.941	6357
255.004	6053
255.067	2340
255.129	2766
255.192	1932
255.255	659
255.317	2159
255.380	638
255.443	785
255.505	724
255.568	138
255.631	649
255.693	1934
255.756	360
255.819	1562
255.881	-107
255.944	789
256.006	-86
256.069	446
256.132	965
256.194	1573
256.257	3411
256.319	1855
256.382	2119
256.444	2241
256.507	2218
256.569	401
256.632	1526
256.694	2385
256.757	7779
256.819	26240
256.882	10520
256.944	4452
257.007	3123
257.069	3210
257.132	1927
257.194	2405
257.257	938
257.319	1671
257.381	1845
257.444	6503
257.506	26907
257.569	35311
257.631	17194
257.693	8780
257.756	2919
257.818	2192
257.880	1420
257.943	3284
258.005	298
258.067	1069
258.130	1233
258.192	798
258.254	3218
258.317	2445
258.379	1272
258.441	5248
258.503	4814
258.566	3480
258.628	6141
258.690	766
258.753	1289
258.815	4353
258.877	1539
258.939	1122
259.001	1826
259.064	1113
259.126	999
259.188	1728
259.250	1051
259.312	1987
259.375	6745
259.437	4409
259.499	1252
259.561	1280
259.623	1600
259.685	428
259.747	1849
259.809	3754
259.872	7488
259.934	12082
259.996	13704
260.058	4938
260.120	352
260.182	298
260.244	368
260.306	569
260.368	948
260.430	446
260.492	3570
260.554	8272
260.616	4139
260.678	6868
260.740	8400
260.802	2428
260.864	2238
260.926	779
260.988	1852
261.050	1692
261.112	5258
261.174	12178
261.236	7149
261.298	2737
261.359	2921
261.421	4772
261.483	491
261.545	2326
261.607	-791
261.669	1337
261.731	1839
261.793	6638
261.854	3202
261.916	2692
261.978	1344
262.040	2318
262.102	1009
262.164	1243
262.225	1831
262.287	1145
262.349	3821
262.411	4000
262.472	1332
262.534	1492
262.596	3322
262.658	1269
262.719	6
262.781	1355
262.843	3899
262.904	2585
262.966	1880
263.028	1620
263.090	8994
263.151	26099
263.213	9696
263.275	6583
263.336	1485
263.398	1930
263.459	-250
263.521	799
263.583	3742
263.644	3876
263.706	859
263.767	97
263.829	780
263.891	443
263.952	-369
264.014	45
264.075	1829
264.137	8301
264.198	2579
264.260	647
264.321	266
264.383	3421
264.444	12554
264.506	3429
264.567	1323
264.629	4279
264.690	9347
264.752	3408
264.813	1394
264.875	-162
264.936	1387
264.998	726
265.059	779
265.120	1731
265.182	2153
265.243	13410
265.305	15767
265.366	3395
265.427	869
265.489	1622
265.550	-569
265.611	1504
265.673	180
265.734	1428
265.795	1360
265.857	951
265.918	705
265.979	4651
266.040	21587
266.102	22011
266.163	5012
266.224	4737
266.286	1642
266.347	-212
266.408	950
266.469	1154
266.530	668
266.592	85
266.653	3041
266.714	5174
266.775	824
266.836	697
266.898	341
266.959	2227
267.020	1271
267.081	2035
267.142	-299
267.203	1025
267.264	-852
267.326	567
267.387	365
267.448	604
267.509	1258
267.570	888
267.631	-56
267.692	-116
267.753	-924
267.814	-682
267.875	1321
267.936	6007
267.997	2576
268.058	3620
268.119	922
268.180	1154
268.241	-218
268.302	657
268.363	-211
268.424	174
268.485	223
268.546	70
268.607	74
268.668	-212
268.729	-677
268.790	626
268.851	662
268.912	3241
268.972	4569
269.033	2366
269.094	289
269.155	690
269.216	-266
269.277	293
269.338	353
269.398	1145
269.459	1106
269.520	1974
269.581	3023
269.642	2835
269.702	2002
269.763	904
269.824	-459
269.885	1429
269.945	2727
270.006	1621
270.067	-572
270.128	132
270.188	443
270.249	106
270.310	-398
270.370	972
270.431	-365
270.492	-151
270.553	171
270.613	2324
270.674	5744
270.734	1845
270.795	924
270.856	2129
270.916	683
270.977	855
271.038	923
271.098	1093
271.159	2693
271.219	2723
271.280	938
271.340	912
271.401	108
271.462	2865
271.522	985
271.583	304
271.643	1075
271.704	263
271.764	1020
271.825	3629
271.885	14376
271.946	20615
272.006	6442
272.066	7686
272.127	15203
272.187	4861
272.248	3233
272.308	1955
272.369	9079
272.429	5516
272.489	3539
272.550	4408
272.610	4766
272.671	4379
272.731	2680
272.791	4555
272.852	2400
272.912	2678
272.972	815
273.033	802
273.093	1315
273.153	2968
273.214	1254
273.274	1259
273.334	7348
273.394	15658
273.455	5241
273.515	5407
273.575	13668
273.635	6172
273.696	5327
273.756	12733
273.816	5109
273.876	2567
273.936	4007
273.997	8968
274.057	2325
274.117	1703
274.177	3096
274.237	18084
274.297	14975
274.358	8558
274.418	10694
274.478	9435
274.538	2863
274.598	1752
274.658	6689
274.718	8564
274.778	2953
274.838	2115
274.898	2915
274.958	11263
275.018	12531
275.078	9359
275.138	3342
275.198	2534
275.258	419
275.318	1733
275.378	3379
275.438	5252
275.498	2413
275.558	4517
275.618	12187
275.678	10352
275.738	6029
275.798	4986
275.858	2360
275.918	748
275.978	1591
276.038	1815
276.098	540
276.157	2966
276.217	12136
276.277	4416
276.337	3565
276.397	1200
276.457	1814
276.517	889
276.576	1077
276.636	507
276.696	1252
276.756	6589
276.815	3949
276.875	2018
276.935	1408
276.995	2001
277.055	535
277.114	1383
277.174	1223
277.234	8911
277.293	2378
277.353	1663
277.413	735
277.472	1445
277.532	756
277.592	1794
277.651	4618
277.711	10758
277.771	3257
277.830	14286
277.890	11480
277.950	5849
278.009	19876
278.069	8258
278.128	7395
278.188	11438
278.248	4634
278.307	11926
278.367	6876
278.426	2787
278.486	923
278.545	872
278.605	-314
278.664	238
278.724	767
278.783	3795
278.843	14374
278.902	3763
278.962	1632
279.021	2454
279.081	1768
279.140	2076
279.199	2193
279.259	2762
279.318	2259
279.378	3510
279.437	5735
279.496	21824
279.556	47421
279.615	38279
279.675	9921
279.734	5757
279.793	10190
279.853	19094
279.912	7510
279.971	4049
280.031	2956
280.090	7799
280.149	14413
280.208	7278
280.268	31838
280.327	35432
280.386	7198
280.445	7888
280.505	7076
280.564	2322
280.623	1458
280.682	4755
280.742	8360
280.801	2853
280.860	1376
280.919	1062
280.978	406
281.037	616
281.097	98
281.156	1401
281.215	252
281.274	763
281.333	8551
281.392	6717
281.451	1501
281.510	1120
281.569	434
281.628	269
281.688	325
281.747	1482
281.806	1339
281.865	444
281.924	141
281.983	1077
282.042	157
282.101	789
282.160	-536
282.219	406
282.278	-122
282.337	5690
282.396	2793
282.454	1255
282.513	1221
282.572	9971
282.631	4955
282.690	1269
282.749	-171
282.808	1229
282.867	362
282.926	1300
282.985	564
283.043	468
283.102	355
283.161	1157
283.220	3078
283.279	10522
283.338	2046
283.396	1372
283.455	1040
283.514	795
283.573	3234
283.631	1794
283.690	98
283.749	1205
283.808	2578
283.866	5702
283.925	657
283.984	720
284.043	1547
284.101	1840
284.160	658
284.219	2825
284.277	1242
284.336	2978
284.395	11902
284.453	9523
284.512	2769
284.570	4629
284.629	2532
284.688	2424
284.746	2153
284.805	3185
284.863	4529
284.922	5716
284.981	7394
285.039	10331
285.098	18029
285.156	41092
285.215	73113
285.273	73790
285.332	48372
285.390	25383
285.449	13801
285.507	9042
285.566	5761
285.624	4722
285.683	3424
285.741	2839
285.799	2212
285.858	1677
285.916	1780
285.975	1615
286.033	1339
286.091	413
286.150	1190
286.208	1461
286.267	1300
286.325	1496
286.383	2852
286.442	2082
286.500	989
286.558	723
286.616	651
286.675	1486
286.733	1682
286.791	920
286.850	711
286.908	2171
286.966	4325
287.024	1252
287.083	-209
287.141	463
287.199	1792
287.257	2261
287.315	1205
287.374	911
287.432	5348
287.490	3474
287.548	1644
287.606	662
287.664	180
287.723	2018
287.781	2668
287.839	1423
287.897	1580
287.955	2919
288.013	3716
288.071	7469
288.129	29148
288.187	89165
288.245	43360
288.303	12539
288.361	7505
288.419	4218
288.477	2699
288.535	2588
288.593	1513
288.651	1463
288.709	1258
288.767	1121
288.825	-40
288.883	148
288.941	-15
288.999	-44
289.057	-493
289.115	-69
289.173	-557
289.231	729
289.289	-312
289.346	-73
289.404	738
289.462	1855
289.520	2102
289.578	1397
289.636	139
289.694	886
289.751	293
289.809	-221
289.867	94
289.925	1806
289.983	1349
290.040	540
290.098	-464
290.156	354
290.214	819
290.271	250
290.329	630
290.387	80
290.444	-146
290.502	-298
290.560	-32
290.617	386
290.675	308
290.733	233
290.790	268
290.848	669
290.906	-175
290.963	874
291.021	9
291.078	286
291.136	665
291.194	4717
291.251	12549
291.309	2634
291.366	1511
291.424	-171
291.481	624
291.539	760
291.596	-217
291.654	225
291.711	-483
291.769	412
291.826	2731
291.884	1490
291.941	759
291.999	769
292.056	671
292.114	1805
292.171	637
292.228	558
292.286	375
292.343	2679
292.401	3522
292.458	2142
292.515	904
292.573	2311
292.630	1473
292.687	-248
292.745	-137
292.802	1645
292.859	6565
292.917	11309
292.974	6528
293.031	1981
293.089	-379
293.146	771
293.203	462
293.260	708
293.318	1378
293.375	3244
293.432	1843
293.489	839
293.546	663
293.604	1596
293.661	3935
293.718	16131
293.775	9802
293.832	3525
293.889	2038
293.947	2448
294.004	1621
294.061	2604
294.118	3808
294.175	10922
294.232	15960
294.289	5588
294.346	1651
294.403	2093
294.460	776
294.517	615
294.574	382
294.631	1118
294.688	1254
294.745	4529
294.802	19118
294.859	26139
294.916	9631
294.973	4284
295.030	2383
295.087	3108
295.144	1952
295.201	1870
295.258	777
295.315	1824
295.372	5921
295.429	13613
295.486	5685
295.542	3712
295.599	9476
295.656	20087
295.713	11303
295.770	14600
295.827	4592
295.883	2040
295.940	1464
295.997	4097
296.054	4033
296.111	2357
296.167	923
296.224	720
296.281	173
296.338	795
296.394	47
296.451	1379
296.508	5152
296.564	12050
296.621	8738
296.678	14554
296.734	22058
296.791	9209
296.848	4322
296.904	3620
296.961	9872
297.018	15548
297.074	12604
297.131	4875
297.187	3097
297.244	3473
297.301	11512
297.357	24761
297.414	8275
297.470	3503
297.527	2063
297.583	2038
297.640	1740
297.696	1522
297.753	472
297.809	493
297.866	36
297.922	-360
297.979	1017
298.035	531
298.092	1913
298.148	7836
298.204	7822
298.261	3684
298.317	6195
298.374	17897
298.430	9730
298.486	4245
298.543	2522
298.599	2832
298.656	2947
298.712	4967
298.768	14089
298.824	9651
298.881	2784
298.937	1841
298.993	1379
299.050	2233
299.106	2211
299.162	1302
299.218	1821
299.275	1861
299.331	1462
299.387	3813
299.443	15394
299.500	19431
299.556	6942
299.612	3189
299.668	2685
299.724	4098
299.780	4066
299.837	2834
299.893	3713
299.949	14353
300.005	17738
300.061	13492
300.117	25478
300.173	12856
300.229	4349
300.285	5643
300.341	7145
300.397	3721
300.453	1369
300.510	1362
300.566	1877
300.622	2876
300.678	9496
300.734	19163
300.790	14410
300.845	16347
300.901	10125
300.957	16740
301.013	11902
301.069	4935
301.125	3316
301.181	3093
301.237	2155
301.293	701
301.349	1398
301.405	1496
301.461	796
301.516	1485
301.572	2034
301.628	4390
301.684	4425
301.740	5485
301.796	10587
301.851	7231
301.907	12175
301.963	11442
302.019	15151
302.074	42003
302.130	45081
302.186	20414
302.242	8276
302.297	5430
302.353	4535
302.409	9329
302.464	8207
302.520	6101
302.576	15914
302.631	20051
302.687	11686
302.743	4569
302.798	1161
302.854	1566
302.910	2021
302.965	2745
303.021	5738
303.076	5386
303.132	7077
303.187	9111
303.243	3869
303.299	1766
303.354	1730
303.410	1489
303.465	736
303.521	513
303.576	1650
303.632	2249
303.687	3576
303.743	13530
303.798	12292
303.853	5078
303.909	3164
303.964	2261
304.020	3533
304.075	6276
304.130	5477
304.186	10474
304.241	11161
304.297	9427
304.352	4255
304.358	4034
304.407	2245
304.449	2326
304.463	2356
304.518	3541
304.539	2949
304.573	1988
304.629	2398
304.630	2412
304.684	3204
304.720	7946
304.739	10287
304.794	15859
304.811	13737
304.850	8648
304.902	3579
304.905	3253
304.960	2067
304.992	2290
305.015	2468
305.071	2334
305.083	2232
305.126	1843
305.173	1381
305.181	1315
305.236	832
305.264	1232
305.292	1626
305.347	2428
305.354	2507
305.402	2996
305.445	2635
305.457	2522
305.512	3759
305.535	3787
305.567	3840
305.622	3433
305.626	3522
305.678	6083
305.716	12998
305.733	15346
305.788	18080
305.807	15249
305.843	10952
305.897	14118
305.898	14135
305.953	15019
305.988	10234
306.008	7771
306.063	4934
306.078	4363
306.118	2960
306.168	1756
306.173	1661
306.228	1457
306.259	1550
306.283	1645
306.338	967
306.349	1186
306.393	2184
306.440	2435
306.448	2459
306.503	2849
306.530	2707
306.558	3325
306.613	8471
306.620	9066
306.668	12572
306.711	16310
306.723	16609
306.778	13255
306.801	10229
306.833	7110
306.888	3603
306.892	3517
306.943	2883
306.982	2016
306.997	1760
307.052	2206
307.072	2290
307.107	2700
307.162	3099
307.163	3115
307.217	5176
307.253	6463
307.272	6834
307.327	6857
307.343	6375
307.381	5376
307.434	4689
307.436	4815
307.491	9137
307.524	14187
307.546	15575
307.600	15584
307.614	13881
307.655	8754
307.704	5145
307.710	5039
307.765	5868
307.795	7186
307.819	8259
307.874	12810
307.885	12738
307.929	11143
307.975	9565
307.984	9900
308.038	15109
308.065	17924
308.093	29050
308.148	57897
308.156	64270
308.202	90770
308.246	106991
308.257	104818
308.312	63002
308.336	46344
308.366	35431
308.421	21555
308.426	20343
308.475	13374
308.517	9431
308.530	8694
308.585	7832
308.607	7398
308.639	7016
308.694	7567
308.697	7580
308.748	11352
308.787	16272
308.803	16370
308.857	13086
308.877	11301
308.912	10324
308.967	10472
308.967	10488
309.021	15315
309.058	18729
309.076	23802
309.130	41894
309.148	48800
309.185	76732
309.238	125316
309.239	125657
309.293	131641
309.328	121949
309.348	107790
309.402	59015
309.418	46488
309.457	33300
309.508	20417
309.511	20001
309.566	16243
309.598	14314
309.620	14461
309.674	16088
309.688	16717
309.729	16384
309.778	14326
309.783	14120
309.837	11101
309.868	10088
309.892	13147
309.946	21027
309.959	23537
310.001	29276
310.049	33882
310.055	32756
310.109	18974
310.139	11144
310.163	8767
310.218	5607
310.229	5040
310.272	4758
310.319	4860
310.326	4739
310.381	3678
310.409	3275
310.435	3171
310.489	2635
310.499	2611
310.543	3054
310.589	3379
310.598	3455
310.652	3991
310.679	4123
310.706	3699
310.760	3024
310.769	2884
310.814	2775
310.859	2742
310.868	2794
310.923	2900
310.948	3076
310.977	3400
311.031	3912
311.038	3975
311.085	3676
311.128	3229
311.139	3347
311.193	4009
311.218	4259
311.247	4090
311.301	3825
311.308	3764
311.356	3770
311.398	3916
311.410	3794
311.464	3032
311.488	2660
311.518	2795
311.572	3056
311.578	3080
311.626	4297
311.668	5339
311.680	5388
311.734	5493
311.758	5538
311.788	5375
311.842	5018
311.847	4968
311.896	7235
311.937	9201
311.950	8955
312.004	7726
312.027	7164
312.058	6090
312.112	4142
312.117	3940
312.165	4050
312.207	4131
312.297	6803
312.386	4918
312.476	4525
312.566	7908
312.656	4726
312.745	3478
312.835	4781
312.925	4385
313.015	3851
313.104	5124
313.194	3799
313.284	3769
313.374	5691
313.463	4768
313.553	4635
313.643	3991
313.732	3938
313.822	3324
313.912	4279
314.001	4784
314.091	5475
314.180	6913
314.270	6290
314.360	5768
314.449	4925
314.539	4025
314.628	3881
314.718	4219
314.808	5204
314.897	3981
314.987	4154
315.076	4625
315.166	5613
315.255	4702
315.345	5440
315.434	4915
315.524	5035
315.613	5074
315.703	6907
315.792	7425
315.881	11623
315.971	5518
316.060	8618
316.150	10156
316.239	9515
316.328	4633
316.418	3845
316.507	3751
316.597	5012
316.686	4924
316.775	6066
316.865	9740
316.954	3484
317.043	3909
317.133	3371
317.222	3288
317.311	3782
317.400	2822
317.490	5618
317.579	4908
317.668	3531
317.757	5516
317.847	8514
317.936	18985
318.025	13254
318.114	6965
318.203	5818
318.293	10195
318.382	19366
318.471	14328
318.560	21618
318.649	42113
318.738	9038
318.828	5956
318.917	5579
319.006	6697
319.095	16738
319.184	53006
319.273	23368
319.362	11573
319.451	4727
319.540	4746
319.629	10376
319.718	14740
319.807	7557
319.896	17670
319.985	60907
320.074	17017
320.163	6726
320.252	7799
320.341	10346
320.430	8444
320.519	8918
320.608	5177
320.697	5799
320.786	5144
320.875	6155
320.964	7035
321.053	10311
321.142	14331
321.230	14704
321.319	13565
321.408	29012
321.497	11718
321.586	11800
321.675	12145
321.764	12362
321.852	8450
321.941	16932
322.030	9664
322.119	13465
322.207	25658
322.296	18632
322.385	11552
322.474	12944
322.562	32331
322.651	15738
322.740	13418
322.829	17869
322.917	13806
323.006	10542
323.095	9296
323.183	7184
323.272	9670
323.361	15164
323.449	37620
323.538	12950
323.626	30779
323.715	15961
323.804	8742
323.892	27446
323.981	13412
324.069	6730
324.158	14974
324.246	11769
324.335	8023
324.424	9897
324.512	4963
324.601	7609
324.689	12880
324.778	19769
324.866	11784
324.954	4275
325.043	4097
325.131	6765
325.220	12466
325.308	12285
325.397	10476
325.485	7045
325.574	3991
325.662	4376
325.750	3498
325.839	4140
325.927	3563
326.015	4491
326.104	5778
326.192	6380
326.280	3225
326.369	3968
326.457	5382
326.545	8819
326.634	3377
326.722	2997
326.810	3293
326.898	4222
326.987	4070
327.075	7962
327.163	7641
327.251	4909
327.340	10601
327.428	12842
327.516	4516
327.604	3687
327.692	3895
327.781	4348
327.869	6023
327.957	4428
328.045	3796
328.133	3204
328.221	2994
328.309	4085
328.397	3898
328.485	4159
328.574	6207
328.662	17440
328.750	8518
328.838	4280
328.926	4157
329.014	3410
329.102	6183
329.190	15450
329.278	7381
329.366	3282
329.454	3607
329.542	3851
329.630	3619
329.718	4435
329.806	5480
329.893	7066
329.981	7958
330.069	15152
330.157	54292
330.245	108308
330.333	59286
330.421	15002
330.509	9178
330.597	21985
330.684	12923
330.772	7766
330.860	10411
330.948	15019
331.036	5991
331.123	3182
331.211	4427
331.299	5606
331.387	13097
331.475	18751
331.562	4627
331.650	4155
331.738	3099
331.825	4956
331.913	2611
332.001	2995
332.089	4158
332.176	7317
332.264	13994
332.352	10105
332.439	5454
332.527	4126
332.614	2719
332.702	3169
332.790	3310
332.877	7237
332.965	12023
333.052	3574
333.140	4186
333.228	7052
333.315	2885
333.403	3403
333.490	8699
333.578	5943
333.665	8308
333.753	5204
333.840	3712
333.928	5713
334.015	9608
334.103	18357
334.190	55569
334.278	14416
334.365	7005
334.452	6101
334.540	5098
334.627	5500
334.715	7428
334.802	11885
334.889	47384
334.977	40373
335.064	10019
335.151	6130
335.239	6389
335.326	8382
335.413	34211
335.501	37821
335.588	6355
335.675	6144
335.762	9419
335.850	14952
335.937	8684
336.024	20472
336.111	60666
336.199	25891
336.286	8348
336.373	5185
336.460	4044
336.547	4282
336.635	4451
336.722	4432
336.809	3878
336.896	6586
336.983	21616
337.070	48125
337.157	58352
337.245	32730
337.332	18481
337.419	4641
337.506	3805
337.593	5854
337.680	20072
337.767	51594
337.854	12934
337.941	15416
338.028	11162
338.115	5000
338.202	8568
338.289	11702
338.376	29499
338.463	11411
338.550	32400
338.637	28221
338.724	6996
338.811	9286
338.898	4086
338.984	3970
339.071	4648
339.158	4759
339.245	11332
339.332	6782
339.419	8623
339.506	6168
339.593	2513
339.679	3778
339.766	2430
339.853	4787
339.940	8204
340.027	3651
340.113	4428
340.200	4993
340.287	3799
340.374	4724
340.460	7210
340.547	2927
340.634	6243
340.720	19433
340.807	9151
340.894	3365
340.980	3102
341.067	3478
341.154	4494
341.240	4583
341.327	10160
341.414	4673
341.500	4373
341.587	4632
341.674	3468
341.760	6871
341.847	7800
341.933	3162
342.020	1899
342.106	2428
342.193	4076
342.279	5273
342.366	4211
342.452	6937
342.539	3261
342.625	9778
342.712	20062
342.798	8503
342.885	3695
342.971	2022
343.058	1915
343.144	2462
343.230	3868
343.317	2530
343.403	2490
343.490	2315
343.576	2453
343.662	2891
343.749	3064
343.835	3725
343.921	7482
344.008	36129
344.094	65970
344.180	14313
344.267	6331
344.353	21266
344.439	20846
344.525	10510
344.612	8727
344.698	9771
344.784	5361
344.870	2523
344.957	2360
345.043	4596
345.129	3614
345.215	7350
345.301	3922
345.387	2900
345.474	1983
345.560	2566
345.646	1715
345.732	3543
345.818	3307
345.904	3774
345.990	3433
346.076	3072
346.162	5342
346.249	4033
346.335	2857
346.421	3248
346.507	9695
346.593	28554
346.679	6093
346.765	3497
346.851	3053
346.937	2472
347.023	2941
347.108	3215
347.194	2972
347.280	3091
347.366	4049
347.452	10791
347.538	33751
347.624	26805
347.710	20757
347.796	4666
347.882	3170
347.967	3640
348.053	5226
348.139	4331
348.225	2521
348.311	2393
348.397	2096
348.482	4202
348.568	4797
348.654	2937
348.740	4683
348.825	4196
348.911	5714
348.997	18329
349.083	29394
349.168	5035
349.254	3622
349.340	3350
349.425	2452
349.511	3687
349.597	4562
349.682	8488
349.768	23193
349.854	9702
349.939	4014
350.025	2800
350.110	4135
350.196	2648
350.282	1651
350.367	2364
350.453	4228
350.538	3382
350.624	4445
350.709	4976
350.795	1969
350.880	2067
350.966	3780
351.051	3108
351.137	2365
351.222	4187
351.308	9291
351.393	21406
351.479	4878
351.564	2011
351.649	2148
351.735	2425
351.820	2240
351.906	2778
351.991	3761
352.076	14837
352.162	18695
352.247	4646
352.332	3580
352.418	6074
352.503	8795
352.588	32335
352.673	22043
352.759	5703
352.844	3192
352.929	4452
353.014	4168
353.100	4152
353.185	8845
353.270	9284
353.355	7141
353.441	4161
353.526	3378
353.611	7136
353.696	6657
353.781	6203
353.866	2022
353.952	2652
354.037	7159
354.122	14882
354.207	12063
354.292	5122
354.377	2371
354.462	3728
354.547	3703
354.632	4423
354.717	8321
354.802	9770
354.887	3387
354.972	3169
355.057	2113
355.142	1511
355.227	3623
355.312	5011
355.397	10446
355.482	21866
355.567	9518
355.652	9840
355.737	8826
355.822	25426
355.907	17876
355.991	5451
356.076	3229
356.161	2530
356.246	3045
356.331	3312
356.416	5805
356.501	38083
356.585	33409
356.670	6328
356.755	6054
356.840	8009
356.924	33439
357.009	86913
357.094	31018
357.179	8405
357.263	5709
357.348	6324
357.433	6443
357.517	5387
357.602	5404
357.687	3529
357.771	9384
357.856	21536
357.941	13235
358.025	24201
358.110	83486
358.195	37980
358.279	8389
358.364	5737
358.448	20447
358.533	50762
358.617	36205
358.702	34981
358.787	12479
358.871	8452
358.956	7315
359.040	2789
359.125	2684
359.209	3893
359.294	11366
359.378	17595
359.462	6904
359.547	5357
359.631	2605
359.716	1311
359.800	3540
359.885	6770
359.969	2846
360.053	3046
360.138	4002
360.222	4218
360.306	6757
360.391	6964
360.475	12004
360.559	23835
360.644	18139
360.728	13640
360.812	24418
360.896	53691
360.981	26628
361.065	15985
361.149	5831
361.233	4842
361.318	3715
361.402	4200
361.486	4904
361.570	3390
361.654	4291
361.739	9560
361.823	37593
361.907	51483
361.991	10384
362.075	8971
362.159	14385
362.243	12955
362.327	15236
362.411	18043
362.495	8607
362.580	5585
362.664	4823
362.748	4609
362.832	7278
362.916	13574
363.000	35414
363.084	64951
363.168	64672
363.252	17020
363.336	8140
363.420	11444
363.503	45193
363.587	47189
363.671	9041
363.755	7113
363.839	9992
363.923	4651
364.007	10142
364.091	11452
364.175	19847
364.258	73733
364.342	60266
364.426	64594
364.510	32018
364.594	17215
364.677	17291
364.761	48120
364.845	32527
364.929	14494
365.013	10656
365.096	9027
365.180	11285
365.264	20565
365.347	65241
365.431	29226
365.515	8961
365.598	3017
365.682	4927
365.766	10573
365.849	12151
365.933	4475
366.017	8368
366.100	6092
366.184	2388
366.267	3600
366.351	2469
366.435	2884
366.518	1859
366.602	3097
366.685	3386
366.769	3726
366.852	7982
366.936	12989
367.019	5933
367.103	7202
367.186	14764
367.270	4250
367.353	1616
367.436	3553
367.520	2409
367.603	3653
367.687	4778
367.770	7703
367.853	6607
367.937	17896
368.020	24575
368.104	5629
368.187	7659
368.270	10689
368.353	9073
368.437	9827
368.520	19698
368.603	13464
368.687	19923
368.770	33802
368.853	8631
368.936	12273
369.020	11921
369.103	4450
369.186	2970
369.269	2954
369.352	6189
369.436	8960
369.519	5317
369.602	2359
369.685	4540
369.768	3093
369.851	4584
369.934	2041
370.018	3857
370.101	6793
370.184	8554
370.267	5863
370.350	8647
370.433	14064
370.516	29082
370.599	29327
370.682	8791
370.765	22381
370.848	26093
370.931	40892
371.014	19063
371.097	4110
371.180	3845
371.263	2887
371.346	717
371.429	3479
371.511	2868
371.594	4777
371.677	10709
371.760	13928
371.843	9624
371.926	38410
372.009	73113
372.091	26243
372.174	17388
372.257	36837
372.340	14893
372.423	17233
372.505	21849
372.588	9188
372.671	14650
372.754	39620
372.836	19988
372.919	24282
373.002	42573
373.085	11705
373.167	8719
373.250	19867
373.332	37945
373.415	53699
373.498	90872
373.580	37015
373.663	49603
373.746	58508
373.828	15701
373.911	9062
373.993	10462
374.076	41363
374.159	36200
374.241	14692
374.324	37026
374.406	24190
374.489	32239
374.571	77748
374.654	32320
374.736	18585
374.819	48481
374.901	70474
374.983	65923
375.066	14009
375.148	7786
375.231	33937
375.313	60803
375.395	22323
375.478	5946
375.560	4269
375.643	5730
375.725	16366
375.807	58716
375.890	44987
375.972	18318
376.054	11921
376.136	15461
376.219	7413
376.301	20243
376.383	49815
376.465	19798
376.548	12311
376.630	17745
376.712	43935
376.794	19180
376.877	3739
376.959	2242
377.041	4085
377.123	11370
377.205	12968
377.287	3047
377.369	3021
377.452	3309
377.534	3123
377.616	2279
377.698	3284
377.780	1536
377.862	2756
377.944	4176
378.026	1968
378.108	3544
378.190	2461
378.272	2603
378.354	1607
378.436	2082
378.518	6294
378.600	19777
378.682	15277
378.764	27191
378.846	20600
378.928	7715
379.010	10075
379.091	6088
379.173	2914
379.255	2681
379.337	4001
379.419	13442
379.501	36450
379.583	14127
379.664	4430
379.746	8854
379.828	28611
379.910	35702
379.991	28790
380.073	4881
380.155	4948
380.237	3565
380.318	2858
380.400	1928
380.482	7088
380.564	8881
380.645	10866
380.727	8982
380.809	5917
380.890	4484
380.972	2714
381.053	3586
381.135	4184
381.217	9472
381.298	28246
381.380	13692
381.461	12821
381.543	45086
381.624	50487
381.706	11184
381.787	6989
381.869	8134
381.951	23209
382.032	69767
382.113	45500
382.195	11218
382.276	10010
382.358	20081
382.439	41047
382.521	45974
382.602	62793
382.684	31890
382.765	57345
382.846	53009
382.928	51751
383.009	28372
383.090	25335
383.172	80648
383.253	107210
383.334	46894
383.416	59846
383.497	30319
383.578	13300
383.659	22723
383.741	79852
383.822	165262
383.903	82419
383.984	43773
384.066	77802
384.147	48153
384.228	11208
384.309	8210
384.390	7085
384.471	5219
384.553	5754
384.634	7984
384.715	8358
384.796	4813
384.877	7299
384.958	24739
385.039	28831
385.120	11049
385.201	6105
385.282	8049
385.363	8993
385.444	6367
385.525	12532
385.606	33668
385.687	27855
385.768	10019
385.849	12241
385.930	41116
386.011	62336
386.092	18216
386.173	7379
386.254	5849
386.335	6607
386.416	5485
386.496	18674
386.577	28665
386.658	12492
386.739	6719
386.820	8269
386.901	7106
386.981	6973
387.062	4824
387.143	8467
387.224	27204
387.304	25640
387.385	10163
387.466	7239
387.547	10709
387.627	6736
387.708	12927
387.789	46774
387.869	48757
387.950	15276
388.031	5145
388.111	5248
388.192	14956
388.273	20578
388.353	10686
388.434	5870
388.514	10961
388.595	38195
388.676	50020
388.756	27131
388.837	25857
388.917	14578
388.998	3665
389.078	4551
389.159	4048
389.239	2674
389.320	6527
389.400	4420
389.480	13122
389.561	27120
389.641	13763
389.722	7162
389.802	8677
389.883	14006
389.963	31752
390.043	20362
390.124	7724
390.204	12775
390.284	30747
390.365	19848
390.445	30208
390.525	52131
390.605	38626
390.686	15669
390.766	7154
390.846	4931
390.927	2774
391.007	3478
391.087	5558
391.167	4765
391.247	2324
391.328	6180
391.408	10985
391.488	8967
391.568	2197
391.648	4404
391.728	7530
391.808	6272
391.888	6294
391.969	17144
392.049	24383
392.129	14039
392.209	15901
392.289	31637
392.369	19906
392.449	22668
392.529	12849
392.609	9860
392.689	11755
392.769	29395
392.849	25407
392.929	24782
393.009	48574
393.089	33689
393.169	30726
393.248	93896
393.328	290635
393.408	290088
393.488	88665
393.568	27796
393.648	14474
393.728	10203
393.807	7577
393.887	8620
393.967	7729
394.047	8623
394.127	10857
394.206	19886
394.286	63640
394.366	213603
394.446	220179
394.525	67219
394.605	19733
394.685	16286
394.764	33855
394.844	50571
394.924	33984
395.003	10121
395.083	6874
395.163	6441
395.242	5887
395.322	6476
395.402	4110
395.481	7731
395.561	21955
395.640	53217
395.720	43538
395.799	58439
395.879	45131
395.958	31900
396.038	97825
396.117	270345
396.197	285701
396.276	117124
396.356	44172
396.435	31400
396.515	19720
396.594	18635
396.673	30232
396.753	102587
396.832	264077
396.912	198548
396.991	52044
397.070	17451
397.150	9115
397.229	9507
397.308	12863
397.388	23060
397.467	12161
397.546	5585
397.625	2606
397.705	5691
397.784	5628
397.863	3295
397.942	2043
398.022	3864
398.101	17825
398.180	49494
398.259	26664
398.338	7942
398.417	4290
398.497	3602
398.576	4474
398.655	2259
398.734	3381
398.813	4085
398.892	16395
398.971	49606
399.050	23084
399.129	3120
399.208	2178
399.287	3623
399.366	1708
399.445	2597
399.524	2519
399.603	1732
399.682	4670
399.761	15579
399.840	50462
399.919	38602
399.998	5488
400.077	1808
400.156	1216
400.235	4543
400.313	2360
400.392	4072
400.471	16251
400.550	23160
400.629	5988
400.708	3956
400.786	4075
400.865	14756
400.944	13914
401.023	6950
401.102	1224
401.180	2002
401.259	2296
401.338	2485
401.416	4383
401.495	3119
401.574	3912
401.652	2529
401.731	4237
401.810	3889
401.888	2464
401.967	1566
402.046	1450
402.124	3665
402.203	3614
402.281	3331
402.360	5212
402.438	17168
402.517	11079
402.596	4817
402.674	3584
402.753	2192
402.831	2310
402.910	4603
402.988	14492
403.066	42588
403.145	24479
403.223	17432
403.302	38697
403.380	31729
403.459	32584
403.537	13906
403.615	5513
403.694	1616
403.772	2131
403.850	1678
403.929	1616
404.007	2302
404.085	8099
404.164	8607
404.242	5104
404.320	14756
404.398	41798
404.477	44128
404.555	62797
404.633	53978
404.711	34464
404.789	22231
404.868	6324
404.946	2607
405.024	1849
405.102	1183
405.180	1214
405.258	920
405.336	2168
405.415	1515
405.493	6769
405.571	6108
405.649	1434
405.727	1428
405.805	4087
405.883	3294
405.961	4172
406.039	5174
406.117	1163
406.195	4331
406.273	14605
406.351	49953
406.429	31380
406.507	6549
406.585	2636
406.663	2958
406.740	2490
406.818	1780
406.896	1921
406.974	3666
407.052	4747
407.130	31662
407.208	41213
407.285	8729
407.363	1777
407.441	1772
407.519	2067
407.596	2323
407.674	8154
407.752	24302
407.830	25345
407.907	11070
407.985	2725
408.063	2385
408.141	1893
408.218	5087
408.296	5219
408.373	3751
408.451	2339
408.529	2463
408.606	419
408.684	1921
408.762	719
408.839	728
408.917	581
408.994	1129
409.072	1135
409.149	1760
409.227	2696
409.304	3457
409.382	3726
409.459	3862
409.537	5762
409.614	6199
409.692	3811
409.769	3419
409.846	5431
409.924	7833
410.001	5682
410.079	4077
410.156	4378
410.233	3947
410.311	2972
410.388	2011
410.465	2398
410.543	2058
410.620	2336
410.697	1963
410.775	2637
410.852	208
410.929	3215
411.006	4215
411.083	2286
411.161	6333
411.238	7053
411.315	3630
411.392	1985
411.469	3986
411.547	3650
411.624	1063
411.701	1375
411.778	2575
411.855	3193
411.932	1466
412.009	1103
412.086	1770
412.163	1739
412.240	3379
412.317	4019
412.394	2698
412.471	1841
412.548	1205
412.625	982
412.702	2345
412.779	4916
412.856	4525
412.933	918
413.010	1735
413.087	2884
413.164	14032
413.241	18890
413.318	4339
413.395	3863
413.471	4296
413.548	2186
413.625	2896
413.702	1318
413.779	1588
413.855	683
413.932	231
414.009	307
414.086	1138
414.162	1292
414.239	3577
414.316	14428
414.393	28931
414.469	9105
414.546	964
414.623	1465
414.699	1262
414.776	2029
414.853	1325
414.929	1879
415.006	1124
415.082	2281
415.159	2187
415.236	1713
415.312	2118
415.389	2758
415.465	3847
415.542	1743
415.618	442
415.695	2569
415.771	1702
415.848	1537
415.924	1869
416.000	2076
416.077	1832
416.153	-550
416.230	-651
416.306	662
416.383	818
416.459	1637
416.535	477
416.612	1143
416.688	322
416.764	508
416.841	339
416.917	637
416.993	1244
417.069	1855
417.146	2847
417.222	4653
417.298	2669
417.374	778
417.451	1976
417.527	1515
417.603	2405
417.679	1198
417.755	1726
417.831	705
417.908	832
417.984	450
418.060	759
418.136	3222
418.212	4686
418.288	1547
418.364	1268
418.440	853
418.516	2725
418.592	4143
418.668	7737
418.744	9112
418.820	6801
418.896	1393
418.972	671
419.048	277
419.124	4444
419.200	2214
419.276	1466
419.352	-22
419.428	1666
419.504	1742
419.579	1727
419.655	1686
419.731	1917
419.807	5348
419.883	8623
419.959	5322
420.034	2773
420.110	5753
420.186	19279
420.262	14727
420.337	2927
420.413	2435
420.489	1759
420.565	1400
420.640	1928
420.716	1632
420.792	512
420.867	2437
420.943	1476
421.019	3236
421.094	2567
421.170	2324
421.245	1558
421.321	1946
421.397	2906
421.472	5749
421.548	13710
421.623	10483
421.699	3826
421.774	4818
421.850	4428
421.925	6354
422.001	6695
422.076	7002
422.152	9007
422.227	13081
422.302	17736
422.378	25897
422.453	47761
422.529	106457
422.604	209467
422.679	250010
422.755	214263
422.830	110466
422.905	48997
422.981	28087
423.056	17489
423.131	12879
423.207	10241
423.282	8145
423.357	9664
423.432	7534
423.508	8184
423.583	11332
423.658	8604
423.733	4278
423.808	4682
423.883	5304
423.959	3927
424.034	2976
424.109	3169
424.184	1279
424.259	1475
424.334	1849
424.409	1241
424.484	1817
424.559	2350
424.634	1518
424.709	2258
424.784	2260
424.859	2315
424.934	3556
425.009	13626
425.084	21213
425.159	7692
425.234	1796
425.309	1965
425.384	6774
425.459	9293
425.534	3176
425.609	2040
425.683	808
425.758	1618
425.833	2174
425.908	2694
425.983	7406
426.058	20747
426.132	9390
426.207	3254
426.282	4983
426.357	4422
426.431	1582
426.506	1704
426.581	1528
426.655	1641
426.730	1440
426.805	1015
426.879	2176
426.954	1383
427.029	3536
427.103	20766
427.178	43709
427.253	19993
427.327	3283
427.402	4951
427.476	13096
427.551	5799
427.625	2648
427.700	2732
427.774	508
427.849	2809
427.923	1290
427.998	1395
428.072	1654
428.147	6440
428.221	24826
428.296	65854
428.370	34572
428.444	5432
428.519	6513
428.593	12728
428.667	11539
428.742	13857
428.816	14944
428.890	49728
428.965	69719
429.039	23089
429.113	14585
429.188	5793
429.262	1377
429.336	4147
429.410	10073
429.485	8552
429.559	11882
429.633	8524
429.707	2785
429.781	10319
429.855	53627
429.930	71577
430.004	39324
430.078	55981
430.152	52695
430.226	83727
430.300	80623
430.374	13553
430.448	5746
430.522	19502
430.596	49696
430.670	33190
430.744	65325
430.818	81689
430.892	16262
430.966	2763
431.040	2264
431.114	884
431.188	545
431.262	1160
431.336	1339
431.410	6428
431.484	15293
431.557	8859
431.631	2583
431.705	3621
431.779	14652
431.853	59356
431.927	40934
432.000	4859
432.074	1577
432.148	2188
432.222	1429
432.295	835
432.369	971
432.443	2964
432.516	20502
432.590	43619
432.664	16677
432.737	2141
432.811	50
432.885	671
432.958	441
433.032	348
433.106	181
433.179	-95
433.253	367
433.326	311
433.400	-199
433.473	458
433.547	-367
433.620	792
433.694	1693
433.767	2197
433.841	408
433.914	713
433.988	269
434.061	424
434.134	25
434.208	-133
434.281	-339
434.355	108
434.428	379
434.501	749
434.575	-60
434.648	919
434.721	86
434.795	153
434.868	-89
434.941	119
435.014	232
435.088	64
435.161	1118
435.234	1730
435.307	2717
435.381	1519
435.454	968
435.527	2071
435.600	1742
435.673	2355
435.746	938
435.819	1219
435.892	1089
435.966	684
436.039	1180
436.112	309
436.185	-28
436.258	-603
436.331	-833
436.404	-90
436.477	-178
436.550	-8
436.623	373
436.696	-116
436.769	1121
436.842	939
436.915	543
436.987	1116
437.060	106
437.133	-367
437.206	-217
437.279	1062
437.352	273
437.425	-4
437.498	766
437.570	3493
437.643	3473
437.716	1015
437.789	-316
437.861	2306
437.934	6762
438.007	3017
438.080	217
438.152	1104
438.225	2801
438.298	24513
438.370	57639
438.443	23869
438.516	5447
438.588	1298
438.661	-169
438.734	771
438.806	1003
438.879	1243
438.951	1198
439.024	3638
439.096	850
439.169	475
439.241	-323
439.314	1048
439.386	1163
439.459	2666
439.531	2835
439.604	1328
439.676	163
439.749	-381
439.821	-730
439.893	363
439.966	997
440.038	1689
440.110	1352
440.183	406
440.255	220
440.327	1831
440.400	12057
440.472	41169
440.544	24393
440.617	3764
440.689	2583
440.761	3468
440.833	4973
440.905	3019
440.978	-238
441.050	12
441.122	707
441.194	144
441.266	-147
441.338	521
441.411	1986
441.483	14331
441.555	18702
441.627	3464
441.699	3383
441.771	3170
441.843	951
441.915	96
441.987	-197
442.059	1288
442.131	1848
442.203	3292
442.275	2958
442.347	4452
442.419	6529
442.491	35287
442.563	75134
442.635	32674
442.706	17284
442.778	11477
442.850	2361
442.922	1669
442.994	2262
443.066	3677
443.137	2325
443.209	2907
443.281	4062
443.353	10847
443.425	46315
443.496	138920
443.568	127325
443.640	44996
443.711	8626
443.783	3754
443.855	2012
443.926	1977
443.998	1465
444.070	2824
444.141	1888
444.213	3106
444.285	3317
444.356	2160
444.428	1345
444.499	876
444.571	515
444.642	1269
444.714	976
444.785	2702
444.857	4359
444.928	10819
445.000	6418
445.071	7559
445.143	9388
445.214	7288
445.285	11340
445.357	33938
445.428	100344
445.500	194124
445.571	126463
445.642	63689
445.714	26173
445.785	20862
445.856	5879
445.928	4957
445.999	3515
446.070	2892
446.141	3215
446.213	4437
446.284	1854
446.355	2372
446.426	1582
446.497	1754
446.569	3236
446.640	4711
446.711	2169
446.782	661
446.853	1707
446.924	1947
446.995	1122
447.066	2013
447.138	4443
447.209	1890
447.280	619
447.351	542
447.422	-248
447.493	1317
447.564	1583
447.635	1628
447.706	446
447.777	275
447.847	702
447.918	284
447.989	1833
448.060	2863
448.131	6782
448.202	5952
448.273	2361
448.344	1108
448.414	822
448.485	29
448.556	975
448.627	101
448.698	1266
448.768	649
448.839	34
448.910	3516
448.981	3150
449.051	741
449.122	289
449.193	219
449.263	1291
449.334	127
449.405	1416
449.475	4105
449.546	3056
449.616	4302
449.687	3254
449.758	1486
449.828	812
449.899	1311
449.969	648
450.040	53
450.110	1717
450.181	970
450.251	317
450.322	757
450.392	1165
450.463	705
450.533	425
450.604	132
450.674	179
450.744	788
450.815	-56
450.885	1575
450.955	493
451.026	541
451.096	1187
451.166	867
451.237	5403
451.307	12347
451.377	3934
451.447	242
451.518	334
451.588	220
451.658	1380
451.728	3121
451.799	13076
451.869	13487
451.939	2397
452.009	867
452.079	462
452.149	1194
452.219	4518
452.289	15128
452.360	8962
452.430	1555
452.500	1633
452.570	1460
452.640	3452
452.710	11657
452.780	17104
452.850	9977
452.920	6385
452.990	3092
453.060	2253
453.129	2423
453.199	3346
453.269	18058
453.339	33264
453.409	48524
453.479	53214
453.549	76232
453.619	78743
453.688	26750
453.758	3437
453.828	1399
453.898	1274
453.968	774
454.037	1041
454.087	923
454.107	873
454.168	261
454.177	161
454.247	184
454.249	176
454.316	-274
454.330	225
454.386	2056
454.411	4204
454.456	7758
454.492	9197
454.525	10558
454.574	5247
454.595	2927
454.655	1484
454.665	1266
454.734	1716
454.736	1799
454.804	4020
454.817	5808
454.873	13078
454.898	12896
454.943	12591
454.979	7658
455.013	3291
455.060	2282
455.082	1857
455.141	2901
455.152	3107
455.221	11068
455.222	11194
455.291	18114
455.303	17817
455.360	15914
455.384	21231
455.430	29669
455.465	22555
455.499	16357
455.546	14088
455.569	12975
455.627	7597
455.638	6656
455.707	1086
455.708	1093
455.777	977
455.789	1117
455.846	1496
455.869	1106
455.916	408
455.950	822
455.985	1209
456.031	1029
456.054	926
456.112	659
456.124	623
456.193	1105
456.193	1098
456.262	775
456.274	1070
456.332	2548
456.355	2087
456.401	978
456.436	683
456.470	459
456.516	530
456.540	555
456.597	119
456.609	43
456.678	583
456.678	575
456.747	-179
456.759	-221
456.817	-39
456.840	170
456.886	324
456.920	477
456.955	795
457.001	932
457.024	936
457.082	897
457.093	906
457.162	1447
457.163	1457
457.232	1396
457.243	1333
457.301	1026
457.324	879
457.370	562
457.405	672
457.439	892
457.485	588
457.508	373
457.566	1373
457.577	1634
457.646	1883
457.647	1894
457.715	2610
457.727	3014
457.784	5210
457.808	6872
457.853	8974
457.889	10653
457.922	11715
457.969	8937
457.991	8583
458.050	8636
458.060	8589
458.129	14320
458.130	14467
458.198	16186
458.211	14610
458.267	8570
458.292	6512
458.336	4642
458.372	4230
458.405	4521
458.453	6391
458.474	7636
458.533	13672
458.543	14201
458.611	23659
458.614	23733
458.680	18246
458.694	15080
458.749	6876
458.775	5052
458.818	2597
458.855	2203
458.887	1932
458.936	1495
458.955	1317
459.016	1160
459.024	1215
459.093	1826
459.097	1862
459.162	1567
459.177	1513
459.230	1883
459.257	1927
459.299	1734
459.338	1952
459.368	2016
459.418	2136
459.437	2186
459.499	1546
459.505	1506
459.574	1458
459.579	1481
459.643	1603
459.659	1532
459.711	1427
459.740	1720
459.780	2089
459.820	1899
459.849	1925
459.900	2375
459.917	2292
459.981	1915
459.986	1905
460.054	2010
460.061	2003
460.123	1966
460.141	1874
460.191	1970
460.222	2234
460.260	2335
460.302	2925
460.328	3146
460.382	2379
460.397	2308
460.462	2315
460.465	2442
460.534	6066
460.543	6541
460.602	14702
460.623	18232
460.671	28210
460.703	40111
460.739	38116
460.783	27516
460.808	24815
460.864	7080
460.876	4704
460.944	2197
460.945	2160
461.013	1964
461.024	1902
461.081	1622
461.104	1713
461.150	1749
461.184	1525
461.218	1735
461.264	1875
461.286	1650
461.345	1425
461.355	1514
461.423	2194
461.425	2191
461.491	1670
461.505	1812
461.559	4514
461.585	5566
461.628	7333
461.665	10013
461.696	10998
461.745	13767
461.764	13198
461.825	4764
461.832	4379
461.901	2320
461.905	2344
461.969	1995
461.985	1701
462.037	1898
462.065	2273
462.105	2525
462.145	2980
462.173	4153
462.225	5995
462.241	6281
462.305	8920
462.310	8732
462.378	5073
462.385	4322
462.446	2232
462.465	2175
462.514	2122
462.545	2027
462.582	1889
462.625	1949
462.650	2030
462.705	2333
462.718	2421
462.785	2618
462.786	2636
462.854	3544
462.865	3742
462.922	4213
462.945	4619
462.990	4039
463.025	2727
463.058	2422
463.104	2381
463.126	2141
463.184	1827
463.194	1889
463.262	1881
463.264	1896
463.330	2086
463.344	2065
463.398	2431
463.424	2660
463.466	2266
463.504	1896
463.533	2209
463.583	2658
463.601	2650
463.663	2345
463.669	2396
463.737	3670
463.743	3760
463.805	6470
463.823	7308
463.873	10429
463.903	12563
463.940	12075
463.982	12011
464.008	10374
464.062	4446
464.076	4164
464.142	3196
464.144	3169
464.211	2673
464.221	2709
464.279	2738
464.301	2602
464.347	2771
464.381	3039
464.414	3165
464.461	3271
464.482	3357
464.540	3684
464.550	3650
464.617	3233
464.620	3210
464.685	3783
464.699	3957
464.753	4661
464.779	4969
464.820	5859
464.859	6768
464.888	6189
464.938	5081
464.956	5197
465.018	5652
465.023	5612
465.091	4845
465.098	4758
465.158	4971
465.177	5055
465.226	4799
465.257	4681
465.293	4789
465.336	4858
465.361	5301
465.416	6257
465.428	6720
465.495	9322
465.496	9358
465.563	12790
465.575	13470
465.631	15325
465.654	16174
465.698	11361
465.734	6411
465.765	5706
465.813	5007
465.833	4859
465.893	4772
465.900	4777
465.968	4874
465.972	4874
466.035	4994
466.052	5018
466.102	4749
466.131	4568
466.170	4211
466.210	3839
466.237	4461
466.290	5640
466.304	5647
466.369	5661
466.372	5680
466.439	6064
466.449	6109
466.506	7053
466.528	7395
466.573	10030
466.607	11978
466.641	15085
466.687	19485
466.708	20875
466.766	24885
466.775	23172
466.842	9710
466.845	9062
466.909	7027
466.925	6624
466.977	6888
467.004	7047
467.044	7383
467.083	7717
467.111	8390
467.163	9629
467.178	9675
467.242	9830
467.245	9770
467.312	8322
467.321	8126
467.379	8422
467.400	8512
467.446	8499
467.480	8471
467.559	8609
467.638	7228
467.717	6360
467.796	7891
467.875	7683
467.955	7463
468.034	13840
468.113	21700
468.192	30582
468.271	7665
468.350	8446
468.429	7726
468.508	8052
468.588	7330
468.667	6347
468.746	7276
468.825	6036
468.904	5594
468.983	7134
469.062	9541
469.141	10053
469.220	6123
469.299	5856
469.378	6031
469.456	8517
469.535	6774
469.614	6563
469.693	6579
469.772	8813
469.851	10391
469.930	6443
470.009	6953
470.088	4920
470.166	6836
470.245	7321
470.324	7416
470.403	6013
470.482	5194
470.560	5864
470.639	5343
470.718	6800
470.797	5773
470.875	6565
470.954	9197
471.033	8743
471.111	5280
471.190	5380
471.269	4780
471.347	4294
471.426	5406
471.505	6347
471.583	6722
471.662	5522
471.740	5402
471.819	4971
471.898	4467
471.976	5248
472.055	5296
472.133	7003
472.212	8223
472.290	7296
472.369	5298
472.447	4936
472.526	4581
472.604	5766
472.683	4987
472.761	5624
472.839	5055
472.918	4671
472.996	5011
473.075	5596
473.153	6276
473.231	4875
473.310	5626
473.388	5886
473.466	5069
473.545	7013
473.623	7219
473.701	5918
473.780	5109
473.858	4622
473.936	6247
474.014	4882
474.093	6219
474.171	7843
474.249	10221
474.327	6834
474.405	4099
474.484	4213
474.562	4037
474.640	4284
474.718	5011
474.796	4775
474.874	4631
474.952	4738
475.030	4748
475.108	5156
475.187	6224
475.265	7255
475.343	9183
475.421	9655
475.499	4132
475.577	5435
475.655	7319
475.733	11815
475.811	20925
475.889	17026
475.966	10199
476.044	4749
476.122	6940
476.200	8628
476.278	5125
476.356	4097
476.434	5310
476.512	6634
476.590	8293
476.667	6141
476.745	3661
476.823	4607
476.901	4328
476.979	4797
477.056	5149
477.134	5099
477.212	5201
477.290	4680
477.367	4338
477.445	3641
477.523	3070
477.601	4089
477.678	4236
477.756	4860
477.834	5520
477.911	3379
477.989	4306
478.066	4243
478.144	4972
478.222	7097
478.299	9952
478.377	8373
478.454	3729
478.532	4856
478.609	4023
478.687	4024
478.764	3804
478.842	4179
478.919	4184
478.997	4443
479.074	3893
479.152	4384
479.229	5914
479.307	2675
479.384	3469
479.461	3226
479.539	4133
479.616	4231
479.694	2998
479.771	5045
479.848	4449
479.926	5205
480.003	6427
480.080	4511
480.157	3916
480.235	3420
480.312	3518
480.389	4151
480.467	6370
480.544	7562
480.621	4372
480.698	4739
480.775	5274
480.853	5142
480.930	4527
481.007	4490
481.084	5303
481.161	5734
481.238	4106
481.315	3618
481.392	3580
481.470	3868
481.547	3504
481.624	3911
481.701	3382
481.778	4116
481.855	3931
481.932	7471
482.009	11475
482.086	6759
482.163	4132
482.240	7968
482.317	12391
482.393	8057
482.470	4104
482.547	3566
482.624	3920
482.701	3304
482.778	3763
482.855	3409
482.932	3524
483.009	2269
483.085	3984
483.162	4860
483.239	4898
483.316	2837
483.393	3834
483.469	3354
483.546	3602
483.623	3941
483.699	3233
483.776	4186
483.853	4177
483.930	7925
484.006	17120
484.083	29915
484.160	17526
484.236	26005
484.313	17779
484.389	13464
484.466	12979
484.543	11461
484.619	12084
484.696	13258
484.772	12787
484.849	13284
484.925	10591
485.002	11201
485.078	11796
485.155	11374
485.231	10903
485.308	10693
485.384	10973
485.461	15208
485.537	19502
485.614	21142
485.690	10094
485.766	10972
485.843	10481
485.919	12957
485.995	12164
486.072	9040
486.148	9236
486.224	9084
486.301	10454
486.377	10977
486.453	10504
486.530	11684
486.606	16329
486.682	15896
486.758	17900
486.835	19475
486.911	16534
486.987	25235
487.063	24049
487.139	25833
487.215	18481
487.292	12905
487.368	11060
487.444	12270
487.520	15591
487.596	14047
487.672	24148
487.748	50429
487.824	64107
487.900	22096
487.976	12870
488.052	12245
488.128	13770
488.204	10810
488.280	10176
488.356	13452
488.432	23626
488.508	30608
488.584	11276
488.660	8971
488.736	8658
488.812	8383
488.888	12272
488.964	16164
489.039	26273
489.115	35165
489.191	19424
489.267	10227
489.343	9570
489.418	7530
489.494	8300
489.570	6672
489.646	8453
489.722	8362
489.797	8020
489.873	14036
489.949	24873
490.024	18252
490.100	6774
490.176	8112
490.251	8428
490.327	10549
490.403	6898
490.478	7259
490.554	6369
490.629	6710
490.705	6412
490.781	7681
490.856	6000
490.932	8284
491.007	7253
491.083	6950
491.158	6465
491.234	11042
491.309	19093
491.385	16980
491.460	6776
491.536	8301
491.611	6247
491.686	7164
491.762	9914
491.837	16301
491.913	27238
491.988	36321
492.063	38190
492.139	13013
492.214	8668
492.289	5470
492.365	5787
492.440	7272
492.515	6492
492.590	6544
492.666	5548
492.741	7736
492.816	10359
492.891	5481
492.967	5787
493.042	6495
493.117	4696
493.192	6424
493.267	16741
493.342	48906
493.418	53105
493.493	7582
493.568	4742
493.643	4809
493.718	6523
493.793	8837
493.868	8475
493.943	5560
494.018	5022
494.093	4656
494.168	5374
494.243	4279
494.318	3940
494.393	4716
494.468	3927
494.543	4747
494.618	4291
494.693	4512
494.768	4215
494.842	4747
494.917	4442
494.992	5590
495.067	4955
495.142	3819
495.217	4558
495.292	4032
495.366	5225
495.441	5361
495.516	7856
495.591	11703
495.665	35245
495.740	68725
495.815	21904
495.890	5785
495.964	4518
496.039	7554
496.114	6216
496.188	7211
496.263	6271
496.338	6099
496.412	5714
496.487	8404
496.561	7604
496.636	7195
496.710	6104
496.785	7083
496.860	8392
496.934	6703
497.009	6762
497.083	7025
497.158	7408
497.232	8580
497.307	10302
497.381	9741
497.455	11431
497.530	13868
497.604	10799
497.679	13564
497.753	17583
497.827	20703
497.902	18997
497.976	25523
498.050	62491
498.125	170187
498.199	134867
498.273	27191
498.348	22228
498.422	19651
498.496	17507
498.570	15733
498.645	13115
498.719	11841
498.793	14423
498.867	18760
498.941	26725
499.016	81001
499.090	164597
499.164	44664
499.238	8530
499.312	7119
499.386	9447
499.460	8428
499.534	8181
499.609	9676
499.683	12258
499.757	14606
499.831	39084
499.905	119580
499.979	88821
500.053	15234
500.127	14320
500.201	9715
500.275	8010
500.349	7602
500.422	7838
500.496	11555
500.570	26206
500.644	70184
500.718	108787
500.792	18777
500.866	8293
500.940	9494
501.013	8385
501.087	7422
501.161	12334
501.235	16861
501.309	45930
501.382	108933
501.456	76088
501.530	19608
501.603	31769
501.677	11834
501.751	4412
501.825	8794
501.898	17916
501.972	41298
502.046	21319
502.119	7059
502.193	21334
502.266	44570
502.340	18546
502.413	23197
502.487	36883
502.561	18719
502.634	5896
502.708	5729
502.781	4304
502.855	4482
502.928	3212
503.002	5019
503.075	3551
503.149	4532
503.222	4552
503.295	4742
503.369	5730
503.442	9675
503.516	36914
503.589	76198
503.662	42445
503.736	16967
503.809	36136
503.882	28839
503.956	47001
504.029	38059
504.102	28567
504.175	32359
504.249	12291
504.322	8254
504.395	6535
504.468	5156
504.542	4543
504.615	3141
504.688	4477
504.761	1670
504.834	6323
504.907	4573
504.980	6910
505.053	5371
505.127	3334
505.200	7386
505.273	5134
505.346	3285
505.419	1844
505.492	3876
505.565	2116
505.638	3497
505.711	2614
505.784	2378
505.857	2030
505.930	4409
506.003	1518
506.076	5181
506.149	4615
506.221	4756
506.294	7251
506.367	20843
506.440	57652
506.513	23306
506.586	6498
506.659	3038
506.731	3391
506.804	4070
506.877	5011
506.950	3835
507.022	3788
507.095	4668
507.168	5569
507.241	4565
507.313	1626
507.386	2478
507.459	3943
507.531	2751
507.604	2074
507.677	3453
507.749	1992
507.822	5164
507.894	9150
507.967	9576
508.040	5584
508.112	5857
508.185	4631
508.257	4320
508.330	7617
508.402	4604
508.475	3683
508.547	4146
508.620	5046
508.692	8427
508.765	4452
508.837	3823
508.909	4416
508.982	3605
509.054	4692
509.127	2953
509.199	2674
509.271	2940
509.344	2875
509.416	2552
509.488	4047
509.560	4452
509.633	3440
509.705	4543
509.777	4167
509.849	6554
509.922	3606
509.994	3843
510.066	4875
510.138	4365
510.210	11804
510.283	7920
510.355	6536
510.427	6013
510.499	4933
510.571	4687
510.643	4599
510.715	8677
510.787	4895
510.859	6154
510.931	6626
511.003	7880
511.076	7549
511.148	4433
511.219	5610
511.291	8022
511.363	9207
511.435	4256
511.507	3505
511.579	5066
511.651	4941
511.723	3819
511.795	3819
511.867	4205
511.939	5235
512.010	10429
512.082	9047
512.154	2817
512.226	4326
512.298	10068
512.369	10788
512.441	8133
512.513	7125
512.585	4647
512.656	6531
512.728	6673
512.800	4918
512.871	5527
512.943	5000
513.015	3674
513.086	5291
513.158	4943
513.230	4333
513.301	5840
513.373	7937
513.444	5560
513.516	4328
513.588	3948
513.659	5120
513.731	5556
513.802	4943
513.874	11905
513.945	13761
514.016	5141
514.088	4875
514.159	4665
514.231	6784
514.302	9506
514.374	6937
514.445	5736
514.516	14789
514.588	8804
514.659	6688
514.730	11635
514.802	9995
514.873	7553
514.944	10252
515.016	7161
515.087	6712
515.158	10277
515.229	13418
515.301	9012
515.372	11761
515.443	7553
515.514	6633
515.585	3798
515.656	6234
515.728	5032
515.799	3489
515.870	5121
515.941	4732
516.012	3410
516.083	7829
516.154	6655
516.225	8028
516.296	8948
516.367	5727
516.438	6457
516.509	6455
516.580	11550
516.651	38175
516.722	92943
516.793	34559
516.864	11360
516.935	9996
517.006	11363
517.077	15987
517.148	36819
517.219	108371
517.289	126591
517.360	62479
517.431	21515
517.502	6806
517.573	8319
517.643	7510
517.714	7159
517.785	7570
517.856	7477
517.926	10032
517.997	9205
518.068	9213
518.138	13041
518.209	20192
518.280	84466
518.350	215983
518.421	59081
518.492	11293
518.562	9922
518.633	10829
518.703	9623
518.774	23322
518.845	44846
518.915	35336
518.986	14476
519.056	11947
519.127	17488
519.197	28069
519.268	64101
519.338	33949
519.408	10857
519.479	11493
519.549	6955
519.620	6764
519.690	5307
519.760	4549
519.831	5159
519.901	5426
519.971	4717
520.042	5549
520.112	5541
520.182	6986
520.253	6654
520.323	4514
520.393	5923
520.463	10307
520.534	5558
520.604	14199
520.674	7028
520.744	7627
520.814	14328
520.885	13461
520.955	27436
521.025	75090
521.095	21300
521.165	6815
521.235	4628
521.305	4522
521.375	4291
521.445	5701
521.515	5600
521.585	7984
521.655	3987
521.725	6921
521.795	5801
521.865	2099
521.935	9065
522.005	5059
522.075	2778
522.145	4524
522.215	4229
522.285	7245
522.355	10539
522.424	18947
522.494	14273
522.564	7662
522.634	16111
522.704	35789
522.774	9716
522.843	4688
522.913	5156
522.983	4557
523.053	4210
523.122	5593
523.192	6552
523.262	19249
523.331	13481
523.401	4784
523.471	3508
523.540	4236
523.610	2403
523.680	2817
523.749	3206
523.819	5721
523.888	4177
523.958	3490
524.027	3208
524.097	4551
524.166	3086
524.236	2294
524.305	5948
524.375	2277
524.444	2915
524.514	5283
524.583	3958
524.653	4081
524.722	5455
524.791	2337
524.861	5028
524.930	1436
524.999	2909
525.069	6147
525.138	4275
525.207	5189
525.277	3900
525.346	2742
525.415	4434
525.484	4650
525.554	5135
525.623	5540
525.692	5066
525.761	5572
525.830	5817
525.900	6693
525.969	10565
526.038	17411
526.107	38961
526.176	95006
526.245	61650
526.314	25561
526.383	54537
526.452	63589
526.522	125422
526.591	89649
526.660	24057
526.729	12014
526.797	17135
526.867	41393
526.935	158225
527.004	251242
527.073	97789
527.142	11308
527.211	7332
527.280	7301
527.349	5947
527.418	2373
527.487	4911
527.555	2900
527.624	1834
527.693	2751
527.762	3395
527.831	2196
527.899	3193
527.968	3031
528.037	1671
528.106	4320
528.174	6830
528.243	6146
528.312	8916
528.380	8358
528.449	3003
528.518	4007
528.586	1286
528.655	2853
528.723	1954
528.792	2542
528.861	2179
528.929	1409
528.998	3884
529.066	2651
529.135	3907
529.203	2096
529.272	2367
529.340	3780
529.409	5134
529.477	3374
529.545	3835
529.614	6081
529.682	5155
529.751	5587
529.819	8738
529.887	5124
529.956	4303
530.024	5779
530.092	3350
530.161	5808
530.229	5225
530.297	3764
530.365	5822
530.434	4493
530.502	3544
530.570	5298
530.638	1826
530.707	5246
530.775	4362
530.843	3059
530.911	4612
530.979	4053
531.047	3699
531.115	4523
531.183	5077
531.252	4920
531.320	4289
531.388	3411
531.456	4282
531.524	2867
531.592	5002
531.660	7223
531.728	3552
531.796	3214
531.864	3872
531.932	4284
532.000	4488
532.067	4818
532.135	5363
532.203	5760
532.271	5432
532.339	10699
532.407	16528
532.475	9317
532.542	6784
532.610	6967
532.678	10310
532.746	44803
532.814	70254
532.881	14700
532.949	5646
533.017	5070
533.084	4733
533.152	4211
533.220	4593
533.287	4536
533.355	5017
533.423	5166
533.490	3668
533.558	4600
533.625	4833
533.693	4604
533.761	4584
533.828	5408
533.896	5270
533.963	9327
534.031	10769
534.098	13339
534.166	6023
534.233	4273
534.300	5687
534.368	5132
534.435	4617
534.503	5360
534.570	6133
534.637	4753
534.705	5587
534.772	7539
534.840	13110
534.907	53495
534.974	45316
535.041	7279
535.109	6269
535.176	3440
535.243	4906
535.310	4115
535.378	4282
535.445	3915
535.512	3423
535.579	4303
535.646	3550
535.714	4428
535.781	5390
535.848	5681
535.915	6280
535.982	4817
536.049	4727
536.116	6808
536.183	4225
536.250	4662
536.317	3639
536.384	5862
536.451	6597
536.518	6957
536.585	4470
536.652	7908
536.719	8439
536.786	5184
536.853	4876
536.920	7709
536.987	10624
537.053	11519
537.120	46079
537.187	26649
537.254	4735
537.321	4081
537.388	4708
537.454	3605
537.521	4028
537.588	3258
537.654	4998
537.721	4883
537.788	5257
537.855	3773
537.921	3447
537.988	3574
538.055	4312
538.121	3759
538.188	4146
538.254	6082
538.321	9374
538.388	5630
538.454	4712
538.521	4315
538.587	3254
538.654	4419
538.720	3092
538.787	4564
538.853	4567
538.920	4180
538.986	4901
539.053	3720
539.119	4845
539.185	4285
539.252	5649
539.318	5369
539.385	6700
539.451	4047
539.517	5697
539.583	7258
539.650	16288
539.716	27660
539.782	7041
539.849	3240
539.915	5660
539.981	4037
540.047	5186
540.114	4505
540.180	5619
540.246	4182
540.312	5998
540.378	10208
540.444	9735
540.510	16243
540.576	32741
540.643	7876
540.709	2579
540.775	4304
540.841	4471
540.907	6314
540.973	9570
541.039	7614
541.105	6663
541.171	4355
541.237	4009
541.303	5018
541.369	7444
541.435	5454
541.500	8826
541.566	4325
541.632	3102
541.698	4100
541.764	5325
541.830	3415
541.896	3201
541.961	5343
542.027	4429
542.093	3643
542.159	4956
542.224	4657
542.290	7493
542.356	9627
542.421	8948
542.487	6521
542.553	4631
542.618	5165
542.684	4151
542.750	3857
542.815	5077
542.881	10485
542.947	32046
543.012	15695
543.078	4466
543.143	3998
543.209	6290
543.274	4257
543.340	6025
543.405	14994
543.471	14032
543.536	4800
543.602	3987
543.667	3670
543.732	5614
543.798	3861
543.863	4387
543.928	3940
543.994	3060
544.059	4953
544.124	4160
544.190	3978
544.255	4648
544.320	4236
544.386	3865
544.451	5672
544.516	6749
544.581	7546
544.646	22989
544.712	24745
544.777	5389
544.842	5490
544.907	5675
544.972	4593
545.037	6101
545.102	6770
545.168	5998
545.233	6476
545.298	7111
545.363	6642
545.428	7061
545.493	15372
545.558	22324
545.623	8796
545.688	6289
545.753	5916
545.818	5927
545.883	6198
545.947	5325
546.012	7033
546.077	6611
546.142	6724
546.207	6377
546.272	7901
546.337	8310
546.401	7262
546.466	7303
546.531	5759
546.596	7775
546.661	7583
546.725	8009
546.790	6188
546.855	8121
546.919	7661
546.984	7924
547.049	9159
547.113	10309
547.178	8408
547.243	12389
547.307	13083
547.372	15777
547.436	14100
547.501	13253
547.565	13923
547.630	14762
547.695	13606
547.759	15272
547.823	12365
547.888	12728
547.952	12973
548.017	13943
548.081	16586
548.146	17798
548.210	15679
548.274	14818
548.339	13558
548.403	13206
548.468	12164
548.532	11908
548.596	12936
548.660	12320
548.725	14862
548.789	16199
548.853	16383
548.917	14482
548.982	17910
549.046	15508
549.110	11055
549.174	12889
549.238	13613
549.303	13532
549.367	15823
549.431	14224
549.495	13650
549.559	14061
549.623	15558
549.687	17948
549.751	19478
549.815	19147
549.879	19594
549.943	18028
550.007	19866
550.071	18790
550.135	19494
550.199	16405
550.263	16591
550.327	18644
550.391	19339
550.455	18007
550.519	18889
550.582	21191
550.646	24981
550.710	23491
550.774	22730
550.838	22873
550.901	23606
550.965	25186
551.029	24338
551.093	28214
551.156	34855
551.220	48377
551.284	44014
551.347	32022
551.411	45329
551.475	39356
551.538	24760
551.602	21875
551.666	21043
551.729	18440
551.793	20788
551.856	19580
551.920	19397
551.983	19152
552.047	18138
552.110	18138
552.174	19485
552.237	18536
552.301	17837
552.364	17906
552.428	17207
552.491	17012
552.554	19063
552.618	18325
552.681	18408
552.745	17721
552.808	20728
552.871	22010
552.934	19562
552.998	18606
553.061	19287
553.124	18814
553.187	19763
553.251	19587
553.314	20361
553.377	21418
553.440	32262
553.503	80901
553.567	84109
553.630	24180
553.693	20227
553.756	20147
553.819	19109
553.882	18687
553.945	17917
554.008	18536
554.071	18434
554.134	19008
554.197	16765
554.260	17354
554.323	18385
554.386	18088
554.449	18523
554.512	17842
554.575	17211
554.638	17686
554.701	17929
554.764	17235
554.827	17033
554.889	15790
554.952	14859
555.015	14754
555.078	14592
555.141	16206
555.203	14933
555.266	15834
555.329	15496
555.391	14489
555.454	15477
555.517	14285
555.580	13719
555.642	12682
555.705	13421
555.768	13463
555.830	13005
555.893	12211
555.955	12151
556.018	12839
556.080	12515
556.143	11894
556.206	12331
556.268	12605
556.330	12404
556.393	11955
556.455	12408
556.518	15167
556.580	13791
556.643	11472
556.705	11044
556.767	9358
556.830	11015
556.892	11717
556.955	13688
557.017	10961
557.079	10358
557.142	9806
557.204	10261
557.266	15970
557.328	11568
557.391	9316
557.453	8540
557.515	9147
557.577	10604
557.639	9808
557.701	9990
557.764	8610
557.826	9467
557.888	10083
557.950	10466
558.012	12300
558.074	16833
558.136	41695
558.198	72647
558.260	22007
558.322	12808
558.384	13334
558.446	14539
558.508	15350
558.570	19604
558.632	25586
558.694	35642
558.756	58005
558.818	196324
558.880	317003
558.942	84842
559.003	79294
559.065	31489
559.127	16110
559.189	16905
559.251	19635
559.312	33616
559.374	95407
559.436	228846
559.498	73831
559.559	17687
559.621	16332
559.683	19905
559.744	40959
559.806	131380
559.868	128370
559.929	23174
559.991	18963
560.052	34152
560.114	76813
560.176	40108
560.237	52629
560.299	58385
560.360	13142
560.422	8720
560.483	8476
560.545	7397
560.606	7144
560.667	7498
560.729	6764
560.790	6445
560.852	7217
560.913	6240
560.974	6604
561.036	6058
561.097	7222
561.158	5956
561.220	7607
561.281	6649
561.342	6771
561.403	8626
561.465	9667
561.526	16945
561.587	17205
561.648	7512
561.709	6326
561.771	6105
561.832	6651
561.893	6477
561.954	6740
562.015	6472
562.076	6441
562.137	6239
562.198	5977
562.259	7502
562.320	6309
562.381	6807
562.442	9102
562.503	6816
562.564	7241
562.625	6283
562.686	6437
562.747	7555
562.808	6090
562.869	7098
562.930	7937
562.991	7027
563.051	7253
563.112	6676
563.173	6677
563.234	6077
563.294	5669
563.355	6387
563.416	7092
563.477	5653
563.537	7015
563.598	7455
563.659	6336
563.720	6262
563.780	6900
563.841	6071
563.901	6456
563.962	6415
564.023	6889
564.083	7524
564.144	5843
564.204	6789
564.265	7804
564.325	8803
564.386	15151
564.446	10933
564.507	7140
564.567	6236
564.628	5981
564.688	5632
564.749	5893
564.809	7918
564.869	8886
564.930	6453
564.990	7303
565.050	6909
565.111	7147
565.171	5891
565.231	6334
565.292	7245
565.352	5690
565.412	7682
565.472	6672
565.532	6846
565.593	5944
565.653	5866
565.713	6682
565.773	7687
565.833	7961
565.893	8943
565.953	7486
566.013	7834
566.074	8653
566.134	10213
566.194	14602
566.254	12172
566.314	10429
566.374	8889
566.434	8446
566.494	9018
566.554	9215
566.614	9356
566.673	9505
566.733	10332
566.793	10985
566.853	11596
566.913	11124
566.973	11762
567.033	12138
567.092	11317
567.152	11333
567.212	10683
567.272	11577
567.331	12561
567.391	12898
567.451	13977
567.511	17854
567.570	16125
567.630	12038
567.690	12601
567.749	13890
567.809	13397
567.868	15810
567.928	16942
567.988	19183
568.047	23925
568.107	27849
568.166	39503
568.226	58440
568.285	72051
568.345	65142
568.404	54683
568.464	49123
568.523	44779
568.582	45726
568.642	51008
568.701	62437
568.761	90930
568.820	125445
568.879	121097
568.939	95709
568.998	73351
569.057	56779
569.116	46327
569.176	37801
569.235	31940
569.294	26772
569.353	22669
569.413	20149
569.472	19088
569.531	16375
569.590	14796
569.649	14159
569.708	12689
569.767	13482
569.827	13749
569.886	11995
569.945	11037
570.004	10570
570.063	10464
570.122	10613
570.181	9888
570.240	9873
570.299	10534
570.358	10284
570.417	8396
570.475	8156
570.534	8673
570.593	8781
570.652	9174
570.711	8577
570.770	7562
570.829	8462
570.887	7603
570.946	8025
571.005	8030
571.064	7234
571.122	8160
571.181	8106
571.240	6903
571.299	6783
571.357	8657
571.416	7676
571.475	8660
571.533	9459
571.592	6871
571.650	8170
571.709	6981
571.768	8456
571.826	7073
571.885	7049
571.943	6536
572.002	7262
572.060	6019
572.119	6364
572.177	5786
572.236	5499
572.294	7076
572.352	6771
572.411	6085
572.469	6908
572.528	6209
572.586	6351
572.644	6239
572.703	7999
572.761	6985
572.819	5692
572.877	6255
572.936	5202
572.994	6874
573.052	5761
573.110	5917
573.169	5026
573.227	5408
573.285	6409
573.343	5902
573.401	6280
573.459	6446
573.517	5420
573.576	6134
573.634	5881
573.692	5956
573.750	5998
573.808	7284
573.866	6242
573.924	8305
573.982	7424
574.040	6020
574.098	5807
574.155	5638
574.213	6263
574.271	5546
574.329	5778
574.387	5091
574.445	5832
574.503	5969
574.560	5058
574.618	5716
574.676	5750
574.734	5877
574.792	5532
574.849	5910
574.907	5097
574.965	5214
575.022	5620
575.080	4967
575.138	5502
575.195	5961
575.253	5868
575.311	5564
575.368	5510
575.426	5272
575.483	6405
575.541	6041
575.598	5628
575.656	5132
575.713	5104
575.771	5745
575.828	5671
575.886	4788
575.943	6369
576.001	6577
576.058	5672
576.115	6432
576.173	7978
576.230	6344
576.287	6954
576.345	6990
576.402	5678
576.459	7073
576.517	5977
576.574	7356
576.631	6277
576.688	6170
576.746	5987
576.803	5925
576.860	6238
576.917	6545
576.974	7105
577.031	6483
577.089	6309
577.146	6206
577.203	6086
577.260	7210
577.317	6480
577.374	7609
577.431	6997
577.488	6614
577.545	5952
577.602	6444
577.659	6356
577.716	7279
577.773	7929
577.830	7292
577.886	6630
577.943	6633
578.000	6607
578.057	7896
578.114	8006
578.171	7802
578.227	9730
578.284	8569
578.341	9142
578.398	8041
578.454	7747
578.511	8113
578.568	8360
578.625	6285
578.681	6477
578.738	6626
578.794	6673
578.851	6805
578.908	7286
578.964	6371
579.021	7459
579.077	6484
579.134	6565
579.190	6388
579.247	6461
579.303	5988
579.360	5901
579.416	6239
579.473	6732
579.529	6169
579.586	7682
579.642	6413
579.698	7094
579.755	7263
579.811	6885
579.867	7674
579.924	7546
579.980	7186
580.036	8984
580.093	10356
580.149	13324
580.205	13978
580.261	11832
580.317	10466
580.374	8808
580.430	9991
580.486	9823
580.542	8185
580.598	7915
580.619	7818
580.654	7638
580.692	8319
580.710	8639
580.765	7850
580.767	7812
580.823	8635
580.838	8461
580.879	7939
580.911	7633
580.935	7389
580.984	8160
580.991	8255
581.047	8867
581.057	8937
581.103	9175
581.130	9663
581.159	10120
581.203	10311
581.215	10335
581.270	10452
581.276	10422
581.326	9945
581.349	9782
581.382	9467
581.422	9966
581.438	10173
581.494	10435
581.494	10441
581.550	9330
581.567	9445
581.606	9565
581.640	9718
581.661	9819
581.713	11797
581.717	11938
581.773	10390
581.786	10435
581.829	10528
581.859	10768
581.885	10960
581.932	11084
581.940	11074
581.996	11888
582.004	11817
582.052	11247
582.077	11638
582.107	12134
582.150	12162
582.163	12155
582.219	11861
582.223	11960
582.274	12974
582.296	13237
582.330	13545
582.368	13591
582.386	13644
582.441	13905
582.441	13890
582.497	13841
582.514	14218
582.552	15155
582.587	15518
582.608	15519
582.659	14567
582.663	14496
582.719	15804
582.732	15821
582.774	15973
582.805	16145
582.830	16217
582.877	16658
582.885	16768
582.941	17636
582.950	17882
582.996	19189
583.023	19908
583.052	20710
583.095	20981
583.107	21069
583.162	23908
583.168	24003
583.218	24091
583.240	23807
583.273	22956
583.313	22219
583.328	22043
583.384	21317
583.385	21307
583.439	21181
583.458	20876
583.494	20478
583.531	21013
583.549	21372
583.603	21795
583.605	21806
583.660	22311
583.676	22447
583.715	22860
583.748	22929
583.770	23088
583.820	23823
583.825	23888
583.881	23527
583.893	23651
583.936	24504
583.965	24961
583.991	25241
584.038	25460
584.046	25565
584.101	26738
584.110	26893
584.156	27450
584.183	27204
584.211	27051
584.255	27578
584.266	27806
584.321	29035
584.328	29140
584.376	30760
584.400	30950
584.431	30793
584.472	31284
584.486	31449
584.541	31880
584.545	31853
584.596	32263
584.617	32693
584.651	34215
584.689	35007
584.706	35245
584.761	36722
584.762	36674
584.816	37130
584.834	37581
584.871	38827
584.906	39164
584.926	39461
584.978	40350
584.980	40465
585.035	41739
585.051	42145
585.090	43380
585.123	44217
585.145	44820
585.195	45838
585.200	46097
585.254	49093
585.267	49735
585.309	52025
585.340	53229
585.364	54555
585.412	56577
585.419	56900
585.473	60303
585.484	60908
585.528	66085
585.556	71456
585.583	81665
585.628	103995
585.637	112830
585.692	185273
585.700	194499
585.747	225188
585.772	208120
585.801	151966
585.845	91410
585.856	85548
585.910	71938
585.917	70363
585.965	69105
585.989	68306
586.019	69039
586.061	70132
586.074	70737
586.128	72455
586.133	72407
586.183	73877
586.205	74450
586.237	75619
586.277	75888
586.292	76424
586.346	78681
586.349	78581
586.401	81132
586.421	82088
586.455	84479
586.493	86876
586.509	89199
586.564	96644
586.565	96609
586.618	108821
586.637	110322
586.672	105903
586.709	101626
586.727	102014
586.781	103714
586.781	104025
586.835	106733
586.853	107189
586.889	109789
586.925	111213
586.944	113192
586.996	118748
586.998	119278
587.052	125244
587.068	126423
587.106	129697
587.140	132433
587.161	135300
587.212	140676
587.215	141511
587.269	149884
587.284	151653
587.323	158409
587.356	163346
587.377	167198
587.427	175033
587.431	176287
587.485	185971
587.499	187863
587.539	197238
587.571	204282
587.593	210432
587.643	221214
587.648	223266
587.702	239008
587.715	242136
587.755	257914
587.786	268352
587.810	277484
587.858	294459
587.864	298020
587.917	324760
587.930	329600
587.971	351059
588.001	365726
588.025	382044
588.073	411122
588.079	416934
588.133	457604
588.145	465342
588.187	504896
588.217	530741
588.241	559127
588.288	610328
588.295	620845
588.348	694465
588.360	708100
588.402	780063
588.431	827397
588.456	879423
588.503	973655
588.510	992244
588.564	1122888
588.575	1147281
588.617	1266523
588.646	1344582
588.671	1404467
588.718	1510376
588.725	1520995
588.778	1568555
588.789	1571200
588.832	1460843
588.861	1362215
588.886	1218902
588.932	897871
588.939	884468
588.993	828049
589.004	830572
589.047	1181768
589.075	1387634
589.100	1507890
589.147	1690276
589.154	1696582
589.207	1705862
589.218	1705096
589.261	1683631
589.290	1668240
589.314	1675858
589.361	1684986
589.368	1687569
589.421	1673455
589.433	1664101
589.475	1492536
589.504	1343871
589.528	1208134
589.576	930223
589.582	961497
589.635	1290023
589.647	1348896
589.689	1544431
589.718	1660415
589.742	1623398
589.790	1537010
589.795	1524233
589.849	1358831
589.861	1316692
589.902	1201118
589.932	1107520
589.955	1055091
590.004	934446
590.009	929185
590.062	832825
590.075	805936
590.115	750088
590.146	701477
590.168	678850
590.218	619796
590.222	618675
590.275	570516
590.289	555718
590.328	529822
590.360	504548
590.381	493077
590.431	458886
590.435	459179
590.488	430798
590.503	421036
590.541	405728
590.574	389277
590.594	383352
590.645	362348
590.647	363250
590.700	344566
590.716	337512
590.753	328850
590.787	318031
590.806	314432
590.859	299384
590.859	300511
590.912	286990
590.930	281462
590.965	276648
591.001	269210
591.018	267992
591.071	260563
591.072	259305
591.124	252334
591.143	248232
591.177	244214
591.214	237535
591.230	236877
591.283	231119
591.285	229830
591.336	224757
591.356	221277
591.389	218256
591.427	212286
591.442	211665
591.495	205966
591.498	204587
591.547	202735
591.569	200619
591.600	198712
591.640	193778
591.653	194089
591.706	191827
591.711	190681
591.759	189383
591.782	187425
591.811	187459
591.853	185280
591.864	185259
591.917	180758
591.924	179267
591.969	177290
591.995	174812
592.022	174236
592.066	171085
592.075	171966
592.127	172507
592.137	171797
592.180	172535
592.208	171604
592.233	169627
592.279	163556
592.285	164092
592.338	162131
592.350	160898
592.390	159663
592.421	157433
592.443	157460
592.491	155123
592.495	155777
592.548	154597
592.562	153544
592.600	152892
592.633	150950
592.653	151114
592.704	148816
592.705	149642
592.775	147556
592.846	146213
592.916	145486
592.987	143816
593.058	141104
593.128	138669
593.199	138100
593.270	133580
593.341	132314
593.411	131961
593.482	131763
593.553	131269
593.623	128696
593.694	130928
593.764	129400
593.835	126245
593.906	125597
593.976	123463
594.047	123800
594.117	129767
594.188	128681
594.258	121518
594.329	119937
594.399	122251
594.470	121089
594.540	121808
594.611	121402
594.681	120005
594.751	119503
594.822	121156
594.892	123876
594.963	123647
595.033	123398
595.103	126139
595.174	126038
595.244	133567
595.314	140204
595.384	126797
595.455	126272
595.525	127281
595.595	130176
595.665	128896
595.736	125787
595.806	127594
595.876	129247
595.946	129026
596.016	128998
596.087	131445
596.157	131614
596.227	132284
596.297	134746
596.367	139536
596.437	144506
596.507	150642
596.577	153523
596.647	143863
596.717	145960
596.787	149715
596.857	147872
596.927	148147
596.997	148816
597.067	150241
597.137	155056
597.207	157104
597.277	154261
597.347	150698
597.417	147770
597.487	149953
597.557	151105
597.626	151132
597.696	154973
597.766	158788
597.836	159214
597.906	147082
597.975	142397
598.045	144182
598.115	146674
598.185	152987
598.254	164009
598.324	170662
598.394	171748
598.464	169129
598.533	168986
598.603	161849
598.672	162242
598.742	164004
598.812	164993
598.881	168346
598.951	166939
599.020	168680
599.090	170916
599.159	173796
599.229	170639
599.299	168485
599.368	174717
599.437	173037
599.507	166886
599.576	166722
599.646	167971
599.715	169692
599.785	165762
599.854	165628
599.924	167116
599.993	168368
600.062	168537
600.132	172611
600.201	179552
600.270	193658
600.340	201897
600.409	200162
600.478	199096
600.547	203167
600.617	197733
600.686	179915
600.755	175206
600.824	173799
600.894	174716
600.963	176558
601.032	178278
601.101	178857
601.170	177309
601.239	179776
601.308	181773
601.378	184269
601.447	185851
601.516	189922
601.585	193700
601.654	199997
601.723	199327
601.792	203879
601.861	211975
601.930	223206
601.999	226635
602.068	221158
602.137	226674
602.206	227589
602.275	228896
602.343	229880
602.412	229642
602.481	232138
602.550	232542
602.619	236859
602.688	237976
602.756	242240
602.825	238731
602.894	247680
602.963	242468
603.032	247361
603.100	246852
603.169	242008
603.238	252392
603.307	239893
603.375	243137
603.444	255099
603.513	235651
603.581	243217
603.650	258625
603.719	219106
603.787	209765
603.856	214274
603.924	218664
603.993	224254
604.061	226777
604.130	233019
604.198	240131
604.267	239438
604.335	244911
604.404	246138
604.472	251617
604.541	252778
604.609	261225
604.678	267256
604.746	270710
604.815	283073
604.883	271890
604.951	268039
605.020	274045
605.088	258432
605.156	248729
605.225	247523
605.293	246483
605.361	249501
605.429	244639
605.498	252943
605.566	247202
605.634	259667
605.702	260492
605.771	264655
605.839	271645
605.907	250681
605.975	263224
606.043	250543
606.111	245712
606.180	267621
606.248	249101
606.316	246478
606.384	259045
606.452	220017
606.520	190231
606.588	192812
606.656	192639
606.724	187962
606.792	180116
606.860	165424
606.928	155781
606.996	150572
607.064	145982
607.132	149878
607.200	158696
607.267	162877
607.335	165933
607.403	166301
607.471	164040
607.539	161960
607.607	159876
607.674	145079
607.742	145637
607.810	145852
607.878	141921
607.946	145444
608.013	150032
608.081	153647
608.149	153851
608.216	158507
608.284	162369
608.352	159523
608.419	160600
608.487	164142
608.555	154335
608.622	156867
608.690	161411
608.757	173591
608.825	175710
608.893	174243
608.960	165866
609.028	164693
609.095	166522
609.163	160491
609.230	147794
609.298	136906
609.365	141451
609.432	151637
609.500	162243
609.567	181192
609.635	203882
609.702	212611
609.769	204045
609.837	166290
609.904	145184
609.971	146883
610.039	159667
610.106	187375
610.173	296330
610.241	575842
610.308	437300
610.375	224480
610.442	165792
610.509	152371
610.577	151632
610.644	153107
610.711	157408
610.778	160738
610.845	167855
610.912	174347
610.980	184402
611.047	196443
611.114	181908
611.181	172208
611.248	168986
611.315	178470
611.382	181660
611.449	187162
611.516	187926
611.583	186697
611.650	188548
611.717	189271
611.784	194612
611.851	198192
611.918	204951
611.984	228853
612.051	290123
612.118	497973
612.185	1038566
612.252	755312
612.319	282781
612.386	239845
612.452	220141
612.519	215016
612.586	216646
612.653	214660
612.719	219470
612.786	210314
612.853	197689
612.919	195462
612.986	197817
613.053	188807
613.120	178997
613.186	175601
613.253	176894
613.319	176510
613.386	176959
613.453	179675
613.519	180648
613.586	179584
613.652	188210
613.719	180289
613.785	183331
613.852	182745
613.918	179858
613.985	184499
614.051	194628
614.118	211851
614.184	204399
614.250	180944
614.317	183012
614.383	180948
614.449	184728
614.516	184832
614.582	186346
614.648	181930
614.715	181004
614.781	179711
614.847	182327
614.914	182189
614.980	178419
615.046	178047
615.112	182064
615.179	184715
615.245	193520
615.311	210435
615.377	258398
615.443	285604
615.509	228356
615.575	204329
615.642	198123
615.708	200190
615.774	209172
615.840	225327
615.906	245137
615.972	308746
616.038	485299
616.104	756848
616.170	1280903
616.236	1137427
616.302	389356
616.368	285215
616.434	237341
616.500	220684
616.565	226164
616.631	247436
616.697	231962
616.763	231095
616.829	274828
616.895	395012
616.961	405222
617.026	254877
617.092	206126
617.158	197696
617.224	193692
617.289	184636
617.355	178990
617.421	179416
617.487	179265
617.552	170973
617.618	169944
617.684	171002
617.749	172425
617.815	166804
617.880	163691
617.946	162528
618.012	168208
618.077	170847
618.143	165273
618.208	166245
618.274	176191
618.339	178986
618.405	156900
618.470	156937
618.536	157983
618.601	159044
618.667	151880
618.732	147882
618.798	145189
618.863	144376
618.928	142066
618.994	145047
619.059	146097
619.124	152033
619.190	144983
619.255	142672
619.320	143036
619.386	144157
619.451	142305
619.516	139232
619.581	142592
619.647	146903
619.712	147109
619.777	143171
619.842	143510
619.907	146784
619.972	147570
620.038	146382
620.103	143772
620.168	143173
620.233	145526
620.298	146420
620.363	145893
620.428	149498
620.493	151266
620.558	151217
620.623	154763
620.688	154803
620.753	152220
620.818	154218
620.883	155890
620.948	155980
621.013	153386
621.078	157246
621.143	155586
621.207	157249
621.272	156700
621.337	155749
621.402	156388
621.467	161820
621.532	164895
621.596	161259
621.661	154775
621.726	153136
621.791	155601
621.855	154642
621.920	155947
621.985	156236
622.049	160600
622.114	159751
622.179	162282
622.243	164083
622.308	166212
622.373	170490
622.437	167621
622.502	161958
622.566	161767
622.631	160193
622.695	163289
622.760	163447
622.824	162124
622.889	161860
622.953	164107
623.018	175207
623.082	173996
623.147	169269
623.211	164111
623.276	165893
623.340	159234
623.404	157037
623.469	157699
623.533	158366
623.597	155535
623.662	153453
623.726	148026
623.790	143246
623.854	142951
623.919	143490
623.983	142136
624.047	144134
624.111	143820
624.176	146268
624.240	148358
624.304	153337
624.368	145187
624.432	145675
624.496	147235
624.560	152502
624.625	151761
624.689	150413
624.753	152272
624.817	148334
624.881	145447
624.945	137178
625.009	134303
625.073	136412
625.137	139767
625.201	143849
625.265	145103
625.329	136322
625.393	138411
625.456	135819
625.520	139341
625.584	141222
625.648	149277
625.712	161801
625.776	207778
625.839	209281
625.903	143241
625.967	122311
626.031	142199
626.095	168358
626.158	131889
626.222	110833
626.286	105873
626.349	105618
626.413	101632
626.477	101745
626.540	100096
626.604	98116
626.668	98560
626.731	98087
626.795	99363
626.858	97806
626.922	94794
626.986	94525
627.049	92139
627.113	97152
627.176	93957
627.240	91614
627.303	90689
627.366	89641
627.430	90371
627.493	91983
627.557	91937
627.620	92890
627.684	91298
627.747	91945
627.810	85740
627.874	83372
627.937	79601
628.000	84098
628.064	81938
628.127	73961
628.190	76402
628.253	73776
628.317	72408
628.380	69798
628.443	70716
628.506	70346
628.569	68899
628.632	66443
628.696	65496
628.759	64322
628.822	63408
628.885	63932
628.948	62069
629.011	63057
629.074	61524
629.137	60136
629.200	58475
629.263	61790
629.326	57891
629.389	58564
629.452	58407
629.515	59420
629.578	57797
629.641	59406
629.704	58820
629.767	58310
629.830	57433
629.892	56408
629.955	55416
630.018	57649
630.081	55203
630.144	58023
630.207	53964
630.269	56324
630.332	55134
630.395	55563
630.458	52131
630.520	52499
630.583	52793
630.646	52712
630.708	52386
630.771	51215
630.834	52794
630.896	51557
630.959	51212
631.021	50631
631.084	52431
631.146	52367
631.209	53606
631.272	50186
631.334	50345
631.397	50040
631.459	48994
631.522	51125
631.584	50910
631.646	52381
631.709	51578
631.771	54411
631.834	51374
631.896	50701
631.958	48799
632.021	50285
632.083	49580
632.145	49810
632.208	48549
632.270	49645
632.332	47680
632.395	47821
632.457	49517
632.519	48117
632.581	49322
632.643	46705
632.706	48297
632.768	45704
632.830	47605
632.892	47682
632.954	47935
633.016	49173
633.078	46484
633.141	47575
633.203	47746
633.265	47263
633.327	45781
633.389	46095
633.451	48774
633.513	49273
633.575	49157
633.637	46921
633.698	47851
633.760	47838
633.822	47757
633.884	47737
633.946	47310
634.008	48518
634.070	49719
634.132	52912
634.193	50479
634.255	48719
634.317	49060
634.379	49556
634.441	47833
634.502	47040
634.564	46134
634.626	44791
634.687	43637
634.749	45657
634.811	45454
634.873	42762
634.934	43697
634.996	44917
635.057	44387
635.119	42761
635.181	44851
635.242	45320
635.304	40953
635.365	46647
635.427	43623
635.488	43692
635.550	42838
635.611	44940
635.673	41725
635.734	45953
635.796	45111
635.857	46126
635.918	44749
635.980	47434
636.041	45956
636.102	47987
636.164	45940
636.225	46985
636.286	44289
636.348	44745
636.409	43054
636.470	42498
636.531	43517
636.593	44019
636.654	43443
636.715	40902
636.776	41974
636.838	40291
636.899	41862
636.960	40081
637.021	40690
637.082	40753
637.143	40454
637.204	38691
637.265	39319
637.326	40141
637.387	41013
637.448	38342
637.509	39885
637.570	40097
637.631	40593
637.692	39085
637.753	38102
637.814	38831
637.875	38277
637.936	40321
637.997	38834
638.058	39069
638.119	39356
638.179	38688
638.240	38539
638.301	38713
638.362	38396
638.423	37493
638.483	39354
638.544	37159
638.605	38857
638.666	36851
638.726	38275
638.787	38607
638.848	37785
638.908	37120
638.969	37760
639.030	36340
639.090	35118
639.151	35050
639.211	38341
639.272	39385
639.332	43072
639.393	39544
639.453	35708
639.514	36572
639.574	36691
639.635	35199
639.695	36405
639.756	34594
639.816	35692
639.877	34679
639.937	39723
639.997	41071
640.058	34465
640.118	34978
640.178	34919
640.239	34875
640.299	34644
640.359	34881
640.420	34937
640.480	35718
640.540	35984
640.600	35835
640.661	36433
640.721	35239
640.781	39402
640.841	37304
640.901	36002
640.961	35951
641.021	35476
641.082	35039
641.142	36380
641.202	36156
641.262	32842
641.322	34357
641.382	32203
641.442	34825
641.502	34571
641.562	33906
641.622	32823
641.682	34396
641.742	34133
641.802	34644
641.861	33854
641.921	33506
641.981	33462
642.041	33387
642.101	34550
642.161	30943
642.221	30960
642.280	31181
642.340	31801
642.400	32049
642.460	33818
642.519	32522
642.579	32580
642.639	33905
642.698	30348
642.758	34347
642.818	33059
642.877	31109
642.937	33765
642.997	34147
643.056	36406
643.116	32391
643.175	33683
643.235	34179
643.294	33569
643.354	34187
643.414	34305
643.473	37369
643.532	38492
643.592	44525
643.651	57781
643.711	85635
643.770	150774
643.830	337189
643.889	656010
643.948	176597
644.008	51783
644.067	40515
644.126	36067
644.186	34429
644.245	32695
644.304	30078
644.363	33098
644.423	28970
644.482	30743
644.541	31367
644.600	29693
644.659	33816
644.719	36063
644.778	43846
644.837	58786
644.896	98176
644.955	200379
645.014	80241
645.073	41360
645.132	33818
645.191	33470
645.250	30101
645.309	32559
645.368	32445
645.427	36095
645.486	42830
645.545	58421
645.604	33809
645.663	31706
645.722	29963
645.781	31838
645.840	32719
645.898	33600
645.957	41365
646.016	51499
646.075	79935
646.134	140415
646.192	345821
646.251	480598
646.310	91893
646.369	40849
646.427	36645
646.486	31228
646.545	30587
646.603	29846
646.662	29455
646.721	29315
646.779	27425
646.838	27539
646.896	31064
646.955	33293
647.014	42072
647.072	61292
647.131	134425
647.189	71998
647.248	28919
647.306	27409
647.365	27283
647.423	24029
647.481	27190
647.540	23412
647.598	25230
647.657	24957
647.715	26467
647.773	25070
647.832	25104
647.890	24132
647.948	23275
648.007	25667
648.065	24221
648.123	23937
648.181	26175
648.240	28069
648.298	26417
648.356	23835
648.414	25162
648.472	24313
648.531	25059
648.589	23351
648.647	22715
648.705	22567
648.763	22919
648.821	22502
648.879	23479
648.937	24594
648.995	25817
649.053	27567
649.111	33277
649.169	43934
649.227	65873
649.285	122936
649.343	316733
649.401	150717
649.459	45632
649.516	33873
649.574	28944
649.632	38529
649.690	43179
649.748	34833
649.806	43018
649.863	63830
649.921	98080
649.979	66855
650.037	25258
650.094	20892
650.152	21876
650.210	21532
650.268	21773
650.325	21945
650.383	22719
650.440	19510
650.498	20516
650.556	20380
650.613	19363
650.671	19925
650.728	20874
650.786	20863
650.843	20705
650.901	18958
650.958	19514
651.016	19134
651.073	19225
651.131	18936
651.188	17987
651.246	18816
651.303	17362
651.360	18859
651.418	19051
651.475	19039
651.532	17287
651.590	18374
651.647	17259
651.704	18976
651.762	18229
651.819	17926
651.876	16933
651.933	18244
651.990	17574
652.048	16297
652.105	16144
652.162	17477
652.219	16821
652.276	18464
652.333	17759
652.390	16905
652.448	17891
652.505	17268
652.562	18476
652.619	19713
652.676	24553
652.733	25402
652.790	16730
652.847	15888
652.904	16564
652.961	16334
653.017	15937
653.074	17342
653.131	17141
653.188	15488
653.245	16588
653.302	16343
653.359	17206
653.415	16736
653.472	16390
653.529	16847
653.586	15554
653.642	15859
653.699	16589
653.756	15258
653.813	16059
653.869	15927
653.926	15135
653.983	15819
654.039	16433
654.096	15950
654.152	15846
654.209	15499
654.266	16519
654.322	15257
654.379	16901
654.435	17782
654.492	16264
654.548	18853
654.605	20520
654.661	17087
654.717	15503
654.774	16330
654.830	15935
654.887	15596
654.943	16856
655.000	17333
655.056	16682
655.112	16061
655.168	16091
655.225	15981
655.281	16802
655.337	17398
655.394	21367
655.450	18253
655.506	17845
655.562	21438
655.618	20012
655.675	14928
655.731	16005
655.787	15089
655.843	15336
655.899	14228
655.955	14350
656.011	16095
656.067	13835
656.123	16192
656.179	15032
656.235	16210
656.291	13632
656.347	16232
656.403	15102
656.459	15236
656.515	15485
656.571	16366
656.627	15636
656.683	15132
656.739	16229
656.795	15412
656.850	14875
656.906	16306
656.962	15313
657.018	15156
657.074	16386
657.129	17278
657.185	19749
657.241	27652
657.297	20465
657.352	15303
657.408	15003
657.464	15940
657.519	15440
657.575	14311
657.630	14884
657.686	14525
657.742	14395
657.797	13967
657.853	14380
657.908	15674
657.964	14373
658.019	14951
658.075	14967
658.130	15440
658.186	13899
658.241	15124
658.297	14616
658.352	14622
658.407	15131
658.463	14531
658.518	15907
658.573	15261
658.629	13631
658.684	13900
658.739	14769
658.795	12839
658.850	14748
658.905	14442
658.960	13808
659.016	13408
659.071	14497
659.126	14458
659.181	15214
659.236	17206
659.291	17347
659.346	14878
659.401	15878
659.457	18236
659.512	19898
659.567	16606
659.622	14753
659.677	14752
659.732	14577
659.787	14633
659.842	14754
659.897	16746
659.952	15234
660.007	14391
660.061	14156
660.116	14286
660.171	13303
660.226	13913
660.281	14827
660.336	13447
660.391	14794
660.445	12996
660.500	13561
660.555	13957
660.610	13814
660.664	15272
660.719	13224
660.774	14595
660.828	13843
660.883	14157
660.938	14501
660.992	13101
661.047	13860
661.101	12772
661.156	13981
661.211	12644
661.265	13518
661.320	13321
661.374	14208
661.429	12960
661.483	14309
661.538	13143
661.592	14491
661.647	14440
661.701	15180
661.755	14046
661.810	14376
661.864	13948
661.919	13047
661.973	15534
662.027	13223
662.081	14034
662.136	13160
662.190	13493
662.244	14059
662.299	13334
662.353	14362
662.407	12997
662.461	14434
662.515	14211
662.569	14272
662.624	14743
662.678	13672
662.732	13368
662.786	13149
662.840	12716
662.894	12915
662.948	12776
663.002	13000
663.056	13327
663.110	13631
663.164	13409
663.218	13403
663.272	12986
663.326	13584
663.380	13359
663.434	12841
663.488	12789
663.542	12699
663.595	13761
663.649	13158
663.703	12974
663.757	13289
663.811	12794
663.864	12975
663.918	11833
663.972	13106
664.026	13473
664.079	12895
664.133	12850
664.187	12390
664.240	12955
664.294	12951
664.348	14020
664.401	13928
664.455	12392
664.508	12541
664.562	12929
664.615	13053
664.669	12444
664.722	11850
664.776	12209
664.829	13501
664.883	12662
664.936	13118
664.990	13685
665.043	13875
665.097	14323
665.150	15002
665.203	12337
665.257	12800
665.310	13695
665.363	14581
665.417	13951
665.470	13895
665.523	12911
665.576	13149
665.630	13536
665.683	13425
665.736	13658
665.789	13693
665.842	12564
665.895	14129
665.949	12591
666.002	13379
666.055	13305
666.108	13973
666.161	13811
666.214	13845
666.267	13290
666.320	13519
666.373	13211
666.426	13879
666.479	13050
666.532	13356
666.585	14276
666.638	13714
666.691	13139
666.744	14408
666.796	13314
666.849	13830
666.902	13000
666.955	13045
667.008	12338
667.060	12787
667.113	11499
667.166	12285
667.219	13105
667.271	12604
667.324	13803
667.377	13816
667.430	13330
667.482	15756
667.535	13971
667.587	13023
667.640	13536
667.693	13567
667.745	14574
667.798	15252
667.850	13776
667.903	13846
667.955	12895
668.008	13953
668.060	13971
668.113	14487
668.165	13415
668.218	13955
668.270	14001
668.322	13619
668.375	12379
668.427	13897
668.479	12317
668.532	13881
668.584	13351
668.636	13393
668.689	12940
668.741	12811
668.793	12929
668.845	13298
668.898	12898
668.950	12976
669.002	13332
669.054	12948
669.106	13170
669.158	13555
669.211	12664
669.263	13434
669.315	14049
669.367	15506
669.419	12375
669.471	14702
669.523	13537
669.575	15270
669.627	13443
669.679	12696
669.731	12839
669.783	13296
669.835	13588
669.886	12674
669.938	13755
669.990	13328
670.042	12710
670.094	13935
670.146	14357
670.197	14510
670.249	16131
670.301	17445
670.353	20007
670.404	23620
670.456	31793
670.508	46532
670.560	71272
670.611	119377
670.663	205766
670.715	451313
670.766	592990
670.818	204445
670.869	54868
670.921	33377
670.972	24749
671.024	21091
671.075	18284
671.127	16806
671.178	15853
671.230	15296
671.281	14752
671.333	15178
671.384	14737
671.436	15318
671.487	16124
671.538	17789
671.590	20109
671.641	25081
671.692	34161
671.744	50802
671.795	43803
671.846	24055
671.897	17488
671.949	16519
672.000	13206
672.051	13721
672.102	14581
672.153	12791
672.204	13254
672.256	12987
672.307	12937
672.358	12974
672.409	12523
672.460	11921
672.511	11288
672.562	12734
672.613	12027
672.664	11912
672.715	12152
672.766	11907
672.817	11101
672.868	11797
672.919	11955
672.970	11416
673.021	11557
673.071	11134
673.122	11394
673.173	11099
673.224	11091
673.275	10521
673.326	10938
673.376	10666
673.427	10263
673.478	11150
673.528	10925
673.579	10408
673.630	10339
673.680	11561
673.731	9789
673.782	10214
673.832	10779
673.883	12074
673.934	10178
673.984	10987
674.035	11493
674.085	11659
674.136	10013
674.186	11423
674.237	10755
674.287	12972
674.338	10970
674.388	10393
674.438	9944
674.489	10763
674.539	10535
674.589	11536
674.640	10364
674.690	10861
674.740	11300
674.791	11242
674.841	10486
674.891	10673
674.942	10297
674.992	9765
675.042	9281
675.092	9594
675.142	9764
675.193	9653
675.243	9043
675.293	9756
675.343	9749
675.393	10685
675.443	11186
675.493	9430
675.543	9841
675.593	11189
675.643	10117
675.693	9746
675.743	10140
675.793	10916
675.843	9805
675.893	10288
675.943	9978
675.993	9309
676.043	10052
676.093	10073
676.142	9811
676.192	10157
676.242	10146
676.292	10046
676.341	8874
676.391	10066
676.441	9535
676.491	9106
676.540	9603
676.590	10175
676.640	9021
676.689	9541
676.739	8596
676.789	8785
676.838	9056
676.888	8625
676.937	8454
676.987	8818
677.037	8843
677.086	9240
677.136	9067
677.185	9277
677.235	7807
677.284	9321
677.333	8910
677.383	8181
677.432	8114
677.482	9020
677.531	8706
677.580	9062
677.630	8132
677.679	8390
677.728	8808
677.778	8610
677.827	8366
677.876	8002
677.925	8278
677.975	9001
678.024	8222
678.073	9312
678.122	9155
678.171	9088
678.220	9160
678.269	10518
678.319	9956
678.368	9612
678.417	9368
678.466	9092
678.515	9814
678.564	9210
678.613	8810
678.662	9240
678.711	9221
678.760	8942
678.809	8579
678.857	8832
678.906	8949
678.955	9358
679.004	9911
679.053	9397
679.102	9357
679.151	9784
679.199	8433
679.248	8098
679.297	8033
679.346	9001
679.394	8627
679.443	8114
679.492	8573
679.540	9554
679.589	8425
679.638	9146
679.686	7455
679.735	8846
679.784	8620
679.832	9182
679.881	8348
679.929	8721
679.978	7518
680.026	8279
680.075	7656
680.123	7934
680.172	7622
680.220	7233
680.268	7581
680.317	7417
680.365	7754
680.414	7330
680.462	7656
680.510	8599
680.559	8077
680.607	8045
680.655	7786
680.703	8443
680.752	8304
680.800	7675
680.848	6987
680.896	7433
680.945	7009
680.993	7887
681.041	7455
681.089	8367
681.137	6724
681.185	6714
681.233	6408
681.258	6838
681.281	7218
681.329	7518
681.377	7050
681.380	7156
681.425	8599
681.473	8261
681.502	8345
681.521	8350
681.569	8351
681.617	8134
681.624	8170
681.665	8218
681.713	8146
681.745	8094
681.761	8022
681.809	7654
681.857	8193
681.867	8155
681.904	7933
681.952	8297
681.989	7998
682.000	7869
682.048	7553
682.096	7994
682.111	7980
682.143	7867
682.191	8395
682.233	9022
682.239	9090
682.286	8251
682.334	8676
682.354	8396
682.382	7960
682.430	9068
682.476	8839
682.477	8808
682.525	8385
682.572	8040
682.598	8303
682.620	8525
682.667	8226
682.715	8898
682.720	8856
682.763	8175
682.810	8255
682.841	8341
682.857	8362
682.905	8931
682.952	8676
682.963	8814
683.000	9151
683.047	9444
683.085	9542
683.095	9553
683.142	9241
683.190	8955
683.206	8994
683.237	9001
683.284	9177
683.328	8878
683.332	8826
683.379	9326
683.426	8778
683.449	9132
683.473	9457
683.521	9131
683.568	9921
683.571	9839
683.615	8522
683.662	10521
683.693	9871
683.709	9484
683.757	9474
683.804	8885
683.814	9029
683.851	9462
683.898	9116
683.936	9738
683.945	9846
683.992	9823
684.039	9352
684.057	9463
684.086	9633
684.133	9869
684.179	9731
684.180	9712
684.227	10488
684.274	9020
684.300	10056
684.321	10807
684.368	10212
684.415	10246
684.422	10298
684.462	10458
684.509	10026
684.543	9833
684.556	9751
684.603	9827
684.649	9064
684.665	9275
684.696	9746
684.743	10675
684.786	11254
684.790	11280
684.837	9930
684.883	10713
684.908	10896
684.930	11126
684.977	11847
685.023	11352
685.029	11367
685.070	11055
685.117	11072
685.150	10998
685.164	11026
685.210	11331
685.257	12199
685.272	12137
685.303	11866
685.350	11658
685.393	12092
685.396	12110
685.443	11522
685.490	12111
685.514	11836
685.536	11646
685.583	11644
685.629	12057
685.636	11873
685.675	10527
685.722	11577
685.757	11101
685.768	11036
685.815	12157
685.861	12330
685.878	12253
685.908	11892
685.954	12024
686.000	11983
686.000	11980
686.047	12161
686.093	12553
686.121	12814
686.139	12871
686.185	12801
686.232	12809
686.242	12863
686.278	12958
686.324	12345
686.363	12239
686.370	12249
686.416	12103
686.463	12615
686.484	12737
686.509	12740
686.555	13170
686.601	12150
686.606	12174
686.647	12452
686.693	12216
686.727	12408
686.739	12501
686.785	11751
686.831	12487
686.848	12416
686.877	12203
686.923	12769
686.969	12306
686.969	12303
687.015	12493
687.061	13368
687.090	13394
687.107	13300
687.153	12924
687.199	12807
687.211	12598
687.245	12237
687.291	13285
687.332	13310
687.336	13310
687.382	13864
687.428	13529
687.453	13179
687.474	12854
687.520	13402
687.565	13571
687.574	13430
687.611	12840
687.657	13551
687.695	13447
687.702	13525
687.748	14501
687.794	15335
687.816	15387
687.839	14921
687.885	13737
687.931	13416
687.937	13331
687.976	13263
688.022	13574
688.058	13520
688.067	13523
688.113	13664
688.158	13229
688.179	13515
688.204	13877
688.249	13168
688.295	14143
688.300	14139
688.340	14207
688.386	14312
688.421	14411
688.431	14412
688.477	14396
688.522	14407
688.542	14257
688.567	14165
688.613	14317
688.658	14287
688.663	14260
688.703	13957
688.749	14144
688.784	14037
688.794	14052
688.839	14534
688.884	14719
688.905	14669
688.930	14549
688.975	14459
689.020	14519
689.026	14524
689.065	14884
689.110	14738
689.146	15185
689.155	15260
689.201	14996
689.246	14682
689.267	14881
689.291	15130
689.336	14982
689.381	14752
689.388	14761
689.426	14920
689.471	15311
689.509	15181
689.516	15158
689.561	15256
689.606	14823
689.630	14979
689.651	15217
689.696	14747
689.741	15333
689.750	15351
689.785	15430
689.830	15208
689.871	15132
689.875	15128
689.920	15217
689.965	15300
689.992	15228
690.010	15239
690.054	15104
690.099	15283
690.112	15215
690.144	15080
690.189	15306
690.233	14862
690.233	14876
690.278	15525
690.323	15574
690.354	15654
690.367	15746
690.412	15896
690.457	16144
690.474	16379
690.501	16788
690.546	16947
690.590	16979
690.595	17005
690.635	17406
690.680	17679
690.716	18254
690.724	18605
690.769	19688
690.813	21534
690.836	22385
690.857	24542
690.902	29342
690.946	34641
690.957	36037
690.991	47256
691.035	64558
691.077	79442
691.080	79481
691.124	71187
691.168	63676
691.198	59615
691.213	55420
691.257	43678
691.301	32275
691.318	28004
691.346	26315
691.390	23031
691.434	20232
691.439	19910
691.478	19548
691.522	19014
691.559	18336
691.567	18322
691.611	18515
691.655	18069
691.680	18252
691.699	18402
691.743	17917
691.787	18063
691.800	17812
691.831	17286
691.875	17191
691.919	17038
691.921	17018
691.964	17611
692.008	17804
692.041	18012
692.052	18049
692.096	17475
692.139	17803
692.162	17933
692.183	17964
692.227	17556
692.271	17127
692.282	17131
692.315	17715
692.359	17814
692.402	18014
692.403	18039
692.447	17944
692.490	17546
692.523	17487
692.534	17595
692.578	17340
692.622	17685
692.643	17825
692.666	17884
692.709	17365
692.753	17144
692.763	17155
692.797	17714
692.840	17753
692.884	18202
692.884	18234
692.928	18418
692.971	18497
693.004	18528
693.015	18599
693.059	18910
693.102	19208
693.124	19245
693.146	19236
693.189	18881
693.233	19370
693.245	19315
693.276	19942
693.320	20819
693.363	21580
693.365	21575
693.407	22764
693.450	24004
693.485	25307
693.493	26177
693.537	29973
693.580	34185
693.605	36670
693.624	41101
693.667	51605
693.710	62691
693.725	66815
693.753	87618
693.797	122130
693.840	155927
693.845	158841
693.883	145831
693.926	130841
693.966	119348
693.970	116972
694.013	90339
694.056	64491
694.086	46675
694.099	44707
694.142	38515
694.185	32108
694.206	28866
694.229	27694
694.272	26022
694.315	24081
694.326	23514
694.358	22924
694.401	22118
694.444	21551
694.446	21471
694.487	21204
694.530	20963
694.566	20718
694.573	20715
694.616	20382
694.659	19988
694.686	19778
694.702	19747
694.745	19689
694.787	19373
694.806	19201
694.830	19222
694.873	19276
694.916	19422
694.926	19370
694.959	19188
695.002	19023
695.044	18719
695.046	18686
695.087	19322
695.130	19422
695.166	19690
695.172	19707
695.215	19497
695.258	19234
695.286	19034
695.301	19033
695.343	18841
695.386	18894
695.406	18767
695.428	18921
695.471	19241
695.514	19705
695.526	19746
695.556	20026
695.599	20530
695.641	20746
695.646	20755
695.684	20633
695.726	20285
695.766	19979
695.769	20011
695.811	19917
695.854	19773
695.886	19505
695.896	19549
695.938	19780
695.981	19881
696.005	19951
696.023	20174
696.065	20575
696.108	20977
696.125	21123
696.150	21104
696.192	20834
696.235	20717
696.245	20608
696.277	20614
696.319	20628
696.361	20670
696.365	20619
696.404	20913
696.446	21419
696.485	21632
696.488	21666
696.530	21605
696.572	21497
696.604	21316
696.614	21240
696.656	20831
696.698	20276
696.724	19921
696.740	19918
696.783	19795
696.825	19749
696.844	19661
696.867	19916
696.909	20227
696.951	20696
696.964	20774
696.992	20685
697.034	20516
697.076	20249
697.083	20166
697.118	20569
697.160	20942
697.202	21481
697.203	21446
697.244	21233
697.286	20935
697.323	20594
697.327	20626
697.369	20554
697.411	20464
697.442	20265
697.453	20321
697.494	20472
697.536	20651
697.562	20680
697.578	20722
697.620	20652
697.661	20671
697.682	20587
697.703	20764
697.744	21202
697.786	21551
697.801	21601
697.828	21670
697.869	21693
697.911	21748
697.921	21708
697.952	21565
697.994	21322
698.035	21125
698.040	21050
698.077	21275
698.118	21438
698.160	21613
698.160	21563
698.201	21586
698.243	21567
698.279	21496
698.284	21581
698.325	21921
698.367	22255
698.399	22433
698.408	22393
698.449	21992
698.491	21569
698.518	21247
698.532	21396
698.573	21707
698.614	21986
698.638	22103
698.656	22272
698.697	22531
698.738	22796
698.757	22870
698.779	22870
698.820	22760
698.862	22646
698.877	22553
698.903	22666
698.944	22753
698.985	22842
698.996	22813
699.026	22683
699.067	22426
699.116	22068
699.235	22854
699.354	22346
699.474	22326
699.593	22657
699.713	22299
699.832	22204
699.951	22654
700.070	21355
700.190	21185
700.309	21649
700.428	21216
700.547	21779
700.667	20886
700.786	20827
700.905	20345
701.024	21271
701.143	19941
701.262	21235
701.381	20827
701.500	21650
701.619	20658
701.738	20780
701.857	20719
701.976	20489
702.095	19894
702.214	20651
702.333	20467
702.452	20462
702.571	20419
702.690	20202
702.809	20045
702.928	19587
703.047	18159
703.165	19298
703.284	19281
703.403	19047
703.522	19670
703.640	19707
703.759	19780
703.878	20938
703.997	18698
704.115	18745
704.234	18177
704.353	18893
704.471	18453
704.590	17985
704.708	17992
704.827	18394
704.946	17352
705.064	18500
705.183	17684
705.301	19819
705.420	23475
705.538	23048
705.656	20557
705.775	22453
705.893	31200
706.012	36356
706.130	21564
706.249	21026
706.367	20475
706.485	21012
706.604	19925
706.722	19931
706.840	20879
706.958	25281
707.077	21884
707.195	20176
707.313	19647
707.431	19635
707.549	19325
707.668	18956
707.786	19106
707.904	19379
708.022	17837
708.140	19322
708.258	19330
708.376	19390
708.494	17900
708.612	20311
708.730	24743
708.848	23766
708.966	21485
709.084	21080
709.202	20251
709.320	21072
709.438	22179
709.556	21978
709.674	20293
709.791	21303
709.909	19952
710.027	21625
710.145	19643
710.263	21019
710.380	19719
710.498	19668
710.616	19155
710.733	20192
710.851	19087
710.969	20217
711.086	18714
711.204	19161
711.322	19593
711.439	18872
711.557	18832
711.674	19797
711.792	18293
711.909	20239
712.027	21081
712.144	18943
712.262	17915
712.379	18918
712.497	23880
712.614	24678
712.732	21594
712.849	21239
712.966	20804
713.084	22669
713.201	20960
713.318	21901
713.436	21939
713.553	21246
713.670	21348
713.787	22816
713.905	20960
714.022	20390
714.139	20801
714.256	23144
714.373	25009
714.490	33251
714.608	57910
714.725	202408
714.842	206984
714.959	30187
715.076	21591
715.193	21119
715.310	19946
715.427	19663
715.544	19112
715.661	18653
715.778	18441
715.895	20601
716.011	19850
716.128	19200
716.245	18407
716.362	20349
716.479	18186
716.596	18888
716.713	19217
716.829	17934
716.946	18003
717.063	17272
717.180	17354
717.296	17363
717.413	17217
717.530	17857
717.646	16741
717.763	17115
717.880	17233
717.996	16642
718.113	16721
718.229	16709
718.346	16122
718.462	15983
718.579	16685
718.695	17643
718.812	17750
718.928	17353
719.045	16246
719.161	15931
719.277	15822
719.394	17142
719.510	16447
719.626	16305
719.743	18940
719.859	19590
719.975	25509
720.092	64017
720.208	132286
720.324	26916
720.440	17054
720.557	17331
720.673	18724
720.789	21276
720.905	29258
721.021	18504
721.137	15856
721.253	16379
721.369	15921
721.486	15826
721.602	17617
721.718	15271
721.834	15211
721.950	14570
722.066	13938
722.181	15061
722.297	14070
722.413	14401
722.529	14368
722.645	13797
722.761	13222
722.877	14871
722.993	13933
723.108	14159
723.224	13908
723.340	13980
723.456	13565
723.571	14034
723.687	12524
723.803	13815
723.918	13999
724.034	13650
724.150	13720
724.265	14272
724.381	16231
724.497	17983
724.612	13451
724.728	13294
724.843	12482
724.959	13229
725.074	16501
725.190	16969
725.305	12715
725.421	12883
725.536	11932
725.651	13447
725.767	12225
725.882	13235
725.997	12200
726.113	13132
726.228	11868
726.343	13926
726.459	12193
726.574	12558
726.689	12523
726.804	12097
726.920	12601
727.035	11919
727.150	11943
727.265	12341
727.380	12553
727.495	13116
727.610	11495
727.725	12651
727.841	12984
727.956	18678
728.071	16511
728.186	11776
728.301	11746
728.416	11901
728.531	11461
728.645	11503
728.760	11165
728.875	11916
728.990	10977
729.105	11678
729.220	11343
729.335	12276
729.449	11283
729.564	11700
729.679	10480
729.794	11038
729.908	11432
730.023	12075
730.138	10708
730.253	11204
730.367	11076
730.482	11723
730.596	10742
730.711	11752
730.826	12352
730.940	12564
731.055	11457
731.169	11679
731.284	10672
731.398	10749
731.513	11198
731.627	12305
731.742	12227
731.856	13317
731.970	11853
732.085	12541
732.199	14370
732.313	17561
732.428	29910
732.542	67635
732.656	41542
732.771	16176
732.885	12635
732.999	12779
733.113	12964
733.227	12960
733.342	13485
733.456	12438
733.570	12265
733.684	11773
733.798	11702
733.912	12138
734.026	11483
734.140	11781
734.254	11880
734.368	14579
734.482	13740
734.596	12102
734.710	11709
734.824	12514
734.938	11173
735.052	11573
735.166	11773
735.280	12330
735.393	11534
735.507	12249
735.621	11718
735.735	12831
735.849	11298
735.962	11290
736.076	11513
736.190	11592
736.303	11836
736.417	13613
736.531	10656
736.644	12185
736.758	10694
736.872	11144
736.985	10433
737.099	10668
737.212	11298
737.326	10990
737.439	10947
737.553	10532
737.666	10367
737.780	11167
737.893	10337
738.007	10468
738.120	10838
738.233	11147
738.347	10529
738.460	11498
738.573	10832
738.687	10240
738.800	10378
738.913	11116
739.026	11006
739.140	10765
739.253	10903
739.366	10184
739.479	10334
739.592	10182
739.705	10060
739.818	10507
739.932	10049
740.045	10946
740.158	10287
740.271	10918
740.384	9887
740.497	10113
740.610	10643
740.723	10682
740.836	10137
740.949	10812
741.062	10109
741.174	10445
741.287	9822
741.400	9372
741.513	10120
741.626	9977
741.739	9451
741.851	9844
741.964	9817
742.077	9947
742.189	9942
742.302	10263
742.415	9793
742.527	9558
742.640	10292
742.753	9931
742.865	9569
742.978	9654
743.090	9695
743.203	10333
743.316	8986
743.428	9507
743.541	9605
743.653	9174
743.766	8948
743.878	10197
743.990	9841
744.103	10279
744.215	9011
744.327	9548
744.440	9496
744.552	9512
744.664	9362
744.777	9336
744.889	8642
745.001	10334
745.113	9365
745.226	9522
745.338	9619
745.450	9882
745.562	9702
745.674	9252
745.786	8630
745.898	8830
746.010	9012
746.122	9350
746.234	8539
746.347	9234
746.459	8919
746.570	8685
746.682	8782
746.794	9781
746.906	8871
747.018	9421
747.130	9406
747.242	9588
747.354	8522
747.466	9248
747.577	8971
747.689	9426
747.801	8893
747.913	8949
748.024	8772
748.136	9127
748.248	9006
748.359	8742
748.471	9196
748.583	9554
748.694	8411
748.806	10600
748.918	9193
749.029	9052
749.141	8658
749.252	9370
749.364	8788
749.475	9149
749.587	8273
749.698	9129
749.809	8303
749.921	9608
750.032	8873
750.144	9384
750.255	8309
750.366	9792
750.478	8782
750.589	8502
750.700	7759
750.811	9580
750.923	8757
751.034	10456
751.145	10187
751.256	9026
751.367	9149
751.479	8637
751.590	9080
751.701	8871
751.812	8386
751.923	8957
752.034	8717
752.145	9405
752.256	9586
752.367	9459
752.478	8670
752.589	9723
752.700	8473
752.811	8275
752.922	8552
753.032	9043
753.143	8315
753.254	9436
753.365	8959
753.476	8553
753.586	9189
753.697	8589
753.808	9285
753.919	9410
754.029	9444
754.140	9198
754.251	8563
754.361	9289
754.472	9762
754.582	9823
754.693	8559
754.804	9432
754.914	8793
755.025	8177
755.135	10128
755.246	9873
755.356	8743
755.466	9718
755.577	8670
755.687	9094
755.798	8810
755.908	10070
756.018	9685
756.129	9674
756.239	9494
756.349	9751
756.460	9341
756.570	11023
756.680	9771
756.790	10773
756.900	10406
757.011	10060
757.121	9432
757.231	10594
757.341	10414
757.451	10298
757.561	9750
757.671	9906
757.781	9830
757.891	11186
758.001	10427
758.111	10461
758.221	11818
758.331	11610
758.441	10229
758.551	11020
758.661	10868
758.771	11794
758.880	11787
758.990	11681
759.100	12092
759.210	10910
759.320	11777
759.429	12293
759.539	12179
759.649	12100
759.758	12508
759.868	13278
759.978	12334
760.087	13358
760.197	14274
760.307	13460
760.416	13911
760.526	13433
760.635	13586
760.745	14415
760.854	14482
760.964	15110
761.073	14084
761.182	15093
761.292	14855
761.401	15667
761.511	15884
761.620	16353
761.729	16728
761.839	16455
761.948	16977
762.057	17731
762.166	17361
762.276	17223
762.385	18736
762.494	18472
762.603	20004
762.712	21348
762.822	20419
762.931	21723
763.040	21538
763.149	23408
763.258	23449
763.367	25504
763.476	25875
763.585	27251
763.694	27599
763.803	28591
763.912	31245
764.021	33142
764.130	33825
764.238	36155
764.347	38974
764.456	41983
764.565	44972
764.674	48584
764.783	52475
764.891	58495
765.000	66477
765.109	73346
765.217	84337
765.326	100125
765.435	117784
765.543	144149
765.652	177686
765.761	234300
765.869	312317
765.978	444544
766.086	648873
766.195	957494
766.303	1213120
766.412	899575
766.520	981122
766.629	1100496
766.737	823048
766.846	562658
766.954	398121
767.062	293132
767.171	224296
767.279	176751
767.387	142503
767.496	121535
767.604	103680
767.712	90674
767.820	81696
767.928	74158
768.037	69141
768.145	66316
768.253	62932
768.361	61228
768.469	61681
768.577	61933
768.685	64482
768.793	68274
768.901	73866
769.009	89024
769.117	105535
769.225	132552
769.333	186827
769.441	278646
769.549	457142
769.657	784302
769.765	1069311
769.873	875151
769.981	955547
770.088	663159
770.196	404841
770.304	267974
770.412	190853
770.519	146198
770.627	115874
770.735	94797
770.842	78701
770.950	69383
771.058	60954
771.165	55115
771.273	49965
771.380	46096
771.488	41079
771.595	38438
771.703	36825
771.810	33799
771.918	32684
772.025	30537
772.133	28475
772.240	27037
772.348	26845
772.455	26038
772.562	24596
772.670	22651
772.777	23948
772.884	21011
772.991	20320
773.099	19908
773.206	18465
773.313	19497
773.420	18721
773.528	17418
773.635	17438
773.742	17244
773.849	16172
773.956	16101
774.063	15849
774.170	15566
774.277	16016
774.384	15022
774.491	14438
774.598	15459
774.705	14550
774.812	14987
774.919	14085
775.026	13248
775.133	13884
775.239	14131
775.346	13237
775.453	13222
775.560	13408
775.667	12691
775.773	12275
775.880	12935
775.987	12379
776.093	12335
776.200	12296
776.307	11439
776.413	11985
776.520	10974
776.627	11637
776.733	11937
776.840	9764
776.946	12821
777.053	10730
777.159	10023
777.266	8472
777.372	11562
777.478	11089
777.585	10556
777.691	9125
777.798	10344
777.904	10809
778.010	10572
778.117	9371
778.223	10285
778.329	8968
778.435	9538
778.542	9505
778.648	9406
778.754	9146
778.860	10658
778.966	8428
779.072	9884
779.178	9616
779.284	9240
779.391	10123
779.497	10281
779.603	15559
779.708	20606
779.815	49242
779.920	177732
780.026	252055
780.132	40767
780.238	13425
780.344	12295
780.450	10727
780.556	9710
780.661	7762
780.767	8807
780.873	7674
780.979	8008
781.085	7570
781.190	8695
781.296	7296
781.402	6956
781.507	7568
781.613	8160
781.719	6431
781.824	8133
781.930	6933
782.035	7519
782.141	7187
782.246	6157
782.352	6375
782.457	7377
782.563	7255
782.668	7328
782.773	6810
782.879	6723
782.984	7239
783.090	7632
783.195	7488
783.300	6570
783.405	6423
783.511	5777
783.616	7006
783.721	7414
783.826	6463
783.932	7180
784.037	6521
784.142	6819
784.247	6077
784.352	6530
784.457	5516
784.562	6154
784.667	5822
784.772	7354
784.877	5670
784.982	6257
785.087	5805
785.192	6762
785.297	5935
785.402	5472
785.507	5569
785.611	6411
785.716	5401
785.821	6799
785.926	6302
786.031	6495
786.135	6042
786.240	5678
786.345	4709
786.450	6382
786.554	4483
786.659	4473
786.763	4913
786.868	5645
786.973	5874
787.077	5502
787.182	5330
787.286	5883
787.391	4877
787.495	5032
787.600	4882
787.704	4753
787.809	5681
787.913	5720
788.017	5467
788.122	6214
788.226	5365
788.330	4870
788.435	5029
788.539	4814
788.643	4298
788.747	4552
788.852	4659
788.956	5648
789.060	5723
789.164	5074
789.268	4917
789.372	5639
789.476	4505
789.580	4891
789.684	3949
789.788	5144
789.892	3935
789.996	5016
790.100	5125
790.204	5188
790.308	4870
790.412	4591
790.516	5311
790.620	5237
790.724	5205
790.828	5391
790.931	4426
791.035	6643
791.139	4345
791.242	4326
791.346	5805
791.450	4971
791.554	3909
791.657	3960
791.761	5969
791.864	5416
791.968	4572
792.072	5201
792.175	4074
792.279	5155
792.382	5031
792.486	5031
792.589	4434
792.693	4566
792.796	3207
792.899	4961
793.003	4936
793.106	2922
793.209	4155
793.313	6144
793.416	2814
793.519	5700
793.623	4938
793.726	4594
793.829	4107
793.932	4289
794.035	2818
794.138	5559
794.242	5956
794.345	8352
794.448	11884
794.551	27421
794.654	99954
794.757	156605
794.860	25315
794.963	7719
795.066	4316
795.169	5383
795.272	4440
795.375	5389
795.477	3106
795.580	4648
795.683	2982
795.786	4821
795.889	2560
795.991	5140
796.094	4487
796.197	3379
796.300	4572
796.402	3506
796.505	3931
796.608	3760
796.710	4767
796.813	4725
796.915	3102
797.018	4289
797.120	4020
797.223	3199
797.326	4653
797.428	3094
797.530	3447
797.633	3263
797.735	4453
797.838	4066
797.940	4305
798.042	3379
798.145	2720
798.247	4332
798.349	2608
798.452	5047
798.554	3004
798.656	2859
798.758	3910
798.860	3678
798.962	2777
799.065	3406
799.167	2082
799.269	4586
799.371	2489
799.473	3617
799.575	2954
799.677	2926
799.779	4530
799.881	2680
799.983	3745
800.085	3925
800.187	3064
800.289	3042
800.390	3610
800.492	3827
800.594	4219
800.696	3181
800.798	3542
800.899	3539
801.001	3577
801.103	3334
801.205	2786
801.306	3424
801.408	2748
801.509	2895
801.611	3353
801.713	2909
801.814	2088
801.916	2957
802.017	2885
802.119	2750
802.220	2983
802.322	1221
802.423	4084
802.525	1593
802.626	3013
802.727	3391
802.829	2711
802.930	1163
803.031	4797
803.133	3030
803.234	3548
803.335	2878
803.436	1981
803.538	3963
803.639	2100
803.740	3641
803.841	2447
803.942	3453
804.043	3779
804.144	2528
804.245	3162
804.346	2812
804.447	2174
804.548	3234
804.649	4226
804.750	2448
804.851	2382
804.952	2243
805.053	2380
805.154	2068
805.255	2544
805.355	3123
805.456	2439
805.557	1543
805.658	1647
805.758	3035
805.859	1678
805.960	2982
806.061	2788
806.161	2417
806.262	2178
806.362	2345
806.463	2165
806.564	3073
806.664	2686
806.765	3032
806.865	2322
806.966	2464
807.066	2100
807.166	2839
807.267	3338
807.367	2264
807.468	3055
807.568	1767
807.668	3317
807.769	3561
807.869	2602
807.969	2956
808.069	2503
808.170	2147
808.270	2129
808.370	2545
808.470	1932
808.570	1779
808.670	1950
808.770	3129
808.870	1563
808.970	3721
809.070	2493
809.170	2440
809.271	2828
809.370	2783
809.470	3072
809.570	3074
809.670	2082
809.770	2579
809.870	2407
809.970	2824
810.070	2055
810.169	2621
810.269	1696
810.369	3183
810.469	2135
810.568	2686
810.668	1819
810.768	1402
810.867	2805
810.967	2633
811.066	1754
811.166	2745
811.265	2466
811.365	3227
811.464	1769
811.564	2716
811.663	3068
811.763	2374
811.862	2713
811.962	2941
812.061	1749
812.160	3156
812.260	2128
812.359	2914
812.458	2780
812.557	5608
812.657	4076
812.756	3396
812.855	2582
812.954	2183
813.053	3005
813.153	2614
813.252	1748
813.351	3264
813.450	2745
813.549	2377
813.648	2728
813.747	2512
813.846	2889
813.945	2163
814.044	2907
814.143	3203
814.242	3509
814.341	2213
814.439	3015
814.538	3195
814.637	2770
814.736	3816
814.835	3142
814.933	2934
815.032	3584
815.131	3769
815.229	3899
815.328	4564
815.427	3435
815.525	3831
815.624	3837
815.722	4321
815.821	4062
815.919	4383
816.018	4400
816.116	5445
816.215	4629
816.313	5188
816.412	5426
816.510	5540
816.609	7274
816.707	6946
816.805	5533
816.904	5917
817.002	6385
817.100	8566
817.198	8004
817.296	8993
817.395	9589
817.493	10898
817.591	12220
817.689	15804
817.787	20307
817.885	31286
817.983	49475
818.081	95020
818.179	199673
818.277	378423
818.375	321532
818.473	147536
818.571	69583
818.669	46357
818.767	38090
818.865	38586
818.963	43425
819.061	57157
819.158	91487
819.256	166751
819.354	317725
819.452	469060
819.549	342659
819.647	187098
819.745	96653
819.842	59901
819.940	40657
820.038	29606
820.135	24961
820.233	21017
820.330	15393
820.428	13062
820.525	13150
820.623	9765
820.720	7966
820.818	8621
820.915	8050
821.012	7585
821.110	5990
821.207	7653
821.304	6505
821.402	6288
821.499	5902
821.596	5845
821.693	5306
821.791	6077
821.888	5885
821.985	5356
822.082	3909
822.179	5037
822.276	3688
822.373	4142
822.470	3829
822.567	5009
822.664	3383
822.761	4894
822.858	3622
822.955	4037
823.052	2987
823.149	4195
823.246	3839
823.343	3127
823.440	4238
823.536	3808
823.633	2661
823.730	4418
823.827	2702
823.923	3243
824.020	3770
824.117	2612
824.213	2848
824.310	3782
824.407	2110
824.503	3251
824.600	3156
824.696	3573
824.793	3187
824.889	2967
824.986	2639
825.082	2870
825.179	2519
825.275	2623
825.371	2016
825.468	3122
825.564	1809
825.660	3385
825.757	2728
825.853	3528
825.949	2266
826.045	2320
826.142	2530
826.238	2152
826.334	2729
826.430	2064
826.526	2854
826.622	2333
826.718	2130
826.814	2801
826.910	2458
827.006	1909
827.102	1596
827.198	3331
827.294	2716
827.390	2458
827.486	2444
827.582	1199
827.678	1054
827.774	2953
827.869	1768
827.965	3009
828.061	1929
828.157	3420
828.252	2646
828.348	1550
828.444	3029
828.539	1724
828.635	1922
828.731	2672
828.826	996
828.922	3351
829.017	1849
829.113	1935
829.208	1561
829.304	1267
829.399	3231
829.495	1840
829.590	2333
829.685	1303
829.781	1758
829.876	1801
829.971	1563
830.066	1991
830.162	1242
830.257	1782
830.352	1505
830.447	2847
830.543	1789
830.638	888
830.733	3234
830.828	2589
830.923	2048
831.018	2853
831.113	2167
831.208	1949
831.303	1976
831.398	1558
831.493	1854
831.588	2467
831.683	1692
831.778	1058
831.873	1296
831.967	2610
832.062	562
832.157	1023
832.252	2289
832.346	1595
832.441	2054
832.536	2545
832.631	3157
832.725	2249
832.820	1409
832.914	1524
833.009	1388
833.104	1703
833.198	1744
833.293	1853
833.387	1389
833.482	2119
833.576	1347
833.670	2457
833.765	1698
833.859	1090
833.954	1905
834.048	2116
834.142	1826
834.237	1565
834.331	1385
834.425	1631
834.519	1013
834.613	2088
834.708	1468
834.802	1731
834.896	1692
834.990	2369
835.084	1725
835.178	1374
835.272	1328
835.366	1211
835.460	1586
835.554	1663
835.648	1052
835.742	1704
835.836	1767
835.930	423
836.024	2006
836.117	2778
836.211	710
836.305	1968
836.399	2153
836.493	1095
836.586	2508
836.680	2205
836.774	1125
836.867	2308
836.961	740
837.055	1151
837.148	660
837.242	1962
837.335	287
837.429	1540
837.522	1078
837.616	1881
837.709	2495
837.803	1368
837.896	1026
837.989	1485
838.083	1444
838.176	2703
838.269	2025
838.363	2642
838.456	1303
838.549	2213
838.642	1788
838.735	3004
838.829	1796
838.922	1612
839.015	1551
839.108	620
839.201	1984
839.294	2628
839.387	1650
839.480	1860
839.573	1698
839.666	2250
839.759	1637
839.852	830
839.945	1275
840.038	870
840.131	1088
840.223	2173
840.316	1984
840.409	2156
840.502	688
840.594	2438
840.687	50
840.780	2317
840.873	1059
840.965	1244
841.058	2053
841.150	2864
841.243	1744
841.336	1903
841.428	1058
841.521	1112
841.613	874
841.706	2362
841.798	1135
841.890	926
841.983	197
842.075	2181
842.167	-18
842.260	1536
842.352	2084
842.444	996
842.537	2631
842.629	3472
842.721	1088
842.813	871
842.905	611
842.997	1542
843.090	1134
843.182	1765
843.274	1772
843.366	5344
843.458	6494
843.550	5008
843.642	1457
843.734	1542
843.826	693
843.918	1140
844.009	1819
844.101	1502
844.193	1886
844.285	1495
844.377	1635
844.469	2058
844.560	213
844.652	1742
844.744	1168
844.835	1264
844.927	493
845.019	494
845.110	1643
845.202	898
845.293	560
845.385	458
845.476	521
845.568	1862
845.659	279
845.751	868
845.842	1187
845.934	757
846.025	731
846.116	1665
846.208	1568
846.299	750
846.390	629
846.482	1730
846.573	1568
846.664	1601
846.755	654
846.846	1953
846.937	-329
847.029	1030
847.120	651
847.211	1205
847.302	2148
847.393	-19
847.484	2029
847.575	32
847.666	845
847.757	641
847.847	1749
847.938	1744
848.029	629
848.120	886
848.211	541
848.302	1133
848.392	80
848.483	2048
848.574	1196
848.664	1834
848.755	1270
848.846	1581
848.936	1012
849.027	878
849.118	116
849.208	472
849.299	1366
849.389	1824
849.480	1724
849.570	2588
849.661	3718
849.751	5802
849.841	2699
849.932	947
850.022	908
850.112	1169
850.203	135
850.293	1476
850.383	542
850.474	823
850.564	917
850.654	1784
850.744	832
850.834	941
850.924	1120
851.014	1758
851.104	745
851.194	1104
851.284	720
851.374	1260
851.464	-170
851.554	1630
851.644	700
851.734	2598
851.824	2691
851.914	2597
852.004	6764
852.094	7028
852.183	2252
852.273	810
852.363	1187
852.452	650
852.542	459
852.632	1146
852.721	389
852.811	724
852.901	918
852.990	880
853.080	796
853.169	962
853.259	1044
853.348	505
853.438	564
853.527	2056
853.617	254
853.706	3458
853.795	3461
853.885	7089
853.974	11100
854.063	21869
854.152	31953
854.242	12652
854.331	2493
854.420	1450
854.509	591
854.598	911
854.687	1487
854.777	2093
854.866	210
854.955	1249
855.044	678
855.133	798
855.222	626
855.311	1167
855.400	606
855.488	702
855.577	171
855.666	1116
855.755	1653
855.844	1271
855.933	1592
856.021	2150
856.110	406
856.199	60
856.288	530
856.376	331
856.465	125
856.554	1538
856.642	593
856.731	328
856.819	645
856.908	994
856.996	171
857.085	1074
857.173	601
857.262	121
857.350	436
857.438	1098
857.527	400
857.615	726
857.703	857
857.792	422
857.880	710
857.968	557
858.056	791
858.145	650
858.233	142
858.321	-103
858.409	929
858.497	1586
858.585	522
858.673	603
858.761	-87
858.849	93
858.937	583
859.025	617
859.113	1695
859.201	440
859.289	1148
859.377	433
859.465	311
859.552	408
859.640	167
859.728	1442
859.816	668
859.903	460
859.991	187
860.079	1306
860.166	821
860.254	882
860.342	1827
860.429	-446
860.517	591
860.604	422
860.692	647
860.779	545
860.867	340
860.954	1040
861.042	318
861.129	1477
861.216	1001
861.304	1148
861.391	245
861.478	1376
861.565	640
861.653	1341
861.740	-380
861.827	1043
861.914	511
862.001	852
862.089	469
862.176	1717
862.263	-195
862.350	1287
862.437	-57
862.524	591
862.611	697
862.698	414
862.785	780
862.871	751
862.958	381
863.045	861
863.132	349
863.219	726
863.306	-452
863.392	1661
863.479	454
863.566	958
863.652	1056
863.739	295
863.826	630
863.912	826
863.999	-222
864.086	978
864.172	1083
864.259	1454
864.345	576
864.432	1636
864.518	1338
864.604	917
864.691	571
864.777	1168
864.863	273
864.950	1511
865.036	850
865.122	2127
865.209	2277
865.295	2070
865.381	1788
865.467	2496
865.553	2097
865.639	1621
865.726	1968
865.812	4074
865.898	7115
865.984	8928
866.070	15201
866.156	17138
866.242	5370
866.328	2891
866.414	2116
866.499	1543
866.585	1319
866.671	1950
866.757	1572
866.843	2292
866.928	934
867.014	2150
867.100	1902
867.186	1294
867.271	2235
867.357	2387
867.442	1445
867.528	1509
867.614	1310
867.699	465
867.785	1990
867.870	1120
867.956	1053
868.041	1711
868.127	1104
868.212	1834
868.297	1742
868.383	1695
868.468	1416
868.553	3000
868.639	1325
868.724	2347
868.809	3374
868.894	866
868.979	514
869.065	1762
869.150	337
869.235	2485
869.320	1321
869.405	1304
869.490	1161
869.575	1386
869.660	803
869.745	1432
869.830	586
869.915	1827
870.000	1450
870.085	1099
870.169	1213
870.254	1751
870.339	524
870.424	1352
870.509	856
870.593	1031
870.678	1100
870.763	1669
870.847	427
870.932	618
871.016	623
871.101	739
871.186	1125
871.270	1715
871.355	144
871.439	1249
871.523	1937
871.608	1501
871.692	506
871.777	1458
871.861	622
871.945	93
872.030	930
872.114	875
872.198	173
872.282	885
872.367	985
872.451	611
872.535	494
872.619	1199
872.703	528
872.787	332
872.871	900
872.955	230
873.039	81
873.123	894
873.207	923
873.291	652
873.375	768
873.459	1741
873.543	279
873.627	793
873.711	821
873.794	721
873.878	258
873.962	51
874.045	254
874.129	879
874.137	789
874.213	-109
874.245	-24
874.296	116
874.352	513
874.380	707
874.460	888
874.464	895
874.547	1329
874.568	1232
874.631	940
874.676	895
874.714	865
874.784	871
874.798	869
874.881	1974
874.892	1807
874.965	686
874.999	715
875.048	727
875.107	929
875.131	1019
875.215	452
875.215	452
875.298	423
875.323	312
875.381	5
875.430	308
875.465	565
875.538	437
875.548	417
875.631	646
875.646	674
875.714	729
875.753	582
875.798	425
875.861	953
875.881	1121
875.964	668
875.968	636
876.047	133
876.076	454
876.130	1019
876.183	464
876.213	155
876.291	1295
876.296	1369
876.379	-234
876.398	-166
876.462	146
876.506	352
876.545	527
876.613	332
876.628	299
876.711	234
876.721	260
876.794	381
876.828	337
876.877	294
876.935	486
876.960	534
877.043	646
877.043	644
877.125	367
877.150	482
877.208	780
877.258	714
877.291	645
877.365	508
877.374	515
877.456	213
877.472	268
877.539	238
877.579	459
877.622	690
877.687	300
877.704	239
877.787	442
877.794	458
877.869	588
877.901	770
877.952	1104
878.008	1016
878.034	877
878.115	609
878.117	609
878.199	132
878.222	339
878.282	814
878.329	525
878.364	263
878.437	425
878.447	458
878.529	610
878.544	630
878.611	556
878.651	284
878.694	193
878.758	393
878.776	408
878.858	636
878.865	658
878.941	554
878.972	-126
879.023	-942
879.078	-423
879.105	-172
879.185	361
879.187	372
879.269	1402
879.292	1156
879.351	316
879.399	-58
879.433	-228
879.506	637
879.516	733
879.598	290
879.613	223
879.680	169
879.720	521
879.762	736
879.827	448
879.844	337
879.926	285
879.933	255
880.007	186
880.040	200
880.089	252
880.147	287
880.171	281
880.253	274
880.254	274
880.335	476
880.360	593
880.417	852
880.467	758
880.499	754
880.574	1151
880.580	1152
880.662	1001
880.680	693
880.744	-407
880.787	-90
880.825	285
880.893	-140
880.907	-233
880.989	-582
881.000	-487
881.070	238
881.106	219
881.152	283
881.213	527
881.233	435
881.315	-310
881.319	-303
881.396	686
881.426	734
881.478	532
881.532	548
881.559	526
881.639	-49
881.641	-65
881.722	113
881.745	-7
881.803	-62
881.852	151
881.885	382
881.958	603
881.966	576
882.047	653
882.064	564
882.129	78
882.171	46
882.210	319
882.277	438
882.291	400
882.372	366
882.383	315
882.454	256
882.489	315
882.535	104
882.596	-68
882.616	-99
882.697	-431
882.702	-441
882.778	93
882.808	375
882.859	193
882.914	-14
882.940	24
883.020	-190
883.021	-191
883.102	-6
883.127	267
883.183	713
883.233	339
883.264	126
883.339	228
883.345	256
883.426	392
883.445	585
883.507	559
883.551	35
883.587	-126
883.657	177
883.668	283
883.749	738
883.763	857
883.830	530
883.869	21
883.910	-272
883.975	-251
883.991	-168
884.072	168
884.081	200
884.152	118
884.187	-16
884.233	-25
884.292	315
884.314	369
884.394	-52
884.398	-43
884.475	227
884.504	167
884.555	29
884.610	122
884.636	122
884.716	-292
884.716	-292
884.797	48
884.821	170
884.877	275
884.927	203
884.958	179
885.033	33
885.038	19
885.118	-77
885.139	-68
885.199	-51
885.244	42
885.279	96
885.350	-51
885.359	-52
885.439	-67
885.456	-73
885.520	-13
885.561	131
885.600	31
885.667	-196
885.680	-86
885.760	515
885.773	603
885.840	451
885.878	443
885.920	549
885.984	480
886.000	318
886.080	-54
886.089	-128
886.160	65
886.195	203
886.240	204
886.300	90
886.320	27
886.400	245
886.406	225
886.480	-88
886.511	-137
886.560	-380
886.616	-758
886.640	-591
886.720	215
886.722	235
886.800	205
886.827	124
886.879	117
886.932	111
886.959	178
887.038	404
887.039	400
887.119	19
887.143	-58
887.198	-130
887.248	-218
887.278	-65
887.354	461
887.358	439
887.437	-322
887.459	-439
887.517	-90
887.564	101
887.596	180
887.669	394
887.676	389
887.755	226
887.774	211
887.835	83
887.880	5
887.914	199
887.985	521
887.994	479
888.073	120
888.090	54
888.153	336
888.195	456
888.232	83
888.300	-447
888.311	-354
888.391	222
888.405	333
888.470	-80
888.510	-346
888.549	-51
888.615	468
888.628	406
888.708	20
888.720	-26
888.787	-111
888.825	-204
888.866	-148
888.930	-65
888.945	-59
889.024	85
889.035	100
889.103	44
889.140	9
889.182	-205
889.245	-494
889.261	-413
889.340	5
889.349	56
889.419	643
889.454	944
889.498	311
889.559	-551
889.577	-276
889.656	947
889.664	1072
889.735	492
889.768	213
889.814	328
889.873	489
889.978	-35
890.083	244
890.187	-572
890.292	-22
890.397	294
890.501	207
890.606	-360
890.710	-13
890.815	-192
890.919	-422
891.024	-128
891.128	773
891.233	156
891.337	-315
891.442	-652
891.546	-36
891.650	464
891.755	724
891.859	1126
891.963	678
892.068	672
892.172	525
892.276	-680
892.380	29
892.484	-680
892.589	72
892.693	-679
892.797	314
892.901	-185
893.005	-162
893.109	-196
893.213	187
893.317	-34
893.421	234
893.525	-393
893.629	40
893.733	772
893.837	-191
893.941	-582
894.045	1551
894.148	-597
894.252	21
894.356	-371
894.460	1354
894.564	-87
894.667	144
894.771	390
894.875	-297
894.978	-403
895.082	385
895.186	656
895.289	686
895.393	465
895.496	-697
895.600	-675
895.703	547
895.807	-353
895.910	-421
896.014	-291
896.117	361
896.221	-435
896.324	448
896.427	-341
896.531	-858
896.634	-231
896.737	348
896.840	7
896.944	984
897.047	497
897.150	23
897.253	-782
897.356	442
897.460	576
897.563	-58
897.666	25
897.769	1122
897.872	-1014
897.975	-225
898.078	257
898.181	57
898.284	-839
898.387	173
898.490	-67
898.593	388
898.695	-377
898.798	160
898.901	252
899.004	-376
899.107	-286
899.209	110
899.312	584
899.415	219
899.518	-579
899.620	262
899.723	296
899.826	127
899.928	1220
900.031	187
900.133	-99
900.236	-471
900.338	368
900.441	-78
900.543	-615
900.646	-141
900.748	-101
900.851	416
900.953	-389
901.055	146
901.158	373
901.260	-2
901.362	-237
901.465	-199
901.567	171
901.669	624
901.771	-532
901.873	607
901.976	-556
902.078	203
902.180	417
902.282	368
902.384	-511
902.486	-104
902.588	-74
902.690	526
902.792	-889
902.894	508
902.996	86
903.098	428
903.200	173
903.302	-46
903.404	280
903.505	386
903.607	692
903.709	405
903.811	-700
903.913	432
904.014	178
904.116	-39
904.218	517
904.319	846
904.421	437
904.523	-583
904.624	613
904.726	164
904.827	89
904.929	-134
905.030	-66
905.132	47
905.233	-115
905.335	-146
905.436	-688
905.537	349
905.639	-567
905.740	-614
905.841	-195
905.943	358
906.044	43
906.145	-279
906.247	-250
906.348	-40
906.449	-198
906.550	-39
906.651	65
906.752	-187
906.854	-370
906.955	-664
907.056	-845
907.157	-588
907.258	217
907.359	-193
907.460	-646
907.561	-35
907.662	-660
907.762	-565
907.863	-88
907.964	-407
908.065	459
908.166	-52
908.267	-408
908.367	149
908.468	-323
908.569	464
908.670	274
908.770	-246
908.871	-110
908.971	-104
909.072	96
909.173	-260
909.273	-759
909.374	471
909.474	-656
909.575	-205
909.675	-243
909.776	-245
909.876	-1212
909.977	164
910.077	332
910.177	862
910.278	143
910.378	-293
910.478	-152
910.579	-573
910.679	-408
910.779	-461
910.879	116
910.980	234
911.080	-771
911.180	-117
911.280	-49
911.380	259
911.480	-192
911.580	-554
911.680	-863
911.780	-739
911.880	-647
911.980	420
912.080	-752
912.180	-498
912.280	-754
912.380	-645
912.480	-746
912.580	-238
912.679	-767
912.779	-297
912.879	-994
912.979	-20
913.078	-830
913.178	47
913.278	-911
913.377	-8
913.477	-742
913.577	213
913.676	-650
913.776	-248
913.875	183
913.975	-198
914.074	-860
914.174	260
914.273	-1244
914.373	250
914.472	-477
914.572	-376
914.671	-655
914.770	193
914.870	107
914.969	-838
915.068	-255
915.167	26
915.267	-814
915.366	-24
915.465	-74
915.564	-169
915.663	552
915.763	227
915.862	-145
915.961	5
916.060	-251
916.159	-337
916.258	-765
916.357	146
916.456	329
916.555	-377
916.654	-446
916.752	-187
916.851	-630
916.950	377
917.049	-16
917.148	-284
917.247	295
917.345	-166
917.444	-1137
917.543	440
917.642	-723
917.740	-72
917.839	-243
917.937	408
918.036	45
918.135	-734
918.233	-931
918.332	-357
918.430	3
918.529	-80
918.627	-103
918.726	-273
918.824	-809
918.923	-939
919.021	228
919.119	-370
919.218	-434
919.316	-565
919.414	-257
919.512	-161
919.611	-578
919.709	-98
919.807	-776
919.905	-400
920.003	-588
920.102	24
920.200	-1024
920.298	-38
920.396	-1020
920.494	-205
920.592	-578
920.690	-38
920.788	-677
920.886	-409
920.984	128
921.082	-747
921.180	-178
921.277	-542
921.375	-476
921.473	218
921.571	-550
921.669	-220
921.766	-1136
921.864	24
921.962	-218
922.060	-33
922.157	-715
922.255	-551
922.352	-959
922.450	-27
922.548	-591
922.645	40
922.743	-947
922.840	-23
922.938	-481
923.035	-54
923.133	-469
923.230	-463
923.327	-184
923.425	-479
923.522	-400
923.619	-317
923.717	-217
923.814	143
923.911	-129
924.008	971
924.106	-753
924.203	114
924.300	-1298
924.397	-144
924.494	21
924.591	213
924.688	-41
924.786	-926
924.883	-687
924.979	-319
925.077	-322
925.173	-46
925.270	-279
925.367	161
925.464	69
925.561	199
925.658	-178
925.755	394
925.852	-303
925.948	542
926.045	7
926.142	-169
926.239	-609
926.335	-392
926.432	-352
926.529	28
926.625	-296
926.722	368
926.818	-526
926.915	148
927.011	-399
927.108	31
927.204	-641
927.301	-660
927.397	-1023
927.494	-738
927.590	-886
927.687	-99
927.783	84
927.879	-460
927.976	17
928.072	-263
928.168	-114
928.264	-457
928.361	-264
928.457	352
928.553	-210
928.649	-186
928.745	217
928.841	-871
928.937	-627
929.033	-3
929.129	-578
929.225	-40
929.321	-1308
929.417	90
929.513	-595
929.609	-208
929.705	-523
929.801	75
929.897	-261
929.993	-881
930.089	-619
930.184	-778
930.280	-339
930.376	205
930.471	-718
930.567	-279
930.663	-316
930.758	-591
930.854	-154
930.950	-752
931.045	-834
931.141	-415
931.236	132
931.332	120
931.427	-1182
931.523	39
931.618	-538
931.714	-655
931.809	160
931.905	-385
932.000	-702
932.095	-1065
932.191	-239
932.286	-178
932.381	-497
932.476	-771
932.572	-463
932.667	-91
932.762	464
932.857	-280
932.952	-980
933.047	57
933.142	-580
933.237	-282
933.332	-747
933.427	325
933.522	-806
933.617	-220
933.712	-459
933.807	-624
933.902	-920
933.997	-430
934.092	-1212
934.187	-942
934.282	-743
934.376	-573
934.471	39
934.566	153
934.661	268
934.755	-1013
934.850	-416
934.945	-244
935.039	-648
935.134	-926
935.228	-587
935.323	-505
935.417	-275
935.512	-408
935.606	-979
935.701	-1048
935.795	-817
935.890	-637
935.984	-175
936.079	-1234
936.173	-117
936.267	-19
936.362	-698
936.456	138
936.550	-400
936.644	-11
936.738	-138
936.833	-767
936.927	154
937.021	201
937.115	-44
937.209	-1187
937.303	280
937.397	-204
937.491	-276
937.585	388
937.679	-835
937.773	-644
937.867	-934
937.961	-109
938.055	-580
938.149	168
938.243	-227
938.337	177
938.430	-633
938.524	-618
938.618	-742
938.712	-1042
938.805	-837
938.899	-1354
938.993	-1188
939.086	226
939.180	-1244
939.274	606
939.367	-306
939.461	-431
939.554	-576
939.648	-621
939.741	-802
939.835	-513
939.928	-1381
940.022	-1037
940.115	-655
940.208	-55
940.302	-223
940.395	118
940.488	-1502
940.582	474
940.675	-1386
940.768	118
940.861	-442
940.954	129
941.048	-373
941.141	-440
941.234	-809
941.327	-955
941.420	3
941.513	-230
941.606	-405
941.699	250
941.792	-672
941.885	-1036
941.978	-637
942.071	44
942.164	-645
942.257	-1079
942.349	-639
942.442	-914
942.535	-1228
942.628	-582
942.721	205
942.813	-1843
942.906	53
942.999	-1060
943.091	-1150
943.184	-273
943.277	-869
943.369	-47
943.462	-1306
943.554	-588
943.647	-1017
943.739	-608
943.832	-1303
943.924	-1634
944.017	-416
944.109	-1407
944.201	-416
944.294	-515
944.386	-766
944.478	-1048
944.571	-1388
944.663	-590
944.755	-776
944.847	-304
944.940	-938
945.032	-964
945.124	-604
945.216	-17
945.308	-696
945.400	-702
945.492	-1306
945.584	-980
945.676	-1091
945.768	-679
945.860	-1104
945.952	-1456
946.044	-699
946.136	-885
946.228	-1499
946.320	-702
946.412	-556
946.503	-47
946.595	-324
946.687	-1267
946.779	-817
946.870	159
946.962	-573
947.054	-417
947.145	-759
947.237	-540
947.329	-581
947.420	-863
947.512	120
947.603	-1133
947.695	-706
947.786	-284
947.878	-827
947.969	-198
948.061	-1571
948.152	-440
948.243	-690
948.335	-422
948.426	-1010
948.517	-1199
948.609	-895
948.700	-1032
948.791	-1103
948.882	-280
948.973	-475
949.065	-627
949.156	-943
949.247	-1460
949.338	-1105
949.429	-999
949.520	-1529
949.611	-999
949.702	-742
949.793	-685
949.884	-1031
949.975	-1057
950.066	-510
950.157	-1226
950.247	-1637
950.338	-598
950.429	-997
950.520	-508
950.611	-954
950.701	-439
950.792	-1037
950.883	-842
950.973	-2014
951.064	-1257
951.155	-452
951.245	-382
951.336	-1309
951.427	-1409
951.517	-834
951.608	-1351
951.698	-932
951.788	-1077
951.879	-1009
951.969	-832
952.060	-654
952.150	-828
952.240	-339
952.331	-3085
952.421	212
952.511	-892
952.602	-1157
952.692	-1099
952.782	-1204
952.872	-1389
952.962	-1950
953.052	-1389
953.143	-1989
953.233	131
953.323	-951
953.413	-1364
953.503	39
953.593	-863
953.683	-1486
953.773	-1146
953.863	-885
953.953	-763
954.042	-1974
954.132	-1290
954.222	158
954.312	-724
954.402	-1361
954.492	-646
954.581	-715
954.671	-1912
954.761	-1921
954.850	-53
954.940	-1888
955.030	-1232
955.119	-765
955.209	-720
955.298	-1405
955.388	-1362
955.477	-333
955.567	-1931
955.656	-921
955.746	-626
955.835	-1059
955.925	-1294
956.014	-1637
956.103	-188
956.193	-1340
956.282	-177
956.371	-1026
956.461	-791
956.550	-838
956.639	-770
956.728	-1188
956.817	-537
956.906	-949
956.995	-300
957.085	-1373
957.174	-1637
957.263	-824
957.352	-778
957.441	-1572
957.530	-459
957.619	-706
957.708	-974
957.796	-1265
957.885	-1050
957.974	-1870
958.063	-602
958.152	-1083
958.241	-501
958.329	-2123
958.418	-928
958.507	-1844
958.596	-1243
958.684	-1720
958.773	-556
958.861	-2222
958.950	-871
959.039	-1629
959.127	-1863
959.216	-355
959.304	-1270
959.393	-1090
959.481	-764
959.570	-1711
959.658	-1529
959.746	-1773
959.835	-185
959.923	-577
960.011	-1350
960.100	-766
960.188	-778
960.276	-1554
960.365	-1496
960.453	-898
960.541	-1621
960.629	-1337
960.717	-1097
960.805	-1544
960.893	-1186
960.981	-1520
961.069	-834
961.158	-1241
961.245	-1130
961.333	-2280
961.421	-1384
961.509	-780
961.597	-1980
961.685	-1334
961.773	-947
961.861	-1445
961.949	-286
962.036	-1884
962.124	-1542
962.212	-1249
962.299	-1503
962.387	-1061
962.475	-1122
962.562	-1946
962.650	-882
962.738	-1600
962.825	-1262
962.913	-1134
963.000	-1525
963.088	-1586
963.175	-1965
963.263	-1101
963.350	-1762
963.438	-2199
963.525	-2117
963.612	-1161
963.700	-994
963.787	1596
963.874	-675
963.962	-1034
964.049	-556
964.136	-1634
964.223	-892
964.310	-1064
964.398	-718
964.485	-1754
964.572	-1082
964.659	-863
964.746	-615
964.833	-1671
964.920	-1056
965.007	-1551
965.094	-1652
965.181	-1123
965.268	-1523
965.355	-1617
965.441	-1541
965.528	-2298
965.615	-410
965.702	-1036
965.789	-1077
965.875	-1623
965.962	-1299
966.049	-1892
966.136	-1117
966.222	-2115
966.309	-807
966.395	-1819
966.482	-1685
966.569	-1422
966.655	-1018
966.742	-1950
966.828	-904
966.915	-1739
967.001	-764
967.087	-2012
967.174	-661
967.260	-1066
967.347	-545
967.433	-896
967.519	-4
967.605	-572
967.692	-1286
967.778	-1326
967.864	-1202
967.950	-1206
968.036	-1565
968.123	-1023
968.209	-1194
968.295	-2115
968.381	-243
968.467	-1262
968.553	-1892
968.639	-722
968.725	-1395
968.811	-1076
968.897	-631
968.983	-1933
969.069	-1447
969.154	-1277
969.240	-164
969.326	-1422
969.412	-1435
969.497	-1360
969.583	-1301
969.669	-1323
969.755	-1455
969.840	-2067
969.926	-702
970.012	-778
970.097	-451
970.183	-2185
970.268	-411
970.354	-377
970.439	-1648
970.525	278
970.610	-1018
970.696	-53
970.781	-1156
970.866	-2079
970.952	238
971.037	-1349
971.122	-1494
971.208	-1482
971.293	-593
971.378	-2017
971.463	-1024
971.549	-829
971.634	-622
971.719	-1199
971.804	-1132
971.889	-870
971.974	-1795
972.059	-1750
972.144	-1258
972.229	-1075
972.314	-1508
972.399	-1128
972.484	-1620
972.569	-856
972.654	-1931
972.739	-274
972.824	-1102
972.908	-946
972.993	-482
973.078	-1751
973.163	69
973.247	-1440
973.332	-2867
973.417	-161
973.501	-1046
973.586	-1442
973.671	-1196
973.755	-1413
973.840	-525
973.924	-241
974.009	-1235
974.093	-1959
974.178	-889
974.262	-1781
974.346	-1130
974.431	-1171
974.515	-1032
974.600	-1577
974.684	-653
974.768	-1450
974.852	-211
974.937	-2040
975.021	-600
975.105	-1265
975.189	-1585
975.273	-69
975.358	-1373
975.442	-2330
975.526	-912
975.610	-1802
975.694	-1808
975.778	-588
975.862	-1219
975.946	-3213
976.030	279
976.114	-1979
976.198	-1084
976.281	-1475
976.365	-270
976.449	-1614
976.533	-1197
976.617	-1661
976.700	-883
976.784	-962
976.868	-2157
976.951	-1165
977.035	-1620
977.119	-524
977.202	-887
977.286	-970
977.369	-1458
977.453	-1284
977.536	-891
977.620	-2139
977.703	-554
977.787	-2694
977.870	-742
977.953	-311
978.037	-1942
978.120	-715
978.203	-1630
978.287	-641
978.370	-1635
978.453	-494
978.536	-1246
978.620	-108
978.703	-649
978.786	-1625
978.869	-1917
978.952	-1644
979.035	105
979.118	-999
979.201	-1385
979.284	-496
979.367	-1876
979.450	-1284
979.533	-1259
979.616	-1390
979.699	-876
979.782	-884
979.865	-1609
979.948	-1524
980.030	-1760
980.113	-1242
980.196	-1525
980.279	-509
980.361	-1624
980.444	-1988
980.526	-660
980.609	-1388
980.692	-1310
980.774	-1412
980.857	-2417
980.939	-729
981.022	-1060
981.104	-2002
981.187	-1980
981.269	-1366
981.352	-772
981.434	-1555
981.516	-1147
981.599	-372
981.681	-1820
981.763	-1415
981.846	-1341
981.928	-1632
982.010	-1120
982.092	-2034
982.174	-483
982.256	-1762
982.339	-1310
982.421	-1167
982.503	-527
982.585	-2175
982.667	-1608
982.749	-1098
982.831	-1257
982.913	-2482
982.995	34
983.077	-2091
983.158	-797
983.240	-2668
983.322	-546
983.404	-759
983.486	-1998
983.568	-1011
983.649	-1462
983.731	-1089
983.813	-1264
983.894	-748
983.976	-1330
984.058	-1911
984.139	5
984.221	-2591
984.302	-352
984.384	-1014
984.465	-1418
984.547	-676
984.628	-1313
984.710	15
984.791	-1571
984.872	-1809
984.954	-1648
985.035	-627
985.116	-1680
985.198	-1781
985.279	-241
985.360	-1912
985.441	-510
985.522	-1086
985.604	-1840
985.685	-3615
985.766	22
985.847	176
985.928	-1152
986.009	-1936
986.090	-1580
986.171	-1290
986.252	-1702
986.333	-553
986.414	-1710
986.495	-1252
986.576	-1506
986.656	-1015
986.737	174
986.818	-1093
986.899	-1526
986.980	-1374
987.060	261
987.141	-2179
987.222	-934
987.302	-1060
987.383	-413
987.464	-1628
987.544	-1467
987.625	-1661
987.705	-54
987.786	-1291
987.866	-1209
987.947	-1255
988.027	-1335
988.108	-1506
988.188	-1043
988.268	-1249
988.349	-550
988.429	-1522
988.509	-997
988.589	-1598
988.670	-2662
988.750	-223
988.830	-1967
988.910	-1054
988.990	-1047
989.070	-1112
989.151	-965
989.231	-2003
989.311	-932
989.391	-707
989.471	-1533
989.551	-1099
989.631	-1029
989.711	-774
989.791	-1375
989.870	-2188
989.950	-285
990.030	-2193
990.110	-981
990.190	-1754
990.269	-1429
990.349	-983
990.429	-1379
990.509	-1265
990.588	-1304
990.668	-665
990.747	-1717
990.827	-1884
990.907	-1928
990.986	-1769
991.066	-1229
991.145	-1373
991.225	-1155
991.304	-2070
991.383	-1463
991.463	-1472
991.542	-679
991.622	-2242
991.701	-1766
991.780	-2275
991.859	-972
991.939	-1586
992.018	-1771
992.097	-1059
992.176	-890
992.256	-1695
992.335	-1460
992.414	-717
992.493	-1331
992.572	-2063
992.651	-598
992.730	-919
992.809	-400
992.888	-2038
992.967	-1369
993.046	-696
993.125	-2151
993.203	-1728
993.282	-1466
993.361	-960
993.440	-1839
993.519	-1595
993.597	-1083
993.676	-2429
993.755	-701
993.834	-1250
993.912	-2103
993.991	-873
994.069	-1348
994.148	-1270
994.226	-2213
994.305	-1096
994.384	-1786
994.462	-549
994.540	-2096
994.619	-1319
994.697	-1515
994.776	-1235
994.854	-1042
994.932	-2358
995.011	-1043
995.089	-1474
995.167	-1584
995.245	-1260
995.324	-1604
995.402	-1235
995.480	-1857
995.558	-2140
995.636	-1863
995.714	-1547
995.792	-365
995.870	-1568
995.948	-1621
996.026	-1129
996.104	-2641
996.182	-899
996.260	-2295
996.338	-1398
996.416	-2643
996.494	-2308
996.572	-526
996.649	-2104
996.727	-1917
996.805	-1899
996.883	-1787
996.960	-2206
997.038	-1817
997.116	-1050
997.193	-2012
997.271	-1209
997.348	-827
997.426	-1747
997.504	-2418
997.581	-1516
997.658	-533
997.736	-2615
997.813	-2344
997.891	-747
997.968	-2021
998.046	-1296
998.123	-1613
998.200	-1156
998.277	-1879
998.355	-1070
998.432	-2656
998.509	-1402
998.586	-1840
998.663	-1068
998.741	-1183
998.818	-2344
998.895	-2007
998.972	-1545
999.049	-842
999.126	-1888
999.203	-568
999.280	-1682
999.357	-2255
999.434	-1430
999.511	-1803
999.587	-1081
999.664	-2345
999.741	-1887
999.818	-1375
999.895	-2510
999.971	-1352
1000.048	-1786
1000.125	-1051
1000.202	-2366
1000.278	-1673
1000.355	-1743
1000.431	-1658
1000.508	-1549
1000.584	-1454
1000.661	-1751
1000.738	-2299
1000.814	-1652
1000.890	-928
1000.967	-1641
1001.043	-1516
1001.120	-1799
1001.196	-1930
1001.272	-1929
1001.349	-1564
1001.425	-1251
1001.501	-1477
1001.577	-1562
1001.654	-2146
1001.730	-1706
1001.806	-794
1001.882	-2265
1001.958	-1506
1002.034	-759
1002.110	-2267
1002.186	-1705
1002.262	-1076
1002.338	-2326
1002.414	-1351
1002.490	-1169
1002.566	-1600
1002.642	-2157
1002.718	-321
1002.794	-1322
1002.870	-1228
1002.945	-2068
1003.021	-2066
1003.097	-1292
1003.173	-2111
1003.248	-2571
1003.324	-1258
1003.400	-2674
1003.475	-2479
1003.551	-1668
1003.626	-2101
1003.702	-2522
1003.777	-2209
1003.853	-1748
1003.928	-2546
1004.004	-1956
1004.079	-1691
1004.155	-1724
1004.230	-2811
1004.305	-1297
1004.381	-2283
1004.456	-1391
1004.531	-2268
1004.607	-1384
1004.682	-1619
1004.757	-1699
1004.832	-1942
1004.907	-1628
1004.982	-1397
1005.057	-1892
1005.133	-1135
1005.208	-1681
1005.283	-1768
1005.358	-1202
1005.433	-1404
1005.508	-1394
1005.583	-1637
1005.657	-2382
1005.732	-1594
1005.807	-2023
1005.882	-1482
1005.957	-1607
1006.032	-1382
1006.106	-1749
1006.181	-1932
1006.256	-1470
1006.331	-2417
1006.405	-2070
1006.480	-1515
1006.554	-2032
1006.629	-1633
1006.704	-1579
1006.778	-1438
1006.853	-1963
1006.927	-1831
1007.002	-2088
1007.076	-1430
1007.150	-2223
1007.225	-1634
1007.299	-1555
1007.373	-2635
1007.448	-2497
1007.522	-1605
1007.596	-570
1007.671	-1072
1007.745	-1814
1007.819	-2358
1007.893	-2923
1007.967	-1153
1008.041	-3267
1008.115	-640
1008.190	-2016
1008.264	-1138
1008.338	-2265
1008.412	-1971
1008.486	-1859
1008.560	-1491
1008.633	-1995
1008.707	-916
1008.781	-2065
1008.855	-2015
1008.929	-1932
1009.003	-1997
1009.076	-2210
1009.150	-1191
1009.224	-2008
1009.298	-1290
1009.371	-2178
1009.445	-1581
1009.519	-1860
1009.592	-2192
1009.666	-1812
1009.739	-2120
1009.813	-2354
1009.886	-336
1009.960	-3126
1010.033	-1118
1010.107	-1882
1010.180	-2831
1010.253	-2155
1010.327	-1668
1010.400	-2367
1010.473	-2169
1010.547	-371
1010.620	-829
1010.693	-2024
1010.766	-2408
1010.840	-1460
1010.913	-1759
1010.986	-2122
1011.059	-1276
1011.132	-2625
1011.205	-793
1011.278	-2940
1011.351	-2735
1011.424	-1911
1011.497	-517
1011.570	-1903
1011.643	-2091
1011.716	-2791
1011.789	-2044
1011.862	-1744
1011.934	-1423
1012.007	-2879
1012.080	-2087
1012.153	-1980
1012.225	-1919
1012.298	-3006
1012.371	-1764
1012.443	-1238
1012.516	-1804
1012.588	-1021
1012.661	-1583
1012.733	-2373
1012.806	-1388
1012.879	-2203
1012.951	-1181
1013.023	-1373
1013.096	-1880
1013.168	-1523
1013.241	-1585
1013.313	-1467
1013.385	-2280
1013.458	-2022
1013.530	-1605
1013.602	-2678
1013.674	-1162
1013.746	-1812
1013.819	-2065
1013.891	-870
1013.963	-1709
1014.035	-1866
1014.107	-1807
1014.179	-478
1014.251	-2332
1014.323	-1268
1014.395	-1174
1014.467	-1895
1014.539	-1381
1014.611	-2180
1014.683	-1556
1014.754	-1483
1014.826	-2293
1014.898	-1456
1014.970	-2400
1015.042	-1448
1015.113	-2169
1015.185	-1783
1015.257	-2585
1015.328	-2382
1015.400	-1468
1015.471	-2629
1015.543	-1712
1015.615	-1878
1015.686	-1520
1015.757	-2018
1015.829	-1405
1015.901	-2400
1015.972	-1401
1016.043	-2114
1016.115	-2806
1016.186	-2497
1016.257	-2582
1016.328	-1841
1016.400	-1956
1016.471	-2477
1016.542	-1664
1016.613	-2000
1016.685	-1390
1016.756	-1970
1016.827	-1552
1016.898	-2346
1016.969	-738
1017.040	-1877
1017.111	-1935
1017.182	-1921
1017.253	-1518
1017.324	-2139
1017.395	-1706
1017.466	-2205
1017.537	-1262
1017.608	-2106
1017.678	-1373
1017.749	-2311
1017.820	-1053
1017.891	-2018
1017.961	-2256
1018.032	-1830
1018.103	-1990
1018.173	-2539
1018.244	-1858
1018.315	-1639
1018.385	-1607
1018.456	-2341
1018.526	-2021
1018.597	-2564
1018.667	-1878
1018.738	-2130
1018.808	-1954
1018.878	-2677
1018.949	-1798
1019.019	-1938
1019.089	-1622
1019.160	-1875
1019.230	-2323
1019.300	-2018
1019.371	-2974
1019.441	-1998
1019.511	-1980
1019.581	-1732
1019.651	-1409
1019.721	-2480
1019.791	-1885
1019.861	-2836
1019.931	-1343
1020.001	-2660
1020.071	-2121
1020.141	-2370
1020.211	-2168
1020.281	-2692
1020.351	-1547
1020.421	-1730
1020.491	-1507
1020.560	-2129
1020.630	-1386
1020.700	-1992
1020.770	-2442
1020.839	-1853
1020.909	-1844
1020.979	-1932
1021.048	-1985
1021.118	-2725
1021.187	-2162
1021.257	-2183
1021.326	-1850
1021.396	-2792
1021.465	-1256
1021.535	-2938
1021.604	-1862
1021.674	-2302
1021.743	-2567
1021.812	-1972
1021.882	-1978
1021.951	-2027
1022.020	-2818
1022.089	-2673
1022.159	-1949
1022.228	-2428
1022.297	-2124
1022.366	-2512
1022.435	-1943
1022.504	-2647
1022.573	-2789
1022.642	-2584
1022.711	-2469
1022.781	-1693
1022.849	-1818
1022.918	-3297
1022.987	-2602
1023.056	-1953
1023.125	-1411
1023.194	-2359
1023.263	-2358
1023.331	-1331
1023.400	-1999
1023.469	-2589
1023.538	-1673
1023.606	-2268
1023.675	-1667
1023.744	-1733
1023.812	-2146
1023.881	-2804
1023.949	-2464
1024.018	-2140
1024.086	-1422
1024.155	-2442
1024.223	-1587
1024.292	-2723
1024.360	-1707
1024.429	-2401
1024.497	-2252
1024.565	-2062
1024.634	-2273
1024.702	-1964
1024.770	-1978
1024.838	-1955
1024.907	-1995
1024.975	-2476
1025.043	-1591
1025.111	-2634
1025.179	-1813
1025.247	-2665
1025.315	-2203
1025.383	-2970
1025.451	-2168
1025.519	-2387
1025.587	-3097
1025.655	-2237
1025.723	-3054
1025.791	-2318
1025.859	-1014
1025.927	-1453
1025.995	-2520
1026.062	-2622
1026.130	-2679
1026.198	-1867
1026.266	-2987
1026.333	-2017
1026.401	-1000
1026.469	-2057
1026.536	-2327
1026.604	-2120
1026.671	-2296
1026.739	-2751
1026.806	-2248
1026.874	-2306
1026.941	-1656
1027.009	-2519
1027.076	-2236
1027.144	-1198
1027.211	-2090
1027.278	-2774
1027.345	-1668
1027.413	-1912
1027.480	-2195
1027.547	-2497
1027.614	-2727
1027.682	-3070
1027.749	-2596
1027.816	-1715
1027.883	-1884
1027.950	-1527
1028.017	-2547
1028.084	-2179
1028.151	-2248
1028.218	-2149
1028.285	-1791
1028.352	-2627
1028.419	-1492
1028.486	-2212
1028.553	-2469
1028.619	-2839
1028.686	-2200
1028.753	-1661
1028.820	-1897
1028.886	-2451
1028.953	-2712
1029.020	-2302
1029.086	-2272
1029.153	-2504
1029.220	-1906
1029.286	-1459
1029.353	-2163
1029.419	-2142
1029.486	-2363
1029.552	-2784
1029.619	-2052
1029.685	-2473
1029.751	-2113
1029.818	-1454
1029.884	-1826
1029.951	-1992
1030.017	-2667
1030.083	-2586
1030.149	-2747
1030.216	-2195
1030.282	-2249
1030.348	-2428
1030.414	-2656
1030.480	-3102
1030.546	-2508
1030.612	-1335
1030.678	-2211
1030.744	-2490
1030.810	-2758
1030.876	-1697
1030.942	-2681
1031.008	-2596
1031.074	-2457
1031.140	-2511
1031.206	-2026
1031.272	-2701
1031.337	-2002
1031.403	-1800
1031.469	-1658
1031.534	-1823
1031.600	-2024
1031.666	-2275
1031.731	-2064
1031.797	-1982
1031.863	-1976
1031.928	-3010
1031.994	-2257
1032.059	-1988
1032.125	-2504
1032.190	-3047
1032.256	-2674
1032.321	-2111
1032.386	-2220
1032.452	-2087
1032.517	-2085
1032.582	-1795
1032.647	-2307
1032.713	-2793
1032.778	-2196
1032.843	-2715
1032.908	-2612
1032.974	-2372
1033.039	-3235
1033.104	-1776
1033.169	-2194
1033.234	-2213
1033.299	-1578
1033.364	-1175
1033.429	-2108
1033.494	-2275
1033.559	-2259
1033.624	-1911
1033.688	-2003
1033.753	-2436
1033.818	-2208
1033.883	-2650
1033.948	-2209
1034.013	-1924
1034.077	-2077
1034.142	-1855
1034.207	-1746
1034.271	-1335
1034.336	-1704
1034.400	-2533
1034.465	-1769
1034.530	-2405
1034.594	-1997
1034.658	-2231
1034.723	-3173
1034.787	-1662
1034.852	-1916
1034.916	-1804
1034.981	-2597
1035.045	-2288
1035.109	-1545
1035.173	-1790
1035.238	-1920
1035.302	-2494
1035.366	-1190
1035.430	-2273
1035.495	-2240
1035.559	-1811
1035.623	-1653
1035.687	-2647
1035.751	-2884
1035.815	-2242
1035.879	-2461
1035.943	-2236
1036.007	-2095
1036.071	-2355
1036.135	-1677
1036.198	-1652
1036.262	-2568
1036.326	-2094
1036.390	-2098
1036.454	-2473
1036.517	-1754
1036.581	-2872
1036.645	-2283
1036.709	-1950
1036.772	-1665
1036.836	-1678
1036.900	-1835
1036.963	-1870
1037.026	-2151
1037.090	-2668
1037.154	-1848
1037.217	-2678
1037.280	-2603
1037.344	-2149
1037.407	-2022
1037.471	-2139
1037.534	-2532
1037.597	-1610
1037.661	-1874
1037.724	-2012
1037.787	-2099
1037.850	-2268
1037.913	-2259
1037.977	-1371
1038.040	-2405
1038.103	-1611
1038.166	-1902
1038.229	-1802
1038.292	-1722
1038.355	-2218
1038.418	-2564
1038.481	-2036
1038.544	-2403
1038.607	-2462
1038.670	-1022
1038.732	-2492
1038.795	-1821
1038.858	-2691
1038.921	-2132
1038.984	-1849
1039.046	-1738
1039.109	-2261
1039.172	-1914
1039.234	-2069
1039.297	-1670
1039.360	-1663
1039.422	-2428
1039.485	-1937
1039.547	-2376
1039.610	-2900
1039.672	-2020
1039.734	-2965
1039.797	-1617
1039.859	-2291
1039.922	-2324
1039.984	-2715
1040.046	-2875
1040.109	-2034
1040.171	-1072
1040.233	-2532
1040.295	-1773
1040.358	-2689
1040.420	-1832
1040.482	-1832
1040.544	-1836
1040.606	-1592
1040.668	-2214
1040.730	-1738
1040.792	-1814
1040.854	-2716
1040.916	-2094
1040.978	-2579
1041.040	-1202
1041.102	-1434
1041.164	-1958
1041.225	-1736
1041.287	-1744
1041.349	-2699
1041.411	-2321
1041.472	-2343
1041.534	-1858
1041.596	-1412
1041.657	-1960
1041.719	-2056
1041.781	-1987
1041.842	-2106
1041.904	-1914
1041.965	-2411
1042.027	-1647
1042.088	-2185
1042.150	-1771
1042.211	-2707
1042.272	-1175
1042.334	-2478
1042.395	-2343
1042.456	-2077
1042.518	-1624
1042.579	-1645
1042.640	-2185
1042.701	-1482
1042.763	-1798
1042.824	-1518
1042.885	-1756
1042.946	-2432
1043.007	-2338
1043.068	-1949
1043.129	-1928
1043.190	-2993
1043.251	-1641
1043.312	-2579
1043.373	-1168
1043.434	-2826
1043.495	-2169
1043.556	-1867
1043.616	-1677
1043.677	-1870
1043.738	-1355
1043.799	-1963
1043.859	-1957
1043.920	-1645
1043.981	-2053
1044.041	-2771
1044.102	-2078
1044.162	-1634
1044.223	-1775
1044.284	-1723
1044.344	-1647
1044.405	-1966
1044.465	-2431
1044.525	-2278
1044.586	-2049
1044.646	-2082
1044.707	-1120
1044.767	-2118
1044.827	-1647
1044.887	-1896
1044.948	-1290
1045.008	-1708
1045.068	-2223
1045.128	-1283
1045.188	-2220
1045.249	-1783
1045.309	-1667
1045.369	-1529
1045.429	-1198
1045.489	-2788
1045.549	-1503
1045.609	-2024
1045.669	-1276
1045.729	-2112
1045.789	-1713
1045.848	-1936
1045.908	-1136
1045.968	-1424
1046.028	-1043
1046.088	-1664
1046.147	-936
1046.207	-779
1046.267	-1797
1046.326	-1638
1046.386	-1038
1046.446	-1968
1046.505	-1051
1046.565	-1087
1046.624	-1043
1046.684	-1368
1046.743	-922
1046.803	-466
1046.862	-705
1046.922	0
