'Start Wavelength	183.907
'End Wavelength	1046.922
'Gate Delay	5.000
'Gate Width (ms)	1.050
'Laser Output Level	0.000
'X Position	0.000
'Y Position	0.000
'Z Position	0.000
'Grid Point Number	1.000
'Shot Number	100.000
183.907	123.000
183.977	-223.000
184.047	128
184.116	-244
184.186	99
184.256	755
184.325	435
184.395	-933
184.465	677
184.534	605
184.604	192
184.674	7
184.743	-736
184.813	119
184.883	635
184.952	203
185.022	483
185.092	-305
185.161	-139
185.231	423
185.301	1214
185.370	988
185.440	4
185.509	-127
185.579	-338
185.649	900
185.718	1175
185.788	-426
185.857	-1174
185.927	-199
185.996	-487
186.066	-267
186.136	234
186.205	113
186.275	-32
186.344	70
186.414	671
186.483	-106
186.553	1205
186.622	1371
186.692	1
186.761	-331
186.831	-144
186.900	126
186.970	774
187.039	422
187.109	785
187.178	283
187.248	291
187.317	969
187.387	397
187.456	561
187.526	-120
187.595	-112
187.664	-236
187.734	345
187.803	926
187.873	21
187.942	821
188.012	391
188.081	384
188.150	-547
188.220	840
188.289	859
188.358	-214
188.428	770
188.497	-622
188.567	153
188.636	-878
188.705	-182
188.775	-586
188.844	-615
188.913	313
188.983	9
189.052	-336
189.121	-184
189.191	272
189.260	258
189.329	-83
189.399	102
189.468	-17
189.537	108
189.606	184
189.676	161
189.745	164
189.814	702
189.883	300
189.953	13
190.022	340
190.091	-108
190.161	1713
190.230	889
190.299	-278
190.368	818
190.437	242
190.507	-230
190.576	-32
190.645	-550
190.714	296
190.783	-229
190.853	182
190.922	173
190.991	74
191.060	-92
191.129	-59
191.198	497
191.268	67
191.337	145
191.406	92
191.475	918
191.544	-109
191.613	377
191.682	17
191.752	-374
191.821	37
191.890	-94
191.959	540
192.028	187
192.097	243
192.166	217
192.235	-733
192.304	650
192.373	-841
192.442	646
192.511	-406
192.580	-249
192.650	147
192.719	320
192.788	-140
192.857	-85
192.926	94
192.995	-58
193.064	307
193.133	-216
193.202	706
193.271	804
193.340	535
193.409	284
193.478	1131
193.547	479
193.615	940
193.684	400
193.753	499
193.822	70
193.891	883
193.960	804
194.029	379
194.098	641
194.167	-688
194.236	-377
194.305	126
194.374	-87
194.443	85
194.512	-123
194.580	643
194.649	1093
194.718	1207
194.787	-302
194.856	-414
194.925	579
194.994	672
195.062	471
195.131	507
195.200	80
195.269	455
195.338	199
195.407	486
195.475	208
195.544	440
195.613	593
195.682	727
195.751	881
195.819	770
195.888	150
195.957	2087
196.026	84
196.094	753
196.163	615
196.232	1019
196.301	732
196.369	846
196.438	935
196.507	265
196.576	678
196.644	-45
196.713	423
196.782	375
196.850	359
196.919	13
196.988	628
197.056	40
197.125	358
197.194	580
197.262	222
197.331	42
197.400	1112
197.468	-5
197.537	-417
197.606	662
197.674	413
197.743	1292
197.812	726
197.880	470
197.949	573
198.017	1132
198.086	1293
198.155	-135
198.223	779
198.292	424
198.360	755
198.429	-47
198.497	140
198.566	320
198.635	886
198.703	967
198.772	1003
198.840	749
198.909	1119
198.977	304
199.046	250
199.114	771
199.183	1139
199.251	128
199.320	-413
199.388	-588
199.457	250
199.525	231
199.594	-894
199.662	101
199.731	-728
199.799	522
199.867	353
199.936	-279
200.004	-61
200.073	546
200.141	-22
200.210	-120
200.278	-178
200.346	228
200.415	1169
200.483	594
200.552	-126
200.620	243
200.688	518
200.757	667
200.825	657
200.893	76
200.962	-453
201.030	211
201.098	371
201.167	998
201.235	580
201.303	-165
201.372	343
201.440	534
201.508	394
201.577	182
201.645	174
201.713	484
201.781	-159
201.850	801
201.918	300
201.986	189
202.055	623
202.123	-65
202.191	207
202.259	20
202.327	1327
202.396	-171
202.464	575
202.532	427
202.600	1958
202.669	1466
202.737	-338
202.805	331
202.873	296
202.941	485
203.009	-322
203.078	598
203.146	1037
203.214	441
203.282	-198
203.350	482
203.418	407
203.487	383
203.555	309
203.623	438
203.691	1189
203.759	-204
203.827	-433
203.895	679
203.963	-4
204.031	185
204.099	-158
204.168	-352
204.236	412
204.304	992
204.372	7
204.440	220
204.508	806
204.576	-449
204.644	351
204.712	96
204.780	131
204.848	158
204.916	-557
204.984	-262
205.052	404
205.120	-100
205.188	-215
205.256	-674
205.324	-132
205.392	477
205.460	1147
205.528	-63
205.596	-162
205.664	47
205.732	-320
205.799	863
205.867	1830
205.935	207
206.003	141
206.071	47
206.139	316
206.207	543
206.275	1079
206.343	-178
206.411	-102
206.478	860
206.546	95
206.614	290
206.682	642
206.750	351
206.818	1519
206.885	243
206.953	-756
207.021	1286
207.089	1120
207.157	247
207.225	288
207.292	-286
207.360	-136
207.428	-20
207.496	277
207.563	534
207.631	710
207.699	493
207.767	907
207.834	-7
207.902	274
207.970	498
208.038	632
208.105	41
208.173	371
208.241	613
208.309	404
208.376	302
208.444	1512
208.512	174
208.579	214
208.647	1338
208.715	1237
208.782	45
208.850	-796
208.918	595
208.985	632
209.053	-295
209.120	413
209.188	497
209.256	640
209.323	200
209.391	496
209.459	1344
209.526	1258
209.594	412
209.661	534
209.729	678
209.796	942
209.864	540
209.932	-890
209.999	1691
210.067	507
210.134	569
210.202	406
210.269	1338
210.337	1443
210.404	-19
210.472	534
210.539	674
210.607	711
210.674	1572
210.742	1038
210.809	150
210.877	1058
210.944	1221
211.012	51
211.079	2523
211.146	479
211.214	-155
211.281	1321
211.349	1483
211.416	61
211.484	1218
211.551	292
211.618	1252
211.686	928
211.753	-60
211.821	783
211.888	188
211.955	949
212.023	798
212.090	697
212.157	251
212.225	771
212.292	1740
212.359	2377
212.427	6586
212.494	3188
212.561	1632
212.629	1071
212.696	1065
212.763	1095
212.831	507
212.898	1071
212.965	672
213.032	750
213.100	806
213.167	893
213.234	1535
213.301	74
213.369	987
213.436	406
213.503	-184
213.570	608
213.638	539
213.705	-338
213.772	362
213.839	699
213.906	1530
213.973	1209
214.041	462
214.108	1044
214.175	1674
214.242	-430
214.309	261
214.376	105
214.444	860
214.511	782
214.578	896
214.645	1802
214.712	928
214.779	601
214.846	599
214.913	1852
214.980	759
215.048	1084
215.115	1582
215.182	1435
215.249	803
215.316	575
215.383	557
215.450	1392
215.517	1238
215.584	817
215.651	620
215.718	591
215.785	1592
215.852	1256
215.919	1339
215.986	1546
216.053	834
216.120	-137
216.187	1109
216.254	1118
216.321	912
216.388	897
216.455	959
216.522	1248
216.589	1363
216.656	2555
216.722	3240
216.789	2118
216.856	1925
216.923	1392
216.990	1326
217.057	691
217.124	1621
217.191	1148
217.258	3222
217.324	2439
217.391	3025
217.458	1991
217.525	663
217.592	1631
217.659	-396
217.725	2127
217.792	1186
217.859	2155
217.926	1174
217.993	921
218.059	1541
218.126	669
218.193	661
218.260	354
218.327	127
218.393	787
218.460	345
218.527	1001
218.594	1008
218.660	1217
218.727	2650
218.794	1081
218.860	1966
218.927	120
218.994	395
219.061	733
219.127	712
219.194	1755
219.261	1104
219.327	1224
219.394	928
219.461	108
219.527	1129
219.594	1972
219.661	559
219.727	-562
219.794	1587
219.860	365
219.927	1176
219.994	1411
220.060	3874
220.127	3357
220.193	1166
220.260	1058
220.326	1834
220.393	1699
220.460	3993
220.526	2168
220.593	865
220.659	3047
220.726	760
220.792	4545
220.859	2698
220.925	4667
220.992	7048
221.058	5993
221.125	4768
221.191	3776
221.258	1426
221.324	1493
221.391	1657
221.457	215
221.524	820
221.590	1344
221.657	4230
221.723	2501
221.789	3592
221.856	3434
221.922	218
221.989	1607
222.055	1233
222.121	489
222.188	2907
222.254	1057
222.321	724
222.387	716
222.453	268
222.520	712
222.586	-352
222.652	1273
222.719	-96
222.785	624
222.851	1500
222.918	392
222.984	428
223.050	426
223.116	-182
223.183	1838
223.249	-693
223.315	423
223.382	932
223.448	-196
223.514	156
223.580	-98
223.647	443
223.713	379
223.779	984
223.845	100
223.911	1252
223.978	-657
224.044	887
224.110	-242
224.176	1251
224.242	541
224.309	-502
224.375	1043
224.441	-11
224.507	325
224.573	183
224.639	835
224.705	812
224.772	844
224.838	521
224.904	800
224.970	984
225.036	963
225.102	354
225.168	888
225.234	1307
225.300	884
225.366	964
225.432	202
225.499	964
225.565	607
225.631	49
225.697	925
225.763	1711
225.829	1681
225.895	1105
225.961	2696
226.027	1711
226.093	487
226.159	1934
226.225	2608
226.291	5739
226.357	10433
226.423	5573
226.489	3053
226.554	1965
226.620	1683
226.686	2059
226.752	3011
226.818	4499
226.884	13000
226.950	13013
227.016	4216
227.082	2018
227.148	2170
227.214	2215
227.279	1801
227.345	1369
227.411	690
227.477	1429
227.543	5463
227.609	5469
227.674	3046
227.740	1743
227.806	1378
227.872	806
227.938	595
228.003	1721
228.069	1639
228.135	851
228.201	861
228.267	285
228.332	1894
228.398	727
228.464	1748
228.530	301
228.595	1492
228.661	-86
228.727	1244
228.792	2194
228.858	762
228.924	-227
228.990	2451
229.055	360
229.121	1576
229.187	649
229.252	1656
229.318	319
229.384	907
229.449	1568
229.515	-564
229.581	81
229.646	1937
229.712	563
229.777	2094
229.843	2871
229.909	2132
229.974	3094
230.040	2354
230.105	1627
230.171	1610
230.236	2675
230.302	3229
230.368	2374
230.433	530
230.499	2601
230.564	2026
230.630	373
230.695	1419
230.761	2078
230.826	125
230.892	3007
230.957	510
231.023	919
231.088	716
231.154	1372
231.219	1028
231.284	1491
231.350	1902
231.415	45
231.481	1926
231.546	588
231.612	1425
231.677	62
231.742	-391
231.808	2129
231.873	420
231.939	-553
232.004	2289
232.069	2770
232.135	409
232.200	377
232.265	1789
232.331	1139
232.396	551
232.461	573
232.527	248
232.592	-189
232.657	1068
232.723	870
232.788	1019
232.853	1662
232.918	736
232.984	331
233.049	-421
233.114	365
233.179	1936
233.245	1485
233.310	2447
233.375	1
233.440	907
233.506	781
233.571	487
233.636	661
233.701	1198
233.766	1211
233.832	2165
233.897	735
233.962	-20
234.027	1345
234.092	1074
234.157	1459
234.222	799
234.288	1451
234.353	3783
234.418	4059
234.483	3468
234.548	2746
234.613	1336
234.678	2157
234.743	2289
234.808	5278
234.873	2863
234.938	2497
235.004	1785
235.069	1447
235.134	1242
235.199	1201
235.264	1167
235.329	-438
235.394	2030
235.459	2555
235.524	1482
235.589	1806
235.654	413
235.719	-586
235.784	1279
235.849	685
235.913	2954
235.978	2894
236.043	2364
236.108	1258
236.173	736
236.238	2429
236.303	419
236.368	1269
236.433	2888
236.498	3109
236.563	1754
236.627	4059
236.692	16765
236.757	13637
236.822	4956
236.887	3407
236.952	2955
237.017	1119
237.081	3767
237.146	3043
237.211	7058
237.276	15005
237.341	30047
237.405	11668
237.470	5582
237.535	3615
237.600	2247
237.664	2716
237.729	1116
237.794	1668
237.859	4942
237.923	2695
237.988	1830
238.053	2252
238.118	2725
238.182	5754
238.247	6686
238.312	1741
238.376	2037
238.441	546
238.506	2211
238.570	253
238.635	2050
238.700	719
238.764	401
238.829	2181
238.893	2364
238.958	3437
239.023	2278
239.087	1335
239.152	2760
239.216	710
239.281	2077
239.346	1598
239.410	707
239.475	1255
239.539	5219
239.604	3529
239.668	1613
239.733	825
239.797	2828
239.862	9093
239.926	7205
239.991	3751
240.055	1997
240.120	1711
240.184	1681
240.249	602
240.313	1332
240.378	713
240.442	2472
240.507	5256
240.571	1904
240.635	2147
240.700	2591
240.764	1669
240.829	1740
240.893	-363
240.957	1374
241.022	2759
241.086	5873
241.151	2047
241.215	-452
241.279	1965
241.344	2283
241.408	2368
241.472	1197
241.537	3521
241.601	2427
241.665	1104
241.730	1664
241.794	2979
241.858	1533
241.922	1507
241.987	2410
242.051	1156
242.115	1180
242.179	1308
242.244	702
242.308	1873
242.372	1326
242.436	806
242.501	1553
242.565	342
242.629	738
242.693	2069
242.757	1193
242.822	937
242.886	2191
242.950	1327
243.014	1152
243.078	1526
243.142	1846
243.206	1333
243.271	1960
243.335	1192
243.399	2964
243.463	7134
243.527	23266
243.591	8181
243.655	4189
243.719	1694
243.783	2643
243.847	3527
243.911	3981
243.975	5017
244.040	3201
244.104	3795
244.168	1540
244.232	2136
244.296	4463
244.360	4453
244.424	1786
244.488	1536
244.552	1770
244.615	684
244.679	1559
244.743	1777
244.807	1682
244.871	1365
244.935	1161
244.999	-76
245.063	704
245.127	2821
245.191	2445
245.255	3087
245.319	2504
245.383	1693
245.446	2895
245.510	339
245.574	1142
245.638	2832
245.702	941
245.766	4920
245.829	4199
245.893	1016
245.957	1888
246.021	1939
246.085	1686
246.149	2478
246.212	6399
246.276	8559
246.340	4083
246.404	3041
246.467	3680
246.531	3623
246.595	3782
246.659	2786
246.722	1468
246.786	4051
246.850	3611
246.913	4404
246.977	1332
247.041	2052
247.104	2227
247.168	2145
247.232	6508
247.295	13922
247.359	7115
247.423	2807
247.486	5973
247.550	4851
247.614	2039
247.677	3786
247.741	2058
247.804	2401
247.868	2146
247.932	4485
247.995	12746
248.059	4709
248.122	1794
248.186	3828
248.249	5956
248.313	20245
248.376	23624
248.440	13326
248.503	5216
248.567	5414
248.630	5591
248.694	9208
248.757	11313
248.821	23532
248.884	14872
248.948	11137
249.011	17351
249.075	26382
249.138	22966
249.202	9559
249.265	5359
249.328	5774
249.392	3768
249.455	5158
249.519	3342
249.582	3891
249.645	7530
249.709	5762
249.772	2633
249.835	3187
249.899	2758
249.962	3041
250.025	2552
250.089	7599
250.152	12586
250.215	5928
250.279	3683
250.342	4015
250.405	4044
250.468	2831
250.532	3938
250.595	6997
250.658	20718
250.721	39043
250.785	14884
250.848	8610
250.911	3981
250.974	4740
251.038	6125
251.101	12939
251.164	5975
251.227	7456
251.290	5439
251.354	7567
251.417	31118
251.480	32878
251.543	20156
251.606	56889
251.669	44831
251.732	16792
251.795	17643
251.859	18701
251.922	35708
251.985	23280
252.048	8308
252.111	6098
252.174	5588
252.237	11513
252.300	26899
252.363	24343
252.426	49120
252.489	21637
252.552	9806
252.615	6514
252.678	7499
252.741	18141
252.804	22531
252.867	49396
252.930	31064
252.993	16128
253.056	10522
253.119	6829
253.182	4779
253.245	7245
253.308	6627
253.371	5948
253.434	5690
253.497	5483
253.559	11565
253.622	7206
253.685	8932
253.748	10568
253.811	4748
253.874	5183
253.937	4562
254.000	4341
254.062	8111
254.125	12502
254.188	9656
254.251	8688
254.314	4360
254.376	8280
254.439	9949
254.502	8212
254.565	7428
254.628	15756
254.690	7883
254.753	4722
254.816	4182
254.878	3725
254.941	8000
255.004	9861
255.067	4206
255.129	4224
255.192	2887
255.255	1528
255.317	3053
255.380	2004
255.443	1419
255.505	1799
255.568	1286
255.631	1488
255.693	1775
255.756	919
255.819	1622
255.881	655
255.944	1911
256.006	1318
256.069	1428
256.132	1115
256.194	2279
256.257	4519
256.319	4059
256.382	3142
256.444	3404
256.507	2081
256.569	1213
256.632	2007
256.694	1706
256.757	7796
256.819	27066
256.882	9913
256.944	3767
257.007	4004
257.069	3347
257.132	3028
257.194	3313
257.257	1801
257.319	1337
257.381	1929
257.444	5924
257.506	29581
257.569	35628
257.631	15798
257.693	10753
257.756	4566
257.818	3748
257.880	2511
257.943	2430
258.005	1364
258.067	1152
258.130	2032
258.192	2796
258.254	5416
258.317	2510
258.379	1663
258.441	7343
258.503	7992
258.566	6092
258.628	8987
258.690	2646
258.753	3737
258.815	5214
258.877	2931
258.939	2490
259.001	2367
259.064	1589
259.126	1573
259.188	2877
259.250	2707
259.312	2503
259.375	6135
259.437	5166
259.499	2393
259.561	2037
259.623	2099
259.685	1267
259.747	2024
259.809	5778
259.872	10749
259.934	16640
259.996	16315
260.058	4827
260.120	1778
260.182	730
260.244	1156
260.306	1306
260.368	2106
260.430	1551
260.492	2242
260.554	6103
260.616	4433
260.678	9649
260.740	13401
260.802	2430
260.864	4035
260.926	1339
260.988	2354
261.050	1455
261.112	2624
261.174	9716
261.236	9453
261.298	3191
261.359	4200
261.421	7133
261.483	1859
261.545	3012
261.607	694
261.669	1969
261.731	2741
261.793	9014
261.854	4411
261.916	3422
261.978	1889
262.040	2104
262.102	2291
262.164	2614
262.225	3217
262.287	1921
262.349	6141
262.411	5711
262.472	2598
262.534	3153
262.596	6461
262.658	2634
262.719	757
262.781	2573
262.843	5655
262.904	4187
262.966	2256
263.028	1897
263.090	11244
263.151	33153
263.213	11091
263.275	6104
263.336	3134
263.398	2658
263.459	792
263.521	2032
263.583	5752
263.644	4687
263.706	1966
263.767	483
263.829	1610
263.891	455
263.952	777
264.014	35
264.075	767
264.137	2207
264.198	2794
264.260	127
264.321	738
264.383	2799
264.444	6524
264.506	1648
264.567	2071
264.629	2519
264.690	1540
264.752	1852
264.813	1821
264.875	1525
264.936	1237
264.998	720
265.059	537
265.120	1502
265.182	1858
265.243	12210
265.305	12733
265.366	3654
265.427	1525
265.489	1381
265.550	488
265.611	1101
265.673	1372
265.734	1598
265.795	1160
265.857	187
265.918	739
265.979	3744
266.040	21341
266.102	18408
266.163	4867
266.224	3718
266.286	2344
266.347	1288
266.408	1451
266.469	1442
266.530	693
266.592	774
266.653	3538
266.714	7637
266.775	2916
266.836	1687
266.898	501
266.959	1381
267.020	1108
267.081	2233
267.142	1620
267.203	1664
267.264	1296
267.326	1213
267.387	1287
267.448	516
267.509	1494
267.570	1736
267.631	1153
267.692	64
267.753	1652
267.814	999
267.875	3740
267.936	8902
267.997	3127
268.058	2795
268.119	2329
268.180	1858
268.241	1155
268.302	1258
268.363	446
268.424	1041
268.485	840
268.546	447
268.607	492
268.668	-244
268.729	778
268.790	1033
268.851	1524
268.912	5252
268.972	7368
269.033	3295
269.094	1773
269.155	1335
269.216	311
269.277	579
269.338	553
269.398	872
269.459	810
269.520	2466
269.581	3507
269.642	4426
269.702	2933
269.763	2839
269.824	1573
269.885	2552
269.945	5076
270.006	1491
270.067	-94
270.128	1164
270.188	369
270.249	553
270.310	660
270.370	1124
270.431	610
270.492	1016
270.553	1843
270.613	3899
270.674	9265
270.734	3960
270.795	2272
270.856	3074
270.916	1910
270.977	1243
271.038	2738
271.098	2209
271.159	3188
271.219	4180
271.280	832
271.340	1771
271.401	861
271.462	2973
271.522	2421
271.583	1330
271.643	1081
271.704	794
271.764	1988
271.825	6709
271.885	20850
271.946	29356
272.006	10468
272.066	11466
272.127	22762
272.187	8786
272.248	3995
272.308	3184
272.369	14149
272.429	8792
272.489	5136
272.550	6017
272.610	6848
272.671	4586
272.731	2838
272.791	4788
272.852	4391
272.912	3072
272.972	2397
273.033	1592
273.093	2801
273.153	3439
273.214	1969
273.274	2579
273.334	8274
273.394	21989
273.455	8585
273.515	8373
273.575	19256
273.635	8379
273.696	9128
273.756	20304
273.816	8965
273.876	4421
273.936	6617
273.997	10991
274.057	2994
274.117	1839
274.177	4846
274.237	23475
274.297	21406
274.358	11188
274.418	16222
274.478	14013
274.538	4842
274.598	2689
274.658	8444
274.718	11911
274.778	5485
274.838	2980
274.898	4522
274.958	14331
275.018	18594
275.078	13871
275.138	4515
275.198	3336
275.258	1532
275.318	2085
275.378	5428
275.438	7569
275.498	4072
275.558	7076
275.618	18438
275.678	15511
275.738	8392
275.798	5510
275.858	2539
275.918	582
275.978	2652
276.038	2516
276.098	1959
276.157	4795
276.217	15828
276.277	7223
276.337	4883
276.397	1742
276.457	3629
276.517	2039
276.576	2046
276.636	1217
276.696	2669
276.756	8710
276.815	6768
276.875	2915
276.935	3326
276.995	1978
277.055	1703
277.114	2413
277.174	2805
277.234	13409
277.293	5501
277.353	1778
277.413	1806
277.472	2802
277.532	2335
277.592	2623
277.651	10155
277.711	22439
277.771	7495
277.830	25411
277.890	22343
277.950	11329
278.009	38973
278.069	16105
278.128	14952
278.188	24095
278.248	10035
278.307	23195
278.367	16005
278.426	3998
278.486	2902
278.545	2365
278.605	1423
278.664	1538
278.724	2058
278.783	7808
278.843	21344
278.902	6380
278.962	3356
279.021	3673
279.081	3317
279.140	3217
279.199	2753
279.259	2843
279.318	4369
279.378	5365
279.437	8350
279.496	32249
279.556	82843
279.615	70336
279.675	18329
279.734	10042
279.793	15538
279.853	27067
279.912	11106
279.971	6057
280.031	5038
280.090	9950
280.149	20071
280.208	13107
280.268	51645
280.327	60908
280.386	15154
280.445	11344
280.505	11757
280.564	5175
280.623	3937
280.682	6605
280.742	11372
280.801	4157
280.860	3179
280.919	1543
280.978	2825
281.037	1534
281.097	1133
281.156	2957
281.215	1547
281.274	2310
281.333	13374
281.392	12113
281.451	2635
281.510	1962
281.569	1614
281.628	1186
281.688	1460
281.747	1298
281.806	1668
281.865	1088
281.924	500
281.983	895
282.042	1428
282.101	1109
282.160	633
282.219	776
282.278	2121
282.337	7214
282.396	6347
282.454	2565
282.513	2544
282.572	12148
282.631	8060
282.690	2389
282.749	1776
282.808	1465
282.867	2118
282.926	2566
282.985	1235
283.043	789
283.102	1243
283.161	1865
283.220	4493
283.279	14002
283.338	5081
283.396	2388
283.455	2343
283.514	2361
283.573	4409
283.631	3228
283.690	2184
283.749	1917
283.808	5955
283.866	7070
283.925	2496
283.984	2166
284.043	3059
284.101	4060
284.160	2118
284.219	3409
284.277	2811
284.336	5042
284.395	17082
284.453	16369
284.512	5281
284.570	7104
284.629	7217
284.688	5922
284.746	6748
284.805	8045
284.863	10292
284.922	13900
284.981	14454
285.039	20535
285.098	38140
285.156	85833
285.215	141674
285.273	144096
285.332	100922
285.390	52325
285.449	32385
285.507	22063
285.566	15352
285.624	12187
285.683	8006
285.741	6941
285.799	4784
285.858	5783
285.916	4297
285.975	3126
286.033	3523
286.091	2977
286.150	1021
286.208	2123
286.267	2934
286.325	2654
286.383	5645
286.442	4122
286.500	2458
286.558	2421
286.616	1520
286.675	3178
286.733	2622
286.791	2024
286.850	2766
286.908	2945
286.966	7442
287.024	3148
287.083	1542
287.141	1342
287.199	1839
287.257	3183
287.315	2267
287.374	2017
287.432	8342
287.490	5229
287.548	3526
287.606	2106
287.664	1893
287.723	2887
287.781	3889
287.839	1655
287.897	2105
287.955	2291
288.013	3442
288.071	10319
288.129	40629
288.187	124880
288.245	56719
288.303	17341
288.361	9002
288.419	6687
288.477	4878
288.535	3256
288.593	2192
288.651	2701
288.709	1456
288.767	1215
288.825	1182
288.883	155
288.941	1313
288.999	1254
289.057	1904
289.115	477
289.173	271
289.231	919
289.289	1458
289.346	1499
289.404	1977
289.462	2785
289.520	3519
289.578	1331
289.636	967
289.694	9
289.751	898
289.809	-19
289.867	1228
289.925	1410
289.983	2325
290.040	1096
290.098	566
290.156	1184
290.214	2257
290.271	289
290.329	844
290.387	585
290.444	-16
290.502	228
290.560	34
290.617	627
290.675	1517
290.733	1362
290.790	1765
290.848	523
290.906	1163
290.963	1921
291.021	1226
291.078	1015
291.136	1768
291.194	3783
291.251	11957
291.309	4067
291.366	673
291.424	576
291.481	1366
291.539	1740
291.596	1047
291.654	679
291.711	234
291.769	689
291.826	2944
291.884	1892
291.941	566
291.999	903
292.056	1905
292.114	923
292.171	-10
292.228	1061
292.286	1664
292.343	3165
292.401	6278
292.458	3674
292.515	2013
292.573	1790
292.630	2021
292.687	1936
292.745	530
292.802	1152
292.859	4178
292.917	13626
292.974	9021
293.031	2125
293.089	1230
293.146	979
293.203	1090
293.260	264
293.318	562
293.375	1024
293.432	442
293.489	1235
293.546	1394
293.604	1528
293.661	6862
293.718	21973
293.775	10395
293.832	4647
293.889	3714
293.947	3536
294.004	2461
294.061	1800
294.118	4899
294.175	12051
294.232	8476
294.289	3274
294.346	3199
294.403	2129
294.460	1480
294.517	845
294.574	688
294.631	1349
294.688	1413
294.745	5436
294.802	21219
294.859	17907
294.916	6466
294.973	3556
295.030	4108
295.087	3318
295.144	1226
295.201	1970
295.258	1641
295.315	2697
295.372	8714
295.429	20053
295.486	8181
295.542	2660
295.599	4961
295.656	7238
295.713	8341
295.770	17987
295.827	5790
295.883	3214
295.940	2793
295.997	4325
296.054	3669
296.111	2011
296.167	1695
296.224	564
296.281	934
296.338	1087
296.394	1197
296.451	1497
296.508	6832
296.564	15998
296.621	9365
296.678	17689
296.734	29477
296.791	9677
296.848	4599
296.904	4982
296.961	13038
297.018	22323
297.074	15857
297.131	5512
297.187	3779
297.244	6034
297.301	19528
297.357	38489
297.414	14051
297.470	5000
297.527	2322
297.583	2775
297.640	2940
297.696	1812
297.753	1332
297.809	316
297.866	423
297.922	162
297.979	78
298.035	1739
298.092	3169
298.148	12562
298.204	12406
298.261	5041
298.317	8222
298.374	22763
298.430	15027
298.486	5272
298.543	2989
298.599	2891
298.656	3036
298.712	6559
298.768	16528
298.824	12323
298.881	3075
298.937	1479
298.993	1494
299.050	1997
299.106	2650
299.162	1699
299.218	2465
299.275	1617
299.331	2174
299.387	5693
299.443	21824
299.500	27823
299.556	12247
299.612	3820
299.668	4735
299.724	7443
299.780	9215
299.837	4635
299.893	6497
299.949	20099
300.005	27660
300.061	19210
300.117	33035
300.173	17402
300.229	6614
300.285	6801
300.341	9628
300.397	4618
300.453	2083
300.510	2242
300.566	2102
300.622	4577
300.678	14956
300.734	28812
300.790	22077
300.845	25209
300.901	16913
300.957	24565
301.013	17856
301.069	6559
301.125	4013
301.181	4771
301.237	2932
301.293	1646
301.349	1189
301.405	1345
301.461	399
301.516	1609
301.572	2125
301.628	5171
301.684	4915
301.740	7075
301.796	13625
301.851	8995
301.907	14649
301.963	15541
302.019	23377
302.074	62454
302.130	64524
302.186	28235
302.242	10060
302.297	7667
302.353	6845
302.409	14196
302.464	12500
302.520	9194
302.576	21435
302.631	27650
302.687	15364
302.743	6481
302.798	3423
302.854	1889
302.910	2849
302.965	2847
303.021	6253
303.076	6365
303.132	7881
303.187	10825
303.243	5381
303.299	1782
303.354	2096
303.410	843
303.465	923
303.521	1120
303.576	1317
303.632	2847
303.687	5800
303.743	18436
303.798	17298
303.853	6655
303.909	2493
303.964	3027
304.020	4858
304.075	8744
304.130	6671
304.186	11907
304.241	14529
304.297	11089
304.352	6023
304.358	5749
304.407	3522
304.449	2884
304.463	2676
304.518	2928
304.539	2547
304.573	1917
304.629	2431
304.630	2471
304.684	4485
304.720	9864
304.739	12552
304.794	22994
304.811	19694
304.850	11604
304.902	4977
304.905	4560
304.960	2879
304.992	2167
305.015	1671
305.071	2084
305.083	1933
305.126	1336
305.173	486
305.181	369
305.236	580
305.264	930
305.292	1291
305.347	2779
305.354	2830
305.402	2962
305.445	2802
305.457	2792
305.512	3649
305.535	3939
305.567	4407
305.622	4910
305.626	5100
305.678	9462
305.716	16853
305.733	19342
305.788	25783
305.807	22183
305.843	16084
305.897	19421
305.898	19441
305.953	21505
305.988	14653
306.008	11027
306.063	8287
306.078	7590
306.118	5743
306.168	2941
306.173	2716
306.228	1264
306.259	1764
306.283	2216
306.338	1305
306.349	1230
306.393	936
306.440	1652
306.448	1794
306.503	2090
306.530	2412
306.558	3497
306.613	7653
306.620	8470
306.668	14853
306.711	21571
306.723	22062
306.778	18013
306.801	13389
306.833	8360
306.888	4048
306.892	3833
306.943	2187
306.982	1995
306.997	2053
307.052	1925
307.072	2034
307.107	1989
307.162	1264
307.163	1262
307.217	1804
307.253	2472
307.272	2740
307.327	2782
307.343	2932
307.381	3174
307.434	3424
307.436	3573
307.491	7282
307.524	11128
307.546	12552
307.600	17288
307.614	16031
307.655	9674
307.704	3911
307.710	3655
307.765	3224
307.795	3604
307.819	3893
307.874	5043
307.885	5025
307.929	4550
307.975	4728
307.984	5060
308.038	7578
308.065	10222
308.093	19956
308.148	42909
308.156	48643
308.202	79957
308.246	103174
308.257	101209
308.312	52509
308.336	36065
308.366	27491
308.421	19006
308.426	18075
308.475	10992
308.517	6825
308.530	6116
308.585	4784
308.607	4545
308.639	4557
308.694	4014
308.697	4043
308.748	5660
308.787	6877
308.803	6832
308.857	6331
308.877	5866
308.912	5654
308.967	6383
308.967	6394
309.021	10656
309.058	14614
309.076	18961
309.130	34715
309.148	40604
309.185	74658
309.238	131374
309.239	131815
309.293	151768
309.328	141846
309.348	121682
309.402	53538
309.418	37394
309.457	25583
309.508	15803
309.511	15603
309.566	15684
309.598	16376
309.620	21153
309.674	35350
309.688	39280
309.729	36753
309.778	27873
309.783	27090
309.837	17494
309.868	13194
309.892	16432
309.946	26004
309.959	29031
310.001	38827
310.049	47732
310.055	46003
310.109	25718
310.139	14251
310.163	10885
310.218	6229
310.229	5421
310.272	4601
310.319	3762
310.326	3581
310.381	2558
310.409	2013
310.435	1837
310.489	1860
310.499	1850
310.543	1925
310.589	1786
310.598	1758
310.652	1924
310.679	1922
310.706	1879
310.760	1872
310.769	1866
310.814	1863
310.859	1894
310.868	1856
310.923	1444
310.948	1327
310.977	1731
311.031	2509
311.038	2633
311.085	2696
311.128	2467
311.139	2416
311.193	2158
311.218	2135
311.247	2057
311.301	1758
311.308	1728
311.356	1797
311.398	1775
311.410	1755
311.464	1676
311.488	1668
311.518	1960
311.572	2387
311.578	2437
311.626	3562
311.668	4527
311.680	4276
311.734	3044
311.758	2483
311.788	2521
311.842	2589
311.847	2594
311.896	3273
311.937	3890
311.950	3843
312.004	3573
312.027	3468
312.058	3438
312.112	3360
312.117	3348
312.165	2904
312.207	2520
312.297	1717
312.386	1607
312.476	2819
312.566	6989
312.656	2791
312.745	1663
312.835	2020
312.925	1698
313.015	2497
313.104	2083
313.194	1522
313.284	1899
313.374	4266
313.463	3661
313.553	2471
313.643	2089
313.732	2401
313.822	2213
313.912	2980
314.001	3833
314.091	3243
314.180	2948
314.270	4556
314.360	4086
314.449	3641
314.539	2606
314.628	2348
314.718	2722
314.808	2961
314.897	2301
314.987	3832
315.076	4145
315.166	5114
315.255	3432
315.345	3967
315.434	2339
315.524	3166
315.613	4205
315.703	5754
315.792	8896
315.881	21081
315.971	7114
316.060	7454
316.150	5292
316.239	5595
316.328	2493
316.418	3635
316.507	3074
316.597	4922
316.686	3663
316.775	3411
316.865	4275
316.954	2816
317.043	2158
317.133	2729
317.222	2526
317.311	2744
317.400	1565
317.490	4392
317.579	4592
317.668	3383
317.757	5588
317.847	12002
317.936	38450
318.025	17310
318.114	10771
318.203	7433
318.293	15885
318.382	40779
318.471	23525
318.560	26235
318.649	16658
318.738	5321
318.828	4121
318.917	5353
319.006	3897
319.095	7680
319.184	24274
319.273	18082
319.362	13202
319.451	3706
319.540	3974
319.629	9620
319.718	16872
319.807	8086
319.896	9293
319.985	30444
320.074	12793
320.163	3965
320.252	5335
320.341	3966
320.430	3554
320.519	8536
320.608	4931
320.697	4424
320.786	4930
320.875	6237
320.964	7774
321.053	11255
321.142	15359
321.230	17801
321.319	11952
321.408	27812
321.497	12996
321.586	11652
321.675	8274
321.764	9168
321.852	6061
321.941	15636
322.030	10671
322.119	9554
322.207	29051
322.296	11397
322.385	8469
322.474	13233
322.562	37833
322.651	17488
322.740	13006
322.829	15970
322.917	9072
323.006	8419
323.095	8758
323.183	4079
323.272	6851
323.361	9813
323.449	19337
323.538	7548
323.626	15124
323.715	8990
323.804	4073
323.892	12166
323.981	11109
324.069	4173
324.158	5585
324.246	5470
324.335	4887
324.424	10292
324.512	3970
324.601	4947
324.689	5315
324.778	8109
324.866	6220
324.954	3019
325.043	2452
325.131	3875
325.220	5186
325.308	5207
325.397	5318
325.485	4077
325.574	3111
325.662	2207
325.750	2773
325.839	3026
325.927	2431
326.015	2786
326.104	2103
326.192	3375
326.280	2204
326.369	2723
326.457	4400
326.545	8934
326.634	3479
326.722	1981
326.810	2963
326.898	2804
326.987	4215
327.075	7321
327.163	7675
327.251	2445
327.340	3305
327.428	4171
327.516	2346
327.604	2501
327.692	2466
327.781	1033
327.869	2236
327.957	1623
328.045	2951
328.133	2014
328.221	1196
328.309	2986
328.397	2373
328.485	4214
328.574	6252
328.662	19541
328.750	8347
328.838	2447
328.926	1794
329.014	2324
329.102	3371
329.190	6180
329.278	5032
329.366	1902
329.454	1515
329.542	1656
329.630	1231
329.718	2137
329.806	2661
329.893	2955
329.981	1810
330.069	4810
330.157	15591
330.245	54105
330.333	26347
330.421	5678
330.509	6076
330.597	22008
330.684	12873
330.772	3545
330.860	2473
330.948	3801
331.036	1700
331.123	1894
331.211	1498
331.299	1293
331.387	2787
331.475	6228
331.562	2723
331.650	2310
331.738	1529
331.825	1540
331.913	1091
332.001	1219
332.089	1444
332.176	2259
332.264	4975
332.352	4521
332.439	2815
332.527	1799
332.614	883
332.702	2197
332.790	2439
332.877	3434
332.965	7383
333.052	4069
333.140	3915
333.228	11019
333.315	2397
333.403	2702
333.490	3846
333.578	6225
333.665	15853
333.753	6985
333.840	2169
333.928	2306
334.015	4916
334.103	6910
334.190	23294
334.278	7957
334.365	6880
334.452	6314
334.540	3276
334.627	3226
334.715	3982
334.802	8139
334.889	22554
334.977	30390
335.064	12797
335.151	4886
335.239	4186
335.326	4173
335.413	14323
335.501	18736
335.588	3845
335.675	2853
335.762	3060
335.850	5405
335.937	6229
336.024	12869
336.111	36894
336.199	29803
336.286	9586
336.373	4310
336.460	2191
336.547	2548
336.635	2676
336.722	2573
336.809	2076
336.896	2908
336.983	7976
337.070	19224
337.157	27664
337.245	12668
337.332	7913
337.419	1984
337.506	1364
337.593	2538
337.680	4872
337.767	15968
337.854	5796
337.941	5287
338.028	5053
338.115	1934
338.202	2625
338.289	3832
338.376	12186
338.463	5628
338.550	8306
338.637	9260
338.724	2542
338.811	4442
338.898	2175
338.984	1268
339.071	2076
339.158	2692
339.245	9799
339.332	5586
339.419	3192
339.506	3509
339.593	918
339.679	2450
339.766	1730
339.853	3223
339.940	8307
340.027	2738
340.113	3006
340.200	4099
340.287	2750
340.374	3369
340.460	6964
340.547	2604
340.634	5974
340.720	23592
340.807	13105
340.894	2292
340.980	2508
341.067	1825
341.154	3275
341.240	4348
341.327	10854
341.414	3306
341.500	2250
341.587	2786
341.674	2685
341.760	7295
341.847	9267
341.933	2784
342.020	1115
342.106	1278
342.193	3132
342.279	5987
342.366	4155
342.452	7668
342.539	3873
342.625	10288
342.712	25917
342.798	10642
342.885	3234
342.971	878
343.058	1679
343.144	1304
343.230	1643
343.317	2085
343.403	1568
343.490	1318
343.576	1781
343.662	2037
343.749	2697
343.835	3141
343.921	8290
344.008	46241
344.094	108996
344.180	23774
344.267	9349
344.353	31542
344.439	29624
344.525	11415
344.612	4333
344.698	3783
344.784	2814
344.870	2047
344.957	1785
345.043	4952
345.129	3063
345.215	6964
345.301	3618
345.387	2369
345.474	1020
345.560	1281
345.646	1189
345.732	2144
345.818	2143
345.904	1106
345.990	2661
346.076	1576
346.162	1852
346.249	2106
346.335	2026
346.421	3104
346.507	12603
346.593	47369
346.679	9667
346.765	3440
346.851	3842
346.937	2312
347.023	2236
347.108	3709
347.194	1430
347.280	2332
347.366	3706
347.452	14475
347.538	56004
347.624	41404
347.710	31622
347.796	4619
347.882	1551
347.967	1421
348.053	1686
348.139	1485
348.225	804
348.311	1156
348.397	1105
348.482	3491
348.568	3023
348.654	2121
348.740	5849
348.825	5047
348.911	6210
348.997	23815
349.083	48432
349.168	6636
349.254	1339
349.340	2671
349.425	1924
349.511	2676
349.597	3023
349.682	8417
349.768	34911
349.854	15185
349.939	2187
350.025	2130
350.110	1903
350.196	1954
350.282	1014
350.367	1465
350.453	2577
350.538	1948
350.624	2552
350.709	2966
350.795	1535
350.880	2280
350.966	2367
351.051	2570
351.137	2152
351.222	3459
351.308	10458
351.393	30971
351.479	6726
351.564	2123
351.649	1885
351.735	1484
351.820	1556
351.906	1927
351.991	3200
352.076	18789
352.162	27194
352.247	5282
352.332	3207
352.418	5316
352.503	8845
352.588	44069
352.673	33361
352.759	6480
352.844	2743
352.929	3871
353.014	5240
353.100	3954
353.185	6918
353.270	9033
353.355	9211
353.441	3281
353.526	1922
353.611	6668
353.696	8589
353.781	5010
353.866	1762
353.952	3217
354.037	7239
354.122	18140
354.207	15118
354.292	5186
354.377	2359
354.462	2094
354.547	3681
354.632	4137
354.717	4458
354.802	6672
354.887	2498
354.972	1699
355.057	1443
355.142	989
355.227	2781
355.312	5357
355.397	12015
355.482	27911
355.567	12298
355.652	10824
355.737	11330
355.822	38816
355.907	30591
355.991	5630
356.076	1565
356.161	2907
356.246	1935
356.331	3426
356.416	7513
356.501	57318
356.585	57360
356.670	7271
356.755	6309
356.840	8025
356.924	36627
357.009	132567
357.094	47928
357.179	10346
357.263	6860
357.348	6528
357.433	5803
357.517	5873
357.602	4631
357.687	3526
357.771	6215
357.856	12252
357.941	9679
358.025	27426
358.110	126563
358.195	57273
358.279	8452
358.364	6321
358.448	24266
358.533	71170
358.617	50409
358.702	50363
358.787	16996
358.871	9484
358.956	8013
359.040	1723
359.125	2113
359.209	2682
359.294	5753
359.378	9143
359.462	7029
359.547	4309
359.631	1682
359.716	1153
359.800	1781
359.885	2919
359.969	1675
360.053	3654
360.138	1636
360.222	4586
360.306	8299
360.391	6350
360.475	8762
360.559	19195
360.644	21322
360.728	15405
360.812	30788
360.896	85893
360.981	30885
361.065	13909
361.149	4580
361.233	4556
361.318	2661
361.402	5074
361.486	3871
361.570	3060
361.654	4350
361.739	11391
361.823	53118
361.907	83215
361.991	13337
362.075	8611
362.159	17909
362.243	13462
362.327	16894
362.411	29360
362.495	11140
362.580	5047
362.664	3963
362.748	3293
362.832	5528
362.916	9999
363.000	42647
363.084	109043
363.168	110758
363.252	24330
363.336	7535
363.420	9007
363.503	20600
363.587	23822
363.671	6466
363.755	4723
363.839	9016
363.923	3135
364.007	9430
364.091	10117
364.175	9463
364.258	40781
364.342	49868
364.426	109047
364.510	58675
364.594	17231
364.677	16337
364.761	74814
364.845	52240
364.929	16959
365.013	13043
365.096	10671
365.180	10792
365.264	9759
365.347	33418
365.431	12731
365.515	4017
365.598	2461
365.682	3960
365.766	2711
365.849	3779
365.933	3483
366.017	5042
366.100	2111
366.184	1447
366.267	2972
366.351	2982
366.435	1889
366.518	1190
366.602	2945
366.685	4069
366.769	3344
366.852	4449
366.936	8645
367.019	6165
367.103	2024
367.186	4259
367.270	1717
367.353	1798
367.436	3053
367.520	1927
367.603	4542
367.687	5642
367.770	10135
367.853	6619
367.937	25642
368.020	42454
368.104	8844
368.187	8997
368.270	13790
368.353	11516
368.437	7285
368.520	9920
368.603	11406
368.687	26858
368.770	54584
368.853	12141
368.936	9085
369.020	7970
369.103	3964
369.186	3174
369.269	4698
369.352	6726
369.436	8896
369.519	6129
369.602	4012
369.685	4873
369.768	2474
369.851	3093
369.934	1229
370.018	2001
370.101	7694
370.184	7188
370.267	5378
370.350	13722
370.433	17274
370.516	45163
370.599	52632
370.682	13773
370.765	28413
370.848	33844
370.931	64767
371.014	21169
371.097	4316
371.180	3950
371.263	3088
371.346	601
371.429	3102
371.511	2049
371.594	5193
371.677	7365
371.760	7166
371.843	9057
371.926	46947
372.009	110917
372.091	36129
372.174	22470
372.257	60344
372.340	21735
372.423	11496
372.505	10299
372.588	5774
372.671	17862
372.754	63658
372.836	29262
372.919	11336
373.002	17747
373.085	7605
373.167	10237
373.250	25202
373.332	61339
373.415	71056
373.498	143483
373.580	49795
373.663	69782
373.746	94490
373.828	19365
373.911	7992
373.993	6299
374.076	16433
374.159	15360
374.241	13436
374.324	54271
374.406	32853
374.489	41020
374.571	128781
374.654	50824
374.736	22674
374.819	74241
374.901	104373
374.983	107665
375.066	18349
375.148	6562
375.231	15367
375.313	28479
375.395	11610
375.478	4432
375.560	4641
375.643	6196
375.725	19952
375.807	91461
375.890	57736
375.972	12148
376.054	9909
376.136	7990
376.219	5751
376.301	25014
376.383	84300
376.465	29923
376.548	16216
376.630	22004
376.712	72733
376.794	31541
376.877	4178
376.959	1557
377.041	3178
377.123	2922
377.205	3584
377.287	2005
377.369	3192
377.452	3144
377.534	2638
377.616	2470
377.698	2006
377.780	968
377.862	2744
377.944	3154
378.026	937
378.108	2807
378.190	1724
378.272	2228
378.354	1848
378.436	1414
378.518	3006
378.600	9355
378.682	11704
378.764	38838
378.846	28973
378.928	6868
379.010	11073
379.091	6561
379.173	2420
379.255	2400
379.337	4115
379.419	17850
379.501	56256
379.583	20532
379.664	4542
379.746	10386
379.828	37843
379.910	52131
379.991	45736
380.073	7565
380.155	3213
380.237	2878
380.318	2414
380.400	3493
380.482	7040
380.564	8990
380.645	10050
380.727	9706
380.809	7017
380.890	4598
380.972	2576
381.053	2843
381.135	4362
381.217	11574
381.298	41332
381.380	18927
381.461	12906
381.543	67934
381.624	81083
381.706	13609
381.787	8680
381.869	8686
381.951	27372
382.032	110830
382.113	68401
382.195	14102
382.276	10838
382.358	23160
382.439	66115
382.521	69164
382.602	105683
382.684	45072
382.765	88252
382.846	93742
382.928	143300
383.009	72046
383.090	44457
383.172	181109
383.253	282396
383.334	91658
383.416	98912
383.497	48973
383.578	20338
383.659	35767
383.741	143849
383.822	398562
383.903	195959
383.984	71818
384.066	129826
384.147	73809
384.228	15379
384.309	11344
384.390	8489
384.471	6327
384.553	6476
384.634	7967
384.715	8284
384.796	4546
384.877	6851
384.958	35379
385.039	42598
385.120	14831
385.201	6689
385.282	5743
385.363	5456
385.444	5901
385.525	18620
385.606	58066
385.687	45900
385.768	9027
385.849	8804
385.930	50970
386.011	92835
386.092	22926
386.173	5590
386.254	3712
386.335	5154
386.416	6644
386.496	24485
386.577	37914
386.658	10438
386.739	4987
386.820	5040
386.901	3434
386.981	3354
387.062	3775
387.143	8701
387.224	38530
387.304	34647
387.385	11974
387.466	7063
387.547	10889
387.627	9272
387.708	15216
387.789	67058
387.869	82554
387.950	21126
388.031	3811
388.111	1128
388.192	4702
388.273	5939
388.353	3352
388.434	4602
388.514	10858
388.595	57730
388.676	77986
388.756	36923
388.837	33935
388.917	20029
388.998	3516
389.078	4514
389.159	3223
389.239	2079
389.320	7724
389.400	3924
389.480	13063
389.561	42121
389.641	19764
389.722	6214
389.802	10095
389.883	15636
389.963	48998
390.043	25716
390.124	5194
390.204	14964
390.284	43255
390.365	21924
390.445	13888
390.525	41707
390.605	43801
390.686	21689
390.766	8855
390.846	4411
390.927	2440
391.007	2879
391.087	4180
391.167	6215
391.247	3256
391.328	4131
391.408	4070
391.488	4451
391.568	1080
391.648	4896
391.728	7970
391.808	6857
391.888	7138
391.969	21584
392.049	38079
392.129	13916
392.209	16030
392.289	50962
392.369	23003
392.449	8885
392.529	7016
392.609	9486
392.689	13245
392.769	47590
392.849	39769
392.929	23693
393.009	59633
393.089	51247
393.169	46609
393.248	138229
393.328	481549
393.408	511218
393.488	151255
393.568	44507
393.648	20800
393.728	13226
393.807	8862
393.887	8858
393.967	7016
394.047	7415
394.127	8025
394.206	12429
394.286	37900
394.366	198579
394.446	209916
394.525	39292
394.605	9361
394.685	7660
394.764	12077
394.844	21260
394.924	17614
395.003	7678
395.083	5206
395.163	4949
395.242	4632
395.322	4254
395.402	3028
395.481	5541
395.561	8177
395.640	28692
395.720	33278
395.799	26907
395.879	18905
395.958	13557
396.038	53633
396.117	259658
396.197	278039
396.276	63522
396.356	18192
396.435	13814
396.515	13055
396.594	19113
396.673	38816
396.753	144581
396.832	446082
396.912	332227
396.991	82590
397.070	23794
397.150	12303
397.229	10377
397.308	17265
397.388	33262
397.467	14435
397.546	4700
397.625	2329
397.705	6915
397.784	6254
397.863	3079
397.942	2556
398.022	2263
398.101	5720
398.180	18067
398.259	8191
398.338	4239
398.417	2914
398.497	2064
398.576	2805
398.655	1441
398.734	2285
398.813	1732
398.892	5146
398.971	19827
399.050	8813
399.129	1079
399.208	552
399.287	2655
399.366	1019
399.445	338
399.524	1402
399.603	396
399.682	4339
399.761	8937
399.840	23609
399.919	16245
399.998	1430
400.077	83
400.156	593
400.235	3387
400.313	902
400.392	1671
400.471	18703
400.550	30381
400.629	6327
400.708	2774
400.786	1255
400.865	3085
400.944	4797
401.023	4096
401.102	-164
401.180	784
401.259	429
401.338	1071
401.416	1907
401.495	1131
401.574	1829
401.652	570
401.731	2505
401.810	1396
401.888	1114
401.967	915
402.046	2425
402.124	2392
402.203	2836
402.281	1895
402.360	2414
402.438	4741
402.517	1488
402.596	1204
402.674	251
402.753	517
402.831	845
402.910	2657
402.988	12505
403.066	55569
403.145	28861
403.223	15120
403.302	47124
403.380	33419
403.459	33444
403.537	10753
403.615	2230
403.694	-242
403.772	1281
403.850	132
403.929	549
404.007	726
404.085	5596
404.164	5341
404.242	1077
404.320	3060
404.398	5850
404.477	16393
404.555	86341
404.633	72954
404.711	10614
404.789	3784
404.868	1474
404.946	645
405.024	653
405.102	836
405.180	986
405.258	-451
405.336	741
405.415	288
405.493	2530
405.571	3402
405.649	337
405.727	277
405.805	2160
405.883	1978
405.961	1489
406.039	628
406.117	-139
406.195	3756
406.273	17373
406.351	78056
406.429	41357
406.507	3663
406.585	738
406.663	1757
406.740	2285
406.818	1400
406.896	573
406.974	1820
407.052	4057
407.130	43606
407.208	62103
407.285	10795
407.363	925
407.441	1033
407.519	694
407.596	1295
407.674	4684
407.752	10546
407.830	8549
407.907	3469
407.985	927
408.063	529
408.141	-33
408.218	1744
408.296	1630
408.373	1254
408.451	1270
408.529	1660
408.606	-658
408.684	543
408.762	215
408.839	313
408.917	1143
408.994	1256
409.072	807
409.149	936
409.227	5569
409.304	8466
409.382	4751
409.459	4890
409.537	9794
409.614	7097
409.692	3769
409.769	3990
409.846	8972
409.924	13973
410.001	8197
410.079	3757
410.156	3276
410.233	3072
410.311	1486
410.388	1691
410.465	4275
410.543	4547
410.620	1898
410.697	2979
410.775	2032
410.852	273
410.929	4143
411.006	6321
411.083	3375
411.161	13547
411.238	9966
411.315	1628
411.392	947
411.469	5044
411.547	6991
411.624	2086
411.701	2543
411.778	2389
411.855	5071
411.932	2177
412.009	323
412.086	711
412.163	357
412.240	253
412.317	3019
412.394	2026
412.471	1035
412.548	-217
412.625	638
412.702	637
412.779	5380
412.856	4644
412.933	209
413.010	519
413.087	1924
413.164	18792
413.241	27277
413.318	5001
413.395	3735
413.471	6440
413.548	1763
413.625	1418
413.702	-104
413.779	270
413.855	130
413.932	-438
414.009	-370
414.086	277
414.162	416
414.239	1570
414.316	15686
414.393	39974
414.469	11747
414.546	908
414.623	284
414.699	881
414.776	1010
414.853	711
414.929	768
415.006	-485
415.082	719
415.159	129
415.236	-18
415.312	1381
415.389	2282
415.465	3553
415.542	932
415.618	-326
415.695	2264
415.771	933
415.848	-228
415.924	664
416.000	471
416.077	542
416.153	-689
416.230	-276
416.306	-624
416.383	-84
416.459	-496
416.535	-799
416.612	-563
416.688	-499
416.764	224
416.841	27
416.917	-135
416.993	106
417.069	563
417.146	1577
417.222	2931
417.298	1660
417.374	529
417.451	351
417.527	1374
417.603	2350
417.679	578
417.755	882
417.831	29
417.908	241
417.984	318
418.060	-959
418.136	4378
418.212	5241
418.288	1571
418.364	575
418.440	-335
418.516	1722
418.592	876
418.668	5176
418.744	10386
418.820	7098
418.896	1319
418.972	-143
419.048	-46
419.124	5292
419.200	2842
419.276	347
419.352	-515
419.428	416
419.504	53
419.579	1317
419.655	802
419.731	518
419.807	6071
419.883	11587
419.959	7326
420.034	2093
420.110	4714
420.186	25099
420.262	18689
420.337	2393
420.413	1562
420.489	344
420.565	749
420.640	1153
420.716	2240
420.792	-361
420.867	1281
420.943	855
421.019	3885
421.094	2282
421.170	1752
421.245	1108
421.321	1058
421.397	1671
421.472	3606
421.548	6455
421.623	6628
421.699	3526
421.774	3867
421.850	3503
421.925	6766
422.001	6047
422.076	6241
422.152	8225
422.227	12752
422.302	16755
422.378	25542
422.453	46742
422.529	112000
422.604	276019
422.679	377570
422.755	294915
422.830	127483
422.905	53251
422.981	29276
423.056	18411
423.131	13294
423.207	9375
423.282	8381
423.357	10660
423.432	8026
423.508	7377
423.583	13376
423.658	9806
423.733	3322
423.808	4103
423.883	4883
423.959	4032
424.034	4369
424.109	3394
424.184	1431
424.259	1295
424.334	1728
424.409	987
424.484	434
424.559	1217
424.634	693
424.709	1776
424.784	2485
424.859	1029
424.934	2042
425.009	16704
425.084	27715
425.159	9502
425.234	1194
425.309	168
425.384	2541
425.459	3651
425.534	927
425.609	-86
425.683	762
425.758	293
425.833	771
425.908	1568
425.983	8406
426.058	27542
426.132	9799
426.207	429
426.282	1404
426.357	782
426.431	574
426.506	828
426.581	-2
426.655	699
426.730	178
426.805	-80
426.879	1428
426.954	907
427.029	3463
427.103	25687
427.178	69577
427.253	27395
427.327	2181
427.402	862
427.476	2807
427.551	1102
427.625	649
427.700	589
427.774	-1041
427.849	579
427.923	-552
427.998	7
428.072	737
428.147	3498
428.221	24382
428.296	86871
428.370	44058
428.444	4364
428.519	1769
428.593	2023
428.667	2095
428.742	3091
428.816	6836
428.890	45492
428.965	76798
429.039	17745
429.113	3702
429.188	2029
429.262	667
429.336	2976
429.410	13249
429.485	6498
429.559	3155
429.633	1728
429.707	2050
429.781	6068
429.855	44819
429.930	74310
430.004	21622
430.078	15364
430.152	24500
430.226	100491
430.300	103085
430.374	15678
430.448	3533
430.522	5423
430.596	15303
430.670	18505
430.744	87324
430.818	121895
430.892	22512
430.966	2946
431.040	1656
431.114	-483
431.188	-529
431.262	-275
431.336	-456
431.410	1279
431.484	4113
431.557	4164
431.631	268
431.705	2037
431.779	14718
431.853	75589
431.927	50345
432.000	4990
432.074	816
432.148	164
432.222	-143
432.295	-100
432.369	-253
432.443	2364
432.516	23375
432.590	68134
432.664	22377
432.737	1401
432.811	-641
432.885	-505
432.958	729
433.032	-528
433.106	-286
433.179	-126
433.253	133
433.326	-140
433.400	-1310
433.473	139
433.547	-1998
433.620	166
433.694	1545
433.767	1965
433.841	-907
433.914	-1342
433.988	-305
434.061	15
434.134	241
434.208	-659
434.281	-1569
434.355	-1726
434.428	-1229
434.501	-1658
434.575	-1668
434.648	-727
434.721	-1243
434.795	-895
434.868	-811
434.941	-430
435.014	-910
435.088	-1100
435.161	396
435.234	1292
435.307	4506
435.381	1635
435.454	1505
435.527	4969
435.600	4240
435.673	2594
435.746	263
435.819	430
435.892	-688
435.966	-485
436.039	-1462
436.112	-309
436.185	-924
436.258	-578
436.331	-1773
436.404	-459
436.477	-1214
436.550	-539
436.623	-803
436.696	-879
436.769	-284
436.842	-1142
436.915	-1146
436.987	845
437.060	-1079
437.133	-1117
437.206	-1983
437.279	-507
437.352	-1276
437.425	-730
437.498	-542
437.570	3318
437.643	2358
437.716	-387
437.789	287
437.861	5660
437.934	20244
438.007	7223
438.080	-466
438.152	664
438.225	3134
438.298	33175
438.370	97819
438.443	44281
438.516	16157
438.588	2303
438.661	-413
438.734	-603
438.806	-718
438.879	896
438.951	3711
439.024	10097
439.096	1963
439.169	-628
439.241	-530
439.314	-1419
439.386	-985
439.459	1438
439.531	5615
439.604	1254
439.676	-832
439.749	-1154
439.821	-821
439.893	-165
439.966	-123
440.038	803
440.110	1550
440.183	84
440.255	-1038
440.327	1200
440.400	11349
440.472	59359
440.544	39444
440.617	5661
440.689	5891
440.761	8661
440.833	15921
440.905	8982
440.978	233
441.050	-992
441.122	-262
441.194	-933
441.266	-480
441.338	-1447
441.411	1963
441.483	18411
441.555	28767
441.627	5970
441.699	1281
441.771	-643
441.843	-687
441.915	-496
441.987	3
442.059	-233
442.131	450
442.203	1550
442.275	1144
442.347	2485
442.419	5148
442.491	39013
442.563	102624
442.635	37299
442.706	9344
442.778	6770
442.850	1940
442.922	-567
442.994	1252
443.066	1561
443.137	718
443.209	923
443.281	2430
443.353	8976
443.425	43331
443.496	177989
443.568	172310
443.640	60446
443.711	8912
443.783	3057
443.855	1691
443.926	55
443.998	-392
444.070	1065
444.141	1863
444.213	3257
444.285	3383
444.356	1690
444.428	1643
444.499	221
444.571	-578
444.642	-657
444.714	-5
444.785	2275
444.857	2073
444.928	2508
445.000	970
445.071	1893
445.143	2462
445.214	4339
445.285	6373
445.357	19997
445.428	98111
445.500	241277
445.571	148671
445.642	83304
445.714	21990
445.785	8257
445.856	2778
445.928	4499
445.999	5988
446.070	5024
446.141	2834
446.213	4380
446.284	1396
446.355	197
446.426	258
446.497	-305
446.569	689
446.640	1624
446.711	2470
446.782	-185
446.853	10
446.924	469
446.995	-20
447.066	-484
447.138	-248
447.209	-583
447.280	-901
447.351	-670
447.422	-1254
447.493	-535
447.564	731
447.635	1954
447.706	333
447.777	-954
447.847	-1044
447.918	-1637
447.989	-1192
448.060	-219
448.131	-242
448.202	1928
448.273	1711
448.344	444
448.414	28
448.485	-387
448.556	-807
448.627	-580
448.698	-141
448.768	-1429
448.839	-1477
448.910	-504
448.981	-53
449.051	-720
449.122	-1341
449.193	-1084
449.263	-1946
449.334	-1427
449.405	516
449.475	3250
449.546	1490
449.616	115
449.687	-363
449.758	-942
449.828	-674
449.899	-980
449.969	-1128
450.040	-1138
450.110	-1275
450.181	-296
450.251	-770
450.322	-1144
450.392	-549
450.463	-1287
450.533	-1806
450.604	-2103
450.674	-943
450.744	-297
450.815	-1172
450.885	-968
450.955	-782
451.026	-1036
451.096	-867
451.166	-417
451.237	-1129
451.307	1594
451.377	-63
451.447	-1173
451.518	-700
451.588	-1014
451.658	-1289
451.728	-1056
451.799	276
451.869	1157
451.939	-1615
452.009	-751
452.079	-1126
452.149	-354
452.219	-692
452.289	1939
452.360	153
452.430	-403
452.500	-3
452.570	280
452.640	2831
452.710	10095
452.780	10727
452.850	8937
452.920	8712
452.990	2436
453.060	70
453.129	425
453.199	712
453.269	2746
453.339	5424
453.409	8146
453.479	9467
453.549	12743
453.619	12729
453.688	2809
453.758	467
453.828	-939
453.898	-1201
453.968	-803
454.037	-1204
454.087	-162
454.107	264
454.168	-1205
454.177	-1431
454.247	-1657
454.249	-1652
454.316	-1825
454.330	-1665
454.386	-1069
454.411	-573
454.456	214
454.492	836
454.525	1398
454.574	787
454.595	514
454.655	-662
454.665	-866
454.734	-705
454.736	-676
454.804	150
454.817	356
454.873	1145
454.898	1228
454.943	1444
454.979	518
455.013	-412
455.060	-1027
455.082	-1311
455.141	-756
455.152	-651
455.221	1298
455.222	1315
455.291	2227
455.303	2144
455.360	1448
455.384	2970
455.430	5510
455.465	3829
455.499	2239
455.546	1131
455.569	646
455.627	636
455.638	611
455.707	-1141
455.708	-1136
455.777	-1454
455.789	-1252
455.846	-498
455.869	-602
455.916	-627
455.950	-442
455.985	-359
456.031	-893
456.054	-1176
456.112	-648
456.124	-562
456.193	-392
456.193	-396
456.262	-1211
456.274	-1038
456.332	-440
456.355	-360
456.401	-180
456.436	-551
456.470	-950
456.516	-782
456.540	-676
456.597	-1018
456.609	-1154
456.678	-501
456.678	-505
456.747	-983
456.759	-990
456.817	-1194
456.840	-1039
456.886	-815
456.920	-409
456.955	17
457.001	-236
457.024	-302
457.082	-844
457.093	-982
457.162	119
457.163	126
457.232	-153
457.243	-110
457.301	306
457.324	-189
457.370	-1229
457.405	-882
457.439	-471
457.485	-218
457.508	-69
457.566	256
457.577	326
457.646	851
457.647	870
457.715	3076
457.727	3616
457.784	7004
457.808	9716
457.853	13491
457.889	15883
457.922	16076
457.969	9336
457.991	8572
458.050	11454
458.060	11807
458.129	22613
458.130	22870
458.198	25721
458.211	22743
458.267	10143
458.292	6122
458.336	2304
458.372	2328
458.405	3831
458.453	6857
458.474	9400
458.533	19993
458.543	20884
458.611	40795
458.614	40821
458.680	25599
458.694	20131
458.749	7149
458.775	4849
458.818	2087
458.855	1422
458.887	1191
458.936	946
458.955	661
459.016	11
459.024	-19
459.093	794
459.097	779
459.162	386
459.177	558
459.230	929
459.257	948
459.299	1501
459.338	1946
459.368	1996
459.418	2515
459.437	2512
459.499	1734
459.505	1662
459.574	489
459.579	429
459.643	139
459.659	115
459.711	-112
459.740	-205
459.780	-71
459.820	288
459.849	340
459.900	343
459.917	380
459.981	182
459.986	133
460.054	68
460.061	29
460.123	234
460.141	339
460.191	743
460.222	991
460.260	1065
460.302	1469
460.328	1682
460.382	1579
460.397	1522
460.462	435
460.465	404
460.534	841
460.543	943
460.602	4193
460.623	5415
460.671	8614
460.703	12214
460.739	12642
460.783	10452
460.808	8514
460.864	1666
460.876	1072
460.944	295
460.945	279
461.013	474
461.024	411
461.081	907
461.104	1325
461.150	1256
461.184	786
461.218	642
461.264	328
461.286	200
461.345	560
461.355	549
461.423	80
461.425	63
461.491	-228
461.505	-190
461.559	756
461.585	1105
461.628	1163
461.665	1410
461.696	1819
461.745	2583
461.764	2451
461.825	1116
461.832	1094
461.901	840
461.905	892
461.969	825
461.985	761
462.037	1633
462.065	1735
462.105	732
462.145	185
462.173	530
462.225	1044
462.241	1023
462.305	904
462.310	887
462.378	1184
462.385	1083
462.446	71
462.465	56
462.514	773
462.545	1056
462.582	818
462.625	497
462.650	545
462.705	678
462.718	652
462.785	499
462.786	498
462.854	417
462.865	457
462.922	762
462.945	791
462.990	950
463.025	942
463.058	919
463.104	1106
463.126	1069
463.184	911
463.194	901
463.262	482
463.264	490
463.330	590
463.344	510
463.398	621
463.424	671
463.466	591
463.504	543
463.533	508
463.583	467
463.601	641
463.663	1224
463.669	1166
463.737	532
463.743	469
463.805	1735
463.823	2166
463.873	2016
463.903	1787
463.940	1913
463.982	2202
464.008	2063
464.062	1511
464.076	1497
464.142	1464
464.144	1457
464.211	823
464.221	805
464.279	1186
464.301	1285
464.347	1401
464.381	1443
464.414	1307
464.461	1247
464.482	1368
464.540	1509
464.550	1506
464.617	1343
464.620	1340
464.685	2000
464.699	2154
464.753	2465
464.779	2549
464.820	2626
464.859	2773
464.888	2429
464.938	1702
464.956	1804
465.018	2272
465.023	2292
465.091	2222
465.098	2242
465.158	1753
465.177	1574
465.226	1794
465.257	1917
465.293	1992
465.336	2013
465.361	2166
465.416	2603
465.428	2646
465.495	2975
465.496	2983
465.563	3349
465.575	3405
465.631	3272
465.654	3262
465.698	2848
465.734	2351
465.765	2169
465.813	1944
465.833	2095
465.893	2601
465.900	2543
465.968	1954
465.972	1913
466.035	2009
466.052	2012
466.102	1792
466.131	1669
466.170	1833
466.210	1984
466.237	2207
466.290	2629
466.304	2587
466.369	2354
466.372	2379
466.439	2957
466.449	3039
466.506	3079
466.528	3065
466.573	3075
466.607	3049
466.641	3959
466.687	5289
466.708	5676
466.766	6740
466.775	6441
466.842	4041
466.845	3921
466.909	3493
466.925	3397
466.977	3348
467.004	3314
467.044	3171
467.083	3021
467.111	3434
467.163	4189
467.178	4268
467.242	4594
467.245	4621
467.312	5012
467.321	5056
467.379	3611
467.400	3079
467.446	3311
467.480	3470
467.559	4491
467.638	2930
467.717	3502
467.796	4176
467.875	3401
467.955	3305
468.034	4149
468.113	5239
468.192	6676
468.271	4386
468.350	4571
468.429	7299
468.508	8955
468.588	5284
468.667	3540
468.746	3088
468.825	2463
468.904	3645
468.983	2824
469.062	3961
469.141	3969
469.220	2562
469.299	2361
469.378	3090
469.456	4588
469.535	3873
469.614	3255
469.693	3059
469.772	3985
469.851	4710
469.930	3537
470.009	3745
470.088	2978
470.166	4665
470.245	7799
470.324	9223
470.403	4931
470.482	4171
470.560	3435
470.639	4229
470.718	4494
470.797	4022
470.875	4108
470.954	4248
471.033	3520
471.111	3367
471.190	1792
471.269	2710
471.347	1769
471.426	3723
471.505	3368
471.583	3323
471.662	3776
471.740	2110
471.819	2006
471.898	2812
471.976	2918
472.055	3229
472.133	3180
472.212	4018
472.290	3380
472.369	2604
472.447	3405
472.526	2101
472.604	3523
472.683	3134
472.761	4096
472.839	3533
472.918	3190
472.996	2880
473.075	2756
473.153	2893
473.231	2288
473.310	3294
473.388	3173
473.466	3544
473.545	3507
473.623	5258
473.701	4826
473.780	3397
473.858	2250
473.936	4454
474.014	2435
474.093	2220
474.171	3991
474.249	3841
474.327	3025
474.405	3335
474.484	2715
474.562	3044
474.640	2424
474.718	3324
474.796	3313
474.874	3363
474.952	1766
475.030	2858
475.108	2626
475.187	2230
475.265	2667
475.343	6379
475.421	5356
475.499	2656
475.577	2914
475.655	3386
475.733	3002
475.811	4394
475.889	3223
475.966	4202
476.044	2691
476.122	3782
476.200	5106
476.278	3663
476.356	1771
476.434	3315
476.512	3785
476.590	5237
476.667	3844
476.745	1773
476.823	2901
476.901	2004
476.979	1609
477.056	3127
477.134	2540
477.212	3459
477.290	2011
477.367	2982
477.445	1416
477.523	1716
477.601	1981
477.678	2506
477.756	2039
477.834	2953
477.911	1516
477.989	2468
478.066	1439
478.144	2457
478.222	2824
478.299	5516
478.377	5779
478.454	2732
478.532	1974
478.609	3058
478.687	3144
478.764	2054
478.842	2636
478.919	2318
478.997	2334
479.074	2120
479.152	1809
479.229	2729
479.307	1683
479.384	2374
479.461	2117
479.539	1720
479.616	1898
479.694	2049
479.771	1736
479.848	1853
479.926	520
480.003	3249
480.080	1704
480.157	1938
480.235	1318
480.312	2241
480.389	1854
480.467	2004
480.544	2372
480.621	2620
480.698	2562
480.775	2950
480.853	2331
480.930	2149
481.007	2027
481.084	1117
481.161	1530
481.238	3125
481.315	2052
481.392	2192
481.470	1592
481.547	1921
481.624	869
481.701	2399
481.778	2675
481.855	1448
481.932	1439
482.009	2179
482.086	1528
482.163	2202
482.240	4711
482.317	8432
482.393	6654
482.470	1870
482.547	1771
482.624	2325
482.701	2841
482.778	2472
482.855	1333
482.932	2210
483.009	1411
483.085	3470
483.162	3811
483.239	4295
483.316	2225
483.393	3421
483.469	2150
483.546	2195
483.623	1704
483.699	1304
483.776	1898
483.853	1811
483.930	2566
484.006	3594
484.083	6374
484.160	8209
484.236	14603
484.313	12201
484.389	7943
484.466	9053
484.543	6746
484.619	7761
484.696	9519
484.772	8125
484.849	7165
484.925	6822
485.002	6195
485.078	7654
485.155	8029
485.231	6376
485.308	5631
485.384	6604
485.461	6097
485.537	6761
485.614	7460
485.690	6444
485.766	5845
485.843	7069
485.919	9113
485.995	10115
486.072	5662
486.148	5890
486.224	5401
486.301	5784
486.377	6114
486.453	8387
486.530	7518
486.606	8941
486.682	9338
486.758	8561
486.835	7193
486.911	7911
486.987	9981
487.063	15499
487.139	22713
487.215	16588
487.292	9046
487.368	6737
487.444	9218
487.520	14727
487.596	13305
487.672	22752
487.748	69303
487.824	109555
487.900	31092
487.976	9564
488.052	9238
488.128	12530
488.204	9004
488.280	7471
488.356	6037
488.432	6847
488.508	7842
488.584	5785
488.660	5032
488.736	6204
488.812	6006
488.888	7671
488.964	8761
489.039	21588
489.115	33902
489.191	21021
489.267	5800
489.343	5368
489.418	5240
489.494	5372
489.570	3470
489.646	6523
489.722	4397
489.797	4600
489.873	5344
489.949	6881
490.024	6383
490.100	3361
490.176	4107
490.251	6000
490.327	8447
490.403	5352
490.478	4291
490.554	3869
490.629	3113
490.705	4144
490.781	3723
490.856	3768
490.932	4462
491.007	5574
491.083	3945
491.158	3486
491.234	3434
491.309	5503
491.385	4409
491.460	4008
491.536	3973
491.611	4544
491.686	4419
491.762	6471
491.837	12944
491.913	21207
491.988	30778
492.063	40253
492.139	9047
492.214	3948
492.289	3885
492.365	2555
492.440	3976
492.515	4127
492.590	3116
492.666	2967
492.741	3285
492.816	4298
492.891	2574
492.967	3104
493.042	3203
493.117	2536
493.192	3480
493.267	4757
493.342	11927
493.418	16648
493.493	4492
493.568	2976
493.643	2273
493.718	2889
493.793	3720
493.868	6276
493.943	4160
494.018	4006
494.093	1726
494.168	3496
494.243	1673
494.318	3019
494.393	2430
494.468	2708
494.543	2585
494.618	3299
494.693	2321
494.768	2448
494.842	3030
494.917	2408
494.992	3001
495.067	2568
495.142	2327
495.217	3729
495.292	3251
495.366	3775
495.441	3762
495.516	5925
495.591	6573
495.665	27060
495.740	72518
495.815	31644
495.890	4619
495.964	459
496.039	4704
496.114	2749
496.188	3298
496.263	3477
496.338	2155
496.412	1801
496.487	2907
496.561	3077
496.636	3985
496.710	3226
496.785	2607
496.860	4024
496.934	2779
497.009	4100
497.083	2727
497.158	2776
497.232	3384
497.307	4582
497.381	3725
497.455	3699
497.530	3407
497.604	2713
497.679	3146
497.753	5100
497.827	6869
497.902	6917
497.976	7152
498.050	10143
498.125	29234
498.199	37862
498.273	14374
498.348	11949
498.422	8902
498.496	6797
498.570	7001
498.645	4051
498.719	2113
498.793	4057
498.867	4304
498.941	5157
499.016	9909
499.090	30019
499.164	15231
499.238	3236
499.312	2925
499.386	4649
499.460	4090
499.534	2797
499.609	3774
499.683	3472
499.757	3649
499.831	4284
499.905	16301
499.979	19517
500.053	3674
500.127	5969
500.201	4832
500.275	3095
500.349	3316
500.422	3420
500.496	5183
500.570	12082
500.644	17516
500.718	20681
500.792	6566
500.866	2715
500.940	2548
501.013	2942
501.087	1634
501.161	6564
501.235	6459
501.309	7214
501.382	13514
501.456	17278
501.530	5105
501.603	4692
501.677	2456
501.751	540
501.825	2785
501.898	3349
501.972	6405
502.046	4462
502.119	1284
502.193	4778
502.266	6638
502.340	3846
502.413	2094
502.487	6437
502.561	3003
502.634	2604
502.708	2867
502.781	1994
502.855	2463
502.928	1112
503.002	1842
503.075	623
503.149	1383
503.222	918
503.295	542
503.369	2903
503.442	1733
503.516	5575
503.589	9519
503.662	8233
503.736	2569
503.809	6719
503.882	7166
503.956	10468
504.029	15198
504.102	37235
504.175	64001
504.249	18786
504.322	4084
504.395	2671
504.468	2269
504.542	1251
504.615	320
504.688	2036
504.761	-821
504.834	2778
504.907	3079
504.980	6100
505.053	2771
505.127	1827
505.200	5708
505.273	1404
505.346	878
505.419	456
505.492	1767
505.565	1319
505.638	1549
505.711	457
505.784	139
505.857	1018
505.930	3101
506.003	-48
506.076	2775
506.149	687
506.221	195
506.294	2771
506.367	1888
506.440	8518
506.513	7267
506.586	1775
506.659	1169
506.731	1830
506.804	630
506.877	2699
506.950	1257
507.022	2302
507.095	-85
507.168	2327
507.241	1991
507.313	1274
507.386	-108
507.459	3645
507.531	1600
507.604	493
507.677	2195
507.749	26
507.822	2599
507.894	4382
507.967	7823
508.040	3883
508.112	3646
508.185	3317
508.257	1045
508.330	5409
508.402	1765
508.475	1850
508.547	2661
508.620	1858
508.692	3138
508.765	2072
508.837	1805
508.909	2857
508.982	1677
509.054	3542
509.127	2274
509.199	1481
509.271	348
509.344	1912
509.416	1022
509.488	1527
509.560	2363
509.633	1592
509.705	2120
509.777	2386
509.849	3208
509.922	1949
509.994	1396
510.066	2657
510.138	458
510.210	6525
510.283	5778
510.355	3843
510.427	4475
510.499	3647
510.571	2805
510.643	2495
510.715	6957
510.787	4350
510.859	3882
510.931	3394
511.003	5971
511.076	6105
511.148	1795
511.219	1346
511.291	3291
511.363	3337
511.435	2236
511.507	1729
511.579	2594
511.651	3315
511.723	1745
511.795	2085
511.867	1443
511.939	1775
512.010	1534
512.082	3597
512.154	1008
512.226	2778
512.298	3716
512.369	6125
512.441	5427
512.513	5101
512.585	2715
512.656	4671
512.728	3187
512.800	2847
512.871	3940
512.943	3498
513.015	1576
513.086	3986
513.158	3001
513.230	2841
513.301	3254
513.373	6889
513.444	3386
513.516	3176
513.588	2193
513.659	3660
513.731	3837
513.802	1918
513.874	9299
513.945	15855
514.016	5337
514.088	2983
514.159	1708
514.231	4450
514.302	6264
514.374	4834
514.445	2007
514.516	6049
514.588	2079
514.659	2860
514.730	3401
514.802	5863
514.873	2278
514.944	5932
515.016	3891
515.087	4236
515.158	2670
515.229	5594
515.301	3255
515.372	5019
515.443	2315
515.514	2896
515.585	1185
515.656	3262
515.728	4035
515.799	2161
515.870	3147
515.941	3934
516.012	2623
516.083	5273
516.154	4195
516.225	8119
516.296	6228
516.367	6502
516.438	6798
516.509	9225
516.580	12294
516.651	41644
516.722	162610
516.793	84141
516.864	14065
516.935	13451
517.006	13675
517.077	18315
517.148	41044
517.219	169733
517.289	294267
517.360	48224
517.431	12811
517.502	4825
517.573	5444
517.643	6290
517.714	5213
517.785	5930
517.856	6231
517.926	9267
517.997	12055
518.068	14901
518.138	21058
518.209	26960
518.280	104181
518.350	437873
518.421	188967
518.492	20055
518.562	9592
518.633	8882
518.703	8557
518.774	22152
518.845	66072
518.915	79422
518.986	17668
519.056	9042
519.127	12472
519.197	15401
519.268	16566
519.338	11778
519.408	4309
519.479	8614
519.549	6365
519.620	5824
519.690	3431
519.760	3059
519.831	2970
519.901	3015
519.971	2903
520.042	2408
520.112	1601
520.182	4443
520.253	5014
520.323	2080
520.393	1022
520.463	5495
520.534	916
520.604	5984
520.674	3150
520.744	2535
520.814	4960
520.885	6324
520.955	3284
521.025	11502
521.095	6043
521.165	3019
521.235	1621
521.305	2084
521.375	2820
521.445	4800
521.515	3440
521.585	5000
521.655	3328
521.725	4814
521.795	2488
521.865	-385
521.935	4375
522.005	1611
522.075	1494
522.145	2940
522.215	877
522.285	2441
522.355	2706
522.424	4950
522.494	3759
522.564	4894
522.634	10505
522.704	38493
522.774	18175
522.843	4847
522.913	2735
522.983	4239
523.053	1968
523.122	3484
523.192	3876
523.262	16618
523.331	19098
523.401	4423
523.471	2377
523.540	2819
523.610	787
523.680	2025
523.749	2482
523.819	3115
523.888	1474
523.958	997
524.027	2094
524.097	2846
524.166	1501
524.236	1238
524.305	4189
524.375	1148
524.444	618
524.514	3418
524.583	1101
524.653	1145
524.722	2291
524.791	-464
524.861	2724
524.930	529
524.999	1423
525.069	4193
525.138	1948
525.207	1730
525.277	2717
525.346	2734
525.415	2351
525.484	2129
525.554	1251
525.623	3962
525.692	3714
525.761	4188
525.830	5889
525.900	7499
525.969	11476
526.038	22491
526.107	41653
526.176	146089
526.245	133329
526.314	35907
526.383	67397
526.452	104058
526.522	155115
526.591	183667
526.660	36975
526.729	20731
526.797	21154
526.867	34498
526.935	151357
527.004	350978
527.073	232195
527.142	20915
527.211	7255
527.280	5985
527.349	4877
527.418	1563
527.487	2858
527.555	1180
527.624	1384
527.693	1177
527.762	2172
527.831	842
527.899	2724
527.968	1757
528.037	876
528.106	2254
528.174	5201
528.243	3632
528.312	4131
528.380	6425
528.449	1870
528.518	2606
528.586	-195
528.655	2862
528.723	1165
528.792	576
528.861	1390
528.929	74
528.998	2191
529.066	1007
529.135	805
529.203	1643
529.272	630
529.340	2626
529.409	2821
529.477	1537
529.545	696
529.614	4024
529.682	456
529.751	1804
529.819	4547
529.887	2044
529.956	1198
530.024	3007
530.092	1866
530.161	3478
530.229	4307
530.297	2365
530.365	2570
530.434	2669
530.502	1577
530.570	2505
530.638	439
530.707	3030
530.775	2711
530.843	1705
530.911	2114
530.979	2309
531.047	1534
531.115	2693
531.183	1671
531.252	2924
531.320	1857
531.388	1030
531.456	2660
531.524	1014
531.592	3028
531.660	4022
531.728	1192
531.796	1587
531.864	1858
531.932	3028
532.000	1476
532.067	2809
532.135	2872
532.203	4135
532.271	2222
532.339	6224
532.407	15208
532.475	11210
532.542	5543
532.610	6203
532.678	6320
532.746	29050
532.814	92790
532.881	27113
532.949	4430
533.017	3793
533.084	2618
533.152	1998
533.220	2376
533.287	2741
533.355	2820
533.423	3224
533.490	2433
533.558	3103
533.625	2720
533.693	2581
533.761	3515
533.828	3356
533.896	1475
533.963	7226
534.031	6913
534.098	11533
534.166	5346
534.233	3379
534.300	4759
534.368	4907
534.435	4286
534.503	4985
534.570	4589
534.637	5710
534.705	6217
534.772	7147
534.840	11918
534.907	59842
534.974	97574
535.041	11967
535.109	4944
535.176	3246
535.243	3838
535.310	4198
535.378	3144
535.445	3949
535.512	3539
535.579	4744
535.646	2314
535.714	3542
535.781	4934
535.848	3957
535.915	3979
535.982	2614
536.049	3616
536.116	5480
536.183	2524
536.250	3336
536.317	2706
536.384	5279
536.451	5783
536.518	7051
536.585	3352
536.652	7160
536.719	8177
536.786	5598
536.853	5418
536.920	8223
536.987	10555
537.053	10186
537.120	41357
537.187	46761
537.254	5704
537.321	4617
537.388	5511
537.454	3598
537.521	4069
537.588	3365
537.654	4596
537.721	5322
537.788	6256
537.855	4305
537.921	4545
537.988	3769
538.055	4681
538.121	3921
538.188	4322
538.254	4904
538.321	10620
538.388	8592
538.454	4857
538.521	4964
538.587	4150
538.654	4174
538.720	4232
538.787	5660
538.853	4084
538.920	5426
538.986	3708
539.053	4116
539.119	4814
539.185	5127
539.252	5643
539.318	7093
539.385	7065
539.451	4729
539.517	6586
539.583	7534
539.650	10375
539.716	32823
539.782	14121
539.849	4574
539.915	5149
539.981	4876
540.047	4584
540.114	5309
540.180	6162
540.246	4534
540.312	6352
540.378	10172
540.444	12800
540.510	12496
540.576	38262
540.643	16749
540.709	4511
540.775	4429
540.841	3894
540.907	5334
540.973	6593
541.039	6943
541.105	8014
541.171	4579
541.237	4389
541.303	5621
541.369	7122
541.435	6747
541.500	9998
541.566	7174
541.632	4104
541.698	4684
541.764	5013
541.830	4402
541.896	3078
541.961	5512
542.027	4598
542.093	5165
542.159	5519
542.224	4621
542.290	7065
542.356	9851
542.421	13114
542.487	7487
542.553	4068
542.618	5384
542.684	5684
542.750	5281
542.815	7395
542.881	8456
542.947	30319
543.012	30490
543.078	6107
543.143	5084
543.209	5339
543.274	4966
543.340	5194
543.405	12437
543.471	22132
543.536	7757
543.602	4935
543.667	4345
543.732	6188
543.798	3960
543.863	5533
543.928	4570
543.994	3991
544.059	4974
544.124	4911
544.190	5493
544.255	4815
544.320	5882
544.386	5238
544.451	8381
544.516	7799
544.581	8061
544.646	18769
544.712	37049
544.777	9850
544.842	6156
544.907	5556
544.972	5051
545.037	5162
545.102	6489
545.168	5477
545.233	7353
545.298	7052
545.363	6170
545.428	8049
545.493	12803
545.558	26829
545.623	15362
545.688	6287
545.753	7393
545.818	6071
545.883	7052
545.947	6391
546.012	7393
546.077	6880
546.142	8910
546.207	7667
546.272	10095
546.337	9625
546.401	10693
546.466	9646
546.531	9283
546.596	11144
546.661	10755
546.725	11405
546.790	10733
546.855	12244
546.919	11831
546.984	15357
547.049	17441
547.113	18422
547.178	20468
547.243	22399
547.307	26891
547.372	29344
547.436	30458
547.501	31174
547.565	34667
547.630	32948
547.695	31103
547.759	29969
547.823	29710
547.888	30469
547.952	32098
548.017	31857
548.081	34369
548.146	32538
548.210	34587
548.274	36675
548.339	37410
548.403	33536
548.468	30967
548.532	29813
548.596	31201
548.660	31124
548.725	34857
548.789	37760
548.853	38489
548.917	34613
548.982	33893
549.046	31340
549.110	26579
549.174	26752
549.238	31484
549.303	35178
549.367	38025
549.431	35389
549.495	33428
549.559	33560
549.623	37414
549.687	43216
549.751	44176
549.815	48999
549.879	51316
549.943	47013
550.007	49545
550.071	50067
550.135	47950
550.199	42409
550.263	41511
550.327	38398
550.391	37855
550.455	42499
550.519	46404
550.582	48585
550.646	57196
550.710	59621
550.774	56463
550.838	55693
550.901	57846
550.965	60911
551.029	61343
551.093	66114
551.156	69802
551.220	74749
551.284	92196
551.347	74005
551.411	60798
551.475	59489
551.538	60701
551.602	57872
551.666	51886
551.729	48678
551.793	48418
551.856	45630
551.920	45670
551.983	44898
552.047	45805
552.110	46039
552.174	45450
552.237	46649
552.301	44965
552.364	41534
552.428	40496
552.491	41176
552.554	43003
552.618	41846
552.681	44042
552.745	42063
552.808	47943
552.871	54675
552.934	47378
552.998	41866
553.061	41495
553.124	39953
553.187	38904
553.251	40250
553.314	41364
553.377	39222
553.440	44555
553.503	48891
553.567	56194
553.630	44540
553.693	42722
553.756	41740
553.819	40975
553.882	38115
553.945	40139
554.008	38322
554.071	39122
554.134	39860
554.197	37609
554.260	36089
554.323	37435
554.386	38209
554.449	39202
554.512	39971
554.575	37536
554.638	36147
554.701	36967
554.764	36206
554.827	34367
554.889	32005
554.952	31472
555.015	30607
555.078	31441
555.141	32544
555.203	30989
555.266	31389
555.329	31089
555.391	29571
555.454	29401
555.517	28097
555.580	26899
555.642	25317
555.705	25099
555.768	25176
555.830	24795
555.893	23606
555.955	23365
556.018	22297
556.080	22812
556.143	23786
556.206	23250
556.268	22396
556.330	22646
556.393	21646
556.455	22212
556.518	21318
556.580	20846
556.643	18718
556.705	19489
556.767	18580
556.830	19262
556.892	18688
556.955	20694
557.017	19724
557.079	18650
557.142	17189
557.204	18132
557.266	23497
557.328	21229
557.391	14220
557.453	13790
557.515	14647
557.577	15921
557.639	16932
557.701	15578
557.764	14754
557.826	16386
557.888	17162
557.950	17226
558.012	17590
558.074	23061
558.136	44394
558.198	125736
558.260	53431
558.322	19516
558.384	19656
558.446	22322
558.508	25673
558.570	29856
558.632	39495
558.694	52664
558.756	63876
558.818	182977
558.880	522668
558.942	187687
559.003	133228
559.065	75987
559.127	27601
559.189	27142
559.251	29330
559.312	39474
559.374	86638
559.436	334323
559.498	195858
559.559	32528
559.621	26552
559.683	28794
559.744	42882
559.806	143293
559.868	260675
559.929	54706
559.991	26185
560.052	37457
560.114	115036
560.176	84002
560.237	60896
560.299	118263
560.360	28155
560.422	10453
560.483	9440
560.545	8314
560.606	7633
560.667	7225
560.729	6512
560.790	6929
560.852	6550
560.913	6724
560.974	6201
561.036	6364
561.097	5872
561.158	7547
561.220	7249
561.281	6700
561.342	6680
561.403	8018
561.465	7804
561.526	17547
561.587	23669
561.648	7623
561.709	5789
561.771	6247
561.832	5617
561.893	5865
561.954	5872
562.015	5375
562.076	4470
562.137	5586
562.198	5397
562.259	6224
562.320	4882
562.381	6794
562.442	8854
562.503	7878
562.564	4839
562.625	5176
562.686	5335
562.747	7201
562.808	5796
562.869	4875
562.930	5503
562.991	5841
563.051	4876
563.112	4700
563.173	4994
563.234	3870
563.294	5153
563.355	4606
563.416	4871
563.477	4986
563.537	4034
563.598	4930
563.659	4768
563.720	4503
563.780	4830
563.841	5490
563.901	5335
563.962	4122
564.023	3867
564.083	4916
564.144	4602
564.204	4790
564.265	4188
564.325	4613
564.386	5605
564.446	5301
564.507	4603
564.567	4460
564.628	4805
564.688	4690
564.749	3683
564.809	4913
564.869	4656
564.930	4467
564.990	4422
565.050	3679
565.111	5332
565.171	4580
565.231	3624
565.292	5148
565.352	4139
565.412	5681
565.472	4332
565.532	3361
565.593	3708
565.653	4813
565.713	4425
565.773	5255
565.833	6350
565.893	8211
565.953	4864
566.013	4509
566.074	4687
566.134	5162
566.194	5482
566.254	6302
566.314	5251
566.374	4849
566.434	4363
566.494	4514
566.554	3883
566.614	5082
566.673	4683
566.733	5757
566.793	6366
566.853	6200
566.913	6097
566.973	4693
567.033	6614
567.092	7229
567.152	6229
567.212	6528
567.272	5851
567.331	4507
567.391	4840
567.451	6426
567.511	6297
567.570	6623
567.630	4405
567.690	5371
567.749	5793
567.809	5769
567.868	6354
567.928	6669
567.988	6349
568.047	8758
568.107	8696
568.166	12721
568.226	20230
568.285	30245
568.345	21364
568.404	16248
568.464	12050
568.523	11890
568.582	11876
568.642	13494
568.701	17000
568.761	26749
568.820	49146
568.879	45593
568.939	24701
568.998	16550
569.057	11330
569.116	10656
569.176	7815
569.235	7188
569.294	7082
569.353	5900
569.413	6019
569.472	5238
569.531	4732
569.590	5301
569.649	4311
569.708	5476
569.767	5439
569.827	8832
569.886	7664
569.945	4520
570.004	5396
570.063	5323
570.122	4756
570.181	5835
570.240	4454
570.299	6134
570.358	8693
570.417	5325
570.475	4859
570.534	5888
570.593	5166
570.652	5899
570.711	5717
570.770	4744
570.829	4926
570.887	4968
570.946	5403
571.005	4034
571.064	5222
571.122	5725
571.181	4778
571.240	4701
571.299	3590
571.357	4179
571.416	3718
571.475	4803
571.533	4405
571.592	4242
571.650	4238
571.709	4911
571.768	4281
571.826	4419
571.885	4015
571.943	4646
572.002	3843
572.060	3996
572.119	2887
572.177	4105
572.236	4037
572.294	4630
572.352	4076
572.411	4968
572.469	4150
572.528	4881
572.586	5053
572.644	6225
572.703	10399
572.761	6015
572.819	4510
572.877	3742
572.936	2821
572.994	4034
573.052	3217
573.110	4851
573.169	4706
573.227	3821
573.285	4250
573.343	3163
573.401	4157
573.459	3590
573.517	3031
573.576	3405
573.634	4103
573.692	4887
573.750	4304
573.808	3161
573.866	3041
573.924	4023
573.982	2400
574.040	2902
574.098	2653
574.155	3605
574.213	3250
574.271	3336
574.329	3345
574.387	3066
574.445	3022
574.503	3706
574.560	3101
574.618	3665
574.676	3642
574.734	2818
574.792	3538
574.849	3470
574.907	3229
574.965	2512
575.022	2979
575.080	3362
575.138	3122
575.195	3235
575.253	2725
575.311	4011
575.368	3162
575.426	2413
575.483	2866
575.541	3051
575.598	3016
575.656	3474
575.713	3138
575.771	2405
575.828	2981
575.886	3101
575.943	3494
576.001	2521
576.058	1611
576.115	3042
576.173	3101
576.230	3786
576.287	3599
576.345	4769
576.402	2888
576.459	3102
576.517	2307
576.574	3287
576.631	2991
576.688	2404
576.746	2053
576.803	3201
576.860	1417
576.917	2906
576.974	2645
577.031	3199
577.089	1825
577.146	3005
577.203	2587
577.260	4096
577.317	2554
577.374	2636
577.431	2144
577.488	2615
577.545	2071
577.602	3344
577.659	2782
577.716	3131
577.773	2154
577.830	2593
577.886	2443
577.943	1549
578.000	1618
578.057	3112
578.114	2619
578.171	2855
578.227	2608
578.284	1950
578.341	2359
578.398	3112
578.454	2320
578.511	2829
578.568	3465
578.625	2381
578.681	1992
578.738	2645
578.794	1719
578.851	2758
578.908	2947
578.964	2712
579.021	3332
579.077	2901
579.134	2604
579.190	3215
579.247	1321
579.303	2411
579.360	2470
579.416	3063
579.473	1992
579.529	2855
579.586	3330
579.642	3478
579.698	3184
579.755	2368
579.811	3055
579.867	3053
579.924	1967
579.980	1910
580.036	3336
580.093	2680
580.149	2170
580.205	3335
580.261	3098
580.317	2770
580.374	2722
580.430	3927
580.486	2572
580.542	3629
580.598	2147
580.619	2358
580.654	2724
580.692	2479
580.710	2359
580.765	3327
580.767	3358
580.823	2973
580.838	3114
580.879	3473
580.911	3112
580.935	2841
580.984	2374
580.991	2317
581.047	3383
581.057	3325
581.103	3043
581.130	2972
581.159	2884
581.203	3150
581.215	3229
581.270	2523
581.276	2578
581.326	3117
581.349	2926
581.382	2593
581.422	3009
581.438	3198
581.494	2749
581.494	2753
581.550	3071
581.567	3215
581.606	3522
581.640	3573
581.661	3565
581.713	3603
581.717	3612
581.773	3443
581.786	3426
581.829	3331
581.859	3507
581.885	3690
581.932	2965
581.940	2831
581.996	3729
582.004	3816
582.052	4257
582.077	3871
582.107	3374
582.150	3351
582.163	3348
582.219	3072
582.223	3075
582.274	3142
582.296	3139
582.330	3180
582.368	2887
582.386	2743
582.441	4274
582.441	4275
582.497	3918
582.514	3532
582.552	2730
582.587	3003
582.608	3196
582.659	3559
582.663	3575
582.719	3779
582.732	3729
582.774	3722
582.805	3714
582.830	3664
582.877	4040
582.885	4114
582.941	3686
582.950	3798
582.996	4081
583.023	4039
583.052	4320
583.095	4017
583.107	3811
583.162	4119
583.168	4185
583.218	4871
583.240	4428
583.273	3686
583.313	3708
583.328	3950
583.384	5043
583.385	5045
583.439	4027
583.458	3829
583.494	3951
583.531	4283
583.549	4314
583.603	3994
583.605	3991
583.660	4318
583.676	4373
583.715	4413
583.748	4413
583.770	4552
583.820	4779
583.825	4772
583.881	4532
583.893	4562
583.936	4835
583.965	4710
583.991	4482
584.038	4411
584.046	4429
584.101	4354
584.110	4399
584.156	4691
584.183	4725
584.211	4766
584.255	5354
584.266	5425
584.321	4863
584.328	4816
584.376	5092
584.400	5315
584.431	5326
584.472	5402
584.486	5474
584.541	5248
584.545	5266
584.596	5636
584.617	5690
584.651	6038
584.689	6673
584.706	6712
584.761	7324
584.762	7307
584.816	6563
584.834	6919
584.871	7223
584.906	6573
584.926	6492
584.978	7070
584.980	7080
585.035	7627
585.051	8032
585.090	9434
585.123	9808
585.145	9964
585.195	9861
585.200	9941
585.254	12000
585.267	12617
585.309	14035
585.340	14841
585.364	15883
585.412	18318
585.419	18698
585.473	20966
585.484	21766
585.528	27436
585.556	32663
585.583	46252
585.628	77455
585.637	89845
585.692	189086
585.700	207437
585.747	261322
585.772	225004
585.801	138613
585.845	40993
585.856	31540
585.910	17981
585.917	16654
585.965	14750
585.989	13603
586.019	12227
586.061	11438
586.074	11402
586.128	11226
586.133	11196
586.183	11324
586.205	11262
586.237	11164
586.277	11175
586.292	11050
586.346	10185
586.349	10171
586.401	11236
586.421	11341
586.455	11041
586.493	11175
586.509	11699
586.564	12892
586.565	12908
586.618	14846
586.637	15389
586.672	15571
586.709	15822
586.727	15980
586.781	16447
586.781	16469
586.835	14080
586.853	13631
586.889	13297
586.925	12809
586.944	12682
586.996	13135
586.998	13189
587.052	13785
587.068	14002
587.106	14360
587.140	14397
587.161	14483
587.212	14640
587.215	14698
587.269	15717
587.284	15870
587.323	16128
587.356	16405
587.377	16594
587.427	16900
587.431	16970
587.485	17893
587.499	17876
587.539	18561
587.571	19685
587.593	20506
587.643	21332
587.648	21431
587.702	22627
587.715	22814
587.755	23671
587.786	24170
587.810	24629
587.858	25728
587.864	26079
587.917	29263
587.930	29798
587.971	31544
588.001	33026
588.025	34450
588.073	37316
588.079	37889
588.133	42051
588.145	43051
588.187	48057
588.217	51628
588.241	55258
588.288	61760
588.295	62994
588.348	73428
588.360	75551
588.402	85972
588.431	93188
588.456	100402
588.503	115201
588.510	118335
588.564	142559
588.575	147822
588.617	174852
588.646	193436
588.671	221133
588.718	277088
588.725	294811
588.778	439310
588.789	470994
588.832	734249
588.861	926603
588.886	1138158
588.932	1549433
588.939	1560589
588.993	1518326
589.004	1502061
589.047	1231280
589.075	1011718
589.100	809571
589.147	454688
589.154	436511
589.207	316320
589.218	292999
589.261	271839
589.290	260613
589.314	275669
589.361	307921
589.368	326379
589.421	483896
589.433	519722
589.475	831575
589.504	1063973
589.528	1209305
589.576	1452123
589.582	1421044
589.635	1042241
589.647	949347
589.689	581393
589.718	338328
589.742	274777
589.790	162751
589.795	158040
589.849	115623
589.861	105991
589.902	91338
589.932	80973
589.955	75541
590.004	63611
590.009	63018
590.062	55933
590.075	53948
590.115	50271
590.146	47352
590.168	45990
590.218	42692
590.222	42652
590.275	40565
590.289	39861
590.328	37686
590.360	35994
590.381	35591
590.431	33941
590.435	33927
590.488	32232
590.503	31646
590.541	31410
590.574	31117
590.594	30915
590.645	29917
590.647	29993
590.700	29774
590.716	29485
590.753	28724
590.787	28187
590.806	28347
590.859	28234
590.859	28314
590.912	27990
590.930	27713
590.965	27392
591.001	27074
591.018	27050
591.071	26711
591.072	26624
591.124	26577
591.143	26462
591.177	26287
591.214	26086
591.230	26641
591.283	27990
591.285	27954
591.336	27671
591.356	27444
591.389	27421
591.427	27146
591.442	26609
591.495	24205
591.498	23956
591.547	24822
591.569	25164
591.600	25017
591.640	24525
591.653	24779
591.706	25511
591.711	25515
591.759	25640
591.782	25542
591.811	25790
591.853	26018
591.864	26161
591.917	26334
591.924	26283
591.969	26093
591.995	25809
592.022	25857
592.066	25773
592.075	25999
592.127	26870
592.137	26938
592.180	26943
592.208	26810
592.233	26920
592.279	26878
592.285	26971
592.338	27006
592.350	26941
592.390	26428
592.421	25861
592.443	26191
592.491	26675
592.495	26788
592.548	27172
592.562	27195
592.600	27097
592.633	26846
592.653	27056
592.704	27240
592.705	27380
592.775	26494
592.846	28203
592.916	28298
592.987	29437
593.058	28335
593.128	27687
593.199	27274
593.270	28072
593.341	26880
593.411	29066
593.482	28765
593.553	29959
593.623	28677
593.694	30134
593.764	29911
593.835	30088
593.906	30016
593.976	31250
594.047	31605
594.117	32245
594.188	32745
594.258	31900
594.329	32451
594.399	33791
594.470	33578
594.540	34512
594.611	35179
594.681	35128
594.751	34248
594.822	37102
594.892	35348
594.963	38103
595.033	37792
595.103	39468
595.174	40310
595.244	43474
595.314	43407
595.384	42332
595.455	41823
595.525	43810
595.595	45312
595.665	46702
595.736	43632
595.806	45550
595.876	45409
595.946	46383
596.016	47177
596.087	49502
596.157	48733
596.227	50345
596.297	51467
596.367	54694
596.437	57675
596.507	59596
596.577	59737
596.647	59895
596.717	62406
596.787	63051
596.857	62370
596.927	63123
596.997	62860
597.067	62696
597.137	64481
597.207	66132
597.277	65069
597.347	63009
597.417	61204
597.487	62506
597.557	62986
597.626	64666
597.696	64687
597.766	64623
597.836	60324
597.906	58214
597.975	56513
598.045	57722
598.115	59072
598.185	64581
598.254	72191
598.324	78349
598.394	79704
598.464	77474
598.533	73904
598.603	70127
598.672	68163
598.742	71025
598.812	70826
598.881	72225
598.951	71579
599.020	71772
599.090	75228
599.159	76401
599.229	72456
599.299	72008
599.368	71837
599.437	72182
599.507	64339
599.576	63689
599.646	62801
599.715	62703
599.785	60920
599.854	59812
599.924	58222
599.993	57060
600.062	59048
600.132	62210
600.201	65318
600.270	76486
600.340	78616
600.409	77135
600.478	76447
600.547	79433
600.617	71112
600.686	58241
600.755	51295
600.824	50819
600.894	48425
600.963	48125
601.032	47172
601.101	46759
601.170	43466
601.239	42617
601.308	43818
601.378	42658
601.447	41818
601.516	43289
601.585	45213
601.654	46309
601.723	44149
601.792	47089
601.861	47687
601.930	50266
601.999	52336
602.068	50868
602.137	51592
602.206	52587
602.275	52387
602.343	55036
602.412	54979
602.481	52341
602.550	52730
602.619	54625
602.688	55062
602.756	55674
602.825	54298
602.894	56175
602.963	58410
603.032	58004
603.100	57834
603.169	59534
603.238	57589
603.307	60281
603.375	60631
603.444	62724
603.513	62646
603.581	63732
603.650	65287
603.719	63396
603.787	64528
603.856	67279
603.924	70129
603.993	71933
604.061	71285
604.130	77259
604.198	79130
604.267	79973
604.335	80146
604.404	81926
604.472	82917
604.541	84077
604.609	83918
604.678	86305
604.746	84906
604.815	89466
604.883	88968
604.951	89782
605.020	89506
605.088	93974
605.156	93040
605.225	96111
605.293	94817
605.361	96213
605.429	97380
605.498	99692
605.566	102443
605.634	107593
605.702	110186
605.771	115289
605.839	114174
605.907	111873
605.975	106617
606.043	106800
606.111	104909
606.180	105591
606.248	102262
606.316	103811
606.384	103144
606.452	106337
606.520	111817
606.588	110687
606.656	108975
606.724	106262
606.792	99950
606.860	91004
606.928	81242
606.996	78286
607.064	76341
607.132	79418
607.200	85275
607.267	87229
607.335	89186
607.403	92304
607.471	87061
607.539	85201
607.607	85445
607.674	75439
607.742	75705
607.810	77047
607.878	76056
607.946	76832
608.013	80879
608.081	84456
608.149	84085
608.216	87014
608.284	88594
608.352	89002
608.419	86071
608.487	87745
608.555	83308
608.622	87655
608.690	92140
608.757	103235
608.825	104549
608.893	104292
608.960	103019
609.028	100074
609.095	93068
609.163	92057
609.230	80317
609.298	75011
609.365	77870
609.432	85598
609.500	92203
609.567	107193
609.635	124040
609.702	127764
609.769	121845
609.837	93860
609.904	79208
609.971	83482
610.039	96091
610.106	129557
610.173	258602
610.241	591440
610.308	280589
610.375	103767
610.442	86083
610.509	83618
610.577	83229
610.644	84589
610.711	87880
610.778	91516
610.845	94698
610.912	100740
610.980	105547
611.047	105698
611.114	102679
611.181	100066
611.248	96351
611.315	105227
611.382	106141
611.449	110702
611.516	112634
611.583	111322
611.650	111473
611.717	113512
611.784	115431
611.851	124982
611.918	137510
611.984	159138
612.051	236195
612.118	498779
612.185	1200441
612.252	632120
612.319	176062
612.386	148137
612.452	134038
612.519	128441
612.586	125190
612.653	128530
612.719	132296
612.786	127529
612.853	114968
612.919	114438
612.986	115496
613.053	108092
613.120	101162
613.186	99143
613.253	100492
613.319	99044
613.386	99113
613.453	102940
613.519	105404
613.586	108544
613.652	116478
613.719	108992
613.785	107566
613.852	102767
613.918	100877
613.985	103192
614.051	108846
614.118	110625
614.184	104326
614.250	101508
614.317	103291
614.383	100621
614.449	102824
614.516	102049
614.582	102749
614.648	101842
614.715	99505
614.781	97793
614.847	98725
614.914	97579
614.980	94525
615.046	96318
615.112	98191
615.179	98331
615.245	100737
615.311	101844
615.377	111440
615.443	111243
615.509	103988
615.575	105727
615.642	104467
615.708	109527
615.774	113457
615.840	123454
615.906	136049
615.972	173213
616.038	289223
616.104	610445
616.170	1426165
616.236	1029559
616.302	241192
616.368	183571
616.434	131069
616.500	125322
616.565	141889
616.631	174229
616.697	138166
616.763	146740
616.829	230914
616.895	411067
616.961	350767
617.026	142250
617.092	106083
617.158	103212
617.224	99005
617.289	91440
617.355	85919
617.421	84791
617.487	86218
617.552	81531
617.618	80153
617.684	79553
617.749	81848
617.815	75421
617.880	72863
617.946	75691
618.012	77139
618.077	77333
618.143	73545
618.208	76254
618.274	81678
618.339	82184
618.405	66068
618.470	67803
618.536	65475
618.601	65478
618.667	58506
618.732	55632
618.798	54034
618.863	56381
618.928	54125
618.994	58015
619.059	59677
619.124	65786
619.190	57898
619.255	54727
619.320	54777
619.386	53844
619.451	54177
619.516	51895
619.581	52009
619.647	54914
619.712	54264
619.777	52012
619.842	53061
619.907	54820
619.972	53260
620.038	54227
620.103	51184
620.168	50370
620.233	52309
620.298	52354
620.363	52756
620.428	54576
620.493	55007
620.558	58036
620.623	56496
620.688	56949
620.753	56170
620.818	59103
620.883	58485
620.948	58171
621.013	57368
621.078	57502
621.143	56556
621.207	60076
621.272	56618
621.337	56371
621.402	55643
621.467	56077
621.532	54683
621.596	57217
621.661	53957
621.726	51037
621.791	53059
621.855	53902
621.920	52606
621.985	54163
622.049	54355
622.114	55215
622.179	56189
622.243	56402
622.308	59239
622.373	63334
622.437	60972
622.502	56344
622.566	55320
622.631	53765
622.695	57243
622.760	56350
622.824	55028
622.889	56992
622.953	59621
623.018	75071
623.082	71649
623.147	60645
623.211	58977
623.276	59790
623.340	55128
623.404	53817
623.469	53068
623.533	55128
623.597	52935
623.662	53680
623.726	48599
623.790	44974
623.854	43871
623.919	45142
623.983	46119
624.047	46576
624.111	48386
624.176	50193
624.240	53800
624.304	58622
624.368	48012
624.432	48774
624.496	49854
624.560	56653
624.625	56099
624.689	55300
624.753	56410
624.817	53393
624.881	51085
624.945	45077
625.009	44767
625.073	47307
625.137	50698
625.201	58336
625.265	54592
625.329	48314
625.393	48902
625.456	49804
625.520	50791
625.584	53335
625.648	55151
625.712	59209
625.776	64250
625.839	63467
625.903	44031
625.967	40596
626.031	47420
626.095	57501
626.158	47022
626.222	35765
626.286	33172
626.349	30990
626.413	29515
626.477	33821
626.540	31608
626.604	30568
626.668	30540
626.731	30715
626.795	30053
626.858	30877
626.922	28756
626.986	29554
627.049	27810
627.113	31949
627.176	29452
627.240	29243
627.303	28587
627.366	30483
627.430	31914
627.493	30219
627.557	28319
627.620	29486
627.684	29934
627.747	30863
627.810	26651
627.874	26958
627.937	23823
628.000	27806
628.064	26840
628.127	22222
628.190	22268
628.253	21902
628.317	19770
628.380	20640
628.443	20126
628.506	21064
628.569	18859
628.632	17884
628.696	18095
628.759	17744
628.822	17136
628.885	16907
628.948	16755
629.011	16899
629.074	16144
629.137	15313
629.200	15654
629.263	18361
629.326	14819
629.389	15964
629.452	14707
629.515	14954
629.578	15619
629.641	17927
629.704	15971
629.767	15941
629.830	15327
629.892	15045
629.955	13672
630.018	17401
630.081	15950
630.144	19720
630.207	14939
630.269	17877
630.332	14276
630.395	14586
630.458	14032
630.520	13801
630.583	13600
630.646	14826
630.708	12823
630.771	13861
630.834	14869
630.896	15098
630.959	14428
631.021	13083
631.084	13950
631.146	14997
631.209	14629
631.272	14261
631.334	14422
631.397	14377
631.459	14662
631.522	15681
631.584	16891
631.646	18220
631.709	18251
631.771	21398
631.834	17794
631.896	17186
631.958	13975
632.021	16099
632.083	13431
632.145	14474
632.208	13820
632.270	16472
632.332	13036
632.395	13709
632.457	14803
632.519	13130
632.581	14411
632.643	12984
632.706	13222
632.768	12709
632.830	12680
632.892	13942
632.954	13293
633.016	14711
633.078	13471
633.141	13416
633.203	12705
633.265	13574
633.327	13380
633.389	14120
633.451	14474
633.513	16476
633.575	15376
633.637	15986
633.698	14571
633.760	15700
633.822	14912
633.884	16215
633.946	15949
634.008	15918
634.070	16509
634.132	17917
634.193	18729
634.255	21521
634.317	20539
634.379	21744
634.441	17858
634.502	16000
634.564	16381
634.626	14186
634.687	13037
634.749	13702
634.811	13683
634.873	12899
634.934	12953
634.996	13877
635.057	12462
635.119	12967
635.181	12687
635.242	14231
635.304	11354
635.365	15611
635.427	12235
635.488	14179
635.550	12240
635.611	13599
635.673	11341
635.734	15910
635.796	15208
635.857	17436
635.918	15552
635.980	20061
636.041	19288
636.102	22996
636.164	21338
636.225	22195
636.286	16074
636.348	16237
636.409	13774
636.470	13571
636.531	13365
636.593	12932
636.654	12512
636.715	12087
636.776	11053
636.838	11106
636.899	11412
636.960	11711
637.021	11077
637.082	10767
637.143	10334
637.204	9812
637.265	9405
637.326	10856
637.387	10553
637.448	9657
637.509	10308
637.570	10034
637.631	10647
637.692	8616
637.753	8452
637.814	10698
637.875	9513
637.936	10945
637.997	8958
638.058	9855
638.119	9758
638.179	9409
638.240	8700
638.301	9625
638.362	8398
638.423	9836
638.483	9644
638.544	7664
638.605	8461
638.666	8199
638.726	8656
638.787	9323
638.848	7671
638.908	8750
638.969	8537
639.030	9051
639.090	7133
639.151	7632
639.211	9600
639.272	12086
639.332	16907
639.393	10997
639.453	8412
639.514	9298
639.574	7844
639.635	7816
639.695	8830
639.756	7245
639.816	8972
639.877	10163
639.937	15606
639.997	18322
640.058	7467
640.118	7719
640.178	8135
640.239	7765
640.299	6763
640.359	7923
640.420	8134
640.480	10346
640.540	10824
640.600	10830
640.661	10522
640.721	8976
640.781	10731
640.841	6936
640.901	7870
640.961	8903
641.021	8269
641.082	10036
641.142	12125
641.202	9824
641.262	4898
641.322	8217
641.382	5789
641.442	7570
641.502	6938
641.562	7447
641.622	6479
641.682	7775
641.742	8796
641.802	8156
641.861	7760
641.921	7299
641.981	8729
642.041	8939
642.101	9196
642.161	7097
642.221	5633
642.280	7281
642.340	6106
642.400	6187
642.460	8031
642.519	7020
642.579	6559
642.639	7667
642.698	3964
642.758	9193
642.818	6612
642.877	7185
642.937	7440
642.997	9056
643.056	11958
643.116	6692
643.175	8288
643.235	8006
643.294	7138
643.354	9230
643.414	9640
643.473	13287
643.532	15233
643.592	23194
643.651	40388
643.711	78491
643.770	162849
643.830	416619
643.889	799271
643.948	151679
644.008	26801
644.067	17131
644.126	11102
644.186	10914
644.245	9762
644.304	7237
644.363	8278
644.423	7155
644.482	7491
644.541	8915
644.600	6853
644.659	11517
644.719	14775
644.778	23572
644.837	44570
644.896	100389
644.955	219080
645.014	57263
645.073	12144
645.132	9766
645.191	9023
645.250	9571
645.309	9403
645.368	10319
645.427	13656
645.486	24878
645.545	40376
645.604	11290
645.663	7331
645.722	8586
645.781	9185
645.840	10920
645.898	14401
645.957	22483
646.016	36457
646.075	75198
646.134	151036
646.192	434101
646.251	550549
646.310	66168
646.369	19378
646.427	17115
646.486	11043
646.545	9648
646.603	7282
646.662	7185
646.721	7224
646.779	7494
646.838	6104
646.896	10839
646.955	13938
647.014	25773
647.072	52090
647.131	144282
647.189	55236
647.248	8283
647.306	7890
647.365	6824
647.423	3940
647.481	7439
647.540	3780
647.598	5433
647.657	4124
647.715	5481
647.773	4122
647.832	5765
647.890	2680
647.948	4305
648.007	5029
648.065	4129
648.123	4300
648.181	5812
648.240	4111
648.298	3326
648.356	3380
648.414	4375
648.472	3730
648.531	4392
648.589	3815
648.647	3573
648.705	3862
648.763	4382
648.821	4471
648.879	4896
648.937	5722
648.995	8002
649.053	10794
649.111	18776
649.169	31840
649.227	60826
649.285	135797
649.343	380548
649.401	143208
649.459	30284
649.516	15579
649.574	9187
649.632	11317
649.690	11081
649.748	11491
649.806	17799
649.863	35251
649.921	101358
649.979	52923
650.037	8104
650.094	3613
650.152	4717
650.210	3089
650.268	4706
650.325	3449
650.383	3795
650.440	2461
650.498	4337
650.556	3052
650.613	3481
650.671	3139
650.728	3318
650.786	2946
650.843	6566
650.901	2426
650.958	3173
651.016	2051
651.073	2937
651.131	1473
651.188	2138
651.246	2361
651.303	3138
651.360	2694
651.418	3057
651.475	1896
651.532	2570
651.590	2319
651.647	2281
651.704	2814
651.762	2585
651.819	3118
651.876	2493
651.933	1811
651.990	3295
652.048	1234
652.105	2562
652.162	2845
652.219	1834
652.276	3006
652.333	3660
652.390	1187
652.448	3458
652.505	2061
652.562	2688
652.619	2143
652.676	3669
652.733	2639
652.790	2761
652.847	773
652.904	2782
652.961	743
653.017	2047
653.074	3144
653.131	2974
653.188	1041
653.245	2856
653.302	1620
653.359	2990
653.415	2363
653.472	2173
653.529	2477
653.586	1884
653.642	976
653.699	3001
653.756	1420
653.813	2258
653.869	2186
653.926	1901
653.983	1298
654.039	2835
654.096	1941
654.152	2756
654.209	979
654.266	2817
654.322	2307
654.379	2842
654.435	2147
654.492	2467
654.548	3003
654.605	5090
654.661	2840
654.717	2382
654.774	1148
654.830	1454
654.887	1770
654.943	2087
655.000	2077
655.056	2811
655.112	2136
655.168	1668
655.225	1627
655.281	3154
655.337	1679
655.394	2625
655.450	1911
655.506	2825
655.562	2360
655.618	3372
655.675	989
655.731	2507
655.787	938
655.843	2676
655.899	824
655.955	3480
656.011	2049
656.067	1785
656.123	1629
656.179	2600
656.235	2472
656.291	940
656.347	2718
656.403	1816
656.459	1341
656.515	2353
656.571	2060
656.627	1585
656.683	2066
656.739	2757
656.795	2342
656.850	2398
656.906	2541
656.962	2986
657.018	1379
657.074	2674
657.129	3540
657.185	6817
657.241	13702
657.297	5832
657.352	2390
657.408	2006
657.464	2258
657.519	2370
657.575	807
657.630	1733
657.686	1434
657.742	1886
657.797	1537
657.853	1375
657.908	2262
657.964	1040
658.019	1624
658.075	2719
658.130	2337
658.186	1305
658.241	1876
658.297	1356
658.352	991
658.407	1899
658.463	1101
658.518	1659
658.573	1114
658.629	1161
658.684	1243
658.739	2989
658.795	508
658.850	1356
658.905	645
658.960	2164
659.016	479
659.071	1934
659.126	1753
659.181	2170
659.236	4736
659.291	5530
659.346	2278
659.401	2822
659.457	1736
659.512	1906
659.567	2019
659.622	1566
659.677	706
659.732	1621
659.787	1318
659.842	1307
659.897	1483
659.952	2458
660.007	1206
660.061	2346
660.116	457
660.171	1751
660.226	1378
660.281	2646
660.336	846
660.391	1890
660.445	1301
660.500	1792
660.555	1331
660.610	1999
660.664	2023
660.719	1425
660.774	1184
660.828	1919
660.883	1377
660.938	1943
660.992	-97
661.047	1666
661.101	475
661.156	1001
661.211	754
661.265	1736
661.320	1274
661.374	1816
661.429	215
661.483	2198
661.538	90
661.592	2315
661.647	716
661.701	1737
661.755	756
661.810	1703
661.864	958
661.919	1103
661.973	584
662.027	565
662.081	767
662.136	1664
662.190	1815
662.244	1896
662.299	235
662.353	2063
662.407	637
662.461	2166
662.515	1604
662.569	1487
662.624	1018
662.678	1259
662.732	277
662.786	1749
662.840	1181
662.894	1798
662.948	118
663.002	1730
663.056	966
663.110	390
663.164	572
663.218	1100
663.272	1429
663.326	1873
663.380	825
663.434	1904
663.488	-28
663.542	1123
663.595	718
663.649	368
663.703	1298
663.757	1549
663.811	649
663.864	1554
663.918	1507
663.972	942
664.026	271
664.079	1688
664.133	962
664.187	1600
664.240	541
664.294	1429
664.348	877
664.401	1637
664.455	1474
664.508	898
664.562	420
664.615	1344
664.669	460
664.722	1281
664.776	707
664.829	1087
664.883	706
664.936	494
664.990	894
665.043	1295
665.097	1175
665.150	2464
665.203	622
665.257	1362
665.310	1311
665.363	1870
665.417	806
665.470	1714
665.523	332
665.576	2083
665.630	1382
665.683	2228
665.736	1186
665.789	1607
665.842	741
665.895	1720
665.949	1152
666.002	1666
666.055	954
666.108	2314
666.161	1124
666.214	2914
666.267	836
666.320	1979
666.373	1100
666.426	2126
666.479	1572
666.532	1121
666.585	727
666.638	1506
666.691	1039
666.744	2436
666.796	727
666.849	1467
666.902	1186
666.955	1656
667.008	848
667.060	1769
667.113	932
667.166	1046
667.219	915
667.271	1775
667.324	855
667.377	2079
667.430	735
667.482	962
667.535	575
667.587	2425
667.640	1604
667.693	2520
667.745	5236
667.798	4047
667.850	1237
667.903	2172
667.955	1070
668.008	1577
668.060	615
668.113	1484
668.165	648
668.218	1906
668.270	1821
668.322	1875
668.375	751
668.427	1594
668.479	634
668.532	1737
668.584	477
668.636	1410
668.689	211
668.741	1935
668.793	1433
668.845	1168
668.898	1184
668.950	1352
669.002	1106
669.054	1477
669.106	314
669.158	2387
669.211	594
669.263	993
669.315	1692
669.367	2118
669.419	990
669.471	1910
669.523	2196
669.575	2600
669.627	1036
669.679	1397
669.731	930
669.783	2191
669.835	1249
669.886	777
669.938	1918
669.990	1268
670.042	298
670.094	1540
670.146	917
670.197	1938
670.249	1369
670.301	1806
670.353	1506
670.404	5030
670.456	5246
670.508	8803
670.560	15398
670.611	25727
670.663	44777
670.715	115607
670.766	160719
670.818	35230
670.869	6123
670.921	4316
670.972	2803
671.024	2514
671.075	2148
671.127	2068
671.178	690
671.230	2025
671.281	1344
671.333	2099
671.384	1338
671.436	4006
671.487	4575
671.538	6670
671.590	10663
671.641	18618
671.692	35913
671.744	65452
671.795	31283
671.846	8430
671.897	3755
671.949	2816
672.000	1807
672.051	2496
672.102	2920
672.153	1514
672.204	681
672.256	748
672.307	1143
672.358	1196
672.409	1409
672.460	1850
672.511	520
672.562	1297
672.613	363
672.664	1279
672.715	1508
672.766	1356
672.817	958
672.868	1382
672.919	1066
672.970	314
673.021	44
673.071	944
673.122	-96
673.173	844
673.224	815
673.275	1042
673.326	504
673.376	753
673.427	-264
673.478	996
673.528	630
673.579	584
673.630	401
673.680	993
673.731	-290
673.782	238
673.832	370
673.883	640
673.934	-682
673.984	529
674.035	169
674.085	1037
674.136	487
674.186	461
674.237	419
674.287	1417
674.338	544
674.388	561
674.438	145
674.489	377
674.539	371
674.589	995
674.640	274
674.690	859
674.740	260
674.791	782
674.841	-123
674.891	1128
674.942	-282
674.992	653
675.042	-195
675.092	954
675.142	-164
675.193	506
675.243	-305
675.293	815
675.343	-541
675.393	215
675.443	6
675.493	1053
675.543	-193
675.593	1206
675.643	-7
675.693	1295
675.743	-2
675.793	1027
675.843	-32
675.893	1199
675.943	595
675.993	893
676.043	221
676.093	665
676.142	-378
676.192	461
676.242	182
676.292	490
676.341	-538
676.391	368
676.441	82
676.491	627
676.540	-762
676.590	361
676.640	-461
676.689	-25
676.739	-521
676.789	15
676.838	-385
676.888	-207
676.937	-50
676.987	314
677.037	-1075
677.086	-258
677.136	-1199
677.185	721
677.235	-1216
677.284	653
677.333	-744
677.383	-137
677.432	-1774
677.482	537
677.531	57
677.580	-162
677.630	-1193
677.679	166
677.728	-707
677.778	1026
677.827	-563
677.876	549
677.925	-629
677.975	477
678.024	-648
678.073	546
678.122	-815
678.171	257
678.220	-788
678.269	1037
678.319	-309
678.368	271
678.417	270
678.466	1188
678.515	-456
678.564	-310
678.613	-1107
678.662	247
678.711	-839
678.760	-50
678.809	-920
678.857	328
678.906	-580
678.955	295
679.004	258
679.053	-33
679.102	-286
679.151	-636
679.199	-821
679.248	800
679.297	-181
679.346	115
679.394	-607
679.443	154
679.492	-884
679.540	-380
679.589	-96
679.638	495
679.686	-204
679.735	-112
679.784	-786
679.832	2
679.881	-1220
679.929	328
679.978	-281
680.026	-488
680.075	-571
680.123	52
680.172	-674
680.220	-723
680.268	-441
680.317	-505
680.365	-634
680.414	-421
680.462	-898
680.510	124
680.559	-1018
680.607	-174
680.655	-645
680.703	340
680.752	-1285
680.800	-225
680.848	-488
680.896	55
680.945	-333
680.993	-675
681.041	-930
681.089	455
681.137	-990
681.185	60
681.233	-749
681.258	-680
681.281	-625
681.329	-1564
681.377	-403
681.380	-439
681.425	-1301
681.473	325
681.502	-330
681.521	-798
681.569	539
681.617	-418
681.624	-407
681.665	-414
681.713	213
681.745	1063
681.761	1458
681.809	285
681.857	286
681.867	26
681.904	-914
681.952	-163
681.989	-342
682.000	-411
682.048	-414
682.096	-831
682.111	-410
682.143	444
682.191	-494
682.233	405
682.239	538
682.286	-971
682.334	-21
682.354	-158
682.382	-375
682.430	518
682.476	-330
682.477	-355
682.525	345
682.572	-263
682.598	-77
682.620	64
682.667	-309
682.715	824
682.720	776
682.763	284
682.810	873
682.841	209
682.857	-187
682.905	695
682.952	-139
682.963	16
683.000	529
683.047	-209
683.085	1421
683.095	1870
683.142	484
683.190	509
683.206	260
683.237	-238
683.284	957
683.328	524
683.332	480
683.379	528
683.426	743
683.449	687
683.473	629
683.521	201
683.568	1228
683.571	1152
683.615	35
683.662	869
683.693	389
683.709	98
683.757	708
683.804	195
683.814	348
683.851	937
683.898	309
683.936	1030
683.945	1207
683.992	561
684.039	1812
684.057	1882
684.086	1963
684.133	1660
684.179	1186
684.180	1156
684.227	1827
684.274	1104
684.300	1385
684.321	1621
684.368	557
684.415	1036
684.422	870
684.462	-153
684.509	1085
684.543	898
684.556	835
684.603	1470
684.649	268
684.665	497
684.696	931
684.743	545
684.786	1488
684.790	1569
684.837	743
684.883	1355
684.908	1110
684.930	840
684.977	1108
685.023	746
685.029	823
685.070	1422
685.117	542
685.150	712
685.164	761
685.210	1668
685.257	1584
685.272	1474
685.303	1324
685.350	2392
685.393	1502
685.396	1430
685.443	2360
685.490	1880
685.514	2157
685.536	2151
685.583	1397
685.629	1512
685.636	1362
685.675	740
685.722	1931
685.757	1477
685.768	1295
685.815	987
685.861	746
685.878	1102
685.908	1815
685.954	988
686.000	1848
686.000	1857
686.047	1097
686.093	2088
686.121	1755
686.139	1580
686.185	1148
686.232	1070
686.242	1314
686.278	1998
686.324	1657
686.363	1419
686.370	1400
686.416	1212
686.463	1779
686.484	1652
686.509	1496
686.555	1327
686.601	752
686.606	868
686.647	1877
686.693	1131
686.727	1576
686.739	1740
686.785	1230
686.831	2304
686.848	2167
686.877	1897
686.923	1352
686.969	1334
686.969	1334
687.015	1330
687.061	1137
687.090	2071
687.107	2495
687.153	1813
687.199	1573
687.211	1408
687.245	1172
687.291	1793
687.332	1393
687.336	1338
687.382	2377
687.428	882
687.453	1505
687.474	2108
687.520	2220
687.565	2325
687.574	2187
687.611	1526
687.657	1912
687.695	1963
687.702	1975
687.748	2403
687.794	2196
687.816	2382
687.839	2579
687.885	2106
687.931	2009
687.937	2027
687.976	2092
688.022	1959
688.058	1834
688.067	1792
688.113	1770
688.158	1413
688.179	1677
688.204	2052
688.249	1548
688.295	2097
688.300	2064
688.340	2040
688.386	3128
688.421	2436
688.431	2176
688.477	2554
688.522	1621
688.542	2132
688.567	2816
688.613	2111
688.658	2459
688.663	2358
688.703	1665
688.749	2237
688.784	2326
688.794	2293
688.839	2695
688.884	1909
688.905	1993
688.930	2253
688.975	2170
689.020	2262
689.026	2251
689.065	2040
689.110	2278
689.146	1954
689.155	1909
689.201	2324
689.246	1634
689.267	2045
689.291	2499
689.336	2196
689.381	2625
689.388	2515
689.426	1970
689.471	2493
689.509	2422
689.516	2399
689.561	2296
689.606	1944
689.630	2254
689.651	2581
689.696	1602
689.741	2440
689.750	2420
689.785	2362
689.830	2631
689.871	2487
689.875	2476
689.920	3081
689.965	2664
689.992	2635
690.010	2616
690.054	2739
690.099	2476
690.112	2413
690.144	2235
690.189	2892
690.233	1822
690.233	1823
690.278	2552
690.323	2782
690.354	2838
690.367	2816
690.412	2834
690.457	2623
690.474	2539
690.501	2485
690.546	2588
690.590	2298
690.595	2313
690.635	2523
690.680	2663
690.716	2565
690.724	2582
690.769	2620
690.813	3293
690.836	3160
690.857	3042
690.902	3187
690.946	3704
690.957	3720
690.991	3941
691.035	3798
691.077	4416
691.080	4426
691.124	4065
691.168	4119
691.198	3472
691.213	3210
691.257	3767
691.301	3135
691.318	3128
691.346	3189
691.390	3045
691.434	2943
691.439	2948
691.478	3142
691.522	3231
691.559	3038
691.567	3070
691.611	3986
691.655	4046
691.680	4357
691.699	4325
691.743	3608
691.787	3575
691.800	3458
691.831	3466
691.875	3489
691.919	3545
691.921	3545
691.964	3535
692.008	3206
692.041	3243
692.052	3391
692.096	3528
692.139	4014
692.162	4006
692.183	3715
692.227	3697
692.271	3072
692.282	3059
692.315	3418
692.359	3173
692.402	3840
692.403	3852
692.447	3169
692.490	3688
692.523	3400
692.534	3388
692.578	3776
692.622	3658
692.643	3901
692.666	4098
692.709	3872
692.753	4182
692.763	4124
692.797	3899
692.840	4163
692.884	3814
692.884	3822
692.928	3982
692.971	3734
693.004	3903
693.015	3953
693.059	3711
693.102	3627
693.124	3480
693.146	3446
693.189	3702
693.233	3363
693.245	3451
693.276	3771
693.320	3907
693.363	3892
693.365	3892
693.407	4100
693.450	4066
693.485	3938
693.493	3944
693.537	4273
693.580	3965
693.605	4337
693.624	4672
693.667	4575
693.710	4808
693.725	4815
693.753	5080
693.797	5879
693.840	6595
693.845	6651
693.883	6393
693.926	5573
693.966	5574
693.970	5591
694.013	4975
694.056	4884
694.086	4603
694.099	4489
694.142	4318
694.185	3452
694.206	3433
694.229	3859
694.272	4110
694.315	4956
694.326	5001
694.358	5118
694.401	5451
694.444	5897
694.446	5908
694.487	6136
694.530	5654
694.566	6120
694.573	6147
694.616	5313
694.659	5135
694.686	4724
694.702	4613
694.745	4576
694.787	4017
694.806	4159
694.830	4391
694.873	4048
694.916	3995
694.926	3897
694.959	4108
695.002	4810
695.044	5107
695.046	5116
695.087	5125
695.130	4754
695.166	4898
695.172	4973
695.215	4753
695.258	5121
695.286	5024
695.301	4979
695.343	5119
695.386	5061
695.406	5169
695.428	5245
695.471	4941
695.514	4967
695.526	4871
695.556	5007
695.599	5627
695.641	5761
695.646	5799
695.684	5739
695.726	5413
695.766	5219
695.769	5243
695.811	5228
695.854	5265
695.886	5363
695.896	5395
695.938	5372
695.981	5318
696.005	5382
696.023	5523
696.065	5545
696.108	5853
696.125	5768
696.150	5437
696.192	5473
696.235	5042
696.245	4982
696.277	5231
696.319	5263
696.361	5647
696.365	5641
696.404	5646
696.446	5803
696.485	5835
696.488	5851
696.530	5779
696.572	5759
696.604	5775
696.614	5767
696.656	5653
696.698	5433
696.724	5330
696.740	5446
696.783	5750
696.825	5993
696.844	6050
696.867	5950
696.909	5834
696.951	5689
696.964	5616
696.992	5694
697.034	5942
697.076	5899
697.083	5931
697.118	6315
697.160	6506
697.202	6804
697.203	6789
697.244	6702
697.286	6812
697.323	6680
697.327	6666
697.369	6543
697.411	6294
697.442	6186
697.453	6262
697.494	6338
697.536	6620
697.562	6662
697.578	6757
697.620	6986
697.661	7206
697.682	7372
697.703	7579
697.744	7744
697.786	8134
697.801	8181
697.828	8295
697.869	8451
697.911	8605
697.921	8639
697.952	8146
697.994	7409
698.035	6724
698.040	6610
698.077	6668
698.118	6766
698.160	6841
698.160	6819
698.201	6798
698.243	6659
698.279	6625
698.284	6662
698.325	6736
698.367	6841
698.399	6908
698.408	6933
698.449	6926
698.491	6939
698.518	6931
698.532	6925
698.573	6826
698.614	6760
698.638	6676
698.656	6817
698.697	7133
698.738	7418
698.757	7550
698.779	7597
698.820	7616
698.862	7655
698.877	7641
698.903	7771
698.944	7955
698.985	8138
698.996	8168
699.026	7927
699.067	7559
699.116	7102
699.235	7199
699.354	7241
699.474	6271
699.593	6860
699.713	7070
699.832	7841
699.951	8347
700.070	8357
700.190	7384
700.309	7024
700.428	6990
700.547	6997
700.667	7290
700.786	8012
700.905	7581
701.024	6946
701.143	7243
701.262	7707
701.381	6846
701.500	7537
701.619	8475
701.738	7889
701.857	7332
701.976	6422
702.095	6347
702.214	8157
702.333	9193
702.452	7822
702.571	6329
702.690	6175
702.809	6853
702.928	6747
703.047	6339
703.165	6537
703.284	6318
703.403	6488
703.522	6948
703.640	6810
703.759	7825
703.878	8368
703.997	6256
704.115	7448
704.234	6570
704.353	6813
704.471	6227
704.590	6057
704.708	5238
704.827	6655
704.946	6105
705.064	5969
705.183	6102
705.301	6216
705.420	6453
705.538	6382
705.656	6134
705.775	6018
705.893	7037
706.012	6567
706.130	5009
706.249	5330
706.367	5947
706.485	4894
706.604	6842
706.722	5581
706.840	7136
706.958	7585
707.077	6255
707.195	4985
707.313	5589
707.431	6178
707.549	5530
707.668	5299
707.786	5663
707.904	5649
708.022	5936
708.140	5784
708.258	5764
708.376	6991
708.494	4695
708.612	6853
708.730	6913
708.848	6297
708.966	7072
709.084	6661
709.202	5766
709.320	5276
709.438	5772
709.556	5789
709.674	5422
709.791	5057
709.909	5044
710.027	4869
710.145	4815
710.263	4994
710.380	4531
710.498	6133
710.616	5171
710.733	5021
710.851	5331
710.969	5135
711.086	5513
711.204	5575
711.322	5358
711.439	5558
711.557	4519
711.674	5372
711.792	4577
711.909	5724
712.027	4801
712.144	4861
712.262	5704
712.379	4619
712.497	5753
712.614	5533
712.732	5710
712.849	5794
712.966	6958
713.084	9246
713.201	6321
713.318	6138
713.436	5766
713.553	5196
713.670	6444
713.787	6474
713.905	5399
714.022	5813
714.139	7100
714.256	9366
714.373	14045
714.490	29363
714.608	92627
714.725	403876
714.842	316538
714.959	20040
715.076	10078
715.193	7917
715.310	6831
715.427	5831
715.544	5767
715.661	5764
715.778	5051
715.895	5866
716.011	5854
716.128	5341
716.245	5886
716.362	8892
716.479	7469
716.596	5215
716.713	5224
716.829	5365
716.946	4916
717.063	4839
717.180	4317
717.296	5355
717.413	5077
717.530	5073
717.646	4550
717.763	4753
717.880	4511
717.996	4441
718.113	5582
718.229	5313
718.346	4018
718.462	5333
718.579	7804
718.695	19474
718.812	8432
718.928	5202
719.045	4482
719.161	5127
719.277	4918
719.394	4698
719.510	4947
719.626	4835
719.743	7594
719.859	11265
719.975	24652
720.092	118146
720.208	223601
720.324	18598
720.440	6792
720.557	7107
720.673	13465
720.789	9550
720.905	8015
721.021	4793
721.137	4327
721.253	4646
721.369	4687
721.486	4572
721.602	5130
721.718	4153
721.834	3612
721.950	4822
722.066	3652
722.181	4399
722.297	4310
722.413	4166
722.529	3853
722.645	3380
722.761	3888
722.877	3854
722.993	4038
723.108	4940
723.224	3905
723.340	3994
723.456	4352
723.571	3988
723.687	3113
723.803	3151
723.918	3362
724.034	3695
724.150	3276
724.265	3332
724.381	4396
724.497	4938
724.612	2925
724.728	3219
724.843	3206
724.959	4148
725.074	4696
725.190	5270
725.305	3318
725.421	2983
725.536	2916
725.651	2506
725.767	2765
725.882	4096
725.997	4154
726.113	3475
726.228	2909
726.343	3349
726.459	3534
726.574	3160
726.689	3639
726.804	3592
726.920	2939
727.035	2662
727.150	3537
727.265	3525
727.380	3492
727.495	3961
727.610	3297
727.725	2828
727.841	2752
727.956	3757
728.071	4212
728.186	3350
728.301	2974
728.416	3808
728.531	3524
728.645	2716
728.760	3523
728.875	5023
728.990	4453
729.105	3375
729.220	3950
729.335	4196
729.449	3233
729.564	2993
729.679	3253
729.794	3292
729.908	2664
730.023	3404
730.138	3014
730.253	3390
730.367	3303
730.482	2874
730.596	3252
730.711	4272
730.826	3887
730.940	4028
731.055	3984
731.169	4030
731.284	2579
731.398	3429
731.513	3503
731.627	3622
731.742	4131
731.856	4875
731.970	4962
732.085	6061
732.199	8749
732.313	16051
732.428	45885
732.542	139277
732.656	63608
732.771	11018
732.885	6267
732.999	6574
733.113	5522
733.227	5859
733.342	4899
733.456	5116
733.570	4394
733.684	4073
733.798	4183
733.912	4699
734.026	4139
734.140	4019
734.254	3780
734.368	4674
734.482	4652
734.596	4940
734.710	3986
734.824	4143
734.938	5028
735.052	4752
735.166	4817
735.280	4455
735.393	4356
735.507	4472
735.621	3762
735.735	4028
735.849	3687
735.962	3638
736.076	4973
736.190	4206
736.303	4601
736.417	4455
736.531	3896
736.644	3980
736.758	3457
736.872	3503
736.985	3729
737.099	4294
737.212	2854
737.326	3947
737.439	3746
737.553	3938
737.666	4738
737.780	3403
737.893	3078
738.007	4779
738.120	3499
738.233	4020
738.347	3723
738.460	3824
738.573	3741
738.687	3733
738.800	4553
738.913	6324
739.026	4370
739.140	3585
739.253	4040
739.366	3939
739.479	2929
739.592	2753
739.705	3503
739.818	3678
739.932	3184
740.045	4560
740.158	3531
740.271	3795
740.384	3236
740.497	3565
740.610	4696
740.723	4076
740.836	4102
740.949	4625
741.062	6273
741.174	4878
741.287	3317
741.400	3463
741.513	3809
741.626	5562
741.739	4168
741.851	4067
741.964	4258
742.077	3787
742.189	3178
742.302	4277
742.415	4563
742.527	3849
742.640	3361
742.753	3873
742.865	3364
742.978	3096
743.090	3141
743.203	3514
743.316	3171
743.428	3243
743.541	3127
743.653	2824
743.766	3262
743.878	2722
743.990	3163
744.103	3807
744.215	3373
744.327	3910
744.440	6158
744.552	8643
744.664	4347
744.777	4385
744.889	2542
745.001	3783
745.113	1960
745.226	2430
745.338	3357
745.450	3033
745.562	3190
745.674	2870
745.786	2441
745.898	2860
746.010	1959
746.122	3423
746.234	2725
746.347	3131
746.459	2663
746.570	3155
746.682	3253
746.794	2703
746.906	3063
747.018	2408
747.130	3439
747.242	2701
747.354	2635
747.466	3434
747.577	3163
747.689	3512
747.801	2454
747.913	2069
748.024	1288
748.136	2489
748.248	2034
748.359	2476
748.471	2833
748.583	2126
748.694	2043
748.806	2938
748.918	3140
749.029	3266
749.141	3586
749.252	3882
749.364	4010
749.475	10121
749.587	4190
749.698	2262
749.809	2929
749.921	2367
750.032	1862
750.144	2591
750.255	1722
750.366	2478
750.478	2658
750.589	2747
750.700	2077
750.811	2978
750.923	4428
751.034	11328
751.145	9285
751.256	3059
751.367	2582
751.479	2249
751.590	2118
751.701	2194
751.812	2988
751.923	2185
752.034	2608
752.145	2606
752.256	2028
752.367	1827
752.478	2244
752.589	2444
752.700	1917
752.811	2556
752.922	2313
753.032	3157
753.143	2761
753.254	2374
753.365	2529
753.476	1857
753.586	2417
753.697	2025
753.808	2218
753.919	2102
754.029	1919
754.140	2680
754.251	1941
754.361	2413
754.472	2204
754.582	2480
754.693	2751
754.804	2473
754.914	1726
755.025	2418
755.135	1644
755.246	2458
755.356	1627
755.466	2800
755.577	1845
755.687	2279
755.798	2166
755.908	2274
756.018	1665
756.129	1934
756.239	1871
756.349	2173
756.460	2160
756.570	3090
756.680	1491
756.790	1626
756.900	2638
757.011	2123
757.121	1918
757.231	889
757.341	2282
757.451	1985
757.561	1129
757.671	1386
757.781	1197
757.891	2392
758.001	1919
758.111	1938
758.221	2198
758.331	3279
758.441	1914
758.551	4946
758.661	3745
758.771	3000
758.880	1620
758.990	1663
759.100	1554
759.210	1836
759.320	1370
759.429	1068
759.539	2630
759.649	2337
759.758	2149
759.868	2737
759.978	2192
760.087	3234
760.197	2868
760.307	3101
760.416	1765
760.526	2077
760.635	1868
760.745	2350
760.854	3388
760.964	3602
761.073	3380
761.182	2778
761.292	1958
761.401	2950
761.511	1938
761.620	2272
761.729	2097
761.839	1648
761.948	2532
762.057	2149
762.166	1135
762.276	1035
762.385	2099
762.494	1763
762.603	2181
762.712	1631
762.822	1317
762.931	2771
763.040	949
763.149	1725
763.258	919
763.367	1540
763.476	916
763.585	1262
763.694	1188
763.803	1642
763.912	1858
764.021	1662
764.130	1255
764.238	2126
764.347	1390
764.456	2314
764.565	1855
764.674	2159
764.783	998
764.891	888
765.000	2922
765.109	2238
765.217	590
765.326	3220
765.435	2690
765.543	3092
765.652	3764
765.761	5479
765.869	7335
765.978	11717
766.086	23326
766.195	48590
766.303	150792
766.412	429920
766.520	231633
766.629	38244
766.737	15942
766.846	9519
766.954	7303
767.062	6979
767.171	4514
767.279	3747
767.387	3249
767.496	2990
767.604	2740
767.712	2092
767.820	1508
767.928	1906
768.037	1934
768.145	2285
768.253	2067
768.361	1547
768.469	2197
768.577	2073
768.685	3245
768.793	2118
768.901	2111
769.009	3270
769.117	3474
769.225	3160
769.333	5411
769.441	10017
769.549	19233
769.657	52164
769.765	193778
769.873	303058
769.981	54125
770.088	11301
770.196	6270
770.304	5504
770.412	4070
770.519	3457
770.627	2777
770.735	2553
770.842	2410
770.950	2758
771.058	2392
771.165	3571
771.273	1584
771.380	2973
771.488	2960
771.595	2843
771.703	3071
771.810	3601
771.918	3017
772.025	3823
772.133	3259
772.240	2567
772.348	3705
772.455	3065
772.562	3332
772.670	2715
772.777	3265
772.884	3087
772.991	3053
773.099	3409
773.206	2065
773.313	3181
773.420	3003
773.528	2739
773.635	2910
773.742	3655
773.849	2425
773.956	3755
774.063	2940
774.170	2475
774.277	2782
774.384	3130
774.491	2556
774.598	3058
774.705	2984
774.812	4564
774.919	3327
775.026	2798
775.133	3566
775.239	3473
775.346	2324
775.453	2068
775.560	2332
775.667	2704
775.773	2662
775.880	4256
775.987	2043
776.093	2764
776.200	2682
776.307	1555
776.413	2761
776.520	2370
776.627	2553
776.733	2668
776.840	1867
776.946	4024
777.053	2880
777.159	3136
777.266	1613
777.372	3494
777.478	2618
777.585	3300
777.691	2286
777.798	2042
777.904	3093
778.010	4126
778.117	4378
778.223	2736
778.329	2387
778.435	2124
778.542	2946
778.648	1800
778.754	2097
778.860	2498
778.966	1792
779.072	2635
779.178	1811
779.284	2407
779.391	1446
779.497	703
779.603	4197
779.708	822
779.815	2650
779.920	3839
780.026	2950
780.132	2700
780.238	1251
780.344	2220
780.450	1856
780.556	1885
780.661	1365
780.767	1616
780.873	1490
780.979	2771
781.085	1327
781.190	2284
781.296	1770
781.402	1208
781.507	1829
781.613	1525
781.719	1285
781.824	1774
781.930	2350
782.035	2078
782.141	2185
782.246	1894
782.352	1920
782.457	1152
782.563	1776
782.668	1576
782.773	846
782.879	832
782.984	1795
783.090	2804
783.195	4199
783.300	2552
783.405	1525
783.511	1506
783.616	1603
783.721	1231
783.826	845
783.932	1911
784.037	1629
784.142	1737
784.247	815
784.352	1695
784.457	1567
784.562	1782
784.667	1900
784.772	539
784.877	802
784.982	1878
785.087	1310
785.192	1506
785.297	1069
785.402	1986
785.507	807
785.611	1241
785.716	485
785.821	1853
785.926	703
786.031	1492
786.135	881
786.240	1158
786.345	-258
786.450	1456
786.554	1336
786.659	824
786.763	290
786.868	983
786.973	1171
787.077	1416
787.182	796
787.286	1772
787.391	873
787.495	-28
787.600	1029
787.704	546
787.809	687
787.913	1042
788.017	1349
788.122	1370
788.226	544
788.330	827
788.435	1036
788.539	895
788.643	122
788.747	1359
788.852	784
788.956	1196
789.060	1004
789.164	329
789.268	417
789.372	1610
789.476	527
789.580	569
789.684	199
789.788	1396
789.892	529
789.996	1347
790.100	1161
790.204	909
790.308	871
790.412	591
790.516	1340
790.620	658
790.724	992
790.828	1249
790.931	103
791.035	1831
791.139	537
791.242	400
791.346	1447
791.450	749
791.554	337
791.657	114
791.761	1482
791.864	1770
791.968	1015
792.072	341
792.175	500
792.279	628
792.382	165
792.486	1384
792.589	1096
792.693	954
792.796	-281
792.899	2331
793.003	1389
793.106	-193
793.209	123
793.313	2349
793.416	-204
793.519	2255
793.623	1990
793.726	3910
793.829	1221
793.932	1201
794.035	613
794.138	1515
794.242	1335
794.345	327
794.448	1436
794.551	2767
794.654	3884
794.757	2578
794.860	990
794.963	777
795.066	-157
795.169	1223
795.272	-131
795.375	1294
795.477	-334
795.580	996
795.683	87
795.786	1324
795.889	-1105
795.991	1802
796.094	738
796.197	-527
796.300	1065
796.402	1018
796.505	586
796.608	672
796.710	583
796.813	1044
796.915	1315
797.018	860
797.120	1071
797.223	-297
797.326	1161
797.428	73
797.530	-184
797.633	441
797.735	871
797.838	825
797.940	1373
798.042	374
798.145	-327
798.247	1529
798.349	-270
798.452	1630
798.554	25
798.656	-400
798.758	1249
798.860	449
798.962	227
799.065	886
799.167	27
799.269	1687
799.371	1599
799.473	1110
799.575	465
799.677	506
799.779	3371
799.881	2228
799.983	1838
800.085	1561
800.187	400
800.289	-283
800.390	-156
800.492	464
800.594	2138
800.696	437
800.798	606
800.899	318
801.001	671
801.103	888
801.205	321
801.306	1221
801.408	-372
801.509	914
801.611	361
801.713	443
801.814	-274
801.916	687
802.017	617
802.119	-231
802.220	768
802.322	-1146
802.423	2486
802.525	65
802.626	661
802.727	1094
802.829	1757
802.930	-1073
803.031	1726
803.133	910
803.234	-624
803.335	1316
803.436	-1223
803.538	-282
803.639	-28
803.740	751
803.841	-486
803.942	-121
804.043	756
804.144	1046
804.245	176
804.346	199
804.447	1093
804.548	1629
804.649	3119
804.750	931
804.851	-297
804.952	-458
805.053	408
805.154	-1378
805.255	1840
805.355	751
805.456	-883
805.557	46
805.658	-573
805.758	1090
805.859	416
805.960	374
806.061	-332
806.161	381
806.262	539
806.362	1004
806.463	689
806.564	591
806.664	369
806.765	-229
806.865	28
806.966	-8
807.066	-80
807.166	1049
807.267	705
807.367	29
807.468	-380
807.568	-533
807.668	1527
807.769	518
807.869	-260
807.969	1433
808.069	368
808.170	843
808.270	118
808.370	883
808.470	1267
808.570	524
808.670	-262
808.770	790
808.870	-15
808.970	1598
809.070	-169
809.170	25
809.271	843
809.370	543
809.470	1255
809.570	227
809.670	-397
809.770	122
809.870	1062
809.970	438
810.070	-271
810.169	1262
810.269	-952
810.369	1197
810.469	-527
810.568	723
810.668	-764
810.768	-94
810.867	295
810.967	-149
811.066	191
811.166	-14
811.265	1135
811.365	-204
811.464	-485
811.564	374
811.663	246
811.763	-604
811.862	362
811.962	351
812.061	181
812.160	-65
812.260	649
812.359	560
812.458	-264
812.557	1144
812.657	-261
812.756	-691
812.855	147
812.954	495
813.053	-110
813.153	253
813.252	-787
813.351	-915
813.450	494
813.549	-359
813.648	903
813.747	653
813.846	1146
813.945	105
814.044	-82
814.143	215
814.242	421
814.341	531
814.439	516
814.538	1195
814.637	941
814.736	251
814.835	883
814.933	-387
815.032	1047
815.131	1306
815.229	1185
815.328	2248
815.427	644
815.525	1677
815.624	1511
815.722	966
815.821	1160
815.919	1121
816.018	879
816.116	1026
816.215	873
816.313	819
816.412	1544
816.510	1519
816.609	2997
816.707	2466
816.805	1360
816.904	1785
817.002	2436
817.100	2720
817.198	2346
817.296	1919
817.395	1944
817.493	3409
817.591	2110
817.689	3462
817.787	3151
817.885	6328
817.983	11929
818.081	27976
818.179	68507
818.277	167824
818.375	114040
818.473	24580
818.571	9590
818.669	7480
818.767	6120
818.865	7636
818.963	7735
819.061	13352
819.158	23424
819.256	54890
819.354	138699
819.452	287761
819.549	146912
819.647	35167
819.745	14105
819.842	8768
819.940	6072
820.038	5096
820.135	3537
820.233	4645
820.330	2353
820.428	1791
820.525	2974
820.623	2063
820.720	938
820.818	1254
820.915	1768
821.012	1708
821.110	-73
821.207	1724
821.304	630
821.402	2181
821.499	975
821.596	1891
821.693	1154
821.791	1670
821.888	2536
821.985	5908
822.082	3037
822.179	1101
822.276	1753
822.373	1493
822.470	1003
822.567	1166
822.664	139
822.761	1458
822.858	-487
822.955	816
823.052	909
823.149	468
823.246	769
823.343	944
823.440	540
823.536	476
823.633	241
823.730	-317
823.827	959
823.923	571
824.020	1257
824.117	518
824.213	-569
824.310	719
824.407	711
824.503	934
824.600	956
824.696	309
824.793	1034
824.889	1167
824.986	711
825.082	-73
825.179	117
825.275	793
825.371	661
825.468	1283
825.564	-1212
825.660	715
825.757	537
825.853	1047
825.949	-21
826.045	308
826.142	768
826.238	777
826.334	1108
826.430	-692
826.526	999
826.622	-569
826.718	1123
826.814	54
826.910	1514
827.006	-57
827.102	-654
827.198	1267
827.294	910
827.390	714
827.486	1134
827.582	-650
827.678	-197
827.774	878
827.869	-798
827.965	917
828.061	-850
828.157	351
828.252	259
828.348	-168
828.444	1096
828.539	-926
828.635	-384
828.731	1169
828.826	-407
828.922	1003
829.017	-59
829.113	516
829.208	162
829.304	-237
829.399	845
829.495	496
829.590	489
829.685	132
829.781	199
829.876	468
829.971	-168
830.066	-288
830.162	696
830.257	15
830.352	-398
830.447	474
830.543	873
830.638	-391
830.733	632
830.828	185
830.923	701
831.018	-275
831.113	404
831.208	-447
831.303	-279
831.398	670
831.493	-15
831.588	1138
831.683	-1088
831.778	557
831.873	-25
831.967	1355
832.062	-98
832.157	-923
832.252	1094
832.346	353
832.441	2004
832.536	1288
832.631	4652
832.725	3627
832.820	-34
832.914	678
833.009	-690
833.104	417
833.198	2115
833.293	266
833.387	-244
833.482	282
833.576	178
833.670	61
833.765	226
833.859	96
833.954	807
834.048	-149
834.142	97
834.237	-164
834.331	-79
834.425	-805
834.519	-835
834.613	1174
834.708	-347
834.802	531
834.896	-296
834.990	30
835.084	-253
835.178	515
835.272	-431
835.366	-322
835.460	603
835.554	643
835.648	-10
835.742	-465
835.836	172
835.930	66
836.024	608
836.117	1357
836.211	-275
836.305	291
836.399	372
836.493	-886
836.586	585
836.680	79
836.774	-942
836.867	1694
836.961	-1218
837.055	-457
837.148	-384
837.242	-43
837.335	-951
837.429	93
837.522	-484
837.616	-478
837.709	126
837.803	-734
837.896	903
837.989	92
838.083	287
838.176	429
838.269	-1295
838.363	1153
838.456	-705
838.549	1455
838.642	1708
838.735	5321
838.829	2266
838.922	-103
839.015	139
839.108	-1259
839.201	152
839.294	133
839.387	-386
839.480	-885
839.573	-573
839.666	119
839.759	-699
839.852	-592
839.945	-345
840.038	-402
840.131	-1409
840.223	-148
840.316	-241
840.409	-552
840.502	-416
840.594	944
840.687	-1013
840.780	-256
840.873	-349
840.965	-365
841.058	316
841.150	-11
841.243	-465
841.336	-52
841.428	229
841.521	-573
841.613	-1200
841.706	71
841.798	-420
841.890	73
841.983	-688
842.075	-925
842.167	-1067
842.260	-489
842.352	233
842.444	-367
842.537	-384
842.629	279
842.721	-447
842.813	-912
842.905	-769
842.997	-496
843.090	-764
843.182	-384
843.274	-1026
843.366	400
843.458	410
843.550	638
843.642	-832
843.734	-764
843.826	-999
843.918	-123
844.009	-603
844.101	-1073
844.193	-224
844.285	-517
844.377	36
844.469	-6
844.560	-687
844.652	204
844.744	-200
844.835	-488
844.927	-1146
845.019	-431
845.110	-212
845.202	-449
845.293	-458
845.385	-898
845.476	-1288
845.568	520
845.659	-880
845.751	-162
845.842	-1091
845.934	-493
846.025	-1017
846.116	-446
846.208	-429
846.299	-142
846.390	-701
846.482	-396
846.573	-654
846.664	342
846.755	-178
846.846	655
846.937	-1942
847.029	-377
847.120	-490
847.211	-1605
847.302	1121
847.393	-878
847.484	-105
847.575	-1038
847.666	-1350
847.757	-644
847.847	-535
847.938	163
848.029	-969
848.120	-1005
848.211	-836
848.302	-1327
848.392	-765
848.483	-607
848.574	-1104
848.664	-1093
848.755	-766
848.846	467
848.936	-1072
849.027	-275
849.118	-1293
849.208	-161
849.299	418
849.389	2400
849.480	4966
849.570	12197
849.661	24310
849.751	40009
849.841	11073
849.932	1207
850.022	-307
850.112	96
850.203	-75
850.293	-548
850.383	-176
850.474	-591
850.564	-1313
850.654	-834
850.744	-881
850.834	-555
850.924	-405
851.014	-165
851.104	198
851.194	-1059
851.284	223
851.374	141
851.464	-883
851.554	-249
851.644	-994
851.734	-23
851.824	-534
851.914	-999
852.004	-530
852.094	-1061
852.183	-1034
852.273	-539
852.363	-666
852.452	-1424
852.542	-691
852.632	-500
852.721	-368
852.811	-256
852.901	-247
852.990	258
853.080	-209
853.169	30
853.259	-128
853.348	681
853.438	1242
853.527	2592
853.617	2511
853.706	6092
853.795	13081
853.885	34301
853.974	66895
854.063	124129
854.152	185965
854.242	60793
854.331	9731
854.420	3522
854.509	2232
854.598	1710
854.687	1680
854.777	845
854.866	259
854.955	452
855.044	285
855.133	607
855.222	-968
855.311	336
855.400	-270
855.488	-146
855.577	-1004
855.666	254
855.755	205
855.844	-246
855.933	-1421
856.021	-570
856.110	-164
856.199	-1000
856.288	-882
856.376	-817
856.465	-777
856.554	87
856.642	-836
856.731	197
856.819	59
856.908	-1032
856.996	-682
857.085	-480
857.173	-716
857.262	-359
857.350	51
857.438	-530
857.527	112
857.615	-390
857.703	-897
857.792	-500
857.880	-359
857.968	-253
858.056	-490
858.145	-925
858.233	-588
858.321	37
858.409	-263
858.497	-1017
858.585	-717
858.673	-662
858.761	-90
858.849	-464
858.937	-1143
859.025	-143
859.113	44
859.201	-1199
859.289	-255
859.377	-402
859.465	-997
859.552	-551
859.640	-2201
859.728	-804
859.816	95
859.903	114
859.991	-760
860.079	-832
860.166	-859
860.254	-203
860.342	-536
860.429	-603
860.517	-638
860.604	-993
860.692	-1
860.779	-941
860.867	-543
860.954	-595
861.042	-522
861.129	230
861.216	-526
861.304	-504
861.391	-846
861.478	-114
861.565	-235
861.653	-499
861.740	-1136
861.827	-405
861.914	-350
862.001	-527
862.089	-493
862.176	-213
862.263	-1256
862.350	-138
862.437	-1335
862.524	-697
862.611	226
862.698	-731
862.785	-446
862.871	-510
862.958	-963
863.045	-329
863.132	-431
863.219	-1046
863.306	-1420
863.392	-312
863.479	-1093
863.566	-807
863.652	-250
863.739	-1442
863.826	-307
863.912	-723
863.999	-652
864.086	-975
864.172	-311
864.259	-317
864.345	-396
864.432	-43
864.518	-358
864.604	-278
864.691	-203
864.777	258
864.863	-158
864.950	275
865.036	-243
865.122	1201
865.209	1133
865.295	1115
865.381	1127
865.467	969
865.553	2132
865.639	3871
865.726	8094
865.812	17021
865.898	33872
865.984	52046
866.070	98362
866.156	100083
866.242	21929
866.328	4350
866.414	1619
866.499	2192
866.585	576
866.671	802
866.757	1172
866.843	724
866.928	993
867.014	-103
867.100	934
867.186	1768
867.271	844
867.357	1234
867.442	-345
867.528	-82
867.614	-375
867.699	583
867.785	383
867.870	-620
867.956	115
868.041	955
868.127	-111
868.212	416
868.297	644
868.383	-395
868.468	988
868.553	2281
868.639	2618
868.724	5920
868.809	4923
868.894	9
868.979	-866
869.065	161
869.150	-653
869.235	2
869.320	-623
869.405	80
869.490	-293
869.575	-176
869.660	185
869.745	525
869.830	170
869.915	-290
870.000	-509
870.085	-703
870.169	543
870.254	94
870.339	2
870.424	-927
870.509	-217
870.593	376
870.678	-118
870.763	-333
870.847	-122
870.932	102
871.016	-1200
871.101	-424
871.186	-1060
871.270	-299
871.355	-947
871.439	-837
871.523	-91
871.608	-392
871.692	-450
871.777	475
871.861	-314
871.945	-1065
872.030	-55
872.114	-817
872.198	-897
872.282	-388
872.367	-1243
872.451	-356
872.535	-711
872.619	-284
872.703	-580
872.787	-160
872.871	-1081
872.955	-688
873.039	-834
873.123	-803
873.207	515
873.291	-881
873.375	-1150
873.459	263
873.543	-1093
873.627	-396
873.711	-696
873.794	-47
873.878	-1588
873.962	-847
874.045	-1016
874.129	-735
874.137	-706
874.213	-421
874.245	-421
874.296	-421
874.352	-908
874.380	-1142
874.460	-554
874.464	-532
874.547	-1096
874.568	-848
874.631	-112
874.676	-612
874.714	-1035
874.784	152
874.798	389
874.881	23
874.892	-30
874.965	-363
874.999	-617
875.048	-992
875.107	-691
875.131	-580
875.215	84
875.215	84
875.298	186
875.323	68
875.381	-194
875.430	-441
875.465	-604
875.538	-466
875.548	-457
875.631	94
875.646	-74
875.714	-788
875.753	-670
875.798	-610
875.861	-377
875.881	-272
875.964	-79
875.968	-97
876.047	-477
876.076	-435
876.130	-309
876.183	-362
876.213	-441
876.291	-706
876.296	-716
876.379	-721
876.398	-695
876.462	-618
876.506	-341
876.545	-155
876.613	-566
876.628	-628
876.711	-499
876.721	-458
876.794	-101
876.828	-212
876.877	-491
876.935	-735
876.960	-778
877.043	-240
877.043	-240
877.125	-146
877.150	-87
877.208	-177
877.258	-183
877.291	-38
877.365	-183
877.374	-229
877.456	-775
877.472	-607
877.539	234
877.579	230
877.622	143
877.687	-487
877.704	-643
877.787	17
877.794	-36
877.869	-532
877.901	-376
877.952	-159
878.008	-914
878.034	-1225
878.115	-352
878.117	-337
878.199	-665
878.222	-492
878.282	69
878.329	104
878.364	57
878.437	126
878.447	138
878.529	-904
878.544	-826
878.611	-208
878.651	51
878.694	160
878.758	-241
878.776	-309
878.858	-440
878.865	-400
878.941	-251
878.972	-413
879.023	-381
879.078	-251
879.105	-174
879.185	56
879.187	52
879.269	191
879.292	-13
879.351	-215
879.399	-3
879.433	98
879.506	-165
879.516	-232
879.598	-370
879.613	-431
879.680	-207
879.720	-138
879.762	-188
879.827	-25
879.844	7
879.926	-384
879.933	-332
880.007	-53
880.040	-86
880.089	180
880.147	566
880.171	715
880.253	2149
880.254	2155
880.335	2673
880.360	3035
880.417	4233
880.467	6648
880.499	8236
880.574	8990
880.580	8910
880.662	1683
880.680	1228
880.744	475
880.787	336
880.825	172
880.893	105
880.907	63
880.989	-518
881.000	-451
881.070	311
881.106	138
881.152	-206
881.213	-238
881.233	-201
881.315	-106
881.319	-84
881.396	283
881.426	110
881.478	-246
881.532	-328
881.559	-381
881.639	-469
881.641	-464
881.722	109
881.745	55
881.803	-5
881.852	-88
881.885	-358
881.958	-230
881.966	-163
882.047	404
882.064	350
882.129	472
882.171	1153
882.210	1266
882.277	996
882.291	996
882.372	-47
882.383	-107
882.454	-104
882.489	109
882.535	220
882.596	247
882.616	258
882.697	91
882.702	72
882.778	-83
882.808	-64
882.859	-66
882.914	-108
882.940	-125
883.020	-6
883.021	-4
883.102	-395
883.127	-348
883.183	104
883.233	-173
883.264	-497
883.339	80
883.345	140
883.426	-420
883.445	-286
883.507	101
883.551	-204
883.587	-295
883.657	347
883.668	440
883.749	381
883.763	420
883.830	230
883.869	92
883.910	76
883.975	208
883.991	283
884.072	-32
884.081	19
884.152	528
884.187	354
884.233	-278
884.292	-172
884.314	-12
884.394	-275
884.398	-273
884.475	2
884.504	-18
884.555	-58
884.610	50
884.636	66
884.716	-39
884.716	-35
884.797	-63
884.821	8
884.877	65
884.927	-217
884.958	-332
885.033	-186
885.038	-176
885.118	-453
885.139	-493
885.199	-231
885.244	58
885.279	24
885.350	-61
885.359	-37
885.439	10
885.456	6
885.520	8
885.561	96
885.600	41
885.667	-197
885.680	-204
885.760	-164
885.773	-158
885.840	-308
885.878	-344
885.920	-238
885.984	-421
886.000	-386
886.080	121
886.089	168
886.160	170
886.195	66
886.240	149
886.300	448
886.320	447
886.400	480
886.406	481
886.480	263
886.511	45
886.560	-12
886.616	30
886.640	-12
886.720	-250
886.722	-260
886.800	-38
886.827	116
886.879	30
886.932	-108
886.959	-28
887.038	193
887.039	196
887.119	41
887.143	35
887.198	187
887.248	318
887.278	407
887.354	446
887.358	441
887.437	343
887.459	326
887.517	748
887.564	977
887.596	688
887.669	276
887.676	274
887.755	-5
887.774	-33
887.835	-170
887.880	-305
887.914	166
887.985	939
887.994	882
888.073	535
888.090	439
888.153	330
888.195	207
888.232	-1
888.300	-245
888.311	-210
888.391	-159
888.405	-108
888.470	-285
888.510	-499
888.549	-139
888.615	521
888.628	502
888.708	355
888.720	334
888.787	281
888.825	196
888.866	-72
888.930	-395
888.945	-305
889.024	82
889.035	140
889.103	350
889.140	421
889.182	366
889.245	339
889.261	288
889.340	-17
889.349	-52
889.419	220
889.454	359
889.498	573
889.559	856
889.577	867
889.656	908
889.664	911
889.735	601
889.768	451
889.814	767
889.873	1185
889.978	151
890.083	-521
890.187	273
890.292	40
890.397	99
890.501	227
890.606	-127
890.710	194
890.815	83
890.919	959
891.024	249
891.128	-355
891.233	645
891.337	-67
891.442	501
891.546	594
891.650	737
891.755	-252
891.859	1376
891.963	248
892.068	573
892.172	516
892.276	66
892.380	719
892.484	329
892.589	215
892.693	-45
892.797	388
892.901	184
893.005	123
893.109	469
893.213	592
893.317	748
893.421	334
893.525	85
893.629	456
893.733	225
893.837	81
893.941	255
894.045	189
894.148	-425
894.252	-565
894.356	32
894.460	682
894.564	569
894.667	196
894.771	16
894.875	-445
894.978	583
895.082	509
895.186	428
895.289	606
895.393	268
895.496	280
895.600	-34
895.703	-961
895.807	-78
895.910	568
896.014	-68
896.117	-278
896.221	954
896.324	-374
896.427	655
896.531	-236
896.634	374
896.737	941
896.840	359
896.944	-222
897.047	-281
897.150	-40
897.253	270
897.356	93
897.460	-1490
897.563	-23
897.666	750
897.769	430
897.872	169
897.975	219
898.078	51
898.181	442
898.284	-140
898.387	218
898.490	471
898.593	-610
898.695	12
898.798	92
898.901	265
899.004	346
899.107	-340
899.209	-232
899.312	637
899.415	211
899.518	305
899.620	-264
899.723	-93
899.826	755
899.928	132
900.031	-250
900.133	-389
900.236	-559
900.338	-304
900.441	13
900.543	-238
900.646	629
900.748	-416
900.851	-716
900.953	-497
901.055	-261
901.158	-292
901.260	-352
901.362	-1087
901.465	-379
901.567	-550
901.669	491
901.771	-270
901.873	97
901.976	-115
902.078	246
902.180	475
902.282	-385
902.384	121
902.486	577
902.588	83
902.690	6
902.792	-354
902.894	-177
902.996	-460
903.098	-666
903.200	211
903.302	-261
903.404	-319
903.505	-55
903.607	-811
903.709	-13
903.811	-223
903.913	-482
904.014	-106
904.116	145
904.218	907
904.319	-28
904.421	527
904.523	-212
904.624	536
904.726	62
904.827	89
904.929	-395
905.030	-96
905.132	6
905.233	197
905.335	-560
905.436	-181
905.537	-471
905.639	-682
905.740	-120
905.841	575
905.943	-592
906.044	-333
906.145	-401
906.247	508
906.348	-556
906.449	264
906.550	-340
906.651	-571
906.752	-459
906.854	-557
906.955	-685
907.056	248
907.157	-317
907.258	-249
907.359	-241
907.460	565
907.561	340
907.662	-864
907.762	-306
907.863	-153
907.964	-615
908.065	19
908.166	-2
908.267	-40
908.367	-20
908.468	-599
908.569	-409
908.670	662
908.770	432
908.871	-36
908.971	-427
909.072	-616
909.173	-262
909.273	84
909.374	-208
909.474	-161
909.575	-309
909.675	-361
909.776	65
909.876	-8
909.977	-305
910.077	-568
910.177	-337
910.278	-152
910.378	-9
910.478	364
910.579	33
910.679	-358
910.779	-57
910.879	373
910.980	507
911.080	-580
911.180	371
911.280	-615
911.380	588
911.480	478
911.580	222
911.680	-40
911.780	487
911.880	-116
911.980	-472
912.080	-326
912.180	212
912.280	-352
912.380	-159
912.480	-86
912.580	-313
912.679	-658
912.779	141
912.879	-404
912.979	55
913.078	-603
913.178	61
913.278	-260
913.377	-832
913.477	311
913.577	-534
913.676	424
913.776	-289
913.875	-315
913.975	73
914.074	-389
914.174	-1578
914.273	-658
914.373	-376
914.472	-465
914.572	-399
914.671	-341
914.770	-721
914.870	-668
914.969	177
915.068	-228
915.167	-217
915.267	-23
915.366	-303
915.465	-532
915.564	-107
915.663	-605
915.763	270
915.862	175
915.961	308
916.060	-72
916.159	-173
916.258	-81
916.357	-171
916.456	-278
916.555	-583
916.654	-378
916.752	49
916.851	-948
916.950	-172
917.049	-260
917.148	74
917.247	22
917.345	-551
917.444	-19
917.543	-605
917.642	140
917.740	-238
917.839	-211
917.937	780
918.036	625
918.135	133
918.233	-183
918.332	-406
918.430	-12
918.529	163
918.627	-190
918.726	346
918.824	-708
918.923	17
919.021	-126
919.119	-352
919.218	224
919.316	300
919.414	-307
919.512	125
919.611	-580
919.709	-125
919.807	242
919.905	167
920.003	-181
920.102	54
920.200	-306
920.298	-1056
920.396	-478
920.494	9
920.592	-826
920.690	-292
920.788	-625
920.886	-822
920.984	314
921.082	37
921.180	549
921.277	650
921.375	684
921.473	212
921.571	624
921.669	391
921.766	259
921.864	828
921.962	914
922.060	-5
922.157	-379
922.255	52
922.352	460
922.450	1143
922.548	63
922.645	1407
922.743	503
922.840	1514
922.938	889
923.035	1288
923.133	1973
923.230	1534
923.327	1816
923.425	2200
923.522	2726
923.619	1739
923.717	1433
923.814	1349
923.911	1224
924.008	1958
924.106	1070
924.203	1178
924.300	924
924.397	1184
924.494	1172
924.591	1002
924.688	600
924.786	1675
924.883	1743
924.979	1377
925.077	1725
925.173	1391
925.270	1278
925.367	1373
925.464	1655
925.561	1461
925.658	1567
925.755	1249
925.852	1774
925.948	1175
926.045	1486
926.142	1399
926.239	1378
926.335	1160
926.432	1359
926.529	1908
926.625	2015
926.722	1118
926.818	1155
926.915	851
927.011	1606
927.108	1443
927.204	999
927.301	1302
927.397	1744
927.494	1784
927.590	353
927.687	1169
927.783	1291
927.879	978
927.976	878
928.072	1120
928.168	890
928.264	1075
928.361	864
928.457	1482
928.553	369
928.649	1478
928.745	1128
928.841	1339
928.937	864
929.033	-134
929.129	1551
929.225	1256
929.321	403
929.417	446
929.513	1100
929.609	1581
929.705	1268
929.801	2021
929.897	900
929.993	873
930.089	468
930.184	1185
930.280	735
930.376	1435
930.471	1475
930.567	1424
930.663	1281
930.758	608
930.854	175
930.950	896
931.045	625
931.141	750
931.236	1177
931.332	474
931.427	-580
931.523	1187
931.618	1187
931.714	198
931.809	511
931.905	1195
932.000	100
932.095	947
932.191	390
932.286	865
932.381	779
932.476	1227
932.572	1137
932.667	661
932.762	655
932.857	1413
932.952	738
933.047	977
933.142	370
933.237	771
933.332	410
933.427	1435
933.522	99
933.617	244
933.712	672
933.807	690
933.902	1031
933.997	916
934.092	327
934.187	330
934.282	550
934.376	-43
934.471	1275
934.566	291
934.661	1299
934.755	712
934.850	341
934.945	1214
935.039	-156
935.134	700
935.228	1388
935.323	767
935.417	48
935.512	-505
935.606	-165
935.701	928
935.795	754
935.890	259
935.984	436
936.079	722
936.173	256
936.267	7
936.362	49
936.456	546
936.550	660
936.644	295
936.738	347
936.833	955
936.927	1021
937.021	971
937.115	451
937.209	403
937.303	1271
937.397	-553
937.491	817
937.585	443
937.679	403
937.773	-48
937.867	334
937.961	258
938.055	255
938.149	1144
938.243	572
938.337	361
938.430	-402
938.524	678
938.618	88
938.712	-310
938.805	64
938.899	421
938.993	321
939.086	22
939.180	89
939.274	776
939.367	405
939.461	790
939.554	-209
939.648	-358
939.741	-423
939.835	923
939.928	622
940.022	695
940.115	172
940.208	452
940.302	535
940.395	36
940.488	-855
940.582	28
940.675	-330
940.768	412
940.861	-309
940.954	849
941.048	40
941.141	-324
941.234	511
941.327	241
941.420	-12
941.513	437
941.606	104
941.699	-71
941.792	-350
941.885	568
941.978	59
942.071	-290
942.164	286
942.257	-34
942.349	407
942.442	472
942.535	-116
942.628	-115
942.721	43
942.813	-1145
942.906	34
942.999	-85
943.091	173
943.184	-487
943.277	-619
943.369	-183
943.462	-149
943.554	-382
943.647	-516
943.739	211
943.832	-278
943.924	-844
944.017	5
944.109	-450
944.201	-149
944.294	-323
944.386	46
944.478	-52
944.571	-327
944.663	524
944.755	-294
944.847	291
944.940	-732
945.032	-720
945.124	-79
945.216	967
945.308	503
945.400	114
945.492	339
945.584	-277
945.676	-624
945.768	-28
945.860	381
945.952	-94
946.044	-663
946.136	-58
946.228	-664
946.320	-876
946.412	-781
946.503	329
946.595	421
946.687	-422
946.779	-1025
946.870	-154
946.962	-949
947.054	28
947.145	-181
947.237	-553
947.329	-70
947.420	-399
947.512	-595
947.603	-770
947.695	-679
947.786	-419
947.878	-835
947.969	-306
948.061	356
948.152	-643
948.243	-301
948.335	-415
948.426	-402
948.517	-75
948.609	100
948.700	-143
948.791	-289
948.882	-347
948.973	-458
949.065	-195
949.156	-260
949.247	-500
949.338	-549
949.429	62
949.520	-219
949.611	-1210
949.702	179
949.793	-228
949.884	-240
949.975	-869
950.066	-1370
950.157	-100
950.247	-712
950.338	-1317
950.429	-366
950.520	208
950.611	-498
950.701	-419
950.792	-661
950.883	-447
950.973	-232
951.064	-138
951.155	-402
951.245	126
951.336	59
951.427	-1012
951.517	-18
951.608	-451
951.698	-108
951.788	-461
951.879	-293
951.969	-414
952.060	23
952.150	-268
952.240	-184
952.331	-1445
952.421	775
952.511	-626
952.602	-702
952.692	-1023
952.782	-500
952.872	-353
952.962	-32
953.052	247
953.143	-1402
953.233	-394
953.323	544
953.413	-786
953.503	-745
953.593	-572
953.683	-1221
953.773	-975
953.863	-695
953.953	-1162
954.042	-287
954.132	-991
954.222	-521
954.312	-962
954.402	-326
954.492	-808
954.581	-580
954.671	158
954.761	-869
954.850	835
954.940	-1094
955.030	-1129
955.119	-1240
955.209	-246
955.298	-424
955.388	-438
955.477	800
955.567	-1612
955.656	-182
955.746	-98
955.835	-492
955.925	-1357
956.014	-59
956.103	318
956.193	-246
956.282	137
956.371	-586
956.461	-193
956.550	-975
956.639	84
956.728	-760
956.817	-421
956.906	-725
956.995	94
957.085	-1102
957.174	-314
957.263	-490
957.352	-662
957.441	-627
957.530	-212
957.619	-577
957.708	-652
957.796	-765
957.885	-275
957.974	-968
958.063	-146
958.152	-902
958.241	156
958.329	-303
958.418	-885
958.507	-953
958.596	-48
958.684	-800
958.773	348
958.861	-80
958.950	94
959.039	-444
959.127	97
959.216	53
959.304	-1120
959.393	-680
959.481	-460
959.570	298
959.658	-889
959.746	-1100
959.835	442
959.923	-1593
960.011	-1505
960.100	-432
960.188	-558
960.276	-1152
960.365	-809
960.453	22
960.541	-1121
960.629	-996
960.717	-1129
960.805	-935
960.893	-380
960.981	-1111
961.069	97
961.158	-668
961.245	406
961.333	-690
961.421	-1413
961.509	-731
961.597	-687
961.685	479
961.773	-814
961.861	-715
961.949	-453
962.036	-1529
962.124	-277
962.212	-1018
962.299	-1161
962.387	-751
962.475	-919
962.562	-428
962.650	-159
962.738	-389
962.825	-990
962.913	-27
963.000	-546
963.088	-261
963.175	-781
963.263	-1208
963.350	-495
963.438	-1258
963.525	-1041
963.612	-273
963.700	-1401
963.787	-389
963.874	-590
963.962	-520
964.049	-652
964.136	-658
964.223	-986
964.310	311
964.398	-783
964.485	-1156
964.572	-544
964.659	-137
964.746	-772
964.833	-715
964.920	-817
965.007	-1154
965.094	-486
965.181	-1569
965.268	-468
965.355	-540
965.441	-857
965.528	-2005
965.615	-345
965.702	-463
965.789	-1019
965.875	-336
965.962	-817
966.049	-1555
966.136	-644
966.222	-1444
966.309	397
966.395	-1427
966.482	-465
966.569	-1227
966.655	-860
966.742	-1142
966.828	-534
966.915	-211
967.001	-813
967.087	-1063
967.174	-430
967.260	-789
967.347	-1186
967.433	-768
967.519	-275
967.605	-849
967.692	-956
967.778	-826
967.864	-492
967.950	-353
968.036	-1308
968.123	-904
968.209	-952
968.295	-2062
968.381	209
968.467	-1051
968.553	-1687
968.639	70
968.725	-1611
968.811	-34
968.897	-797
968.983	-1498
969.069	-645
969.154	-569
969.240	-99
969.326	-897
969.412	-932
969.497	-1398
969.583	-2292
969.669	30
969.755	25
969.840	-878
969.926	-78
970.012	-653
970.097	539
970.183	-667
970.268	-747
970.354	-576
970.439	-1475
970.525	-908
970.610	-1190
970.696	-682
970.781	-483
970.866	-1400
970.952	-725
971.037	-1009
971.122	-781
971.208	-149
971.293	-317
971.378	-1400
971.463	-1271
971.549	-665
971.634	-1147
971.719	-473
971.804	-1030
971.889	-185
971.974	-1185
972.059	-1364
972.144	-754
972.229	-1068
972.314	-1192
972.399	-448
972.484	-920
972.569	-1070
972.654	-1641
972.739	-431
972.824	-641
972.908	-967
972.993	-641
973.078	-755
973.163	-898
973.247	-934
973.332	-2460
973.417	1229
973.501	-981
973.586	-693
973.671	-1203
973.755	-1609
973.840	-382
973.924	-197
974.009	-1195
974.093	-900
974.178	-1342
974.262	-835
974.346	-1516
974.431	-911
974.515	-1341
974.600	-1488
974.684	-685
974.768	-779
974.852	-634
974.937	-1689
975.021	-445
975.105	-538
975.189	-991
975.273	-382
975.358	-1193
975.442	-1170
975.526	-244
975.610	-1357
975.694	-1515
975.778	-421
975.862	-1580
975.946	-2647
976.030	591
976.114	-1145
976.198	-1016
976.281	-968
976.365	238
976.449	-1425
976.533	-512
976.617	-1751
976.700	-996
976.784	-731
976.868	-1132
976.951	-341
977.035	-966
977.119	-532
977.202	-761
977.286	-1204
977.369	-220
977.453	57
977.536	-985
977.620	-1614
977.703	-187
977.787	-1511
977.870	-344
977.953	-324
978.037	-1839
978.120	4
978.203	-617
978.287	-1130
978.370	-196
978.453	-298
978.536	-1369
978.620	-94
978.703	-1103
978.786	-1948
978.869	-1137
978.952	-1769
979.035	118
979.118	-531
979.201	-1468
979.284	-333
979.367	-1309
979.450	-897
979.533	-1098
979.616	-973
979.699	-1084
979.782	-634
979.865	-1204
979.948	-1037
980.030	-1771
980.113	-712
980.196	-1368
980.279	-2
980.361	-207
980.444	-787
980.526	-1183
980.609	-354
980.692	-1077
980.774	-757
980.857	-1694
980.939	-315
981.022	-881
981.104	-528
981.187	-498
981.269	-1018
981.352	-1465
981.434	-1365
981.516	-1305
981.599	407
981.681	-841
981.763	-352
981.846	-1161
981.928	-613
982.010	-1135
982.092	-1682
982.174	449
982.256	-986
982.339	-1631
982.421	-548
982.503	-570
982.585	-1735
982.667	-260
982.749	-579
982.831	-716
982.913	-1767
982.995	13
983.077	-1304
983.158	-483
983.240	-1702
983.322	-211
983.404	-697
983.486	-1142
983.568	-130
983.649	-946
983.731	-1199
983.813	-731
983.894	-1584
983.976	-1386
984.058	-820
984.139	-403
984.221	-2112
984.302	274
984.384	-1325
984.465	-1560
984.547	-724
984.628	-721
984.710	-620
984.791	-638
984.872	-939
984.954	-1392
985.035	-1240
985.116	-1547
985.198	-1269
985.279	404
985.360	-1682
985.441	-1377
985.522	-852
985.604	-1347
985.685	-1955
985.766	-269
985.847	478
985.928	-1735
986.009	-1367
986.090	-1268
986.171	-73
986.252	-1292
986.333	-793
986.414	-966
986.495	-265
986.576	-646
986.656	-1333
986.737	328
986.818	121
986.899	-782
986.980	-1740
987.060	-776
987.141	-1600
987.222	-1014
987.302	-709
987.383	-715
987.464	-955
987.544	-439
987.625	-1566
987.705	-214
987.786	-787
987.866	-1370
987.947	-123
988.027	-563
988.108	-1058
988.188	-659
988.268	-650
988.349	-1239
988.429	-974
988.509	-511
988.589	-1538
988.670	-1805
988.750	51
988.830	-559
988.910	-1009
988.990	-1020
989.070	-372
989.151	-453
989.231	-1086
989.311	-604
989.391	-1068
989.471	-537
989.551	-1049
989.631	-852
989.711	596
989.791	-1504
989.870	-2365
989.950	-54
990.030	-1356
990.110	-611
990.190	-1550
990.269	-1385
990.349	-950
990.429	-897
990.509	-331
990.588	-837
990.668	-519
990.747	-1219
990.827	-672
990.907	-618
990.986	-1623
991.066	-566
991.145	-2142
991.225	-1047
991.304	-2458
991.383	-816
991.463	-1042
991.542	-453
991.622	-1276
991.701	-1562
991.780	-917
991.859	-1326
991.939	-657
992.018	-1129
992.097	-1082
992.176	-865
992.256	-993
992.335	-1425
992.414	-129
992.493	-1526
992.572	-1044
992.651	-1025
992.730	-1079
992.809	-1102
992.888	-1015
992.967	-1362
993.046	-247
993.125	-1478
993.203	-1010
993.282	-785
993.361	-1287
993.440	-986
993.519	-1631
993.597	-1090
993.676	-1882
993.755	-1072
993.834	-695
993.912	-1452
993.991	-219
994.069	-1661
994.148	-1245
994.226	-1195
994.305	-1150
994.384	-972
994.462	-490
994.540	-2390
994.619	-1785
994.697	-1115
994.776	-1468
994.854	-477
994.932	-1081
995.011	-1280
995.089	-1626
995.167	-372
995.245	-1691
995.324	-1539
995.402	-1127
995.480	-1647
995.558	-1496
995.636	-1796
995.714	-1810
995.792	184
995.870	-2016
995.948	-2242
996.026	-976
996.104	-2041
996.182	-588
996.260	-1510
996.338	-1158
996.416	-1967
996.494	-1487
996.572	-626
996.649	-1179
996.727	-2226
996.805	-644
996.883	-1725
996.960	-1126
997.038	-831
997.116	-1328
997.193	-1928
997.271	-1180
997.348	-699
997.426	-1188
997.504	-1924
997.581	-715
997.658	-708
997.736	-1657
997.813	-1395
997.891	-273
997.968	-1232
998.046	-956
998.123	-1503
998.200	-1120
998.277	-1466
998.355	-905
998.432	-2119
998.509	-777
998.586	-1190
998.663	-1275
998.741	-1349
998.818	-1788
998.895	-1844
998.972	-1070
999.049	-1035
999.126	-2357
999.203	-732
999.280	-673
999.357	-2136
999.434	-1392
999.511	-780
999.587	216
999.664	-1129
999.741	-854
999.818	-304
999.895	-1643
999.971	-1080
1000.048	-561
1000.125	-1411
1000.202	-1724
1000.278	-2123
1000.355	-311
1000.431	-2236
1000.508	-1775
1000.584	-1085
1000.661	-874
1000.738	-1209
1000.814	-1586
1000.890	-2000
1000.967	-1977
1001.043	-1105
1001.120	-2179
1001.196	-1273
1001.272	-1851
1001.349	-1145
1001.425	-1637
1001.501	-1814
1001.577	-1931
1001.654	-1538
1001.730	-1560
1001.806	-1092
1001.882	-2557
1001.958	-812
1002.034	-1191
1002.110	-1152
1002.186	-1903
1002.262	-1610
1002.338	-1525
1002.414	-1062
1002.490	-962
1002.566	-1066
1002.642	-2271
1002.718	-1175
1002.794	-1324
1002.870	-856
1002.945	-1395
1003.021	-1284
1003.097	-2183
1003.173	-545
1003.248	-1799
1003.324	-2043
1003.400	-1487
1003.475	-2319
1003.551	-1038
1003.626	-1140
1003.702	-2038
1003.777	-1083
1003.853	-2016
1003.928	-1605
1004.004	-1804
1004.079	-559
1004.155	-1321
1004.230	-1805
1004.305	-620
1004.381	-1909
1004.456	-1965
1004.531	-1341
1004.607	-1935
1004.682	-1830
1004.757	-1476
1004.832	-914
1004.907	-1248
1004.982	-1322
1005.057	-1251
1005.133	-1892
1005.208	-1430
1005.283	-1451
1005.358	-1988
1005.433	-1207
1005.508	-1453
1005.583	-2441
1005.657	-1130
1005.732	-1137
1005.807	-2243
1005.882	-1467
1005.957	-856
1006.032	-814
1006.106	-1779
1006.181	-1723
1006.256	-513
1006.331	-1899
1006.405	-1482
1006.480	-1169
1006.554	-1913
1006.629	-1042
1006.704	-1370
1006.778	-2010
1006.853	-849
1006.927	-1804
1007.002	-1659
1007.076	-1251
1007.150	-1633
1007.225	-1453
1007.299	-1634
1007.373	-2358
1007.448	-1619
1007.522	-1341
1007.596	-1912
1007.671	-1799
1007.745	-1515
1007.819	-2165
1007.893	-1244
1007.967	-902
1008.041	-2212
1008.115	-412
1008.190	-1945
1008.264	-1150
1008.338	-2460
1008.412	-1715
1008.486	-868
1008.560	-1200
1008.633	-1886
1008.707	-1372
1008.781	-132
1008.855	-1220
1008.929	-1156
1009.003	-1499
1009.076	-1945
1009.150	-1535
1009.224	-2381
1009.298	-694
1009.371	-2447
1009.445	-1563
1009.519	-1360
1009.592	-2269
1009.666	-1254
1009.739	-962
1009.813	-2558
1009.886	-1112
1009.960	-1957
1010.033	-1684
1010.107	-1523
1010.180	-2708
1010.253	-2018
1010.327	-1942
1010.400	-2125
1010.473	-1508
1010.547	-989
1010.620	-1695
1010.693	-1610
1010.766	-1899
1010.840	-973
1010.913	-1083
1010.986	-2107
1011.059	-1198
1011.132	-1927
1011.205	-738
1011.278	-1396
1011.351	-1406
1011.424	-1584
1011.497	-2314
1011.570	-1436
1011.643	-2328
1011.716	-1674
1011.789	-2191
1011.862	-1685
1011.934	-1265
1012.007	-2086
1012.080	-1960
1012.153	-1510
1012.225	-1972
1012.298	-2329
1012.371	-1934
1012.443	-1623
1012.516	-2195
1012.588	-1455
1012.661	-1259
1012.733	-1593
1012.806	-849
1012.879	-1831
1012.951	-1773
1013.023	-1469
1013.096	-1304
1013.168	-1767
1013.241	-1370
1013.313	-2239
1013.385	-2001
1013.458	-2082
1013.530	-123
1013.602	-2524
1013.674	-1559
1013.746	-3324
1013.819	-2096
1013.891	-860
1013.963	-2054
1014.035	-1704
1014.107	-1636
1014.179	-2262
1014.251	-1522
1014.323	-939
1014.395	-1908
1014.467	-1597
1014.539	-1764
1014.611	-2087
1014.683	-1689
1014.754	-1375
1014.826	-2121
1014.898	-2322
1014.970	-1916
1015.042	-1319
1015.113	-1468
1015.185	-2010
1015.257	-1975
1015.328	-1672
1015.400	-1822
1015.471	-2046
1015.543	-2170
1015.615	-1803
1015.686	-1960
1015.757	-1237
1015.829	-1138
1015.901	-2080
1015.972	-2014
1016.043	-1440
1016.115	-1787
1016.186	-1364
1016.257	-2214
1016.328	-1488
1016.400	-298
1016.471	-2606
1016.542	-1719
1016.613	-1447
1016.685	-2042
1016.756	-1347
1016.827	-1716
1016.898	-2247
1016.969	-896
1017.040	-1102
1017.111	-2390
1017.182	-2418
1017.253	-1324
1017.324	-2316
1017.395	-1745
1017.466	-2173
1017.537	-2385
1017.608	-1541
1017.678	-1677
1017.749	-2071
1017.820	-1610
1017.891	-1886
1017.961	-1724
1018.032	-2119
1018.103	-1373
1018.173	-878
1018.244	-2692
1018.315	-1675
1018.385	-1519
1018.456	-2098
1018.526	-1921
1018.597	-1851
1018.667	-1721
1018.738	-2589
1018.808	-2126
1018.878	-2189
1018.949	-2443
1019.019	-1774
1019.089	-1611
1019.160	-2067
1019.230	-2378
1019.300	-1167
1019.371	-2575
1019.441	-1574
1019.511	-1837
1019.581	-1852
1019.651	-2199
1019.721	-2083
1019.791	-2361
1019.861	-1619
1019.931	-1475
1020.001	-1529
1020.071	-2146
1020.141	-2059
1020.211	-1803
1020.281	-2365
1020.351	-2061
1020.421	-1703
1020.491	-1602
1020.560	-2471
1020.630	-1606
1020.700	-1897
1020.770	-2034
1020.839	-1923
1020.909	-1974
1020.979	-1811
1021.048	-2288
1021.118	-2506
1021.187	-2305
1021.257	-2605
1021.326	-1211
1021.396	-2221
1021.465	-1778
1021.535	-2313
1021.604	-2203
1021.674	-2195
1021.743	-1366
1021.812	-1888
1021.882	-2074
1021.951	-1875
1022.020	-2247
1022.089	-1989
1022.159	-1695
1022.228	-1808
1022.297	-2157
1022.366	-1930
1022.435	-1933
1022.504	-1728
1022.573	-2457
1022.642	-1757
1022.711	-2776
1022.781	-2250
1022.849	-1361
1022.918	-2473
1022.987	-2367
1023.056	-2715
1023.125	-1966
1023.194	-1898
1023.263	-2255
1023.331	-2102
1023.400	-1751
1023.469	-2472
1023.538	-1917
1023.606	-2326
1023.675	-2096
1023.744	-2444
1023.812	-2274
1023.881	-2130
1023.949	-2533
1024.018	-2148
1024.086	-2419
1024.155	-2369
1024.223	-2558
1024.292	-1840
1024.360	-1998
1024.429	-1282
1024.497	-2669
1024.565	-1927
1024.634	-1883
1024.702	-2264
1024.770	-1880
1024.838	-2491
1024.907	-1523
1024.975	-2494
1025.043	-1893
1025.111	-2524
1025.179	-1702
1025.247	-1692
1025.315	-1682
1025.383	-2273
1025.451	-2515
1025.519	-1873
1025.587	-2261
1025.655	-1547
1025.723	-2570
1025.791	-2324
1025.859	-1793
1025.927	-1671
1025.995	-2557
1026.062	-2128
1026.130	-1519
1026.198	-2846
1026.266	-2471
1026.333	-1413
1026.401	-1669
1026.469	-1745
1026.536	-1668
1026.604	-2370
1026.671	-2252
1026.739	-2312
1026.806	-2136
1026.874	-2408
1026.941	-2439
1027.009	-2440
1027.076	-2076
1027.144	-1787
1027.211	-1941
1027.278	-2872
1027.345	-1762
1027.413	-2126
1027.480	-2161
1027.547	-2632
1027.614	-2262
1027.682	-2208
1027.749	-2681
1027.816	-2679
1027.883	-1399
1027.950	-1459
1028.017	-2677
1028.084	-2496
1028.151	-2515
1028.218	-1717
1028.285	-2248
1028.352	-2597
1028.419	-2637
1028.486	-2185
1028.553	-1624
1028.619	-2909
1028.686	-2021
1028.753	-1887
1028.820	-2375
1028.886	-2010
1028.953	-2919
1029.020	-2381
1029.086	-2298
1029.153	-2804
1029.220	-2275
1029.286	-2306
1029.353	-2329
1029.419	-2417
1029.486	-2582
1029.552	-1854
1029.619	-1768
1029.685	-2247
1029.751	-1868
1029.818	-1959
1029.884	-2030
1029.951	-1556
1030.017	-2609
1030.083	-3267
1030.149	-1898
1030.216	-2804
1030.282	-2050
1030.348	-1770
1030.414	-2248
1030.480	-2437
1030.546	-2578
1030.612	-1854
1030.678	-2172
1030.744	-2371
1030.810	-2469
1030.876	-2329
1030.942	-2438
1031.008	-1850
1031.074	-1853
1031.140	-1926
1031.206	-1920
1031.272	-2568
1031.337	-1773
1031.403	-2457
1031.469	-2720
1031.534	-1838
1031.600	-2398
1031.666	-2404
1031.731	-2031
1031.797	-1629
1031.863	-2184
1031.928	-2824
1031.994	-3082
1032.059	-1911
1032.125	-2097
1032.190	-2260
1032.256	-1639
1032.321	-3256
1032.386	-2259
1032.452	-2698
1032.517	-2466
1032.582	-2051
1032.647	-1936
1032.713	-2258
1032.778	-2441
1032.843	-2644
1032.908	-3622
1032.974	-2972
1033.039	-2003
1033.104	-1759
1033.169	-1541
1033.234	-2554
1033.299	-2188
1033.364	-1790
1033.429	-2819
1033.494	-2424
1033.559	-2365
1033.624	-3405
1033.688	-1902
1033.753	-2188
1033.818	-2031
1033.883	-1790
1033.948	-3026
1034.013	-2439
1034.077	-1776
1034.142	-2113
1034.207	-1932
1034.271	-2375
1034.336	-1110
1034.400	-2070
1034.465	-2589
1034.530	-2422
1034.594	-2575
1034.658	-1560
1034.723	-2271
1034.787	-2070
1034.852	-1883
1034.916	-2423
1034.981	-2649
1035.045	-2145
1035.109	-2706
1035.173	-2514
1035.238	-1986
1035.302	-2323
1035.366	-2132
1035.430	-1641
1035.495	-2522
1035.559	-2002
1035.623	-1617
1035.687	-2096
1035.751	-2197
1035.815	-3505
1035.879	-2196
1035.943	-2955
1036.007	-2275
1036.071	-2088
1036.135	-2359
1036.198	-2574
1036.262	-2253
1036.326	-2227
1036.390	-2373
1036.454	-2389
1036.517	-2581
1036.581	-1942
1036.645	-2003
1036.709	-1958
1036.772	-2490
1036.836	-2238
1036.900	-1907
1036.963	-2255
1037.026	-2162
1037.090	-2429
1037.154	-2863
1037.217	-1537
1037.280	-2010
1037.344	-2815
1037.407	-2122
1037.471	-2827
1037.534	-2154
1037.597	-2374
1037.661	-2517
1037.724	-2023
1037.787	-2943
1037.850	-2191
1037.913	-2488
1037.977	-2300
1038.040	-2962
1038.103	-2438
1038.166	-2052
1038.229	-3008
1038.292	-2497
1038.355	-2380
1038.418	-1974
1038.481	-2357
1038.544	-2124
1038.607	-2050
1038.670	-3019
1038.732	-2611
1038.795	-2653
1038.858	-2538
1038.921	-2629
1038.984	-2571
1039.046	-2864
1039.109	-2226
1039.172	-2001
1039.234	-2125
1039.297	-2429
1039.360	-2372
1039.422	-2295
1039.485	-2023
1039.547	-2782
1039.610	-1799
1039.672	-2203
1039.734	-2077
1039.797	-1874
1039.859	-2341
1039.922	-2890
1039.984	-2365
1040.046	-2346
1040.109	-2828
1040.171	-2699
1040.233	-2618
1040.295	-2808
1040.358	-2429
1040.420	-2004
1040.482	-1622
1040.544	-2162
1040.606	-2324
1040.668	-1941
1040.730	-1902
1040.792	-1766
1040.854	-1567
1040.916	-1886
1040.978	-2301
1041.040	-1138
1041.102	-1562
1041.164	-2565
1041.225	-2981
1041.287	-3127
1041.349	-2450
1041.411	-2129
1041.472	-1905
1041.534	-2426
1041.596	-2199
1041.657	-1794
1041.719	-2031
1041.781	-2280
1041.842	-1777
1041.904	-2019
1041.965	-3021
1042.027	-2965
1042.088	-2587
1042.150	-2124
1042.211	-1943
1042.272	-2232
1042.334	-2480
1042.395	-1709
1042.456	-2723
1042.518	-1978
1042.579	-1616
1042.640	-2453
1042.701	-2154
1042.763	-2380
1042.824	-2673
1042.885	-2738
1042.946	-2847
1043.007	-2105
1043.068	-2672
1043.129	-2329
1043.190	-1326
1043.251	-1618
1043.312	-2420
1043.373	-2040
1043.434	-2357
1043.495	-2049
1043.556	-2119
1043.616	-2537
1043.677	-2237
1043.738	-2150
1043.799	-2400
1043.859	-2326
1043.920	-2248
1043.981	-2924
1044.041	-1605
1044.102	-2042
1044.162	-2735
1044.223	-2944
1044.284	-2348
1044.344	-2482
1044.405	-2553
1044.465	-2796
1044.525	-1836
1044.586	-2008
1044.646	-2526
1044.707	-1714
1044.767	-2110
1044.827	-2153
1044.887	-2280
1044.948	-2154
1045.008	-1741
1045.068	-2353
1045.128	-1976
1045.188	-1917
1045.249	-2039
1045.309	-1830
1045.369	-2332
1045.429	-2188
1045.489	-2666
1045.549	-1735
1045.609	-2037
1045.669	-1747
1045.729	-1798
1045.789	-2294
1045.848	-2537
1045.908	-1847
1045.968	-1483
1046.028	-2158
1046.088	-1801
1046.147	-1215
1046.207	-2357
1046.267	-1822
1046.326	-1323
1046.386	-2015
1046.446	-1657
1046.505	-1404
1046.565	-1003
1046.624	-936
1046.684	-1338
1046.743	-1409
1046.803	-691
1046.862	-855
1046.922	0
